time,seconds_elapsed,z,y,x
1772628356138749700,0.036749755859375,-0.6700897216796875,-0.37567138671875,0.0788726806640625
1772628356148680400,0.046680419921875,-0.609130859375,-0.3875274658203125,0.0675811767578125
1772628356158612500,0.056612548828125,-0.7303619384765625,-0.4086456298828125,0.0028228759765625
1772628356168544500,0.06654443359375,-0.882568359375,-0.4587249755859375,-0.0542755126953125
1772628356178475500,0.0764755859375,-0.916595458984375,-0.4441070556640625,-0.0021820068359375
1772628356188407300,0.0864072265625,-0.839141845703125,-0.389617919921875,0.0609130859375
1772628356198339600,0.096339599609375,-0.771148681640625,-0.3629608154296875,0.095062255859375
1772628356208270600,0.1062705078125,-0.7825927734375,-0.370147705078125,0.0843505859375
1772628356218202600,0.11620263671875,-0.8587799072265625,-0.38470458984375,0.0821990966796875
1772628356228134700,0.126134765625,-0.923614501953125,-0.379119873046875,0.0802459716796875
1772628356238065400,0.1360654296875,-0.9544677734375,-0.3577117919921875,0.0615386962890625
1772628356247997400,0.14599755859375,-0.9932403564453125,-0.3396759033203125,0.0628662109375
1772628356257929500,0.155929443359375,-1.0408172607421875,-0.3262176513671875,0.05084228515625
1772628356267861500,0.165861572265625,-1.07379150390625,-0.336761474609375,0.0388031005859375
1772628356277792500,0.17579248046875,-1.0736846923828125,-0.3501129150390625,0.048919677734375
1772628356287724500,0.185724609375,-1.03448486328125,-0.347259521484375,0.0537872314453125
1772628356297656600,0.195656494140625,-0.990997314453125,-0.3275299072265625,0.0425872802734375
1772628356307587600,0.205587646484375,-0.9308319091796875,-0.322174072265625,0.0439453125
1772628356317519400,0.215519287109375,-0.888702392578125,-0.32861328125,0.0255279541015625
1772628356327451400,0.225451416015625,-0.877655029296875,-0.34295654296875,-0.013092041015625
1772628356337382700,0.235382568359375,-0.9082489013671875,-0.363372802734375,0.01031494140625
1772628356347314700,0.245314697265625,-0.8919677734375,-0.3592071533203125,0.0303955078125
1772628356357246700,0.255246826171875,-0.8945770263671875,-0.3233642578125,0.0514373779296875
1772628356367177500,0.265177490234375,-0.9379119873046875,-0.3249969482421875,0.08905029296875
1772628356377109500,0.275109619140625,-0.967498779296875,-0.3605804443359375,0.1300811767578125
1772628356387041500,0.28504150390625,-0.965301513671875,-0.391143798828125,0.1375274658203125
1772628356396972500,0.29497265625,-0.958984375,-0.4320068359375,0.1130218505859375
1772628356406904600,0.304904541015625,-1.014434814453125,-0.385345458984375,0.13897705078125
1772628356416836600,0.314836669921875,-0.9976654052734375,-0.3264923095703125,0.13043212890625
1772628356426767600,0.324767578125,-0.9797515869140625,-0.3248138427734375,0.101806640625
1772628356436699600,0.33469970703125,-0.98828125,-0.35870361328125,0.096893310546875
1772628356446631400,0.34463134765625,-0.9952545166015625,-0.372802734375,0.0831146240234375
1772628356456562400,0.3545625,-0.9906158447265625,-0.372650146484375,0.0784912109375
1772628356466494500,0.364494384765625,-0.969207763671875,-0.363677978515625,0.0761871337890625
1772628356476426500,0.374426513671875,-0.9365081787109375,-0.3604736328125,0.0586090087890625
1772628356486357500,0.384357421875,-0.9205474853515625,-0.3814239501953125,0.0292205810546875
1772628356496289500,0.39428955078125,-0.9168548583984375,-0.396209716796875,0.0131072998046875
1772628356506221600,0.4042216796875,-0.90692138671875,-0.38775634765625,0.02337646484375
1772628356516152600,0.414152587890625,-0.9095611572265625,-0.3655853271484375,0.075439453125
1772628356526084400,0.42408447265625,-0.8549346923828125,-0.382049560546875,0.07720947265625
1772628356536016400,0.434016357421875,-0.8334808349609375,-0.392303466796875,0.07177734375
1772628356545948400,0.443948486328125,-0.8566131591796875,-0.4036407470703125,0.0958099365234375
1772628356555879700,0.453879638671875,-0.8557586669921875,-0.420379638671875,0.100006103515625
1772628356565811700,0.463811767578125,-0.8595733642578125,-0.4088134765625,0.0924072265625
1772628356575743500,0.473743408203125,-0.880584716796875,-0.404449462890625,0.069854736328125
1772628356585674500,0.483674560546875,-0.9010162353515625,-0.39996337890625,0.059326171875
1772628356595606000,0.49360595703125,-0.913848876953125,-0.38134765625,0.0514984130859375
1772628356605538000,0.5035380859375,-0.8881988525390625,-0.395751953125,0.0014190673828125
1772628356615469000,0.513468994140625,-0.910064697265625,-0.3945770263671875,-0.005096435546875
1772628356625401000,0.523401123046875,-0.9467010498046875,-0.3959503173828125,0.004974365234375
1772628356635333000,0.5333330078125,-0.9610748291015625,-0.397613525390625,0.0143890380859375
1772628356645264100,0.54326416015625,-0.9680633544921875,-0.37005615234375,0.0737762451171875
1772628356655196000,0.55319580078125,-0.867156982421875,-0.3342742919921875,0.1792755126953125
1772628356665128000,0.5631279296875,-0.7849273681640625,-0.34466552734375,0.142120361328125
1772628356675059200,0.57305908203125,-0.6888885498046875,-0.421417236328125,0.009765625
1772628356684991200,0.5829912109375,-0.6114654541015625,-0.4765625,-0.05902099609375
1772628356694923000,0.592923095703125,-0.6288604736328125,-0.4658355712890625,-0.0873260498046875
1772628356704854000,0.60285400390625,-0.7194061279296875,-0.40350341796875,-0.041534423828125
1772628356714786000,0.6127861328125,-0.7811279296875,-0.383575439453125,-0.0472869873046875
1772628356724718000,0.622718017578125,-0.7964630126953125,-0.365509033203125,-0.0238189697265625
1772628356734650000,0.632650146484375,-0.820556640625,-0.35113525390625,0.000274658203125
1772628356744580900,0.642580810546875,-0.802459716796875,-0.311676025390625,0.131134033203125
1772628356754513200,0.65251318359375,-0.7185821533203125,-0.31005859375,0.1341705322265625
1772628356764445200,0.662445068359375,-0.6886138916015625,-0.339599609375,0.0570831298828125
1772628356774376000,0.6723759765625,-0.6639404296875,-0.3597564697265625,0.002227783203125
1772628356784308000,0.682307861328125,-0.6351165771484375,-0.362579345703125,-0.033050537109375
1772628356794240000,0.692239990234375,-0.6334991455078125,-0.3712921142578125,-0.0884857177734375
1772628356804171000,0.7021708984375,-0.670501708984375,-0.3940277099609375,-0.1094207763671875
1772628356814103000,0.71210302734375,-0.7227325439453125,-0.4013214111328125,-0.0449676513671875
1772628356824034800,0.722034912109375,-0.761016845703125,-0.42181396484375,0.0269927978515625
1772628356833966000,0.731966064453125,-0.77923583984375,-0.35980224609375,0.144195556640625
1772628356843898000,0.741898193359375,-0.78436279296875,-0.3124237060546875,0.1593475341796875
1772628356853830100,0.751830078125,-0.821746826171875,-0.29345703125,0.11761474609375
1772628356863761000,0.761760986328125,-0.89154052734375,-0.273834228515625,0.0792694091796875
1772628356873693000,0.77169287109375,-0.9402618408203125,-0.25128173828125,0.0562591552734375
1772628356883625000,0.781625,-0.9743804931640625,-0.2082366943359375,0.055419921875
1772628356893557000,0.791556884765625,-0.954437255859375,-0.18994140625,0.09503173828125
1772628356903488000,0.801488037109375,-0.934295654296875,-0.2619781494140625,0.1067047119140625
1772628356913420000,0.811419921875,-0.9661865234375,-0.33111572265625,0.13568115234375
1772628356923352000,0.82135205078125,-1.0132293701171875,-0.3329315185546875,0.1438751220703125
1772628356933283000,0.831282958984375,-1.0297088623046875,-0.3370513916015625,0.18072509765625
1772628356943215000,0.841215087890625,-1.0403900146484375,-0.364532470703125,0.164642333984375
1772628356953147000,0.85114697265625,-1.07373046875,-0.3330078125,0.0957489013671875
1772628356963078100,0.861078125,-1.055694580078125,-0.2447662353515625,0.02685546875
1772628356973010200,0.87101025390625,-1.003173828125,-0.209686279296875,-0.0332794189453125
1772628356982942200,0.880942138671875,-0.9638214111328125,-0.2042388916015625,-0.03106689453125
1772628356992873000,0.890873046875,-0.925567626953125,-0.23065185546875,0.0455474853515625
1772628357002805000,0.900804931640625,-0.8919677734375,-0.271240234375,0.12786865234375
1772628357012737000,0.910737060546875,-0.8548736572265625,-0.2918853759765625,0.1543121337890625
1772628357022668000,0.92066796875,-0.79718017578125,-0.2909698486328125,0.1425323486328125
1772628357032599800,0.930599853515625,-0.7899627685546875,-0.2628173828125,0.1398468017578125
1772628357042531800,0.94053173828125,-0.83953857421875,-0.241851806640625,0.1263885498046875
1772628357052463000,0.950463134765625,-0.9016265869140625,-0.2393798828125,0.1125946044921875
1772628357062395100,0.96039501953125,-0.9516754150390625,-0.21624755859375,0.135528564453125
1772628357072327200,0.9703271484375,-0.9767303466796875,-0.1624603271484375,0.0966339111328125
1772628357082259000,0.980259033203125,-1.0257415771484375,-0.1211700439453125,0.0454864501953125
1772628357092190000,0.99018994140625,-1.0833282470703125,-0.0854339599609375,0.0446624755859375
1772628357102122000,1.0001220703125,-1.14654541015625,-0.09661865234375,0.06640625
1772628357112054000,1.010053955078125,-1.1460113525390625,-0.1599884033203125,0.12615966796875
1772628357121985000,1.019985107421875,-1.0845947265625,-0.1696624755859375,0.181976318359375
1772628357131917000,1.0299169921875,-1.031646728515625,-0.164093017578125,0.17791748046875
1772628357141849000,1.03984912109375,-1.0091552734375,-0.1763458251953125,0.1221160888671875
1772628357151780000,1.049780029296875,-1.006256103515625,-0.16357421875,0.0612030029296875
1772628357161711900,1.0597119140625,-1.0178070068359375,-0.1277008056640625,0.03021240234375
1772628357171644000,1.069643798828125,-1.0345001220703125,-0.1303558349609375,0.0411224365234375
1772628357181575200,1.0795751953125,-1.0580596923828125,-0.145782470703125,0.1160888671875
1772628357191507200,1.089507080078125,-1.099578857421875,-0.1688385009765625,0.2034759521484375
1772628357201439200,1.099439208984375,-1.096893310546875,-0.2100982666015625,0.2039337158203125
1772628357211370000,1.109369873046875,-1.0311737060546875,-0.2197113037109375,0.1782073974609375
1772628357221302000,1.119302001953125,-0.9587249755859375,-0.20416259765625,0.1454620361328125
1772628357231234000,1.129234130859375,-0.9314727783203125,-0.1976776123046875,0.1107025146484375
1772628357241166000,1.139166015625,-0.956146240234375,-0.18505859375,0.111541748046875
1772628357251097000,1.14909716796875,-1.02587890625,-0.171234130859375,0.163818359375
1772628357261029000,1.159029052734375,-1.1009063720703125,-0.1619110107421875,0.2402191162109375
1772628357270961200,1.168961181640625,-1.16290283203125,-0.159515380859375,0.273773193359375
1772628357280892200,1.17889208984375,-1.1712799072265625,-0.17852783203125,0.2724761962890625
1772628357290824000,1.188823974609375,-1.10528564453125,-0.200439453125,0.2421875
1772628357300756000,1.198755859375,-1.01025390625,-0.2082977294921875,0.2083587646484375
1772628357310687000,1.20868701171875,-0.9370574951171875,-0.23486328125,0.1737213134765625
1772628357320619000,1.218618896484375,-0.897613525390625,-0.262939453125,0.1526031494140625
1772628357330551000,1.228551025390625,-0.8874969482421875,-0.2716522216796875,0.175689697265625
1772628357340482000,1.23848193359375,-0.8646240234375,-0.2880706787109375,0.20843505859375
1772628357350414000,1.2484140625,-0.8279266357421875,-0.2885284423828125,0.20916748046875
1772628357360346000,1.25834619140625,-0.81292724609375,-0.2802886962890625,0.21453857421875
1772628357370278100,1.268278076171875,-0.82659912109375,-0.2816162109375,0.239288330078125
1772628357380209000,1.278208984375,-0.8557586669921875,-0.2682952880859375,0.254180908203125
1772628357390141000,1.288140869140625,-0.9203948974609375,-0.258941650390625,0.3110809326171875
1772628357400073000,1.298072998046875,-0.9586334228515625,-0.2634735107421875,0.35784912109375
1772628357410004200,1.308004150390625,-0.95819091796875,-0.2457275390625,0.330596923828125
1772628357419936000,1.31793603515625,-0.941497802734375,-0.2263641357421875,0.247314453125
1772628357429868000,1.327867919921875,-0.927215576171875,-0.2188873291015625,0.163330078125
1772628357439799000,1.337799072265625,-0.9175262451171875,-0.225433349609375,0.1187591552734375
1772628357449731000,1.34773095703125,-0.906951904296875,-0.242645263671875,0.1212921142578125
1772628357459662800,1.357662841796875,-0.8574981689453125,-0.2794952392578125,0.1566619873046875
1772628357469594000,1.367593994140625,-0.7924957275390625,-0.29693603515625,0.2027130126953125
1772628357479526100,1.377526123046875,-0.7759552001953125,-0.3084259033203125,0.2354888916015625
1772628357489458200,1.387458251953125,-0.8176116943359375,-0.3251800537109375,0.2869720458984375
1772628357499389000,1.397388916015625,-0.8807830810546875,-0.335296630859375,0.323394775390625
1772628357509321000,1.407321044921875,-0.96197509765625,-0.3216400146484375,0.3589935302734375
1772628357519253000,1.4172529296875,-1.059173583984375,-0.30889892578125,0.3946990966796875
1772628357529184000,1.42718408203125,-1.132659912109375,-0.30615234375,0.34124755859375
1772628357539116000,1.437115966796875,-1.171051025390625,-0.281951904296875,0.2832183837890625
1772628357549048000,1.447048095703125,-1.199554443359375,-0.25244140625,0.25201416015625
1772628357558980000,1.45697998046875,-1.234130859375,-0.23626708984375,0.2059326171875
1772628357568911000,1.4669111328125,-1.262298583984375,-0.2200469970703125,0.186370849609375
1772628357578843100,1.476843017578125,-1.268646240234375,-0.215576171875,0.2009124755859375
1772628357588775000,1.48677490234375,-1.2445831298828125,-0.212554931640625,0.2380218505859375
1772628357598705700,1.49670556640625,-1.2037200927734375,-0.2182769775390625,0.3097686767578125
1772628357608637700,1.5066376953125,-1.141632080078125,-0.2404937744140625,0.33868408203125
1772628357618569700,1.51656982421875,-1.0401611328125,-0.261444091796875,0.3403778076171875
1772628357628500700,1.526500732421875,-0.9265899658203125,-0.27349853515625,0.3421630859375
1772628357638432800,1.536432861328125,-0.835540771484375,-0.28485107421875,0.3162689208984375
1772628357648364800,1.54636474609375,-0.7732086181640625,-0.2970428466796875,0.2635345458984375
1772628357658295600,1.556295654296875,-0.733551025390625,-0.29266357421875,0.212066650390625
1772628357668227600,1.5662275390625,-0.723388671875,-0.28741455078125,0.157257080078125
1772628357678159600,1.57615966796875,-0.74786376953125,-0.2788543701171875,0.11138916015625
1772628357688091600,1.586091552734375,-0.8101348876953125,-0.2618865966796875,0.12109375
1772628357698023000,1.59602294921875,-0.9012603759765625,-0.260162353515625,0.1616973876953125
1772628357707954700,1.60595458984375,-0.9782867431640625,-0.26947021484375,0.203582763671875
1772628357717886700,1.61588671875,-1.0047607421875,-0.2700042724609375,0.2389373779296875
1772628357727817700,1.625817626953125,-0.9979400634765625,-0.2793731689453125,0.2348480224609375
1772628357737749800,1.635749755859375,-0.954315185546875,-0.2993316650390625,0.2286834716796875
1772628357747681800,1.645681884765625,-0.9076385498046875,-0.3046112060546875,0.2212371826171875
1772628357757612800,1.65561279296875,-0.8856201171875,-0.3007354736328125,0.19769287109375
1772628357767544800,1.665544921875,-0.9017181396484375,-0.294769287109375,0.1917572021484375
1772628357777476900,1.675476806640625,-0.9496002197265625,-0.2899932861328125,0.1987762451171875
1772628357787407600,1.68540771484375,-1.0073089599609375,-0.2732086181640625,0.2160491943359375
1772628357797339600,1.695339599609375,-1.061279296875,-0.255950927734375,0.2510833740234375
1772628357807271700,1.705271728515625,-1.09564208984375,-0.2560882568359375,0.2566070556640625
1772628357817202700,1.71520263671875,-1.085906982421875,-0.256988525390625,0.2319183349609375
1772628357827134700,1.725134765625,-1.0311431884765625,-0.248504638671875,0.20037841796875
1772628357837066800,1.735066650390625,-0.9813690185546875,-0.240814208984375,0.160430908203125
1772628357846998800,1.744998779296875,-0.9500732421875,-0.2365264892578125,0.1412200927734375
1772628357856929800,1.7549296875,-0.9421539306640625,-0.233856201171875,0.165435791015625
1772628357866861800,1.76486181640625,-0.95758056640625,-0.237548828125,0.185699462890625
1772628357876793600,1.774793701171875,-0.9829254150390625,-0.2401123046875,0.21917724609375
1772628357886724600,1.784724609375,-0.9981689453125,-0.244384765625,0.2501678466796875
1772628357896656600,1.79465673828125,-1.0128936767578125,-0.2516937255859375,0.2499237060546875
1772628357906588700,1.804588623046875,-1.0070648193359375,-0.2530670166015625,0.240875244140625
1772628357916519700,1.814519775390625,-0.99310302734375,-0.2391815185546875,0.2255706787109375
1772628357926451700,1.82445166015625,-0.9835205078125,-0.2171783447265625,0.219696044921875
1772628357936383700,1.8343837890625,-0.979095458984375,-0.201995849609375,0.2131195068359375
1772628357946314800,1.844314697265625,-0.9786834716796875,-0.2019500732421875,0.2056884765625
1772628357956246800,1.854246826171875,-0.99310302734375,-0.20330810546875,0.2112884521484375
1772628357966178600,1.864178466796875,-1.039154052734375,-0.200927734375,0.2244873046875
1772628357976110600,1.874110595703125,-1.111724853515625,-0.213409423828125,0.2464599609375
1772628357986041900,1.884041748046875,-1.1826171875,-0.2171783447265625,0.2843780517578125
1772628357995974000,1.893973876953125,-1.225433349609375,-0.2171478271484375,0.328948974609375
1772628358005905700,1.90390576171875,-1.2318572998046875,-0.224456787109375,0.3621673583984375
1772628358015836700,1.913836669921875,-1.2296295166015625,-0.2281494140625,0.391021728515625
1772628358025768700,1.923768798828125,-1.236358642578125,-0.2160797119140625,0.405487060546875
1772628358035700700,1.93370068359375,-1.22552490234375,-0.182281494140625,0.3964080810546875
1772628358045631700,1.9436318359375,-1.1888885498046875,-0.1197357177734375,0.359375
1772628358055563800,1.953563720703125,-1.1453857421875,-0.0482940673828125,0.346923828125
1772628358065495800,1.963495849609375,-1.084320068359375,-0.00390625,0.3702239990234375
1772628358075426800,1.9734267578125,-0.976531982421875,0.001678466796875,0.340972900390625
1772628358085358800,1.98335888671875,-0.861724853515625,-0.002960205078125,0.310089111328125
1772628358095290600,1.99329052734375,-0.7708740234375,-0.0148773193359375,0.274688720703125
1772628358105222700,2.00322265625,-0.732513427734375,-0.0136260986328125,0.2462310791015625
1772628358115153700,2.013153564453125,-0.7570037841796875,-0.0022125244140625,0.2285003662109375
1772628358125086000,2.0230859375,-0.8229522705078125,0.0175933837890625,0.225799560546875
1772628358135017700,2.033017822265625,-0.89080810546875,0.040740966796875,0.22760009765625
1772628358144948700,2.04294873046875,-0.9118499755859375,0.0594024658203125,0.1925201416015625
1772628358154880800,2.052880859375,-0.8917236328125,0.080810546875,0.1434326171875
1772628358164812800,2.062812744140625,-0.86767578125,0.1068572998046875,0.1173248291015625
1772628358174743600,2.07274365234375,-0.8578338623046875,0.1101837158203125,0.0930023193359375
1772628358184675600,2.082675537109375,-0.8604888916015625,0.1068267822265625,0.0664825439453125
1772628358194607600,2.092607666015625,-0.8750152587890625,0.10748291015625,0.0587005615234375
1772628358204539000,2.102538818359375,-0.885711669921875,0.0934906005859375,0.037078857421875
1772628358214470700,2.112470703125,-0.8937225341796875,0.0806732177734375,0.0225067138671875
1772628358224402700,2.122402587890625,-0.9120025634765625,0.0727386474609375,0.048980712890625
1772628358234334700,2.132334716796875,-0.933990478515625,0.0577239990234375,0.098541259765625
1772628358244265700,2.142265625,-0.9503936767578125,0.0435943603515625,0.1460113525390625
1772628358254197800,2.15219775390625,-0.9635162353515625,0.026580810546875,0.18603515625
1772628358264129500,2.162129638671875,-0.9708709716796875,0.0051116943359375,0.2280120849609375
1772628358274060800,2.172060791015625,-0.966400146484375,-0.0008544921875,0.2753143310546875
1772628358283992800,2.181992919921875,-0.9863433837890625,-0.00311279296875,0.34014892578125
1772628358293924900,2.1919248046875,-1.0092010498046875,-0.0185394287109375,0.375274658203125
1772628358303855600,2.201855712890625,-1.0132598876953125,-0.022918701171875,0.377197265625
1772628358313787600,2.21178759765625,-1.0362091064453125,-0.026214599609375,0.3527374267578125
1772628358323719700,2.2217197265625,-1.062835693359375,-0.0272369384765625,0.2958984375
1772628358333651000,2.23165087890625,-1.072967529296875,-0.01104736328125,0.24639892578125
1772628358343582700,2.241582763671875,-1.065704345703125,0.0010528564453125,0.2062530517578125
1772628358353514800,2.2515146484375,-1.0493927001953125,0.0133056640625,0.1721343994140625
1772628358363445800,2.26144580078125,-1.0168609619140625,0.02056884765625,0.142578125
1772628358373377800,2.271377685546875,-0.9764862060546875,0.017181396484375,0.1076202392578125
1772628358383309800,2.281309814453125,-0.938568115234375,0.009521484375,0.0931396484375
1772628358393241600,2.29124169921875,-0.9182586669921875,0.00213623046875,0.100555419921875
1772628358403172600,2.301172607421875,-0.9115142822265625,-0.011322021484375,0.1110382080078125
1772628358413105000,2.31110498046875,-0.9192047119140625,-0.0272064208984375,0.1320037841796875
1772628358423037000,2.321036865234375,-0.9338531494140625,-0.03558349609375,0.1472320556640625
1772628358432967700,2.3309677734375,-0.941619873046875,-0.038055419921875,0.15911865234375
1772628358442899700,2.340899658203125,-0.940032958984375,-0.037078857421875,0.160888671875
1772628358452831700,2.350831787109375,-0.928070068359375,-0.02655029296875,0.148773193359375
1772628358462762800,2.3607626953125,-0.935638427734375,-0.0139617919921875,0.1400146484375
1772628358472694500,2.370694580078125,-0.9640045166015625,-0.008026123046875,0.146270751953125
1772628358482626600,2.38062646484375,-0.9917449951171875,-0.0048065185546875,0.147491455078125
1772628358492558600,2.39055859375,-1.0119476318359375,-0.0033111572265625,0.175811767578125
1772628358502489900,2.40048974609375,-1.0337066650390625,-0.0076446533203125,0.2195587158203125
1772628358512422000,2.410421875,-1.0321807861328125,-0.0149993896484375,0.25067138671875
1772628358522353700,2.420353759765625,-1.0154876708984375,-0.0196075439453125,0.2781524658203125
1772628358532284700,2.43028466796875,-0.9883270263671875,-0.027252197265625,0.2835845947265625
1772628358542216700,2.440216796875,-0.9633331298828125,-0.0381622314453125,0.2636871337890625
1772628358552148700,2.450148681640625,-0.933197021484375,-0.0452728271484375,0.2403411865234375
1772628358562079700,2.460079833984375,-0.9243011474609375,-0.04693603515625,0.2230987548828125
1772628358572011800,2.47001171875,-0.9320831298828125,-0.0540924072265625,0.2169647216796875
1772628358581943800,2.47994384765625,-0.9259796142578125,-0.0635223388671875,0.2165679931640625
1772628358591874800,2.489874755859375,-0.939697265625,-0.071746826171875,0.223968505859375
1772628358601807000,2.49980712890625,-0.955780029296875,-0.0726776123046875,0.2743988037109375
1772628358611739100,2.5097392578125,-0.98065185546875,-0.0768585205078125,0.3151397705078125
1772628358621671200,2.519671142578125,-0.993377685546875,-0.0820770263671875,0.3145904541015625
1772628358631602200,2.529602294921875,-0.986724853515625,-0.079437255859375,0.2940521240234375
1772628358641534200,2.5395341796875,-0.9798583984375,-0.07763671875,0.26080322265625
1772628358651466200,2.54946630859375,-0.981475830078125,-0.0736846923828125,0.224273681640625
1772628358661397200,2.559397216796875,-0.98126220703125,-0.0592498779296875,0.19769287109375
1772628358671329000,2.5693291015625,-0.984466552734375,-0.039215087890625,0.1717376708984375
1772628358681261000,2.579260986328125,-0.9960174560546875,-0.023040771484375,0.1362457275390625
1772628358691192000,2.589192138671875,-1.01123046875,-0.0025634765625,0.1129150390625
1772628358701124000,2.5991240234375,-1.028839111328125,0.01812744140625,0.118499755859375
1772628358711056100,2.60905615234375,-1.05255126953125,0.024322509765625,0.140594482421875
1772628358720987100,2.618987060546875,-1.0811309814453125,0.02069091796875,0.17486572265625
1772628358730919200,2.628919189453125,-1.0857391357421875,-0.011016845703125,0.202117919921875
1772628358740851200,2.638851318359375,-1.0616607666015625,-0.041229248046875,0.2099456787109375
1772628358750783200,2.648783203125,-1.024139404296875,-0.06878662109375,0.2337493896484375
1772628358760714000,2.6587138671875,-0.9761505126953125,-0.1137847900390625,0.267791748046875
1772628358770646000,2.66864599609375,-0.9391937255859375,-0.1611480712890625,0.310760498046875
1772628358780578000,2.678578125,-0.911224365234375,-0.199615478515625,0.3662261962890625
1772628358790509300,2.68850927734375,-0.90338134765625,-0.2183837890625,0.40936279296875
1772628358800441000,2.698441162109375,-0.910400390625,-0.208465576171875,0.4226837158203125
1772628358810373000,2.708373046875,-0.9232940673828125,-0.176727294921875,0.4069061279296875
1772628358820304100,2.71830419921875,-0.9490814208984375,-0.1446990966796875,0.369171142578125
1772628358830236200,2.728236083984375,-0.9826507568359375,-0.12255859375,0.3307342529296875
1772628358840168000,2.73816796875,-1.0319976806640625,-0.0971527099609375,0.3050384521484375
1772628358850100000,2.748099853515625,-1.0875396728515625,-0.069305419921875,0.26702880859375
1772628358860031200,2.75803125,-1.1294403076171875,-0.0377655029296875,0.2218475341796875
1772628358869963300,2.76796337890625,-1.1511993408203125,-0.001007080078125,0.16119384765625
1772628358879895300,2.777895263671875,-1.1653289794921875,0.030517578125,0.1251068115234375
1772628358889826000,2.787825927734375,-1.192138671875,0.060150146484375,0.1352081298828125
1772628358899758000,2.797758056640625,-1.219635009765625,0.0903167724609375,0.13922119140625
1772628358909690000,2.807690185546875,-1.2434539794921875,0.11346435546875,0.134918212890625
1772628358919621000,2.81762109375,-1.2647705078125,0.11004638671875,0.1409149169921875
1772628358929553200,2.82755322265625,-1.2559814453125,0.09100341796875,0.15325927734375
1772628358939485200,2.837485107421875,-1.2277679443359375,0.0739898681640625,0.1810455322265625
1772628358949417200,2.847417236328125,-1.1776123046875,0.0668487548828125,0.1756591796875
1772628358959348200,2.85734814453125,-1.1153717041015625,0.079620361328125,0.1429595947265625
1772628358969280000,2.867280029296875,-1.0450897216796875,0.0983734130859375,0.09893798828125
1772628358979212000,2.8772119140625,-0.9820098876953125,0.112701416015625,0.065338134765625
1772628358989143000,2.88714306640625,-0.9220733642578125,0.11114501953125,0.05303955078125
1772628358999075000,2.897074951171875,-0.856353759765625,0.0965728759765625,0.0799560546875
1772628359009007000,2.907007080078125,-0.79736328125,0.068023681640625,0.1449432373046875
1772628359018938000,2.916938232421875,-0.7373809814453125,0.024871826171875,0.233184814453125
1772628359028870100,2.9268701171875,-0.6840667724609375,-0.0290069580078125,0.337554931640625
1772628359038802200,2.93680224609375,-0.653106689453125,-0.0847625732421875,0.4402618408203125
1772628359048733200,2.946733154296875,-0.6314697265625,-0.12353515625,0.52447509765625
1772628359058665000,2.9566650390625,-0.62506103515625,-0.120849609375,0.5876617431640625
1772628359068597000,2.966596923828125,-0.662200927734375,-0.1104888916015625,0.6197967529296875
1772628359078529000,2.976529052734375,-0.723907470703125,-0.089019775390625,0.6097412109375
1772628359088460300,2.986460205078125,-0.8007965087890625,-0.048858642578125,0.5789337158203125
1772628359098392000,2.99639208984375,-0.8840179443359375,-0.0175933837890625,0.5142059326171875
1772628359108324000,3.006323974609375,-0.9611358642578125,0.0330047607421875,0.4335174560546875
1772628359118255000,3.016255126953125,-1.0301055908203125,0.053375244140625,0.388702392578125
1772628359128187100,3.026187255859375,-1.1046295166015625,0.0445098876953125,0.375030517578125
1772628359138119200,3.036119140625,-1.158416748046875,0.0304718017578125,0.35235595703125
1772628359148051000,3.046051025390625,-1.178741455078125,0.004852294921875,0.3286590576171875
1772628359157982200,3.055982177734375,-1.17108154296875,-0.029876708984375,0.312530517578125
1772628359167914200,3.065914306640625,-1.145965576171875,-0.058624267578125,0.3055877685546875
1772628359177846300,3.07584619140625,-1.102935791015625,-0.076995849609375,0.2888031005859375
1772628359187777000,3.085777099609375,-1.050567626953125,-0.0794830322265625,0.286834716796875
1772628359197709000,3.095708984375,-0.9852752685546875,-0.079498291015625,0.2679443359375
1772628359207641000,3.10564111328125,-0.898773193359375,-0.072784423828125,0.219482421875
1772628359217572000,3.115572021484375,-0.804840087890625,-0.0557098388671875,0.1793212890625
1772628359227504000,3.125504150390625,-0.7189483642578125,-0.040069580078125,0.147369384765625
1772628359237436200,3.135436279296875,-0.659393310546875,-0.0282135009765625,0.1409454345703125
1772628359247367200,3.1453671875,-0.6407928466796875,-0.0224761962890625,0.166717529296875
1772628359257299200,3.15529931640625,-0.6677398681640625,-0.018707275390625,0.2113800048828125
1772628359267231200,3.165231201171875,-0.7164306640625,-0.0272369384765625,0.26141357421875
1772628359277163000,3.1751630859375,-0.762664794921875,-0.0365447998046875,0.32122802734375
1772628359287094000,3.185093994140625,-0.80706787109375,-0.048492431640625,0.403533935546875
1772628359297026000,3.195026123046875,-0.8357696533203125,-0.057098388671875,0.4326629638671875
1772628359306958000,3.2049580078125,-0.8636932373046875,-0.073486328125,0.482330322265625
1772628359316889000,3.21488916015625,-0.8708953857421875,-0.0928955078125,0.5146331787109375
1772628359326821000,3.224821044921875,-0.881561279296875,-0.101470947265625,0.5220184326171875
1772628359336753200,3.234753173828125,-0.89501953125,-0.11383056640625,0.524749755859375
1772628359346685200,3.244685302734375,-0.905487060546875,-0.1192779541015625,0.5253753662109375
1772628359356616000,3.254615966796875,-0.9101409912109375,-0.120819091796875,0.517486572265625
1772628359366548000,3.2645478515625,-0.9120635986328125,-0.114105224609375,0.4805450439453125
1772628359376480000,3.27447998046875,-0.916046142578125,-0.10980224609375,0.441558837890625
1772628359386411300,3.284411376953125,-0.913970947265625,-0.1117095947265625,0.3985443115234375
1772628359396343300,3.29434326171875,-0.909912109375,-0.1164398193359375,0.3643951416015625
1772628359406275000,3.304275146484375,-0.9133758544921875,-0.121307373046875,0.32708740234375
1772628359416206000,3.3142060546875,-0.915496826171875,-0.11767578125,0.29833984375
1772628359426138000,3.32413818359375,-0.918365478515625,-0.1220855712890625,0.296966552734375
1772628359436070100,3.334070068359375,-0.9322509765625,-0.131317138671875,0.2898406982421875
1772628359446002000,3.344001953125,-0.926666259765625,-0.1360626220703125,0.2840118408203125
1772628359455933200,3.35393310546875,-0.9033966064453125,-0.1456451416015625,0.2912750244140625
1772628359465865200,3.363865234375,-0.8819732666015625,-0.15777587890625,0.2874603271484375
1772628359475797200,3.37379736328125,-0.8601226806640625,-0.1657562255859375,0.2831268310546875
1772628359485728000,3.38372802734375,-0.841766357421875,-0.16949462890625,0.2928314208984375
1772628359495660000,3.393659912109375,-0.834228515625,-0.1749725341796875,0.31671142578125
1772628359505592000,3.403592041015625,-0.8419342041015625,-0.1855621337890625,0.348236083984375
1772628359515523000,3.413523193359375,-0.84979248046875,-0.193603515625,0.3802947998046875
1772628359525455000,3.423455078125,-0.85986328125,-0.1920928955078125,0.4132080078125
1772628359535387100,3.43338720703125,-0.885162353515625,-0.1869964599609375,0.446197509765625
1772628359545319200,3.443319091796875,-0.895660400390625,-0.1846923828125,0.4563751220703125
1772628359555250200,3.453250244140625,-0.89404296875,-0.17303466796875,0.4567718505859375
1772628359565182200,3.46318212890625,-0.8924713134765625,-0.160919189453125,0.449127197265625
1772628359575114000,3.473114013671875,-0.88726806640625,-0.1521759033203125,0.419281005859375
1772628359585045000,3.483044921875,-0.8751678466796875,-0.14398193359375,0.37408447265625
1772628359594978300,3.492978271484375,-0.8696441650390625,-0.137664794921875,0.33026123046875
1772628359604910300,3.502910400390625,-0.8772125244140625,-0.136077880859375,0.3014373779296875
1772628359614841300,3.51284130859375,-0.8918914794921875,-0.13885498046875,0.2818450927734375
1772628359624773400,3.5227734375,-0.9299163818359375,-0.141204833984375,0.286224365234375
1772628359634705400,3.532705322265625,-0.9777374267578125,-0.14813232421875,0.30450439453125
1772628359644636400,3.542636474609375,-1.0201568603515625,-0.158905029296875,0.3181304931640625
1772628359654568400,3.552568359375,-1.048370361328125,-0.1748046875,0.31524658203125
1772628359664500500,3.56250048828125,-1.056854248046875,-0.180938720703125,0.2988739013671875
1772628359674432500,3.5724326171875,-1.053375244140625,-0.18017578125,0.2790069580078125
1772628359684363300,3.58236328125,-1.04022216796875,-0.181610107421875,0.25653076171875
1772628359694295300,3.59229541015625,-1.020599365234375,-0.18609619140625,0.250885009765625
1772628359704227300,3.602227294921875,-0.99432373046875,-0.1956024169921875,0.251129150390625
1772628359714158300,3.612158447265625,-0.9813690185546875,-0.2035064697265625,0.2706298828125
1772628359724090400,3.62209033203125,-0.9769744873046875,-0.2173004150390625,0.293365478515625
1772628359734022400,3.6320224609375,-0.9713287353515625,-0.224090576171875,0.3109283447265625
1772628359743954400,3.641954345703125,-0.9679718017578125,-0.2219696044921875,0.3259124755859375
1772628359753885400,3.651885498046875,-0.961578369140625,-0.220184326171875,0.3367156982421875
1772628359763817200,3.661817138671875,-0.95159912109375,-0.2173309326171875,0.342620849609375
1772628359773749200,3.671749267578125,-0.9476318359375,-0.2126007080078125,0.353240966796875
1772628359783680500,3.681680419921875,-0.941619873046875,-0.215911865234375,0.3540191650390625
1772628359793612500,3.691612548828125,-0.9260101318359375,-0.2150421142578125,0.355255126953125
1772628359803544600,3.701544677734375,-0.898651123046875,-0.20751953125,0.362579345703125
1772628359813475300,3.711475341796875,-0.8600311279296875,-0.1871185302734375,0.3677825927734375
1772628359823407400,3.721407470703125,-0.8135833740234375,-0.1556854248046875,0.3762359619140625
1772628359833339400,3.73133935546875,-0.790557861328125,-0.1238555908203125,0.3777923583984375
1772628359843271400,3.741271484375,-0.8212432861328125,-0.09515380859375,0.3672943115234375
1772628359853202400,3.751202392578125,-0.903717041015625,-0.0506439208984375,0.348114013671875
1772628359863134500,3.761134521484375,-1.007110595703125,0.0053558349609375,0.32342529296875
1772628359873066500,3.77106640625,-1.0909881591796875,0.05499267578125,0.300750732421875
1772628359882997500,3.78099755859375,-1.12017822265625,0.1026153564453125,0.2914886474609375
1772628359892929300,3.79092919921875,-1.115997314453125,0.1311798095703125,0.305938720703125
1772628359902861300,3.800861328125,-1.1121673583984375,0.107421875,0.3250885009765625
1772628359912792300,3.810792236328125,-1.10711669921875,0.048492431640625,0.3760528564453125
1772628359922724600,3.820724609375,-1.112884521484375,-0.0414581298828125,0.4485931396484375
1772628359932656400,3.830656494140625,-1.112640380859375,-0.1363983154296875,0.520965576171875
1772628359942588400,3.84058837890625,-1.10150146484375,-0.2073822021484375,0.5927734375
1772628359952519400,3.85051953125,-1.0554046630859375,-0.248260498046875,0.636932373046875
1772628359962451500,3.860451416015625,-0.9510650634765625,-0.270263671875,0.61767578125
1772628359972383500,3.870383544921875,-0.8375091552734375,-0.264617919921875,0.5792999267578125
1772628359982314200,3.880314208984375,-0.742645263671875,-0.250640869140625,0.5330963134765625
1772628359992246300,3.890246337890625,-0.6665496826171875,-0.22869873046875,0.4665679931640625
1772628360002178300,3.90017822265625,-0.609283447265625,-0.1859588623046875,0.390899658203125
1772628360012110600,3.910110595703125,-0.602325439453125,-0.135498046875,0.32208251953125
1772628360022041300,3.920041259765625,-0.6582794189453125,-0.0922698974609375,0.258636474609375
1772628360031973400,3.929973388671875,-0.7733612060546875,-0.0491180419921875,0.23260498046875
1772628360041903600,3.939903564453125,-0.9095611572265625,-0.0024871826171875,0.23876953125
1772628360051835400,3.94983544921875,-1.0533294677734375,0.0366363525390625,0.2522125244140625
1772628360061767400,3.959767333984375,-1.1717376708984375,0.063079833984375,0.259246826171875
1772628360071698400,3.969698486328125,-1.2468719482421875,0.0818023681640625,0.2505645751953125
1772628360081630500,3.97963037109375,-1.2670745849609375,0.0934600830078125,0.2261810302734375
1772628360091562500,3.9895625,-1.227996826171875,0.1113739013671875,0.19488525390625
1772628360101494300,3.999494384765625,-1.1620330810546875,0.1231231689453125,0.1666412353515625
1772628360111425300,4.00942529296875,-1.080169677734375,0.1358642578125,0.1249542236328125
1772628360121357600,4.019357666015625,-0.9893035888671875,0.14752197265625,0.091461181640625
1772628360131289600,4.02928955078125,-0.8905029296875,0.1484375,0.0729522705078125
1772628360141220400,4.039220458984375,-0.799072265625,0.1352691650390625,0.09051513671875
1772628360151152400,4.04915234375,-0.73382568359375,0.0909423828125,0.134979248046875
1772628360161084400,4.05908447265625,-0.6878509521484375,0.042816162109375,0.2100982666015625
1772628360171015400,4.069015380859375,-0.66424560546875,-0.018707275390625,0.3096771240234375
1772628360180947200,4.078947265625,-0.6561126708984375,-0.0730133056640625,0.3994140625
1772628360190879200,4.088879150390625,-0.6648406982421875,-0.1094970703125,0.474029541015625
1772628360200811300,4.098811279296875,-0.7041168212890625,-0.123565673828125,0.51953125
1772628360210742500,4.108742431640625,-0.754241943359375,-0.1194610595703125,0.529815673828125
1772628360220674600,4.118674560546875,-0.809173583984375,-0.1031951904296875,0.5217437744140625
1772628360230606300,4.1286064453125,-0.890960693359375,-0.0744476318359375,0.524566650390625
1772628360240537300,4.138537353515625,-0.9853057861328125,-0.037078857421875,0.502716064453125
1772628360250469400,4.148469482421875,-1.06500244140625,0.0194244384765625,0.454833984375
1772628360260401400,4.1584013671875,-1.1251068115234375,0.070404052734375,0.3878326416015625
1772628360270333200,4.168333251953125,-1.176177978515625,0.09844970703125,0.312042236328125
1772628360280264400,4.178264404296875,-1.170806884765625,0.1157684326171875,0.22357177734375
1772628360290196500,4.188196533203125,-1.081939697265625,0.119049072265625,0.1599578857421875
1772628360300128500,4.19812841796875,-1.0137481689453125,0.07635498046875,0.11041259765625
1772628360310059300,4.208059326171875,-0.9561614990234375,0.0305328369140625,0.08837890625
1772628360319991300,4.2179912109375,-0.908294677734375,-0.00689697265625,0.10980224609375
1772628360329923300,4.22792333984375,-0.87945556640625,-0.047027587890625,0.1405181884765625
1772628360339854600,4.2378544921875,-0.8809051513671875,-0.067840576171875,0.180755615234375
1772628360349786600,4.24778662109375,-0.8857421875,-0.0862274169921875,0.208282470703125
1772628360359718400,4.257718505859375,-0.879974365234375,-0.0868377685546875,0.2097015380859375
1772628360369650400,4.267650390625,-0.8585662841796875,-0.08538818359375,0.20428466796875
1772628360379581400,4.27758154296875,-0.84332275390625,-0.079742431640625,0.209991455078125
1772628360389513500,4.287513427734375,-0.836151123046875,-0.0732421875,0.22393798828125
1772628360399445200,4.2974453125,-0.838653564453125,-0.066192626953125,0.242706298828125
1772628360409376300,4.307376220703125,-0.86370849609375,-0.067230224609375,0.28125
1772628360419308500,4.31730859375,-0.915985107421875,-0.073760986328125,0.3265838623046875
1772628360429240600,4.327240478515625,-0.983917236328125,-0.06640625,0.3785858154296875
1772628360439172600,4.337172607421875,-1.039093017578125,-0.055999755859375,0.3876953125
1772628360449103400,4.347103271484375,-1.08319091796875,-0.035247802734375,0.39202880859375
1772628360459035400,4.357035400390625,-1.1150665283203125,-0.0223846435546875,0.3916778564453125
1772628360468967400,4.366967529296875,-1.0985870361328125,-0.016754150390625,0.357666015625
1772628360478898400,4.3768984375,-1.0503082275390625,-0.0079803466796875,0.296783447265625
1772628360488830200,4.386830322265625,-1.0006866455078125,-0.0138092041015625,0.232940673828125
1772628360498762500,4.396762451171875,-0.9659881591796875,-0.027008056640625,0.194915771484375
1772628360508694500,4.406694580078125,-0.94439697265625,-0.0526275634765625,0.177886962890625
1772628360518625500,4.41662548828125,-0.9251708984375,-0.0825653076171875,0.18487548828125
1772628360528557300,4.426557373046875,-0.9181976318359375,-0.116607666015625,0.2155303955078125
1772628360538489300,4.4364892578125,-0.9225006103515625,-0.159637451171875,0.2521209716796875
1772628360548420400,4.44642041015625,-0.9138336181640625,-0.1986541748046875,0.2892913818359375
1772628360558352400,4.456352294921875,-0.8858795166015625,-0.22271728515625,0.332122802734375
1772628360568284400,4.466284423828125,-0.8520355224609375,-0.232452392578125,0.359893798828125
1772628360578215400,4.47621533203125,-0.82611083984375,-0.2185211181640625,0.3643798828125
1772628360588147500,4.4861474609375,-0.8188934326171875,-0.17205810546875,0.344696044921875
1772628360598079500,4.49607958984375,-0.839019775390625,-0.10205078125,0.2830810546875
1772628360608010200,4.50601025390625,-0.88873291015625,-0.0250091552734375,0.205352783203125
1772628360617941200,4.515941162109375,-0.9664764404296875,0.048065185546875,0.1447296142578125
1772628360627873300,4.525873291015625,-1.0622100830078125,0.1102142333984375,0.112457275390625
1772628360637805300,4.535805419921875,-1.1558380126953125,0.14483642578125,0.098541259765625
1772628360647736300,4.545736328125,-1.2287750244140625,0.156097412109375,0.0998077392578125
1772628360657668400,4.55566845703125,-1.2693023681640625,0.1504364013671875,0.09625244140625
1772628360667600100,4.56560009765625,-1.2856292724609375,0.126678466796875,0.1045074462890625
1772628360677532200,4.5755322265625,-1.3076324462890625,0.08544921875,0.1291656494140625
1772628360687463200,4.585463134765625,-1.2983856201171875,0.020111083984375,0.20611572265625
1772628360697395200,4.595395263671875,-1.2573699951171875,-0.0405731201171875,0.3010101318359375
1772628360707327200,4.6053271484375,-1.209381103515625,-0.0726776123046875,0.379547119140625
1772628360717258200,4.61525830078125,-1.1461944580078125,-0.0710601806640625,0.4272308349609375
1772628360727190300,4.625190185546875,-1.0754547119140625,-0.032012939453125,0.4288177490234375
1772628360737122300,4.635122314453125,-1.0233917236328125,0.025543212890625,0.395050048828125
1772628360747054300,4.645054443359375,-1.014617919921875,0.075592041015625,0.3458404541015625
1772628360756985000,4.654985107421875,-1.03045654296875,0.1113739013671875,0.3010101318359375
1772628360766917000,4.664917236328125,-1.0652313232421875,0.136810302734375,0.28741455078125
1772628360776849200,4.67484912109375,-1.1016693115234375,0.1636505126953125,0.2780914306640625
1772628360786780400,4.684780517578125,-1.1243438720703125,0.1904754638671875,0.2398223876953125
1772628360796712200,4.694712158203125,-1.1385345458984375,0.2137603759765625,0.1947021484375
1772628360806644200,4.704644287109375,-1.1531524658203125,0.237335205078125,0.1439056396484375
1772628360816576300,4.714576171875,-1.145721435546875,0.2484283447265625,0.11773681640625
1772628360826507300,4.72450732421875,-1.117401123046875,0.2490692138671875,0.1226043701171875
1772628360836439000,4.73443896484375,-1.0523834228515625,0.232147216796875,0.150665283203125
1772628360846371000,4.74437109375,-0.9597930908203125,0.1788482666015625,0.2180328369140625
1772628360856302300,4.75430224609375,-0.8458709716796875,0.1020660400390625,0.3039398193359375
1772628360866234400,4.764234375,-0.7141265869140625,0.0245819091796875,0.423309326171875
1772628360876166400,4.77416650390625,-0.59320068359375,-0.0462799072265625,0.538238525390625
1772628360886098200,4.78409814453125,-0.515167236328125,-0.1121063232421875,0.622802734375
1772628360896029200,4.794029296875,-0.4839019775390625,-0.1420135498046875,0.7046051025390625
1772628360905961200,4.803961181640625,-0.4946136474609375,-0.136016845703125,0.7628631591796875
1772628360915893200,4.813893310546875,-0.5376434326171875,-0.1337890625,0.795440673828125
1772628360925824300,4.82382421875,-0.586669921875,-0.128326416015625,0.7978515625
1772628360935756300,4.83375634765625,-0.6507415771484375,-0.1042938232421875,0.7617645263671875
1772628360945688300,4.843688232421875,-0.730377197265625,-0.068817138671875,0.6739959716796875
1772628360955620400,4.853620361328125,-0.8365478515625,-0.021728515625,0.561553955078125
1772628360965551000,4.863551025390625,-0.967559814453125,0.0251617431640625,0.4563140869140625
1772628360975483100,4.873483154296875,-1.104278564453125,0.06146240234375,0.3601226806640625
1772628360985415200,4.883415283203125,-1.2320556640625,0.08056640625,0.279022216796875
1772628360995346400,4.893346435546875,-1.318756103515625,0.0754852294921875,0.198089599609375
1772628361005278500,4.903278564453125,-1.32763671875,0.0700225830078125,0.126861572265625
1772628361015210200,4.913210205078125,-1.279296875,0.0639495849609375,0.0794830322265625
1772628361025142300,4.923142333984375,-1.1953125,0.04827880859375,0.055419921875
1772628361035073300,4.9330732421875,-1.0765380859375,0.0235595703125,0.0489959716796875
1772628361045005300,4.94300537109375,-0.95477294921875,-0.00274658203125,0.094512939453125
1772628361054937000,4.95293701171875,-0.8444671630859375,-0.0325469970703125,0.1656341552734375
1772628361064868000,4.9628681640625,-0.7747039794921875,-0.0920562744140625,0.1780853271484375
1772628361074800000,4.972800048828125,-0.756256103515625,-0.1122589111328125,0.2501220703125
1772628361084732400,4.982732421875,-0.70404052734375,-0.1662750244140625,0.32269287109375
1772628361094663200,4.9926630859375,-0.6562957763671875,-0.0647735595703125,0.468963623046875
1772628361104595200,5.00259521484375,-0.5968475341796875,-0.0492095947265625,0.5378265380859375
1772628361114527200,5.01252734375,-0.595489501953125,-0.0906982421875,0.543212890625
1772628361124459300,5.022459228515625,-0.631805419921875,-0.1561279296875,0.5358428955078125
1772628361134390300,5.032390380859375,-0.6511688232421875,-0.1403045654296875,0.5447845458984375
1772628361144322000,5.042322021484375,-0.6973724365234375,-0.1269378662109375,0.527313232421875
1772628361154254000,5.052254150390625,-0.7492523193359375,-0.1136016845703125,0.4762725830078125
1772628361164185300,5.062185302734375,-0.78399658203125,-0.0950927734375,0.399078369140625
1772628361174117400,5.072117431640625,-0.834259033203125,-0.0937042236328125,0.326171875
1772628361184049200,5.082049072265625,-0.9067230224609375,-0.08587646484375,0.2796783447265625
1772628361193981200,5.091981201171875,-0.9647216796875,-0.0723724365234375,0.2583160400390625
1772628361203912200,5.101912109375,-1.0108489990234375,-0.0753021240234375,0.228515625
1772628361213844200,5.11184423828125,-1.0651397705078125,-0.075927734375,0.2252197265625
1772628361223776300,5.1217763671875,-1.090423583984375,-0.085845947265625,0.22760009765625
1772628361233707300,5.131707275390625,-1.0934906005859375,-0.1038055419921875,0.2444305419921875
1772628361243639300,5.141639404296875,-1.0774993896484375,-0.1242828369140625,0.26544189453125
1772628361253571300,5.1515712890625,-1.045013427734375,-0.1365203857421875,0.272308349609375
1772628361263503400,5.16150341796875,-1.0128936767578125,-0.135009765625,0.2777252197265625
1772628361273434000,5.17143408203125,-0.97979736328125,-0.125885009765625,0.2820587158203125
1772628361283366100,5.1813662109375,-0.9507904052734375,-0.1139373779296875,0.2868499755859375
1772628361293298200,5.191298095703125,-0.9084014892578125,-0.114288330078125,0.2950286865234375
1772628361303229400,5.2012294921875,-0.8634490966796875,-0.1208343505859375,0.31854248046875
1772628361313161200,5.2111611328125,-0.8294677734375,-0.1289825439453125,0.3472747802734375
1772628361323093200,5.22109326171875,-0.7984619140625,-0.1411590576171875,0.372314453125
1772628361333025300,5.231025390625,-0.77093505859375,-0.148529052734375,0.39447021484375
1772628361342956300,5.240956298828125,-0.7561187744140625,-0.1561126708984375,0.404754638671875
1772628361352888300,5.250888427734375,-0.7577972412109375,-0.1626739501953125,0.413421630859375
1772628361362820000,5.260820068359375,-0.76617431640625,-0.165863037109375,0.40765380859375
1772628361372751400,5.27075146484375,-0.77099609375,-0.1662445068359375,0.3937835693359375
1772628361382683400,5.280683349609375,-0.7774200439453125,-0.15576171875,0.381927490234375
1772628361392615400,5.290615478515625,-0.7854461669921875,-0.150115966796875,0.3508758544921875
1772628361402547500,5.30054736328125,-0.8089141845703125,-0.1446533203125,0.3454437255859375
1772628361412478200,5.310478271484375,-0.840118408203125,-0.144805908203125,0.336181640625
1772628361422410200,5.32041015625,-0.857818603515625,-0.14068603515625,0.3215179443359375
1772628361432342300,5.33034228515625,-0.8694000244140625,-0.1378173828125,0.2985382080078125
1772628361442273000,5.34027294921875,-0.9183807373046875,-0.1160125732421875,0.2776031494140625
1772628361452205000,5.350205078125,-1.0139312744140625,-0.113800048828125,0.262939453125
1772628361462137300,5.360137451171875,-1.1136627197265625,-0.1368865966796875,0.26068115234375
1772628361472069400,5.3700693359375,-1.1870574951171875,-0.1484222412109375,0.2830352783203125
1772628361482000400,5.38000048828125,-1.214569091796875,-0.1807861328125,0.28057861328125
1772628361491932200,5.38993212890625,-1.2528228759765625,-0.2290496826171875,0.2073516845703125
1772628361501864200,5.3998642578125,-1.245880126953125,-0.226531982421875,0.2707061767578125
1772628361511796200,5.409796142578125,-1.1790008544921875,-0.25860595703125,0.3040008544921875
1772628361521727200,5.419727294921875,-1.1251983642578125,-0.272857666015625,0.3012237548828125
1772628361531659000,5.429658935546875,-1.096771240234375,-0.2609100341796875,0.2794647216796875
1772628361541591000,5.439591064453125,-1.101287841796875,-0.250518798828125,0.2587432861328125
1772628361551522300,5.449522216796875,-1.0218658447265625,-0.2539215087890625,0.3306732177734375
1772628361561454300,5.459454345703125,-0.946807861328125,-0.256134033203125,0.3302764892578125
1772628361571386400,5.469386474609375,-0.903076171875,-0.2618865966796875,0.2729034423828125
1772628361581318100,5.479318115234375,-0.906707763671875,-0.27069091796875,0.2034912109375
1772628361591249200,5.489249267578125,-0.8991546630859375,-0.1874237060546875,0.265045166015625
1772628361601180700,5.4991806640625,-0.8840484619140625,-0.145172119140625,0.2996826171875
1772628361611113000,5.509113037109375,-0.924224853515625,-0.1499481201171875,0.2688140869140625
1772628361621044000,5.5190439453125,-0.933258056640625,-0.1244354248046875,0.3152313232421875
1772628361630976000,5.52897607421875,-0.90435791015625,-0.0727996826171875,0.36529541015625
1772628361640907800,5.53890771484375,-0.9326019287109375,-0.0423736572265625,0.399810791015625
1772628361650839800,5.54883984375,-0.9771881103515625,-0.0340118408203125,0.413604736328125
1772628361660770800,5.558770751953125,-1.0449371337890625,-0.0597076416015625,0.4267578125
1772628361670702800,5.568702880859375,-1.105072021484375,-0.0937652587890625,0.466461181640625
1772628361680635000,5.578634765625,-1.1619720458984375,-0.1326751708984375,0.5258026123046875
1772628361690566000,5.58856591796875,-1.1934051513671875,-0.1582183837890625,0.561614990234375
1772628361700498000,5.598497802734375,-1.1594085693359375,-0.1587982177734375,0.5594482421875
1772628361710430000,5.608429931640625,-1.0774383544921875,-0.141387939453125,0.5144195556640625
1772628361720362000,5.618362060546875,-0.994384765625,-0.107177734375,0.432525634765625
1772628361730292700,5.628292724609375,-0.9367218017578125,-0.06781005859375,0.3680572509765625
1772628361740224800,5.638224853515625,-0.8913116455078125,-0.035980224609375,0.306365966796875
1772628361750156800,5.64815673828125,-0.863739013671875,-0.015625,0.2540435791015625
1772628361760088000,5.658088134765625,-0.850555419921875,-0.0111083984375,0.2330169677734375
1772628361770019800,5.668019775390625,-0.824127197265625,-0.0200958251953125,0.2169952392578125
1772628361779951900,5.677951904296875,-0.803863525390625,-0.0174560546875,0.21612548828125
1772628361789884000,5.6878837890625,-0.7930755615234375,-0.013427734375,0.2054443359375
1772628361799815000,5.69781494140625,-0.8021240234375,0.0050048828125,0.1812896728515625
1772628361809747000,5.707746826171875,-0.8155670166015625,0.02850341796875,0.1511688232421875
1772628361819678700,5.7176787109375,-0.8430633544921875,0.05029296875,0.1283721923828125
1772628361829610800,5.72761083984375,-0.875701904296875,0.0684661865234375,0.1027374267578125
1772628361839542000,5.7375419921875,-0.9033203125,0.0867462158203125,0.0816192626953125
1772628361849474000,5.74747412109375,-0.9229583740234375,0.0836181640625,0.0722808837890625
1772628361859405800,5.75740576171875,-0.9123077392578125,0.057647705078125,0.09759521484375
1772628361869336800,5.7673369140625,-0.885498046875,0.02459716796875,0.161834716796875
1772628361879268900,5.777268798828125,-0.873443603515625,-0.0172271728515625,0.2436981201171875
1772628361889201000,5.787200927734375,-0.8614654541015625,-0.059814453125,0.3186187744140625
1772628361899133000,5.7971328125,-0.85430908203125,-0.08587646484375,0.3831787109375
1772628361909064000,5.80706396484375,-0.8647003173828125,-0.10150146484375,0.4453582763671875
1772628361918996000,5.816995849609375,-0.90057373046875,-0.100189208984375,0.4775390625
1772628361928928000,5.826927978515625,-0.9753265380859375,-0.0752410888671875,0.4861602783203125
1772628361938858800,5.836858642578125,-1.0671234130859375,-0.0386810302734375,0.47344970703125
1772628361948790800,5.846790771484375,-1.1362152099609375,0.0066375732421875,0.43359375
1772628361958722800,5.856722900390625,-1.159881591796875,0.0516815185546875,0.3739471435546875
1772628361968654800,5.86665478515625,-1.15020751953125,0.0845184326171875,0.31134033203125
1772628361978585900,5.8765859375,-1.103271484375,0.0915985107421875,0.2491607666015625
1772628361988518000,5.886517822265625,-1.0325927734375,0.083984375,0.203369140625
1772628361998450000,5.896449951171875,-0.95306396484375,0.06964111328125,0.177764892578125
1772628362008381000,5.906380859375,-0.881866455078125,0.0360260009765625,0.1799163818359375
1772628362018313000,5.91631298828125,-0.8448333740234375,0.070556640625,0.150848388671875
1772628362028245000,5.926244873046875,-0.7408447265625,-0.0214385986328125,0.073699951171875
1772628362038176800,5.9361767578125,-0.6788177490234375,-0.055999755859375,0.121795654296875
1772628362048107800,5.946107666015625,-0.6991729736328125,0.00347900390625,0.213714599609375
1772628362058039800,5.956039794921875,-0.7530975341796875,-0.054840087890625,0.2151947021484375
1772628362067971800,5.965971923828125,-0.87274169921875,0.012054443359375,0.3252105712890625
1772628362077904000,5.97590380859375,-0.9043731689453125,0.1026611328125,0.3932342529296875
1772628362087835000,5.9858349609375,-0.897796630859375,0.060150146484375,0.3684234619140625
1772628362097767000,5.995766845703125,-0.9501953125,-0.0630340576171875,0.3307647705078125
1772628362107699000,6.005698974609375,-1.0289306640625,-0.095489501953125,0.299102783203125
1772628362117629700,6.015629638671875,-1.0467987060546875,-0.0755462646484375,0.16552734375
1772628362127561700,6.025561767578125,-1.010223388671875,-0.09027099609375,0.055511474609375
1772628362137493800,6.03549365234375,-0.97216796875,-0.0817108154296875,0.090545654296875
1772628362147425800,6.04542578125,-0.9585723876953125,-0.03076171875,0.155029296875
1772628362157357000,6.055357177734375,-0.9770965576171875,-0.0068817138671875,0.179840087890625
1772628362167288800,6.065288818359375,-1.0019073486328125,-0.02508544921875,0.2051544189453125
1772628362177220900,6.075220947265625,-1.0128021240234375,-0.0448760986328125,0.2314910888671875
1772628362187152000,6.08515185546875,-1.026947021484375,-0.064208984375,0.264373779296875
1772628362197084000,6.095083984375,-1.0380706787109375,-0.07568359375,0.3051910400390625
1772628362207015700,6.105015625,-1.043365478515625,-0.06878662109375,0.326751708984375
1772628362216947700,6.11494775390625,-1.043212890625,-0.0632781982421875,0.311187744140625
1772628362226879000,6.12487890625,-1.0359344482421875,-0.070587158203125,0.26641845703125
1772628362236811000,6.13481103515625,-1.0245819091796875,-0.080413818359375,0.2326507568359375
1772628362246743000,6.144742919921875,-1.0245208740234375,-0.0980224609375,0.2299041748046875
1772628362256674800,6.1546748046875,-1.0705108642578125,-0.1034393310546875,0.176422119140625
1772628362266605800,6.164605712890625,-1.04608154296875,-0.124237060546875,0.174835205078125
1772628362276537900,6.174537841796875,-1.0024261474609375,-0.1211090087890625,0.22662353515625
1772628362286470000,6.184469970703125,-0.96038818359375,-0.1125335693359375,0.2375640869140625
1772628362296401000,6.19440087890625,-0.920166015625,-0.100372314453125,0.2290496826171875
1772628362306333000,6.2043330078125,-0.9267730712890625,-0.0684051513671875,0.208160400390625
1772628362316265000,6.214264892578125,-0.9471282958984375,-0.057769775390625,0.1665802001953125
1772628362326197000,6.224197021484375,-0.92962646484375,-0.043853759765625,0.118377685546875
1772628362336127700,6.234127685546875,-0.927215576171875,-0.012237548828125,0.0932769775390625
1772628362346059800,6.244059814453125,-0.9489288330078125,-0.0019073486328125,0.0848236083984375
1772628362355991800,6.25399169921875,-0.9595947265625,-0.0079345703125,0.1363067626953125
1772628362365922800,6.2639228515625,-0.9737701416015625,-0.00579833984375,0.196929931640625
1772628362375854800,6.273854736328125,-1.0084228515625,-0.0263519287109375,0.2856903076171875
1772628362385787000,6.283786865234375,-1.0474090576171875,-0.0639495849609375,0.38299560546875
1772628362395719000,6.293718994140625,-1.0781097412109375,-0.073394775390625,0.459259033203125
1772628362405650000,6.30364990234375,-1.083465576171875,-0.1049652099609375,0.4921112060546875
1772628362415582000,6.31358203125,-1.0485687255859375,-0.1266937255859375,0.503021240234375
1772628362425514000,6.323513916015625,-0.99774169921875,-0.117462158203125,0.4767303466796875
1772628362435445800,6.33344580078125,-0.944366455078125,-0.1045379638671875,0.4341888427734375
1772628362445376800,6.343376708984375,-0.89752197265625,-0.098236083984375,0.3985137939453125
1772628362455308800,6.353308837890625,-0.872314453125,-0.091064453125,0.3841094970703125
1772628362465240800,6.36324072265625,-0.8838348388671875,-0.0968780517578125,0.3812103271484375
1772628362475171800,6.373171875,-0.91632080078125,-0.0818023681640625,0.3760986328125
1772628362485103900,6.383103759765625,-0.9795684814453125,-0.02569580078125,0.351287841796875
1772628362495036000,6.393035888671875,-1.061676025390625,0.0293121337890625,0.3035430908203125
1772628362504968000,6.402968017578125,-1.1171722412109375,0.07757568359375,0.2508087158203125
1772628362514898700,6.412898681640625,-1.1325836181640625,0.1291351318359375,0.191314697265625
1772628362524830700,6.422830810546875,-1.1492462158203125,0.1627655029296875,0.116912841796875
1772628362534762800,6.4327626953125,-1.19964599609375,0.165435791015625,0.0582122802734375
1772628362544694800,6.44269482421875,-1.2586517333984375,0.15350341796875,0.031524658203125
1772628362554625800,6.452625732421875,-1.305633544921875,0.114349365234375,0.0305328369140625
1772628362564557800,6.462557861328125,-1.311126708984375,0.08575439453125,0.0735626220703125
1772628362574489900,6.47248974609375,-1.2978057861328125,0.116058349609375,0.110198974609375
1772628362584420900,6.4824208984375,-1.273162841796875,0.1316680908203125,0.097412109375
1772628362594353000,6.492352783203125,-1.2186431884765625,0.1033172607421875,0.078826904296875
1772628362604285000,6.502284912109375,-1.1504669189453125,0.085418701171875,0.04742431640625
1772628362614216700,6.512216796875,-1.022430419921875,0.089813232421875,0.038909912109375
1772628362624148000,6.52214794921875,-0.8897857666015625,0.0843963623046875,0.0514984130859375
1772628362634080000,6.532080078125,-0.783416748046875,0.0519866943359375,0.0593109130859375
1772628362644012000,6.542011962890625,-0.68524169921875,0.01715087890625,0.086181640625
1772628362653942800,6.55194287109375,-0.634765625,0.013916015625,0.154541015625
1772628362663874800,6.561874755859375,-0.6292266845703125,-0.00030517578125,0.2667999267578125
1772628362673806800,6.571806884765625,-0.656097412109375,-0.024200439453125,0.4020233154296875
1772628362683739000,6.58173876953125,-0.7169342041015625,-0.005584716796875,0.4998931884765625
1772628362693670000,6.591669921875,-0.7964019775390625,0.0252532958984375,0.6032562255859375
1772628362703602000,6.601601806640625,-0.8627166748046875,0.0323333740234375,0.662750244140625
1772628362713534000,6.611533935546875,-0.903564453125,0.056060791015625,0.6850128173828125
1772628362723466000,6.621466064453125,-0.9019012451171875,0.035247802734375,0.6793365478515625
1772628362733397000,6.63139697265625,-0.898345947265625,0.0080718994140625,0.6620941162109375
1772628362743328800,6.641328857421875,-0.8877105712890625,-0.0422821044921875,0.5974884033203125
1772628362753260800,6.6512607421875,-0.9019012451171875,-0.0417022705078125,0.5750732421875
1772628362763192000,6.661192138671875,-0.9229278564453125,-0.05389404296875,0.558563232421875
1772628362773124000,6.6711240234375,-0.9355316162109375,-0.0819091796875,0.543548583984375
1772628362783056100,6.68105615234375,-0.927825927734375,-0.0937957763671875,0.4820556640625
1772628362792988000,6.69098779296875,-0.9142608642578125,-0.0746917724609375,0.32183837890625
1772628362802919000,6.7009189453125,-0.9111328125,-0.0902099609375,0.20068359375
1772628362812851000,6.710850830078125,-0.9392547607421875,-0.0695953369140625,0.131500244140625
1772628362822783000,6.720782958984375,-0.9669647216796875,0.0151214599609375,0.0536651611328125
1772628362832713700,6.730713623046875,-0.9622650146484375,0.081207275390625,-0.000762939453125
1772628362842645800,6.740645751953125,-0.97686767578125,0.061767578125,-0.021942138671875
1772628362852578000,6.750578125,-0.9818267822265625,-0.068206787109375,0.0526580810546875
1772628362862510000,6.760510009765625,-0.945159912109375,-0.096893310546875,0.129730224609375
1772628362872440800,6.77044091796875,-0.878265380859375,-0.0941314697265625,0.1739349365234375
1772628362882372900,6.780372802734375,-0.8383026123046875,-0.13232421875,0.2022552490234375
1772628362892305000,6.790304931640625,-0.817901611328125,-0.174835205078125,0.2041778564453125
1772628362902237000,6.80023681640625,-0.805023193359375,-0.13763427734375,0.2342987060546875
1772628362912168000,6.81016796875,-0.837066650390625,-0.1188812255859375,0.2669219970703125
1772628362922099700,6.820099609375,-0.897857666015625,-0.133758544921875,0.280364990234375
1772628362932031700,6.83003173828125,-0.93865966796875,-0.1531829833984375,0.32025146484375
1772628362941963000,6.839962890625,-0.904693603515625,-0.12158203125,0.350921630859375
1772628362951895000,6.84989501953125,-0.877685546875,-0.109466552734375,0.401885986328125
1772628362961826800,6.859826904296875,-0.85894775390625,-0.1454315185546875,0.4155426025390625
1772628362971758800,6.8697587890625,-0.861419677734375,-0.172454833984375,0.3941802978515625
1772628362981689900,6.87968994140625,-0.871185302734375,-0.1356964111328125,0.3987274169921875
1772628362991622000,6.889621826171875,-0.8887481689453125,-0.1517791748046875,0.36981201171875
1772628363001554000,6.899553955078125,-0.9370880126953125,-0.148101806640625,0.3143768310546875
1772628363011485700,6.909485595703125,-0.967193603515625,-0.1136627197265625,0.2750244140625
1772628363021417000,6.9194169921875,-0.9841461181640625,-0.1052398681640625,0.24761962890625
1772628363031349000,6.929348876953125,-0.9990234375,-0.153045654296875,0.1989898681640625
1772628363041281000,6.939281005859375,-0.9914398193359375,-0.18603515625,0.2075042724609375
1772628363051211800,6.949211669921875,-0.964630126953125,-0.19659423828125,0.24560546875
1772628363061143800,6.959143798828125,-0.936553955078125,-0.2154998779296875,0.2073211669921875
1772628363071075800,6.969075927734375,-0.9083099365234375,-0.1860504150390625,0.20184326171875
1772628363081007900,6.9790078125,-0.8889007568359375,-0.191802978515625,0.162109375
1772628363090939000,6.98893896484375,-0.874481201171875,-0.160247802734375,0.1671905517578125
1772628363100871000,6.998870849609375,-0.892181396484375,-0.1899261474609375,0.1746826171875
1772628363110803000,7.008802978515625,-0.902374267578125,-0.1930084228515625,0.220550537109375
1772628363120735000,7.01873486328125,-0.902679443359375,-0.203094482421875,0.2058868408203125
1772628363130666000,7.028666015625,-0.92205810546875,-0.231781005859375,0.264251708984375
1772628363140597800,7.03859765625,-0.8973541259765625,-0.1735076904296875,0.2942352294921875
1772628363150529800,7.04852978515625,-0.8951873779296875,-0.18939208984375,0.3399810791015625
1772628363160461000,7.0584609375,-0.899993896484375,-0.2078399658203125,0.34466552734375
1772628363170393000,7.06839306640625,-0.9008026123046875,-0.19354248046875,0.356781005859375
1772628363180324900,7.078324951171875,-0.90924072265625,-0.1791534423828125,0.3690032958984375
1772628363190257000,7.0882568359375,-0.927215576171875,-0.1614532470703125,0.369659423828125
1772628363200188000,7.09818798828125,-0.9605255126953125,-0.2150421142578125,0.3405303955078125
1772628363210120000,7.108119873046875,-0.963165283203125,-0.21270751953125,0.3339385986328125
1772628363220052000,7.118052001953125,-0.9555511474609375,-0.1934814453125,0.3771514892578125
1772628363229983700,7.127983642578125,-0.988983154296875,-0.2635650634765625,0.3450469970703125
1772628363239915000,7.1379150390625,-0.98577880859375,-0.27423095703125,0.346435546875
1772628363249847000,7.147846923828125,-0.979827880859375,-0.2935028076171875,0.352813720703125
1772628363259779000,7.157779052734375,-1.008392333984375,-0.3372650146484375,0.385833740234375
1772628363269709800,7.167709716796875,-0.9910736083984375,-0.3417205810546875,0.3573150634765625
1772628363279641900,7.177641845703125,-1.03179931640625,-0.327850341796875,0.2996826171875
1772628363289574000,7.187573974609375,-1.0423126220703125,-0.3005523681640625,0.331787109375
1772628363299506000,7.197505859375,-1.044708251953125,-0.30908203125,0.29461669921875
1772628363309436700,7.207436767578125,-1.003021240234375,-0.2554779052734375,0.264862060546875
1772628363319369000,7.217368896484375,-0.9881591796875,-0.21197509765625,0.2365264892578125
1772628363329301000,7.227301025390625,-1.0197906494140625,-0.178741455078125,0.211578369140625
1772628363339233000,7.23723291015625,-1.0515899658203125,-0.126922607421875,0.226776123046875
1772628363349164000,7.2471640625,-1.070709228515625,-0.085662841796875,0.2528533935546875
1772628363359095800,7.257095703125,-1.0594482421875,-0.0822296142578125,0.31158447265625
1772628363369027800,7.26702783203125,-1.0097198486328125,-0.1059112548828125,0.3941497802734375
1772628363378958800,7.276958740234375,-0.9381256103515625,-0.16156005859375,0.45404052734375
1772628363388891000,7.286890869140625,-0.89239501953125,-0.217803955078125,0.5128173828125
1772628363398823000,7.296822998046875,-0.8619537353515625,-0.20550537109375,0.5562286376953125
1772628363408755000,7.3067548828125,-0.847686767578125,-0.1907196044921875,0.538116455078125
1772628363418686000,7.31668603515625,-0.9519805908203125,-0.2422943115234375,0.5771942138671875
1772628363428618000,7.326617919921875,-1.0079803466796875,-0.20465087890625,0.5728302001953125
1772628363438550000,7.336550048828125,-1.0544281005859375,-0.17626953125,0.58544921875
1772628363448481800,7.346481689453125,-1.072418212890625,-0.12274169921875,0.5386505126953125
1772628363458412800,7.356412841796875,-1.0769805908203125,-0.0686798095703125,0.4747772216796875
1772628363468344800,7.3663447265625,-1.06298828125,-0.027069091796875,0.4102020263671875
1772628363478276900,7.37627685546875,-1.041839599609375,0.0077972412109375,0.3504791259765625
1772628363488208000,7.386207763671875,-1.02850341796875,0.0123291015625,0.2890777587890625
1772628363498140000,7.396139892578125,-1.00799560546875,0.0086669921875,0.2536773681640625
1772628363508072000,7.406072021484375,-0.974945068359375,0.0159454345703125,0.2332305908203125
1772628363518004000,7.41600390625,-0.955535888671875,0.01806640625,0.2168731689453125
1772628363527934700,7.425934814453125,-0.942657470703125,0.0119781494140625,0.1905517578125
1772628363537866800,7.43586669921875,-0.8958587646484375,0.016632080078125,0.1805877685546875
1772628363547798800,7.445798828125,-0.8532562255859375,0.02252197265625,0.1737060546875
1772628363557730800,7.455730712890625,-0.8259124755859375,0.00958251953125,0.13922119140625
1772628363567662000,7.465662109375,-0.771514892578125,0.0136260986328125,0.1412353515625
1772628363577593900,7.47559375,-0.7061309814453125,0.02130126953125,0.163787841796875
1772628363587526000,7.48552587890625,-0.658477783203125,0.0161590576171875,0.138916015625
1772628363597457000,7.495456787109375,-0.6290740966796875,0.0281982421875,0.09649658203125
1772628363607389400,7.505389404296875,-0.6265716552734375,0.0029449462890625,0.0845184326171875
1772628363617321200,7.5153212890625,-0.6404876708984375,-0.0338897705078125,0.13616943359375
1772628363627253200,7.525253173828125,-0.670562744140625,-0.061279296875,0.2011566162109375
1772628363637184300,7.535184326171875,-0.732696533203125,-0.09600830078125,0.26220703125
1772628363647116500,7.545116455078125,-0.7927703857421875,-0.12310791015625,0.3041229248046875
1772628363657048600,7.555048583984375,-0.859954833984375,-0.1327362060546875,0.3483428955078125
1772628363666980400,7.56498046875,-0.9482421875,-0.1312713623046875,0.40362548828125
1772628363676911400,7.574911376953125,-1.0442962646484375,-0.118011474609375,0.4510955810546875
1772628363686843400,7.584843505859375,-1.16448974609375,-0.09765625,0.4374542236328125
1772628363696775400,7.594775390625,-1.23809814453125,-0.068878173828125,0.446746826171875
1772628363706706200,7.6047060546875,-1.2817535400390625,-0.02423095703125,0.43927001953125
1772628363716638200,7.61463818359375,-1.2911376953125,0.020111083984375,0.39752197265625
1772628363726570200,7.6245703125,-1.2674407958984375,0.06256103515625,0.3172454833984375
1772628363736502500,7.63450244140625,-1.214752197265625,0.1014556884765625,0.2224273681640625
1772628363746433300,7.644433349609375,-1.156005859375,0.1210174560546875,0.14337158203125
1772628363756365300,7.654365234375,-1.0926666259765625,0.1118621826171875,0.09954833984375
1772628363766297300,7.66429736328125,-1.0200347900390625,0.0832366943359375,0.1065826416015625
1772628363776229400,7.6742294921875,-0.9501953125,0.0438690185546875,0.1140594482421875
1772628363786160400,7.684160400390625,-0.896453857421875,0.001678466796875,0.105224609375
1772628363796092200,7.694092041015625,-0.8479156494140625,-0.0300140380859375,0.1020965576171875
1772628363806024200,7.704024169921875,-0.7992095947265625,-0.0525360107421875,0.1082305908203125
1772628363815956500,7.71395654296875,-0.8054962158203125,-0.0760955810546875,0.07861328125
1772628363825887500,7.723887451171875,-0.8209991455078125,-0.108001708984375,0.0904998779296875
1772628363835819500,7.733819580078125,-0.81329345703125,-0.123443603515625,0.1397247314453125
1772628363845751300,7.743751220703125,-0.819427490234375,-0.137664794921875,0.155426025390625
1772628363855682300,7.753682373046875,-0.8400115966796875,-0.1475372314453125,0.1746826171875
1772628363865614300,7.7636142578125,-0.8749847412109375,-0.146636962890625,0.20782470703125
1772628363875546400,7.77354638671875,-0.931488037109375,-0.1364593505859375,0.2426605224609375
1772628363885478100,7.78347802734375,-0.9948577880859375,-0.119232177734375,0.263702392578125
1772628363895409400,7.793409423828125,-1.0527191162109375,-0.1020050048828125,0.285491943359375
1772628363905341400,7.803341552734375,-1.082366943359375,-0.088653564453125,0.2870635986328125
1772628363915273500,7.8132734375,-1.06878662109375,-0.080780029296875,0.2653961181640625
1772628363925205500,7.82320556640625,-1.0370635986328125,-0.0756072998046875,0.2555084228515625
1772628363935136300,7.83313623046875,-1.0009918212890625,-0.0806121826171875,0.2529296875
1772628363945068300,7.843068359375,-0.97821044921875,-0.073486328125,0.257720947265625
1772628363955000300,7.853000244140625,-0.9699554443359375,-0.080474853515625,0.28387451171875
1772628363964932400,7.862932373046875,-0.9681549072265625,-0.08868408203125,0.251617431640625
1772628363974863400,7.87286328125,-0.9439697265625,-0.0602264404296875,0.2131195068359375
1772628363984795400,7.88279541015625,-0.8998565673828125,-0.112091064453125,0.28033447265625
1772628363994727400,7.8927275390625,-0.8736572265625,-0.14581298828125,0.2530517578125
1772628364004658400,7.902658447265625,-0.840545654296875,-0.140716552734375,0.2537689208984375
1772628364014590200,7.912590087890625,-0.8451995849609375,-0.150665283203125,0.2519989013671875
1772628364024522200,7.922522216796875,-0.8554534912109375,-0.15533447265625,0.253326416015625
1772628364034454300,7.932454345703125,-0.8619537353515625,-0.16119384765625,0.2070465087890625
1772628364044385500,7.942385498046875,-0.8843994140625,-0.1527862548828125,0.21514892578125
1772628364054317600,7.952317626953125,-0.907073974609375,-0.1362762451171875,0.197265625
1772628364064249300,7.962249267578125,-0.936614990234375,-0.124420166015625,0.200958251953125
1772628364074181400,7.972181396484375,-0.96234130859375,-0.107757568359375,0.2140350341796875
1772628364084112400,7.9821123046875,-0.98291015625,-0.0909881591796875,0.2184295654296875
1772628364094044400,7.99204443359375,-0.9969635009765625,-0.07208251953125,0.2102203369140625
1772628364103976200,8.00197607421875,-1.0219268798828125,-0.0456390380859375,0.20904541015625
1772628364113907500,8.011907470703125,-1.05596923828125,-0.0484161376953125,0.1971282958984375
1772628364123839500,8.021839599609375,-1.0672454833984375,-0.06085205078125,0.208343505859375
1772628364133771500,8.031771484375,-1.069366455078125,-0.07403564453125,0.2458343505859375
1772628364143703600,8.04170361328125,-1.0613555908203125,-0.0870208740234375,0.273223876953125
1772628364153634300,8.05163427734375,-1.03729248046875,-0.091400146484375,0.2716064453125
1772628364163566300,8.06156640625,-1.010772705078125,-0.09124755859375,0.259918212890625
1772628364173498400,8.071498291015626,-0.9887847900390625,-0.081787109375,0.26593017578125
1772628364183430400,8.081430419921874,-0.978271484375,-0.0778961181640625,0.2676849365234375
1772628364193361400,8.091361328125,-0.98492431640625,-0.09063720703125,0.3003082275390625
1772628364203293400,8.10129345703125,-1.0030517578125,-0.108306884765625,0.36968994140625
1772628364213225500,8.1112255859375,-1.0245819091796875,-0.145599365234375,0.41766357421875
1772628364223157500,8.121157470703125,-1.0187225341796875,-0.1884765625,0.4276275634765625
1772628364233088300,8.131088134765625,-0.9962005615234375,-0.2176971435546875,0.4092254638671875
1772628364243020300,8.141020263671875,-0.987518310546875,-0.22686767578125,0.3812103271484375
1772628364252952300,8.150952392578125,-0.99664306640625,-0.210357666015625,0.356201171875
1772628364262884400,8.16088427734375,-1.0184783935546875,-0.1704559326171875,0.3228912353515625
1772628364272815400,8.1708154296875,-1.041473388671875,-0.1251220703125,0.25616455078125
1772628364282747400,8.180747314453125,-1.0577392578125,-0.079833984375,0.1751861572265625
1772628364292679400,8.190679443359375,-1.0640716552734375,-0.0416259765625,0.115447998046875
1772628364302610400,8.2006103515625,-1.0791778564453125,-0.0192413330078125,0.087127685546875
1772628364312542500,8.21054248046875,-1.101043701171875,-0.0124664306640625,0.060577392578125
1772628364322474500,8.220474609375,-1.1280975341796875,-0.004913330078125,0.0636138916015625
1772628364332406300,8.23040625,-1.15234375,0.001434326171875,0.083587646484375
1772628364342337300,8.240337158203126,-1.145111083984375,0.004547119140625,0.10205078125
1772628364352269300,8.250269287109376,-1.09320068359375,0.0019378662109375,0.1195526123046875
1772628364362201300,8.260201416015626,-1.009429931640625,-0.009063720703125,0.1288909912109375
1772628364372133400,8.27013330078125,-0.93353271484375,-0.0237274169921875,0.1466827392578125
1772628364382065400,8.2800654296875,-0.891204833984375,-0.0277099609375,0.1618804931640625
1772628364391997400,8.28999755859375,-0.9096832275390625,-0.021240234375,0.199615478515625
1772628364401928400,8.299928466796874,-0.990386962890625,-0.0164337158203125,0.2767791748046875
1772628364411860500,8.309860595703125,-1.096466064453125,-0.0059356689453125,0.36102294921875
1772628364421792300,8.319792236328125,-1.20379638671875,0.008331298828125,0.4138946533203125
1772628364431723300,8.32972314453125,-1.2574005126953125,0.0242156982421875,0.3911285400390625
1772628364441655300,8.3396552734375,-1.2368011474609375,0.0390777587890625,0.3284454345703125
1772628364451587300,8.34958740234375,-1.163299560546875,0.04638671875,0.25494384765625
1772628364461519400,8.359519287109375,-1.063934326171875,0.03289794921875,0.1878204345703125
1772628364471450400,8.369450439453125,-0.95166015625,0.0010986328125,0.159576416015625
1772628364481382400,8.37938232421875,-0.827362060546875,-0.027618408203125,0.12640380859375
1772628364491314400,8.389314453125,-0.7449188232421875,-0.0555419921875,0.1363525390625
1772628364501246500,8.39924658203125,-0.693603515625,-0.079803466796875,0.159271240234375
1772628364511177200,8.40917724609375,-0.68304443359375,-0.0856781005859375,0.204559326171875
1772628364521109200,8.419109130859376,-0.732818603515625,-0.0920562744140625,0.262237548828125
1772628364531041300,8.429041259765626,-0.7875518798828125,-0.0807342529296875,0.3337554931640625
1772628364540973300,8.438973388671876,-0.8278350830078125,-0.057464599609375,0.3914794921875
1772628364550904300,8.448904296875,-0.8365325927734375,-0.03082275390625,0.4115447998046875
1772628364560836400,8.45883642578125,-0.8241119384765625,0.003265380859375,0.411651611328125
1772628364570768400,8.468768310546874,-0.819061279296875,0.0311126708984375,0.3923797607421875
1772628364580700400,8.478700439453124,-0.8283233642578125,0.0481414794921875,0.377593994140625
1772628364590631200,8.488631103515624,-0.8217010498046875,0.06036376953125,0.4090728759765625
1772628364600563200,8.498563232421875,-0.863922119140625,0.03143310546875,0.4494171142578125
1772628364610495000,8.508494873046875,-0.919036865234375,-0.0156402587890625,0.480133056640625
1772628364620427000,8.518427001953125,-0.943450927734375,-0.0462799072265625,0.5045013427734375
1772628364630358000,8.52835791015625,-0.9546356201171875,-0.065704345703125,0.5098114013671875
1772628364640290000,8.5382900390625,-0.97705078125,-0.0934295654296875,0.4879302978515625
1772628364650222000,8.54822216796875,-0.97833251953125,-0.1239471435546875,0.459716796875
1772628364660152800,8.55815283203125,-0.9337310791015625,-0.1124267578125,0.412322998046875
1772628364670084900,8.5680849609375,-0.9775543212890625,-0.1323699951171875,0.3265380859375
1772628364680017000,8.578016845703125,-0.9761199951171875,-0.089691162109375,0.2899169921875
1772628364689949000,8.587948974609375,-1.04583740234375,-0.0980072021484375,0.237213134765625
1772628364699880000,8.5978798828125,-1.0731658935546875,-0.0821075439453125,0.2046661376953125
1772628364709812000,8.60781201171875,-1.0885467529296875,-0.0846099853515625,0.182098388671875
1772628364719744000,8.617743896484376,-1.0864105224609375,-0.067138671875,0.1832427978515625
1772628364729676000,8.627676025390626,-1.0747833251953125,-0.0601959228515625,0.2022857666015625
1772628364739607000,8.63760693359375,-1.0302734375,-0.05255126953125,0.2201690673828125
1772628364749538800,8.647538818359376,-0.9953765869140625,-0.0615234375,0.2209320068359375
1772628364759470800,8.657470947265624,-0.9337615966796875,-0.0662384033203125,0.2354888916015625
1772628364769403000,8.66740283203125,-0.8663787841796875,-0.0725860595703125,0.2607879638671875
1772628364779334100,8.677334228515624,-0.801422119140625,-0.10052490234375,0.260772705078125
1772628364789266200,8.68726611328125,-0.7392425537109375,-0.08544921875,0.2977142333984375
1772628364799198000,8.697197998046875,-0.77374267578125,-0.1475830078125,0.2932281494140625
1772628364809130000,8.7071298828125,-0.756011962890625,-0.1375579833984375,0.348297119140625
1772628364819061000,8.71706103515625,-0.756439208984375,-0.1429595947265625,0.3681488037109375
1772628364828993000,8.726992919921875,-0.7756195068359375,-0.1567230224609375,0.3632965087890625
1772628364838924800,8.7369248046875,-0.76019287109375,-0.1596832275390625,0.38568115234375
1772628364848856800,8.74685693359375,-0.7763214111328125,-0.1431121826171875,0.3966522216796875
1772628364858788000,8.7567880859375,-0.824066162109375,-0.181732177734375,0.3768157958984375
1772628364868720000,8.76672021484375,-0.812164306640625,-0.110809326171875,0.4165191650390625
1772628364878652200,8.776652099609375,-0.8787689208984375,-0.1636810302734375,0.320831298828125
1772628364888584000,8.786583984375,-0.884307861328125,-0.1512603759765625,0.40087890625
1772628364898515000,8.796514892578125,-0.857086181640625,-0.1705322265625,0.36505126953125
1772628364908447000,8.806447021484376,-0.8593902587890625,-0.18707275390625,0.341094970703125
1772628364918379000,8.81637890625,-0.85858154296875,-0.2297515869140625,0.302520751953125
1772628364928311000,8.82631103515625,-0.8422698974609375,-0.226104736328125,0.3169708251953125
1772628364938242000,8.836241943359376,-0.8397064208984375,-0.236053466796875,0.295623779296875
1772628364948174000,8.846174072265624,-0.8410186767578125,-0.21331787109375,0.3058013916015625
1772628364958106000,8.856106201171874,-0.854888916015625,-0.202880859375,0.29486083984375
1772628364968036900,8.866036865234374,-0.8802337646484375,-0.1808624267578125,0.293701171875
1772628364977969000,8.875968994140624,-0.912200927734375,-0.1593017578125,0.279052734375
1772628364987901000,8.88590087890625,-0.9352264404296875,-0.1446380615234375,0.2872467041015625
1772628364997833000,8.8958330078125,-0.9293365478515625,-0.1314849853515625,0.28741455078125
1772628365007764200,8.90576416015625,-0.915924072265625,-0.1327667236328125,0.289520263671875
1772628365017696000,8.915696044921875,-0.8907928466796875,-0.13726806640625,0.3136749267578125
1772628365027628000,8.9256279296875,-0.8876495361328125,-0.17388916015625,0.33746337890625
1772628365037560000,8.93556005859375,-0.902679443359375,-0.166534423828125,0.384857177734375
1772628365047491000,8.945490966796875,-0.9575042724609375,-0.2182464599609375,0.4069061279296875
1772628365057422800,8.9554228515625,-0.99481201171875,-0.2191314697265625,0.4582977294921875
1772628365067355000,8.96535498046875,-0.9781036376953125,-0.23394775390625,0.4750823974609375
1772628365077287000,8.975286865234375,-0.997161865234375,-0.2389984130859375,0.46893310546875
1772628365087218000,8.985218017578125,-1.05810546875,-0.2688140869140625,0.4168853759765625
1772628365097150200,8.995150146484375,-1.097869873046875,-0.278106689453125,0.4014129638671875
1772628365107082000,9.00508203125,-1.147705078125,-0.306671142578125,0.417572021484375
1772628365117014000,9.015013916015626,-1.1985626220703125,-0.3659820556640625,0.4426116943359375
1772628365126945000,9.024945068359376,-1.193328857421875,-0.4183197021484375,0.4378204345703125
1772628365136877000,9.034876953125,-1.1119842529296875,-0.447509765625,0.382080078125
1772628365146809000,9.04480908203125,-0.9700927734375,-0.4346160888671875,0.2986907958984375
1772628365156740900,9.054740966796874,-0.840972900390625,-0.38421630859375,0.196685791015625
1772628365166672000,9.064671875,-0.8017425537109375,-0.2963104248046875,0.13165283203125
1772628365176604200,9.074604248046874,-0.8749847412109375,-0.1973419189453125,0.12689208984375
1772628365186536200,9.0845361328125,-0.9955596923828125,-0.13946533203125,0.1911773681640625
1772628365196468000,9.094468017578125,-1.0846710205078125,-0.1141815185546875,0.3060150146484375
