time,seconds_elapsed,z,y,x
1772628356151162600,0.04916259765625,0.005295374430716038,0.4496119022369385,0.022570699453353882
1772628356161094400,0.059094482421875,-0.10560131818056107,0.43801090121269226,-0.018035581335425377
1772628356171026400,0.0690263671875,-0.2974448800086975,0.4590376615524292,-0.014675687067210674
1772628356180957400,0.07895751953125,-0.4524725377559662,0.20612336695194244,-0.15388177335262299
1772628356190889500,0.088889404296875,-0.5400215983390808,-0.24172250926494598,-0.47607699036598206
1772628356200821800,0.09882177734375,-0.5931252837181091,-0.7066960334777832,-0.8266502022743225
1772628356210752500,0.10875244140625,-0.6049439311027527,-1.0402377843856812,-1.0417115688323975
1772628356220684500,0.1186845703125,-0.5609594583511353,-1.1273287534713745,-1.1393907070159912
1772628356230616600,0.128616455078125,-0.4958541989326477,-1.0910828113555908,-1.0995548963546753
1772628356240547300,0.13854736328125,-0.42507991194725037,-0.9617315530776978,-0.9067404866218567
1772628356250479400,0.148479248046875,-0.3723474144935608,-0.6412241458892822,-0.6192676424980164
1772628356260411400,0.158411376953125,-0.3617480397224426,-0.26792120933532715,-0.2872346043586731
1772628356270343400,0.168343505859375,-0.3678439259529114,-0.03363597393035889,0.046448782086372375
1772628356280274700,0.178274658203125,-0.3653530776500702,-0.014109677635133266,0.2767581343650818
1772628356290206500,0.18820654296875,-0.3758937120437622,-0.10856526345014572,0.38951432704925537
1772628356300138500,0.198138427734375,-0.393841028213501,-0.25709080696105957,0.3778819143772125
1772628356310069500,0.208069580078125,-0.41214656829833984,-0.28012627363204956,0.2690694034099579
1772628356320001500,0.21800146484375,-0.4874061942100525,-0.12622886896133423,0.08862719684839249
1772628356329933600,0.22793359375,-0.5606699585914612,0.15009266138076782,-0.04691333323717117
1772628356339864600,0.237864501953125,-0.6034879684448242,0.25214099884033203,-0.09106747806072235
1772628356349796600,0.247796630859375,-0.6244701147079468,0.26215606927871704,-0.1384689062833786
1772628356359728600,0.257728759765625,-0.5608903169631958,0.3010251820087433,-0.1686694324016571
1772628356369659400,0.267659423828125,-0.46057823300361633,0.2969241142272949,-0.21889136731624603
1772628356379591400,0.27759130859375,-0.3386251628398895,0.1639825403690338,-0.2729969322681427
1772628356389523500,0.2875234375,-0.20285622775554657,-0.29818692803382874,-0.21749822795391083
1772628356399454700,0.297454833984375,-0.13064754009246826,-0.44903770089149475,-0.13238146901130676
1772628356409386800,0.30738671875,-0.11288449913263321,-0.4429759085178375,-0.052605293691158295
1772628356419318500,0.317318603515625,-0.09928107261657715,-0.43108195066452026,0.04845341295003891
1772628356429249500,0.32724951171875,-0.039939068257808685,-0.2982015311717987,0.14099101722240448
1772628356439181600,0.337181640625,0.0299603883177042,-0.0893297791481018,0.24113385379314423
1772628356449113600,0.347113525390625,0.08489303290843964,0.09824898838996887,0.370296835899353
1772628356459044400,0.35704443359375,0.1087791919708252,0.23898454010486603,0.47198325395584106
1772628356468976400,0.366976318359375,0.12930132448673248,0.30689647793769836,0.5060970783233643
1772628356478908400,0.376908447265625,0.13627322018146515,0.3400142192840576,0.4810873568058014
1772628356488839700,0.386839599609375,0.095067597925663,0.3520600497722626,0.4238940179347992
1772628356498771500,0.396771484375,0.044175926595926285,0.26622265577316284,0.36313292384147644
1772628356508703500,0.406703369140625,0.0021619575563818216,0.16159644722938538,0.3018638491630554
1772628356518634500,0.416634521484375,-0.015440471470355988,-0.09435543417930603,0.26566722989082336
1772628356528566500,0.42656640625,-0.007911479100584984,-0.22394901514053345,0.1494002789258957
1772628356538498600,0.43649853515625,0.047624487429857254,-0.22960956394672394,0.09125414490699768
1772628356548430300,0.446430419921875,0.09708072245121002,-0.21068808436393738,0.09169609099626541
1772628356558361600,0.456361572265625,0.1709432154893875,-0.10461810231208801,0.10667291283607483
1772628356568293600,0.466293701171875,0.22865821421146393,0.06283178925514221,0.15187592804431915
1772628356578225700,0.4762255859375,0.25659266114234924,0.21543224155902863,0.23099364340305328
1772628356588156400,0.486156494140625,0.28760412335395813,0.351986289024353,0.33043473958969116
1772628356598088000,0.496087890625,0.2678961753845215,0.3973071575164795,0.3970284163951874
1772628356608020000,0.50602001953125,0.25159236788749695,0.4504064917564392,0.420146644115448
1772628356617951000,0.515950927734375,0.2514900863170624,0.4437355399131775,0.46853598952293396
1772628356627883000,0.525883056640625,0.2202993780374527,0.3648317754268646,0.5649244785308838
1772628356637815000,0.53581494140625,0.1553020030260086,0.315120130777359,0.6760461926460266
1772628356647746000,0.54574609375,0.15912780165672302,0.2699563801288605,0.7373601794242859
1772628356657678000,0.555677978515625,0.22125349938869476,0.11421739310026169,0.737052857875824
1772628356667609900,0.56560986328125,0.22124308347702026,-0.01472186204046011,0.635192334651947
1772628356677541000,0.575541015625,0.17948950827121735,-0.02263917401432991,0.44517070055007935
1772628356687473200,0.58547314453125,0.1301269382238388,0.10205935686826706,0.24876834452152252
1772628356697405200,0.5954052734375,0.11049571633338928,0.3363703787326813,0.1766081303358078
1772628356707336000,0.6053359375,0.04112888500094414,0.45630985498428345,0.2484254539012909
1772628356717268000,0.61526806640625,-0.04244590550661087,0.5417307615280151,0.32996106147766113
1772628356727200000,0.625199951171875,-0.08982942253351212,0.6098694205284119,0.3925332725048065
1772628356737132000,0.635132080078125,-0.10243043303489685,0.8301663398742676,0.35087981820106506
1772628356747063000,0.64506298828125,-0.07144346833229065,0.696788489818573,0.2945982813835144
1772628356756995000,0.6549951171875,-0.0582491010427475,0.3797173500061035,0.17749881744384766
1772628356766927000,0.664927001953125,-0.10843009501695633,0.11157011985778809,-0.002662768354639411
1772628356776858000,0.674858154296875,-0.20216724276542664,0.036150459200143814,-0.15829098224639893
1772628356786790100,0.6847900390625,-0.33454373478889465,0.09400896728038788,-0.27880656719207764
1772628356796722000,0.694721923828125,-0.5241968035697937,0.24897538125514984,-0.35490426421165466
1772628356806653000,0.70465283203125,-0.6856263875961304,0.41524738073349,-0.4059412181377411
1772628356816585000,0.7145849609375,-0.7867434024810791,0.4487118422985077,-0.4510818123817444
1772628356826517000,0.72451708984375,-0.7786539793014526,0.426457941532135,-0.6035114526748657
1772628356836448000,0.734447998046875,-0.7854218482971191,0.25677570700645447,-0.8412792682647705
1772628356846380000,0.744380126953125,-0.8400321006774902,-0.06323214620351791,-1.099169373512268
1772628356856312000,0.75431201171875,-0.9388971924781799,-0.36881494522094727,-1.298815131187439
1772628356866243000,0.7642431640625,-1.037348985671997,-0.5291032195091248,-1.3982067108154297
1772628356876174800,0.7741748046875,-1.1437374353408813,-0.5303434729576111,-1.3956130743026733
1772628356886107000,0.78410693359375,-1.223592758178711,-0.48170334100723267,-1.3668802976608276
1772628356896039000,0.794038818359375,-1.2587393522262573,-0.5080428123474121,-1.2857426404953003
1772628356905970200,0.80397021484375,-1.2050167322158813,-0.4022471308708191,-1.2002782821655273
1772628356915902200,0.813902099609375,-1.1450945138931274,-0.2277858406305313,-1.1173290014266968
1772628356925834000,0.823833984375,-1.0168906450271606,-0.07106591761112213,-1.0099496841430664
1772628356935765000,0.833764892578125,-0.8575427532196045,-0.07452749460935593,-0.8780379295349121
1772628356945697000,0.843697021484375,-0.7406100630760193,-0.15533436834812164,-0.6920481324195862
1772628356955629000,0.853629150390625,-0.7507625818252563,-0.22120685875415802,-0.4976496696472168
1772628356965560000,0.86356005859375,-0.9332441091537476,-0.25318628549575806,-0.3178500235080719
1772628356975492000,0.8734921875,-1.132799506187439,-0.20619453489780426,-0.14889001846313477
1772628356985424100,0.883424072265625,-1.218687653541565,-0.0643526241183281,-0.03128543123602867
1772628356995355100,0.893355224609375,-1.1808358430862427,0.13090741634368896,-0.0072296313010156155
1772628357005287000,0.903286865234375,-1.0859384536743164,0.25581270456314087,-0.06860682368278503
1772628357015219000,0.913218994140625,-1.0018103122711182,0.22421641647815704,-0.23289616405963898
1772628357025150000,0.92314990234375,-0.930533766746521,0.16848249733448029,-0.469283789396286
1772628357035082000,0.93308203125,-0.8426875472068787,0.10420016944408417,-0.6257559061050415
1772628357045014000,0.943013916015625,-0.7748957276344299,0.07091163843870163,-0.6828135848045349
1772628357054945000,0.952945068359375,-0.6999917030334473,0.046387381851673126,-0.6982713341712952
1772628357064877000,0.962876953125,-0.729510486125946,-0.21353793144226074,-0.7707926630973816
1772628357074809000,0.97280908203125,-0.8515450358390808,-0.4623972773551941,-0.8210824728012085
1772628357084741000,0.9827412109375,-1.0197612047195435,-0.46695786714553833,-0.7385380864143372
1772628357094672000,0.992671875,-1.1558116674423218,-0.398470938205719,-0.5640600323677063
1772628357104604000,1.00260400390625,-1.1549111604690552,-0.4576411545276642,-0.3736698031425476
1772628357114536000,1.012535888671875,-1.041967749595642,-0.5476629137992859,-0.29707837104797363
1772628357124467200,1.02246728515625,-0.8939270973205566,-0.5702320337295532,-0.311348021030426
1772628357134399000,1.03239892578125,-0.7863526940345764,-0.5582771301269531,-0.34096264839172363
1772628357144331000,1.0423310546875,-0.7693253755569458,-0.5639768838882446,-0.3430287837982178
1772628357154262000,1.052261962890625,-0.8663100004196167,-0.5309092402458191,-0.291684091091156
1772628357164194000,1.062194091796875,-0.9204156994819641,-0.43718647956848145,-0.22453537583351135
1772628357174126000,1.0721259765625,-0.8752391338348389,-0.25384753942489624,-0.12534379959106445
1772628357184057000,1.08205712890625,-0.715989351272583,0.00799871701747179,0.021160317584872246
1772628357193989000,1.091989013671875,-0.5492141842842102,0.18851763010025024,0.17172691226005554
1772628357203921200,1.101921142578125,-0.44333115220069885,0.26791587471961975,0.21487727761268616
1772628357213852000,1.111851806640625,-0.39093878865242004,0.29382097721099854,0.10768798738718033
1772628357223784000,1.121783935546875,-0.41868165135383606,0.25768348574638367,-0.07199406623840332
1772628357233716000,1.131716064453125,-0.4873978793621063,0.21120677888393402,-0.2344764620065689
1772628357243648000,1.14164794921875,-0.5496487617492676,0.16349197924137115,-0.3078846335411072
1772628357253579300,1.151579345703125,-0.5774689316749573,0.0003462121821939945,-0.24629156291484833
1772628357263511000,1.161510986328125,-0.591292679309845,-0.24458791315555573,-0.059968385845422745
1772628357273443000,1.171443115234375,-0.587253212928772,-0.4951295852661133,0.18935807049274445
1772628357283374000,1.1813740234375,-0.601804792881012,-0.6908234357833862,0.39608892798423767
1772628357293306000,1.19130615234375,-0.6272656321525574,-0.7540264129638672,0.4911414086818695
1772628357303238000,1.20123779296875,-0.6327831745147705,-0.6757062673568726,0.5008209347724915
1772628357313169000,1.2111689453125,-0.6423963904380798,-0.5146790742874146,0.49436888098716736
1772628357323101000,1.221100830078125,-0.6350253820419312,-0.29235711693763733,0.48659515380859375
1772628357333033000,1.231032958984375,-0.6174644827842712,-0.13533127307891846,0.4564329981803894
1772628357342964000,1.2409638671875,-0.6090349555015564,-0.0389016829431057,0.3794745206832886
1772628357352896000,1.25089599609375,-0.60547935962677,0.037299346178770065,0.2503778040409088
1772628357362828000,1.260828125,-0.5927297472953796,0.06096570938825607,0.1433996707201004
1772628357372760000,1.270760009765625,-0.567459225654602,0.07325326651334763,0.08690629154443741
1772628357382691000,1.280691162109375,-0.49182432889938354,0.059234827756881714,0.09007073193788528
1772628357392622800,1.290622802734375,-0.3798522353172302,-0.08712797611951828,0.1499899923801422
1772628357402555000,1.300554931640625,-0.30879440903663635,-0.2581547498703003,0.20284633338451385
1772628357412486100,1.310486083984375,-0.3320227861404419,-0.3994162678718567,0.2379193753004074
1772628357422418200,1.320418212890625,-0.4375758171081543,-0.452293336391449,0.26353341341018677
1772628357432350000,1.330349853515625,-0.5948832035064697,-0.41827836632728577,0.3071160316467285
1772628357442281000,1.340281005859375,-0.7611246705055237,-0.27719902992248535,0.35045260190963745
1772628357452213000,1.350212890625,-0.888185977935791,-0.10412018746137619,0.31310978531837463
1772628357462145000,1.36014501953125,-0.9232189059257507,0.053375519812107086,0.13941527903079987
1772628357472076000,1.370075927734375,-0.9070503115653992,0.2025463581085205,-0.11576349288225174
1772628357482008000,1.380008056640625,-0.8414691686630249,0.30818137526512146,-0.36374256014823914
1772628357491940000,1.389940185546875,-0.7289958596229553,0.3709675073623657,-0.5683404207229614
1772628357501871000,1.39987109375,-0.5807943344116211,0.42107149958610535,-0.7108196020126343
1772628357511803100,1.40980322265625,-0.40334126353263855,0.4133683145046234,-0.7699734568595886
1772628357521735000,1.41973486328125,-0.29457172751426697,0.3549984097480774,-0.7491637468338013
1772628357531666000,1.429666015625,-0.2827206552028656,0.262826144695282,-0.7023916840553284
1772628357541598200,1.43959814453125,-0.31632301211357117,0.17603930830955505,-0.6404245495796204
1772628357551530200,1.4495302734375,-0.3967973589897156,0.13895797729492188,-0.5332096815109253
1772628357561462000,1.4594619140625,-0.4975954592227936,0.18744659423828125,-0.36365368962287903
1772628357571393000,1.46939306640625,-0.6054021120071411,0.26051148772239685,-0.14686255156993866
1772628357581325000,1.479324951171875,-0.6863435506820679,0.34806209802627563,0.08006221801042557
1772628357591257000,1.489257080078125,-0.6835342049598694,0.41359183192253113,0.282386839389801
1772628357601187600,1.4991875,-0.6296618580818176,0.4181392788887024,0.44113224744796753
1772628357611119900,1.509119873046875,-0.5657545328140259,0.34569597244262695,0.49264949560165405
1772628357621052000,1.519052001953125,-0.4877642095088959,0.1942271739244461,0.4182714521884918
1772628357630982700,1.528982666015625,-0.4116950035095215,0.0009621172212064266,0.2485324889421463
1772628357640914700,1.538914794921875,-0.3685547113418579,-0.1939341276884079,0.03507959470152855
1772628357650846700,1.5488466796875,-0.34566643834114075,-0.31719374656677246,-0.18658941984176636
1772628357660777700,1.55877783203125,-0.35696539282798767,-0.33749228715896606,-0.3869812786579132
1772628357670709800,1.568709716796875,-0.39928674697875977,-0.2583085298538208,-0.5198961496353149
1772628357680641500,1.5786416015625,-0.4357147216796875,-0.07182092219591141,-0.5632242560386658
1772628357690573600,1.588573486328125,-0.46246403455734253,0.16952750086784363,-0.49091461300849915
1772628357700504800,1.5985048828125,-0.4613167345523834,0.3598317503929138,-0.3236194849014282
1772628357710436900,1.608436767578125,-0.4488491714000702,0.43369826674461365,-0.1425682157278061
1772628357720368600,1.61836865234375,-0.46436917781829834,0.40352678298950195,-0.011356184259057045
1772628357730299600,1.628299560546875,-0.4913986623287201,0.27924585342407227,0.0174336526542902
1772628357740231700,1.638231689453125,-0.5208438634872437,0.10979024320840836,-0.04937613755464554
1772628357750163700,1.648163818359375,-0.5607644319534302,-0.03393923491239548,-0.19018225371837616
1772628357760094700,1.6580947265625,-0.5892589092254639,-0.13666783273220062,-0.31680533289909363
1772628357770026800,1.66802685546875,-0.6132246851921082,-0.18194477260112762,-0.37505584955215454
1772628357779958800,1.677958740234375,-0.6194442510604858,-0.16893576085567474,-0.3459605574607849
1772628357789889800,1.687889892578125,-0.5966899394989014,-0.1547112762928009,-0.23976726830005646
1772628357799821800,1.69782177734375,-0.5587714314460754,-0.14129772782325745,-0.05854639410972595
1772628357809753600,1.707753662109375,-0.5498679876327515,-0.09158983081579208,0.12354432046413422
1772628357819684900,1.717684814453125,-0.571427047252655,-0.06841083616018295,0.23949195444583893
1772628357829617000,1.727616943359375,-0.6199336051940918,-0.07168546319007874,0.2816242277622223
1772628357839549000,1.737548828125,-0.6972175240516663,-0.07774841040372849,0.2709214389324188
1772628357849480700,1.747480712890625,-0.74146568775177,-0.09454204142093658,0.23841513693332672
1772628357859411700,1.75741162109375,-0.7496681809425354,-0.09649510681629181,0.22698575258255005
1772628357869343700,1.76734375,-0.7373260259628296,-0.09017329663038254,0.23761257529258728
1772628357879275800,1.77727587890625,-0.6997264623641968,-0.0995875746011734,0.2570393979549408
1772628357889206500,1.78720654296875,-0.6673120856285095,-0.10832034796476364,0.2761822044849396
1772628357899138800,1.797138916015625,-0.6448407173156738,-0.11773177981376648,0.28447800874710083
1772628357909070800,1.80707080078125,-0.6501175165176392,-0.12347009778022766,0.25656676292419434
1772628357919001900,1.817001953125,-0.67730712890625,-0.12464605271816254,0.20776128768920898
1772628357928934000,1.826933837890625,-0.7132653594017029,-0.12313950061798096,0.14586329460144043
1772628357938865700,1.83686572265625,-0.7550644874572754,-0.11392488330602646,0.053865205496549606
1772628357948796700,1.846796630859375,-0.7791578769683838,-0.14601783454418182,-0.06427554786205292
1772628357958728700,1.856728759765625,-0.8018233776092529,-0.16646131873130798,-0.16232000291347504
1772628357968660700,1.86666064453125,-0.8279215693473816,-0.1502985954284668,-0.2002817541360855
1772628357978592500,1.876592529296875,-0.8627824187278748,-0.1077035516500473,-0.1747802346944809
1772628357988523800,1.886523681640625,-0.8852429986000061,-0.06918572634458542,-0.11990659683942795
1772628357998455800,1.896455810546875,-0.9028254747390747,-0.04191149026155472,-0.08635183423757553
1772628358008387800,1.906387939453125,-0.9106759428977966,-0.02827637270092964,-0.0771506130695343
1772628358018318600,1.916318603515625,-0.9058116674423218,-0.022518709301948547,-0.04624300077557564
1772628358028250600,1.926250732421875,-0.8892548084259033,-0.010652994737029076,0.037114206701517105
1772628358038182700,1.9361826171875,-0.8978080749511719,0.04905063658952713,0.181742861866951
1772628358048114000,1.946114013671875,-0.9014456868171692,0.13095055520534515,0.3477909564971924
1772628358058045700,1.956045654296875,-0.8681055903434753,0.10150327533483505,0.4942258298397064
1772628358067977700,1.965977783203125,-0.8441776037216187,-0.018205812200903893,0.5438434481620789
1772628358077908700,1.97590869140625,-0.823320746421814,-0.11531104892492294,0.4639956057071686
1772628358087840800,1.9858408203125,-0.7923447489738464,-0.167263463139534,0.2821213901042938
1772628358097772800,1.995772705078125,-0.7536047101020813,-0.1389750987291336,0.05843767523765564
1772628358107704600,2.00570458984375,-0.6992173790931702,-0.05036827176809311,-0.12784750759601593
1772628358117635800,2.0156357421875,-0.6237333416938782,0.06490009278059006,-0.21029922366142273
1772628358127568000,2.02556787109375,-0.5378639698028564,0.14907889068126678,-0.19286911189556122
1772628358137500000,2.0355,-0.4741738736629486,0.14452709257602692,-0.13519904017448425
1772628358147430700,2.0454306640625,-0.47258448600769043,0.062259647995233536,-0.11035734415054321
1772628358157362700,2.05536279296875,-0.5031625032424927,-0.06161116436123848,-0.1279294639825821
1772628358167294700,2.065294677734375,-0.5535194277763367,-0.2125314325094223,-0.1590985655784607
1772628358177225700,2.075225830078125,-0.615559458732605,-0.3281460106372833,-0.18875283002853394
1772628358187157500,2.085157470703125,-0.6806758642196655,-0.3682281970977783,-0.18580177426338196
1772628358197089800,2.09508984375,-0.7604531645774841,-0.3384382128715515,-0.15501904487609863
1772628358207020800,2.105020751953125,-0.850948691368103,-0.20521464943885803,-0.10927419364452362
1772628358216952800,2.114952880859375,-0.9333314895629883,-0.03540733456611633,-0.05753946676850319
1772628358226884900,2.124884765625,-0.976854681968689,0.11408574879169464,0.01569826528429985
1772628358236816600,2.134816650390625,-0.9654362797737122,0.28871285915374756,0.0723581537604332
1772628358246747600,2.14474755859375,-0.9283578991889954,0.4304284453392029,0.10745808482170105
1772628358256679700,2.1546796875,-0.8740695714950562,0.5066754221916199,0.11200408637523651
1772628358266611700,2.16461181640625,-0.7971753478050232,0.5144763588905334,0.058953918516635895
1772628358276542700,2.174542724609375,-0.6714536547660828,0.45188918709754944,-0.020732123404741287
1772628358286474800,2.184474853515625,-0.5237211585044861,0.3081969916820526,-0.09847911447286606
1772628358296406800,2.19440673828125,-0.37986066937446594,0.14318352937698364,-0.1994181126356125
1772628358306337800,2.204337890625,-0.25292453169822693,0.007762582041323185,-0.2802453339099884
1772628358316269600,2.21426953125,-0.1739896535873413,-0.08446604758501053,-0.3012607991695404
1772628358326201600,2.22420166015625,-0.13708409667015076,-0.11770922690629959,-0.2653009593486786
1772628358336132900,2.2341328125,-0.12949521839618683,-0.11205995082855225,-0.1935024857521057
1772628358346065000,2.24406494140625,-0.13602370023727417,-0.0768849179148674,-0.1105242371559143
1772628358355997000,2.253996826171875,-0.1635292023420334,-0.052026357501745224,-0.03711014986038208
1772628358365927700,2.263927734375,-0.21887581050395966,-0.0292680487036705,0.0066602337174117565
1772628358375859700,2.273859619140625,-0.2771659791469574,-0.0018767290748655796,0.014761021360754967
1772628358385791700,2.283791748046875,-0.30817341804504395,0.024147149175405502,-0.0019670918118208647
1772628358395723800,2.293723876953125,-0.3190098702907562,0.0514686182141304,-0.03430810570716858
1772628358405654800,2.30365478515625,-0.31738266348838806,0.03316045179963112,-0.06835608184337616
1772628358415586800,2.3135869140625,-0.3088761270046234,0.00536876916885376,-0.08863388001918793
1772628358425518800,2.323518798828125,-0.3048856258392334,-0.008665291592478752,-0.09977547824382782
1772628358435449900,2.333449951171875,-0.2946448028087616,-0.0186284389346838,-0.11742900311946869
1772628358445381600,2.343381591796875,-0.29208895564079285,-0.01928677223622799,-0.14770807325839996
1772628358455313700,2.353313720703125,-0.31316572427749634,0.014635499566793442,-0.18582311272621155
1772628358465244700,2.36324462890625,-0.33979469537734985,0.06400357931852341,-0.19087165594100952
1772628358475176700,2.3731767578125,-0.3736913800239563,0.1223679929971695,-0.16135932505130768
1772628358485108700,2.383108642578125,-0.4009392559528351,0.18896779417991638,-0.1179434061050415
1772628358495040800,2.393040771484375,-0.39037320017814636,0.22614802420139313,-0.04900306835770607
1772628358504971800,2.4029716796875,-0.3509453535079956,0.23702970147132874,0.011432844214141369
1772628358514903800,2.41290380859375,-0.2847611904144287,0.21768875420093536,0.04549329727888107
1772628358524835800,2.4228359375,-0.21392668783664703,0.145687535405159,0.04565947875380516
1772628358534766600,2.4327666015625,-0.16256694495677948,0.09585268795490265,0.02681620791554451
1772628358544698600,2.44269873046875,-0.12471810728311539,0.09477304667234421,-0.01970602013170719
1772628358554630700,2.452630615234375,-0.09960944205522537,0.12440060824155807,-0.0702519416809082
1772628358564562000,2.46256201171875,-0.08862869441509247,0.1872940957546234,-0.0815804973244667
1772628358574493700,2.47249365234375,-0.08419457823038101,0.2401825189590454,-0.10117175430059433
1772628358584425700,2.48242578125,-0.09085168689489365,0.296475887298584,-0.10501948744058609
1772628358594356700,2.492356689453125,-0.05384288355708122,0.3008488118648529,-0.10569468140602112
1772628358604289000,2.5022890625,0.014714869670569897,0.22833622992038727,-0.10270768404006958
1772628358614221000,2.512220947265625,0.0871497094631195,0.15600301325321198,-0.09540505707263947
1772628358624153000,2.522153076171875,0.15772241353988647,0.10793747752904892,-0.10028397291898727
1772628358634084400,2.53208447265625,0.2120657116174698,0.10276642441749573,-0.11616355180740356
1772628358644016000,2.54201611328125,0.2464444637298584,0.11986364424228668,-0.1356016993522644
1772628358653948200,2.5519482421875,0.26431840658187866,0.14029507339000702,-0.15365013480186462
1772628358663879200,2.561879150390625,0.26224565505981445,0.1438210904598236,-0.18311960995197296
1772628358673811200,2.571811279296875,0.2407439947128296,0.15398326516151428,-0.19132010638713837
1772628358683743000,2.581742919921875,0.19153836369514465,0.18555183708667755,-0.1821734756231308
1772628358693674000,2.591674072265625,0.14409328997135162,0.1914180964231491,-0.16057494282722473
1772628358703606000,2.60160595703125,0.09551030397415161,0.1633337289094925,-0.11752121895551682
1772628358713538000,2.6115380859375,0.07344765216112137,0.1430206298828125,-0.04314207658171654
1772628358723469000,2.621468994140625,0.07188091427087784,0.12952479720115662,0.06237529590725899
1772628358733401000,2.631401123046875,0.041214682161808014,0.1200869157910347,0.15437829494476318
1772628358743333000,2.6413330078125,0.019476361572742462,0.13212279975414276,0.22494220733642578
1772628358753265200,2.65126513671875,0.014780892059206963,0.16394075751304626,0.25605258345603943
1772628358763196200,2.661196044921875,0.022657988592982292,0.23152299225330353,0.2536270022392273
1772628358773128000,2.6711279296875,0.08252090215682983,0.30138087272644043,0.20975802838802338
1772628358783060000,2.68106005859375,0.18189942836761475,0.3417823612689972,0.14413268864154816
1772628358792991200,2.6909912109375,0.3027770519256592,0.3192559480667114,0.06262920051813126
1772628358802923300,2.70092333984375,0.4119964838027954,0.24747948348522186,-0.039441511034965515
1772628358812855000,2.71085498046875,0.501404881477356,0.1625678688287735,-0.14170141518115997
1772628358822786000,2.7207861328125,0.5803806781768799,0.09892791509628296,-0.23831450939178467
1772628358832718000,2.730718017578125,0.6464759707450867,0.08309303969144821,-0.30241769552230835
1772628358842650000,2.740650146484375,0.6998422741889954,0.11531462520360947,-0.3150874078273773
1772628358852582100,2.75058203125,0.7192082405090332,0.13844133913516998,-0.2829439640045166
1772628358862513200,2.76051318359375,0.675524890422821,0.1336953192949295,-0.23794907331466675
1772628358872445200,2.770445068359375,0.605312168598175,0.11406834423542023,-0.1991831213235855
1772628358882377200,2.780377197265625,0.5545869469642639,0.08948656916618347,-0.15476559102535248
1772628358892308000,2.790307861328125,0.5121268630027771,0.04981363192200661,-0.09385351091623306
1772628358902240000,2.800239990234375,0.46608588099479675,0.024403879418969154,-0.011843601241707802
1772628358912172000,2.810172119140625,0.43043655157089233,0.061647575348615646,0.11578864604234695
1772628358922103000,2.82010302734375,0.38982757925987244,0.1427277773618698,0.2736366093158722
1772628358932035300,2.830035400390625,0.36451274156570435,0.23999421298503876,0.4392945170402527
1772628358941967000,2.839967041015625,0.31626319885253906,0.3127107620239258,0.5951210856437683
1772628358951899100,2.849899169921875,0.2160855233669281,0.3314301371574402,0.7197960615158081
1772628358961830100,2.859830078125,0.06734772026538849,0.2815430164337158,0.832195520401001
1772628358971762200,2.86976220703125,-0.12427844107151031,0.2200644612312317,0.9360864162445068
1772628358981694200,2.879694091796875,-0.32734501361846924,0.20953698456287384,1.0403504371643066
1772628358991625000,2.889625,-0.5118182301521301,0.23403708636760712,1.1505533456802368
1772628359001557000,2.899556884765625,-0.6469102501869202,0.3060801029205322,1.2331020832061768
1772628359011489300,2.9094892578125,-0.7384679317474365,0.3541393578052521,1.264625906944275
1772628359021420000,2.919419921875,-0.7785841822624207,0.3173472583293915,1.2020976543426514
1772628359031352000,2.92935205078125,-0.760530412197113,0.21076177060604095,1.066567301750183
1772628359041284000,2.9392841796875,-0.6828896999359131,0.09408975392580032,0.8727714419364929
1772628359051215000,2.949215087890625,-0.5572181940078735,0.0077601149678230286,0.6347094178199768
1772628359061147100,2.959147216796875,-0.3953816592693329,-0.05313199758529663,0.38121479749679565
1772628359071079000,2.969078857421875,-0.23316848278045654,-0.11466921865940094,0.15163074433803558
1772628359081011000,2.979010986328125,-0.05219363793730736,-0.1488250494003296,-0.0424649640917778
1772628359090942200,2.988942138671875,0.1118725910782814,-0.1130874752998352,-0.17122869193553925
1772628359100874200,2.998874267578125,0.14108774065971375,-0.11437058448791504,-0.25778356194496155
1772628359110806300,3.00880615234375,0.09366925805807114,-0.18336103856563568,-0.2919224202632904
1772628359120737000,3.018737060546875,0.07470808178186417,-0.2541779577732086,-0.25206583738327026
1772628359130669000,3.0286689453125,0.034802790731191635,-0.25902774930000305,-0.13196489214897156
1772628359140601000,3.03860107421875,-0.022305769845843315,-0.22757607698440552,0.046592336148023605
1772628359150533000,3.048533203125,-0.08788685500621796,-0.1588112860918045,0.24687694013118744
1772628359160464100,3.058464111328125,-0.1409681737422943,-0.07360771298408508,0.4586014449596405
1772628359170396200,3.068396240234375,-0.1982908844947815,0.01914280652999878,0.6598581075668335
1772628359180328200,3.078328125,-0.23570163547992706,0.08689016103744507,0.839142382144928
1772628359190259200,3.08825927734375,-0.2611021399497986,0.1037665382027626,0.9853707551956177
1772628359200191000,3.09819091796875,-0.320358544588089,0.11147479712963104,1.072473406791687
1772628359210123000,3.108123046875,-0.4094325006008148,0.10759643465280533,1.0863103866577148
1772628359220054300,3.11805419921875,-0.5262043476104736,0.09240629523992538,1.0361428260803223
1772628359229986300,3.127986328125,-0.6511139273643494,0.08577848970890045,0.9179280996322632
1772628359239918300,3.13791845703125,-0.7599418759346008,0.09079162776470184,0.7676994800567627
1772628359249849000,3.14784912109375,-0.8513659834861755,0.09829524159431458,0.6186203360557556
1772628359259781000,3.157781005859375,-0.927852213382721,0.08274371176958084,0.49858978390693665
1772628359269713200,3.167713134765625,-0.9830430150032043,0.060313329100608826,0.4093150496482849
1772628359279645200,3.177645263671875,-0.9137084484100342,0.09581512957811356,0.3457437753677368
1772628359289576000,3.187575927734375,-0.9330355525016785,0.08008471876382828,0.2893405854701996
1772628359299508000,3.197508056640625,-0.9132363200187683,0.04696271941065788,0.23713994026184082
1772628359309440300,3.207440185546875,-0.880612850189209,-0.0008243261836469173,0.16853760182857513
1772628359319371300,3.217371337890625,-0.8598077297210693,-0.06277557462453842,0.08521103113889694
1772628359329303000,3.227302978515625,-0.852465808391571,-0.13579581677913666,-0.005085769575089216
1772628359339235000,3.237235107421875,-0.8414297103881836,-0.2204531878232956,-0.0832572653889656
1772628359349167000,3.2471669921875,-0.7869488000869751,-0.2451808750629425,-0.12948445975780487
1772628359359098000,3.25709814453125,-0.7412862181663513,-0.21258272230625153,-0.15185688436031342
1772628359369030000,3.26702978515625,-0.7231863141059875,-0.20716717839241028,-0.15241001546382904
1772628359378962000,3.2769619140625,-0.7186136841773987,-0.21201039850711823,-0.14961369335651398
1772628359388893200,3.28689306640625,-0.7209335565567017,-0.19866159558296204,-0.142156183719635
1772628359398825200,3.2968251953125,-0.7365612387657166,-0.17481458187103271,-0.1177682876586914
1772628359408757200,3.30675732421875,-0.7739931344985962,-0.14333993196487427,-0.07672212272882462
1772628359418688000,3.31668798828125,-0.7939255237579346,-0.12202557176351547,-0.04426484555006027
1772628359428620000,3.3266201171875,-0.8196322917938232,-0.12796087563037872,0.013133878819644451
1772628359438552000,3.336552001953125,-0.8527390956878662,-0.1527477204799652,0.06442555785179138
1772628359448484000,3.346484130859375,-0.8757038712501526,-0.18278054893016815,0.09798834472894669
1772628359458415000,3.3564150390625,-0.8946349620819092,-0.19556824862957,0.11516067385673523
1772628359468347100,3.36634716796875,-0.9240168333053589,-0.183751180768013,0.1207670345902443
1772628359478279200,3.376279052734375,-0.9547163844108582,-0.1548532247543335,0.11286250501871109
1772628359488210200,3.386210205078125,-0.9770747423171997,-0.12523823976516724,0.09326459467411041
1772628359498142000,3.396141845703125,-0.9778657555580139,-0.09867747128009796,0.07863691449165344
1772628359508074000,3.406073974609375,-0.9594204425811768,-0.07790418714284897,0.06494788080453873
1772628359518005200,3.416005126953125,-0.9200506806373596,-0.07558724284172058,0.04699551314115524
1772628359527937300,3.425937255859375,-0.8571999073028564,-0.08616389334201813,0.03970876336097717
1772628359537869300,3.435869384765625,-0.7871456742286682,-0.12386280298233032,0.04156152531504631
1772628359547801000,3.445801025390625,-0.7175387740135193,-0.16547594964504242,0.034935638308525085
1772628359557732000,3.455732177734375,-0.6486305594444275,-0.19924749433994293,0.021884283050894737
1772628359567664000,3.4656640625,-0.5869444012641907,-0.2353793829679489,0.00083803606685251
1772628359577596200,3.47559619140625,-0.5471147298812866,-0.25130537152290344,-0.0340387225151062
1772628359587527000,3.48552685546875,-0.532802164554596,-0.2442750483751297,-0.08695340901613235
1772628359597460500,3.49546044921875,-0.5336344242095947,-0.21226730942726135,-0.14932437241077423
1772628359607392300,3.505392333984375,-0.5451027154922485,-0.18795433640480042,-0.20147618651390076
1772628359617323500,3.515323486328125,-0.5566075444221497,-0.16262687742710114,-0.23115631937980652
1772628359627255600,3.525255615234375,-0.5586142539978027,-0.17705783247947693,-0.21628879010677338
1772628359637187600,3.5351875,-0.5519627332687378,-0.19408634305000305,-0.1590619832277298
1772628359647118300,3.545118408203125,-0.5455933213233948,-0.2049979716539383,-0.06735879927873611
1772628359657050400,3.55505029296875,-0.5521143674850464,-0.23395106196403503,0.028799952939152718
1772628359666982400,3.564982421875,-0.573065459728241,-0.27080008387565613,0.1242484599351883
1772628359676914400,3.57491455078125,-0.609168291091919,-0.2953227460384369,0.20901155471801758
1772628359686845200,3.58484521484375,-0.6507366895675659,-0.28577524423599243,0.2854801416397095
1772628359696777200,3.594777099609375,-0.6841028928756714,-0.2468310445547104,0.3440092206001282
1772628359706709500,3.60470947265625,-0.7073071599006653,-0.1844411939382553,0.3949856758117676
1772628359716640500,3.614640625,-0.7074552178382874,-0.12691184878349304,0.44331061840057373
1772628359726572500,3.624572509765625,-0.70345538854599,-0.07858550548553467,0.48506706953048706
1772628359736504300,3.63450439453125,-0.6977130770683289,-0.03735737502574921,0.5303909182548523
1772628359746436400,3.644436279296875,-0.6869216561317444,-0.025724168866872787,0.5722828507423401
1772628359756367400,3.654367431640625,-0.6848515868186951,-0.01941487565636635,0.6026298403739929
1772628359766299400,3.66429931640625,-0.6687206625938416,-0.0077489642426371574,0.638430655002594
1772628359776231200,3.674231201171875,-0.6593460440635681,-0.0033052137587219477,0.6763597130775452
1772628359786162400,3.684162353515625,-0.6648489832878113,0.007198631297796965,0.7097347378730774
1772628359796094500,3.694094482421875,-0.6667083501815796,-0.012938062660396099,0.7056118845939636
1772628359806026500,3.704026611328125,-0.6755890250205994,-0.07243049889802933,0.6359429359436035
1772628359815957200,3.713957275390625,-0.6862166523933411,-0.20536591112613678,0.4714043140411377
1772628359825889300,3.72388916015625,-0.6967039704322815,-0.36458221077919006,0.2282942533493042
1772628359835821300,3.7338212890625,-0.6990488767623901,-0.4634943902492523,-0.00858353078365326
1772628359845753300,3.74375341796875,-0.6890485882759094,-0.44715049862861633,-0.16111162304878235
1772628359855684600,3.7536845703125,-0.6965810656547546,-0.36374375224113464,-0.18145552277565002
1772628359865616400,3.763616455078125,-0.7440478205680847,-0.25774186849594116,-0.1097138449549675
1772628359875548400,3.77354833984375,-0.8194259405136108,-0.22198092937469482,-0.029251763597130775
1772628359885479400,3.7834794921875,-0.9074646830558777,-0.2892128825187683,0.009731560945510864
1772628359895411500,3.793411376953125,-0.9907257556915283,-0.3687252700328827,0.02835983969271183
1772628359905343200,3.80334326171875,-1.044749140739441,-0.3791663944721222,0.06028711050748825
1772628359915274500,3.8132744140625,-1.0437930822372437,-0.27550897002220154,0.14947371184825897
1772628359925206500,3.82320654296875,-0.9841017127037048,-0.09833889454603195,0.30297237634658813
1772628359935138600,3.833138671875,-0.8708624839782715,0.118214450776577,0.5195558071136475
1772628359945070600,3.843070556640625,-0.7169145941734314,0.3078959882259369,0.7687897682189941
1772628359955001300,3.85300146484375,-0.5639487504959106,0.41880252957344055,0.9364101886749268
1772628359964933400,3.862933349609375,-0.42695820331573486,0.43467462062835693,0.9725128412246704
1772628359974865400,3.872865478515625,-0.30874472856521606,0.3216567039489746,0.8801981210708618
1772628359984796400,3.88279638671875,-0.21796497702598572,0.13710452616214752,0.6776273846626282
1772628359994728400,3.892728515625,-0.15713651478290558,-0.0680622011423111,0.38471725583076477
1772628360004660500,3.902660400390625,-0.13403846323490143,-0.23324450850486755,0.04490657523274422
1772628360014592500,3.912592529296875,-0.16052787005901337,-0.3275582194328308,-0.2704428732395172
1772628360024523500,3.9225234375,-0.20282860100269318,-0.32200348377227783,-0.4963066577911377
1772628360034455300,3.932455322265625,-0.2331225872039795,-0.27076295018196106,-0.5938851237297058
1772628360044386300,3.94238623046875,-0.24299100041389465,-0.171727254986763,-0.5541475415229797
1772628360054318300,3.952318359375,-0.24419821798801422,-0.06507697701454163,-0.39539575576782227
1772628360064250400,3.96225048828125,-0.24388761818408966,0.039994142949581146,-0.15894462168216705
1772628360074181400,3.972181396484375,-0.2710303068161011,0.11276262253522873,0.10415146499872208
1772628360084113400,3.982113525390625,-0.3232780694961548,0.12598209083080292,0.3254607021808624
1772628360094045400,3.99204541015625,-0.3798132538795471,0.09860559552907944,0.49363186955451965
1772628360103976400,4.0019765625,-0.4504878520965576,0.0586988665163517,0.6210516691207886
1772628360113908200,4.011908203125,-0.553341805934906,0.032371122390031815,0.7078565955162048
1772628360123840300,4.02184033203125,-0.6730854511260986,0.018833372741937637,0.7504602670669556
1772628360133772300,4.031772216796875,-0.7911226153373718,0.01746637187898159,0.7248028516769409
1772628360143703600,4.04170361328125,-0.8860456347465515,0.0036609070375561714,0.6562231779098511
1772628360153635600,4.051635498046875,-0.9421483278274536,0.0015562111511826515,0.5282574892044067
1772628360163567400,4.0615673828125,-0.9400769472122192,-0.025610240176320076,0.3559969663619995
1772628360173498400,4.071498291015625,-0.8851402401924133,-0.08689543604850769,0.12904371321201324
1772628360183430400,4.081430419921875,-0.780744194984436,-0.1762443333864212,-0.1387515813112259
1772628360193362400,4.091362548828125,-0.647982120513916,-0.2574734091758728,-0.3954707086086273
1772628360203294500,4.10129443359375,-0.5093763470649719,-0.31051069498062134,-0.6294620037078857
1772628360213225500,4.1112255859375,-0.39656350016593933,-0.33199042081832886,-0.8384482264518738
1772628360223157500,4.121157470703125,-0.2422928661108017,-0.2958029508590698,-0.9924337863922119
1772628360233089500,4.131089599609375,-0.08313196897506714,-0.2356003373861313,-1.0595487356185913
1772628360243020300,4.141020263671875,0.0709855780005455,-0.18837574124336243,-1.0417406558990479
1772628360252952300,4.150952392578125,0.17487016320228577,-0.19619718194007874,-0.9679628610610962
1772628360262884400,4.16088427734375,0.2625775635242462,-0.21813417971134186,-0.7986306548118591
1772628360272815400,4.1708154296875,0.2783719599246979,-0.23674887418746948,-0.5739269852638245
1772628360282747400,4.180747314453125,0.23767071962356567,-0.32061511278152466,-0.4495280683040619
1772628360292679400,4.190679443359375,0.16617123782634735,-0.39498788118362427,-0.38468676805496216
1772628360302611500,4.200611572265625,0.08150003105401993,-0.39913228154182434,-0.3458525538444519
1772628360312542500,4.21054248046875,0.004819364286959171,-0.3470035493373871,-0.31627869606018066
1772628360322474500,4.220474609375,-0.041418928653001785,-0.25396424531936646,-0.2974560260772705
1772628360332406500,4.230406494140625,-0.05605965852737427,-0.16700193285942078,-0.28069594502449036
1772628360342337300,4.240337158203125,-0.05075577273964882,-0.15277141332626343,-0.26055723428726196
1772628360352269300,4.250269287109375,-0.056443486362695694,-0.16971257328987122,-0.24578946828842163
1772628360362201300,4.260201416015625,-0.07392943650484085,-0.19281522929668427,-0.27088794112205505
1772628360372133400,4.27013330078125,-0.09741000086069107,-0.18793977797031403,-0.3176157772541046
1772628360382065400,4.2800654296875,-0.10127445310354233,-0.15494345128536224,-0.3882471024990082
1772628360391997400,4.28999755859375,-0.10387182980775833,-0.11393824219703674,-0.4716767370700836
1772628360401929500,4.299929443359375,-0.08380915224552155,-0.059103306382894516,-0.557406485080719
1772628360411860500,4.309860595703125,-0.02082858607172966,0.004686327651143074,-0.6123581528663635
1772628360421792500,4.31979248046875,0.09802214056253433,0.04665170609951019,-0.6425257325172424
1772628360431724300,4.329724365234375,0.23012931644916534,0.02773314155638218,-0.6210553050041199
1772628360441655300,4.3396552734375,0.34000903367996216,0.022703491151332855,-0.5777315497398376
1772628360451587300,4.34958740234375,0.4755122661590576,-0.001756579615175724,-0.475033164024353
1772628360461519400,4.359519287109375,0.6062648892402649,-0.010198794305324554,-0.3598029315471649
1772628360471451600,4.36945166015625,0.6993745565414429,0.017654942348599434,-0.275211364030838
1772628360481382400,4.37938232421875,0.7417680621147156,0.06109511852264404,-0.223850280046463
1772628360491314400,4.389314453125,0.7513834238052368,0.12326741218566895,-0.193850576877594
1772628360501246500,4.39924658203125,0.7363054156303406,0.17998941242694855,-0.17926310002803802
1772628360511177200,4.40917724609375,0.7136735916137695,0.2185320109128952,-0.16553635895252228
1772628360521109200,4.419109130859375,0.7035948634147644,0.23692534863948822,-0.1577957719564438
1772628360531041300,4.429041259765625,0.7131337523460388,0.2481497824192047,-0.12910978496074677
1772628360540972500,4.43897265625,0.7399574518203735,0.24257539212703705,-0.09505317360162735
1772628360550904600,4.448904541015625,0.7901923656463623,0.22951817512512207,-0.08553983271121979
1772628360560836400,4.45883642578125,0.8689306974411011,0.21712100505828857,-0.11463559418916702
1772628360570768400,4.468768310546875,0.967943549156189,0.19764824211597443,-0.1849968433380127
1772628360580699400,4.478699462890625,1.079459547996521,0.15123365819454193,-0.29961633682250977
1772628360590631400,4.48863134765625,1.162778377532959,0.08330974727869034,-0.4406331181526184
1772628360600562400,4.4985625,1.2044566869735718,0.02720022387802601,-0.5701038241386414
1772628360610493200,4.5084931640625,1.217594861984253,0.007004143204540014,-0.6570624709129333
1772628360620425200,4.51842529296875,1.2212334871292114,0.04631481319665909,-0.6777721047401428
1772628360630357200,4.528357177734375,1.2133153676986694,0.08133644610643387,-0.630387008190155
1772628360640289300,4.538289306640625,1.195947527885437,0.06760220229625702,-0.5462111234664917
1772628360650220000,4.548219970703125,1.1572065353393555,0.01610413007438183,-0.4633559286594391
1772628360660152300,4.55815234375,1.1021027565002441,-0.052107300609350204,-0.39444196224212646
1772628360670084400,4.56808447265625,0.996246337890625,-0.06647798418998718,-0.26883289217948914
1772628360680015400,4.578015380859375,0.9043007493019104,-0.013981442898511887,-0.12323884665966034
1772628360689947100,4.587947021484375,0.8594694137573242,0.047525059431791306,0.010395378805696964
1772628360699879200,4.597879150390625,0.8548160791397095,0.08715367317199707,0.10654707252979279
1772628360709811200,4.607811279296875,0.8997446894645691,0.08516322821378708,0.14839784801006317
1772628360719742200,4.6177421875,0.9624218940734863,0.04934549331665039,0.11137763410806656
1772628360729674200,4.62767431640625,1.0235638618469238,0.012412508949637413,0.007759894710034132
1772628360739606000,4.63760595703125,1.0519005060195923,0.007970865815877914,-0.1056685820221901
1772628360749537300,4.647537353515625,1.0493438243865967,0.023502420634031296,-0.19542908668518066
1772628360759469300,4.65746923828125,1.028377652168274,0.0577944777905941,-0.24314342439174652
1772628360769401300,4.6674013671875,1.011626124382019,0.0708271935582161,-0.23878195881843567
1772628360779333400,4.67733349609375,0.9724440574645996,0.1023254320025444,-0.19109749794006348
1772628360789264100,4.68726416015625,0.899264395236969,0.17834429442882538,-0.10671869665384293
1772628360799196200,4.697196044921875,0.7803637385368347,0.270216166973114,0.03781256452202797
1772628360809128200,4.707128173828125,0.6325593590736389,0.35400906205177307,0.22339095175266266
1772628360819059200,4.71705908203125,0.4689218997955322,0.454283744096756,0.4604753255844116
1772628360828991200,4.7269912109375,0.2981269955635071,0.5500619411468506,0.7042999267578125
1772628360838923300,4.73692333984375,0.15063747763633728,0.6287673711776733,0.9165570735931396
1772628360848855300,4.746855224609375,0.026484910398721695,0.6762994527816772,1.0697999000549316
1772628360858786300,4.756786376953125,-0.04208950325846672,0.6986379623413086,1.1015632152557373
1772628360868718000,4.766718017578125,-0.03989532217383385,0.6676033735275269,0.9954423308372498
1772628360878650000,4.776650146484375,0.015841346234083176,0.5732584595680237,0.772745668888092
1772628360888581400,4.786581298828125,0.13308675587177277,0.4022156596183777,0.4552244246006012
1772628360898513400,4.796513427734375,0.31028711795806885,0.1661178171634674,0.11034732311964035
1772628360908445400,4.806445556640625,0.5280295610427856,-0.07359090447425842,-0.22333262860774994
1772628360918377200,4.816377197265625,0.7783315181732178,-0.2561708390712738,-0.5431461930274963
1772628360928308200,4.82630810546875,1.0311294794082642,-0.38789209723472595,-0.8486986756324768
1772628360938240300,4.836240234375,1.2310829162597656,-0.45731744170188904,-1.1117383241653442
1772628360948172300,4.84617236328125,1.3578733205795288,-0.46163177490234375,-1.2945834398269653
1772628360958103300,4.856103271484375,1.4058252573013306,-0.4043610394001007,-1.3635127544403076
1772628360968035300,4.866035400390625,1.3994187116622925,-0.34739044308662415,-1.2928577661514282
1772628360977967400,4.87596728515625,1.33759605884552,-0.3068075478076935,-1.0711376667022705
1772628360987899400,4.8858994140625,1.2063040733337402,-0.2453220784664154,-0.7284695506095886
1772628360997830100,4.895830078125,1.011494755744934,-0.183594211935997,-0.3361175060272217
1772628361007762200,4.90576220703125,0.7935773730278015,-0.13899371027946472,0.052455250173807144
1772628361017694200,4.915694091796875,0.5656276941299438,-0.06053757667541504,0.3943823277950287
1772628361027625200,4.925625244140625,0.3369438946247101,-0.0017682688776403666,0.648815393447876
1772628361037557200,4.93555712890625,0.1424194872379303,0.046839822083711624,0.7934589385986328
1772628361047489300,4.9454892578125,0.009633740410208702,0.08818832784891129,0.8310060501098633
1772628361057421300,4.95542138671875,-0.10402927547693253,0.055328719317913055,0.8116800785064697
1772628361067352300,4.965352294921875,-0.1758725643157959,-0.01660592295229435,0.8156066536903381
1772628361077284400,4.975284423828125,-0.28226733207702637,-0.03615841269493103,0.7786769270896912
1772628361087216000,4.985216064453125,-0.18205471336841583,-0.007358187809586525,0.6293447017669678
1772628361097147100,4.995147216796875,-0.07352782040834427,0.027691969648003578,0.408626914024353
1772628361107079200,5.0050791015625,0.07056970149278641,0.014874974265694618,0.15402017533779144
1772628361117011200,5.01501123046875,0.2040300965309143,-0.041692622005939484,-0.04537377506494522
1772628361126943200,5.024943115234375,0.34728366136550903,-0.09852954000234604,-0.2503226697444916
1772628361136874200,5.034874267578125,0.4878142178058624,-0.1582879275083542,-0.43633294105529785
1772628361146806300,5.04480615234375,0.5747837424278259,-0.20509964227676392,-0.5652339458465576
1772628361156738300,5.05473828125,0.5966697335243225,-0.2667657136917114,-0.6747045516967773
1772628361166669000,5.0646689453125,0.5624438524246216,-0.31408315896987915,-0.7484421133995056
1772628361176601000,5.07460107421875,0.4901488721370697,-0.3083546757698059,-0.7459330558776855
1772628361186533000,5.084533203125,0.4348810613155365,-0.28354066610336304,-0.6842403411865234
1772628361196465200,5.094465087890625,0.36417949199676514,-0.27782827615737915,-0.586144745349884
1772628361206396400,5.104396484375,0.31656455993652344,-0.25565293431282043,-0.44119682908058167
1772628361216328200,5.114328125,0.26240992546081543,-0.22032780945301056,-0.28223738074302673
1772628361226260200,5.12426025390625,0.22961923480033875,-0.1623356193304062,-0.1266328990459442
1772628361236191200,5.134191162109375,0.2131825089454651,-0.09852135926485062,0.010597512125968933
1772628361246123300,5.144123291015625,0.189443901181221,-0.054047636687755585,0.11857511103153229
1772628361256055300,5.15405517578125,0.16390950977802277,-0.001478699967265129,0.20470333099365234
1772628361265987000,5.163987060546875,0.12588755786418915,0.046384163200855255,0.28335288166999817
1772628361275918300,5.17391845703125,0.07317221164703369,0.0838402658700943,0.35043588280677795
1772628361285850400,5.183850341796875,0.020055465400218964,0.10929422825574875,0.39350399374961853
1772628361295782400,5.193782470703125,-0.013043458573520184,0.14170405268669128,0.40900468826293945
1772628361305713200,5.203713134765625,-0.01142478920519352,0.16384583711624146,0.3917892277240753
1772628361315645200,5.213645263671875,0.0013983973767608404,0.14795808494091034,0.3453696370124817
1772628361325577200,5.2235771484375,0.03192887455224991,0.12843525409698486,0.28199759125709534
1772628361335509200,5.23350927734375,0.07130691409111023,0.113038070499897,0.20120897889137268
1772628361345440300,5.243440185546875,0.11653085052967072,0.10506775975227356,0.12049814313650131
1772628361355372300,5.253372314453125,0.15054014325141907,0.06992173194885254,0.05647300183773041
1772628361365304300,5.26330419921875,0.1750854253768921,0.008369428105652332,-0.006513424217700958
1772628361375235300,5.2732353515625,0.18689271807670593,-0.0673534944653511,-0.07705651223659515
1772628361385167000,5.2831669921875,0.173547625541687,-0.1839275062084198,-0.14632481336593628
1772628361395099100,5.29309912109375,0.1627165973186493,-0.22247155010700226,-0.21104735136032104
1772628361405031200,5.30303125,0.1668575406074524,-0.21959613263607025,-0.27044278383255005
1772628361414962200,5.312962158203125,0.16504450142383575,-0.21033594012260437,-0.33578333258628845
1772628361424894200,5.322894287109375,0.1589788794517517,-0.21035563945770264,-0.442738801240921
1772628361434826200,5.332826171875,0.1377442181110382,-0.2549287974834442,-0.5355142951011658
1772628361444757200,5.34275732421875,0.10941563546657562,-0.36453333497047424,-0.5642032027244568
1772628361454689300,5.352689208984375,0.0633053258061409,-0.4574252665042877,-0.4981667697429657
1772628361464621300,5.362621337890625,0.04996608570218086,-0.48397910594940186,-0.35062336921691895
1772628361474553300,5.37255322265625,0.033614370971918106,-0.4350174367427826,-0.17832034826278687
1772628361484484000,5.382484130859375,-0.016759851947426796,-0.4863336384296417,0.03579885885119438
1772628361494416100,5.392416015625,-0.05397593230009079,-0.47442716360092163,0.302607923746109
1772628361504348200,5.40234814453125,-0.09015151113271713,-0.3026959002017975,0.5113230347633362
1772628361514279200,5.412279052734375,-0.05099897459149361,-0.1396201252937317,0.6184075474739075
1772628361524211200,5.422211181640625,0.0209409948438406,-0.13994264602661133,0.704666018486023
1772628361534143200,5.432143310546875,-0.03756795451045036,-0.0312749445438385,0.8820820450782776
1772628361544075300,5.4420751953125,-0.07292887568473816,-0.002046752255409956,0.9333111643791199
1772628361554006300,5.45200634765625,-0.08173340559005737,-0.11415328085422516,0.9025846123695374
1772628361563938000,5.46193798828125,-0.13203652203083038,-0.2623020112514496,0.8136805891990662
1772628361573870000,5.4718701171875,-0.25007712841033936,-0.4894419014453888,0.7491042613983154
1772628361583801300,5.48180126953125,-0.3753485083580017,-0.4217219650745392,0.6720627546310425
1772628361593733400,5.4917333984375,-0.4432380795478821,-0.2244103103876114,0.4935556948184967
1772628361603665000,5.501664794921875,-0.5105840563774109,-0.1423223614692688,0.4368007779121399
1772628361613597000,5.511596923828125,-0.5656511783599854,-0.1568814367055893,0.3871056139469147
1772628361623527700,5.521527587890625,-0.6086266040802002,-0.23730570077896118,0.22178509831428528
1772628361633459700,5.531459716796875,-0.6120365858078003,-0.3448698818683624,0.00871811993420124
1772628361643391700,5.541391845703125,-0.6247369050979614,-0.4474002718925476,-0.17219014465808868
1772628361653323000,5.551322998046875,-0.6279350519180298,-0.4755377769470215,-0.27570271492004395
1772628361663255000,5.561255126953125,-0.6122727394104004,-0.37523967027664185,-0.3006192445755005
1772628361673186800,5.571186767578125,-0.5452867746353149,-0.20430704951286316,-0.20662948489189148
1772628361683118800,5.581118896484375,-0.4297221302986145,0.05110793933272362,-0.007725721225142479
1772628361693049900,5.5910498046875,-0.29953715205192566,0.3001258969306946,0.20145796239376068
1772628361702982000,5.60098193359375,-0.1775369495153427,0.4331776797771454,0.3411940336227417
1772628361712913700,5.61091357421875,-0.11859478056430817,0.47465312480926514,0.3969902992248535
1772628361722845000,5.620844970703125,-0.054013919085264206,0.4635339081287384,0.3842065930366516
1772628361732777000,5.63077685546875,-0.015088282525539398,0.3466975688934326,0.3448113203048706
1772628361742709000,5.640708984375,-0.04217209666967392,0.23173104226589203,0.2798275351524353
1772628361752641000,5.65064111328125,-0.04995628073811531,0.11704961955547333,0.2328823059797287
1772628361762571800,5.66057177734375,-0.07884199917316437,0.05405786633491516,0.17613379657268524
1772628361772503800,5.67050390625,-0.09439496695995331,0.0020136022940278053,0.12700799107551575
1772628361782435800,5.680435791015625,-0.10482976585626602,-0.008080577477812767,0.07468219101428986
1772628361792367900,5.690367919921875,-0.11199861019849777,0.03466301038861275,0.03293481469154358
1772628361802299000,5.700298828125,-0.13476836681365967,0.07532761245965958,-0.00031208634027279913
1772628361812231000,5.71023095703125,-0.16161474585533142,0.11047856509685516,-0.024795392528176308
1772628361822163000,5.720162841796875,-0.20632974803447723,0.10875709354877472,-0.03802650794386864
1772628361832094000,5.730093994140625,-0.2972697615623474,0.02445097640156746,-0.04013853520154953
1772628361842025700,5.740025634765625,-0.4172305464744568,-0.07897873967885971,-0.027579333633184433
1772628361851957800,5.749957763671875,-0.537984311580658,-0.18104436993598938,-0.022737080231308937
1772628361861889800,5.759889892578125,-0.6203497648239136,-0.2431791126728058,-0.03968330845236778
1772628361871820800,5.76982080078125,-0.6426052451133728,-0.25173380970954895,-0.08561020344495773
1772628361881753000,5.779753173828125,-0.6020287871360779,-0.28059127926826477,-0.15823113918304443
1772628361891684900,5.789684814453125,-0.5232502818107605,-0.3040832281112671,-0.26556840538978577
1772628361901615900,5.799615966796875,-0.38636937737464905,-0.28603044152259827,-0.3956662118434906
1772628361911548000,5.8095478515625,-0.2034381479024887,-0.25126540660858154,-0.5197888612747192
1772628361921480000,5.81947998046875,-0.016974791884422302,-0.20719143748283386,-0.5984897613525391
1772628361931412000,5.829411865234375,0.16483484208583832,-0.13755659759044647,-0.5952820777893066
1772628361941342700,5.8393427734375,0.31264930963516235,-0.07582453638315201,-0.51441890001297
1772628361951274800,5.849274658203125,0.41447246074676514,-0.049985840916633606,-0.3880891501903534
1772628361961207000,5.85920703125,0.4552670419216156,-0.03778589889407158,-0.24258096516132355
1772628361971137800,5.8691376953125,0.4695545434951782,0.00657704658806324,-0.1059330552816391
1772628361981069800,5.87906982421875,0.47260305285453796,0.10971168428659439,0.003710085991770029
1772628361991001900,5.889001953125,0.4628210961818695,0.2280830591917038,0.05900125578045845
1772628362000934000,5.898933837890625,0.505321204662323,0.21466659009456635,0.03816601634025574
1772628362010865000,5.908864990234375,0.4708270728588104,0.32486486434936523,0.026287807151675224
1772628362020796700,5.918796630859375,0.33688151836395264,0.4258420765399933,-0.1344004124403
1772628362030728700,5.928728759765625,0.25283873081207275,0.5548537969589233,-0.40308842062950134
1772628362040660700,5.93866064453125,0.2362581491470337,0.4579871594905853,-0.5814773440361023
1772628362050592000,5.948592041015625,0.12776248157024384,0.27203935384750366,-0.7608863711357117
1772628362060523800,5.958523681640625,0.2358335554599762,0.2009153813123703,-0.8123783469200134
1772628362070455800,5.968455810546875,0.4205542802810669,-0.08951570838689804,-0.7553073763847351
1772628362080386800,5.97838671875,0.5863882303237915,-0.3218056559562683,-0.7813022136688232
1772628362090318800,5.98831884765625,0.6977781653404236,-0.37790143489837646,-0.8099695444107056
1772628362100251000,5.9982509765625,0.8316571116447449,-0.3207622468471527,-0.7363824248313904
1772628362110182700,6.0081826171875,0.8594815731048584,-0.2956105172634125,-0.6414461731910706
1772628362120114000,6.018114013671875,0.7262153625488281,-0.3121013641357422,-0.6041592359542847
1772628362130046000,6.0280458984375,0.5975304841995239,-0.2734604477882385,-0.6317856311798096
1772628362139978000,6.03797802734375,0.5553044676780701,-0.20380760729312897,-0.6798748970031738
1772628362149908700,6.04790869140625,0.5338610410690308,-0.11637063324451447,-0.7068629264831543
1772628362159840800,6.0578408203125,0.5412497520446777,-0.048534322530031204,-0.6803828477859497
1772628362169772800,6.067772705078125,0.5755704045295715,0.02167278341948986,-0.6631641983985901
1772628362179704800,6.077704833984375,0.6309532523155212,0.07577835768461227,-0.6443103551864624
1772628362189635800,6.0876357421875,0.7224664688110352,0.11426558345556259,-0.6023033857345581
1772628362199568000,6.09756787109375,0.8265917897224426,0.180051788687706,-0.5460201501846313
1772628362209500000,6.1075,0.9352664351463318,0.29766109585762024,-0.4810585081577301
1772628362219432000,6.117431884765625,1.0043964385986328,0.42795729637145996,-0.4197283089160919
1772628362229363000,6.127363037109375,1.0307155847549438,0.4614047110080719,-0.3367079496383667
1772628362239294700,6.137294677734375,1.054300308227539,0.5077133178710938,-0.2856314480304718
1772628362249226800,6.147226806640625,1.012411117553711,0.3610300123691559,-0.1377025544643402
1772628362259158000,6.157157958984375,0.9388951063156128,0.22819261252880096,-0.006268366239964962
1772628362269090000,6.167090087890625,0.9149225354194641,0.15879853069782257,0.07539568096399307
1772628362279022000,6.17702197265625,0.9242888689041138,0.1199565902352333,0.11541633307933807
1772628362288953900,6.186953857421875,0.9276431798934937,0.06368948519229889,0.09666366130113602
1772628362298884900,6.196884765625,0.9310107231140137,0.09183324128389359,0.05564245954155922
1772628362308817000,6.20681689453125,0.904608964920044,0.12416543811559677,0.03470173105597496
1772628362318749000,6.2167490234375,0.8265362977981567,0.1486276388168335,-0.022440120577812195
1772628362328679700,6.2266796875,0.7259335517883301,0.18942338228225708,-0.1121031865477562
1772628362338612000,6.236612060546875,0.5917206406593323,0.23631499707698822,-0.21120847761631012
1772628362348544000,6.2465439453125,0.46144381165504456,0.23387491703033447,-0.30163779854774475
1772628362358476000,6.25647607421875,0.37847834825515747,0.20774425566196442,-0.36442020535469055
1772628362368406800,6.26640673828125,0.3729085326194763,0.21625615656375885,-0.37172576785087585
1772628362378338800,6.2763388671875,0.43682920932769775,0.29769107699394226,-0.3512172996997833
1772628362388270800,6.286270751953125,0.5657067894935608,0.23911446332931519,-0.2263498157262802
1772628362398201900,6.296201904296875,0.6937544941902161,0.21663950383663177,-0.11478254944086075
1772628362408134000,6.3061337890625,0.8250338435173035,0.13236850500106812,-0.029157191514968872
1772628362418065700,6.316065673828125,0.9328300952911377,0.021042512729763985,-0.02325615845620632
1772628362427998000,6.325998046875,0.9964009523391724,-0.10060819238424301,-0.07780043035745621
1772628362437929000,6.335928955078125,1.0586941242218018,-0.18785947561264038,-0.19214272499084473
1772628362447861000,6.345861083984375,1.1390790939331055,-0.2082778364419937,-0.33799582719802856
1772628362457792800,6.355792724609375,1.2521175146102905,-0.15772224962711334,-0.5005692839622498
1772628362467724800,6.365724853515625,1.372155785560608,-0.1274605542421341,-0.6571166515350342
1772628362477655800,6.37565576171875,1.481334924697876,-0.13736671209335327,-0.7768470048904419
1772628362487587800,6.385587890625,1.558462142944336,-0.19231247901916504,-0.8238760828971863
1772628362497519900,6.395519775390625,1.5967085361480713,-0.2755335867404938,-0.8261520266532898
1772628362507451000,6.405450927734375,1.6080632209777832,-0.3721981942653656,-0.8415235877037048
1772628362517383000,6.4153828125,1.570614218711853,-0.43637344241142273,-0.8797255754470825
1772628362527315000,6.42531494140625,1.5110039710998535,-0.4305162727832794,-0.8734747767448425
1772628362537247000,6.4352470703125,1.452571988105774,-0.3179050385951996,-0.7852181196212769
1772628362547177700,6.445177734375,1.398821234703064,-0.13681592047214508,-0.5984677672386169
1772628362557109800,6.45510986328125,1.3595166206359863,0.031262826174497604,-0.35250645875930786
1772628362567041800,6.465041748046875,1.3384828567504883,0.17771653831005096,-0.07155396044254303
1772628362576973800,6.474973876953125,1.2714439630508423,0.29040151834487915,0.24397283792495728
1772628362586904800,6.48490478515625,1.146513819694519,0.3640621602535248,0.5812519788742065
1772628362596836900,6.4948369140625,0.9822439551353455,0.3338816165924072,0.8965180516242981
1772628362606769000,6.504768798828125,0.7836287021636963,0.23403841257095337,1.0900299549102783
1772628362616700000,6.514699951171875,0.5709789991378784,0.1395188421010971,1.1400331258773804
1772628362626632000,6.5246318359375,0.35586634278297424,0.14985749125480652,1.085675835609436
1772628362636564000,6.53456396484375,0.15304000675678253,0.1966865062713623,0.9340460896492004
1772628362646495700,6.544495849609375,-0.016201846301555634,0.325853556394577,0.6931302547454834
1772628362656427000,6.554427001953125,-0.12156236171722412,0.49797549843788147,0.4363570213317871
1772628362666359000,6.564359130859375,-0.1303703337907791,0.6543027758598328,0.17895561456680298
1772628362676291000,6.574291015625,-0.052423328161239624,0.7309607863426208,-0.01821417361497879
1772628362686221800,6.584221923828125,0.11262694746255875,0.742591917514801,-0.12724095582962036
1772628362696153900,6.59415380859375,0.3432615101337433,0.6822561621665955,-0.19138239324092865
1772628362706086000,6.6040859375,0.6052381992340088,0.5531405210494995,-0.20211146771907806
1772628362716018000,6.614017822265625,0.8324644565582275,0.3752056956291199,-0.2312275469303131
1772628362725949000,6.623948974609375,1.061417818069458,0.1618843376636505,-0.3070755898952484
1772628362735881000,6.633880859375,1.229392647743225,0.028225332498550415,-0.41545745730400085
1772628362745813000,6.64381298828125,1.3705967664718628,-0.054194819182157516,-0.5021032094955444
1772628362755745000,6.6537451171875,1.507322907447815,-0.18511849641799927,-0.5462578535079956
1772628362765676000,6.663676025390625,1.6440666913986206,-0.23334580659866333,-0.552696704864502
1772628362775607800,6.67360791015625,1.7716907262802124,-0.3116198480129242,-0.5599956512451172
1772628362785539800,6.683539794921875,1.799646019935608,-0.31578126549720764,-0.5730078220367432
1772628362795470800,6.693470947265625,1.7475851774215698,-0.2852417230606079,-0.6028583645820618
1772628362805403000,6.70340283203125,1.6110235452651978,-0.21774742007255554,-0.5947437882423401
1772628362815335000,6.7133349609375,1.3660972118377686,-0.04731735587120056,-0.5101940035820007
1772628362825267000,6.723266845703125,1.0450246334075928,0.05555551499128342,-0.3660777807235718
1772628362835198000,6.733197998046875,0.6482110023498535,0.02778966911137104,-0.17071200907230377
1772628362845130000,6.7431298828125,0.37434327602386475,0.02249274216592312,0.05185206979513168
1772628362855062000,6.75306201171875,0.22692160308361053,0.03376191109418869,0.23616544902324677
1772628362864993800,6.762993896484375,0.14697027206420898,0.004157308489084244,0.3438173830509186
1772628362874924800,6.7729248046875,0.0812530443072319,-0.027498088777065277,0.37431031465530396
1772628362884856800,6.78285693359375,0.007882524281740189,-0.02284529060125351,0.33806222677230835
1772628362894788900,6.792788818359375,-0.04422355443239212,-0.08139382302761078,0.30148130655288696
1772628362904720000,6.802719970703125,-0.11989270150661469,-0.1629309356212616,0.22913067042827606
1772628362914652000,6.81265185546875,-0.18982678651809692,-0.2348242998123169,0.18126460909843445
1772628362924584000,6.822583984375,-0.220428004860878,-0.2566758394241333,0.20774996280670166
1772628362934516000,6.832515869140625,-0.22584140300750732,-0.23296386003494263,0.2007991075515747
1772628362944446700,6.84244677734375,-0.1731155812740326,-0.2216596156358719,0.1504220813512802
1772628362954378800,6.852378662109375,-0.10066242516040802,-0.21485523879528046,0.0856100544333458
1772628362964310800,6.862310791015625,-0.04477952420711517,-0.1791342794895172,0.004320164211094379
1772628362974242800,6.872242919921875,0.05036616697907448,-0.16533724963665009,-0.017817629501223564
1772628362984174000,6.882174072265625,0.13268285989761353,-0.1162189394235611,-0.06562202423810959
1772628362994105900,6.89210595703125,0.1766710877418518,-0.01701512560248375,-0.07049347460269928
1772628363004038000,6.902037841796875,0.19054104387760162,0.051416292786598206,-0.021243350580334663
1772628363013969000,6.911968994140625,0.14759543538093567,0.09831909090280533,0.04333990439772606
1772628363023901000,6.92190087890625,0.06292984634637833,0.09945724159479141,0.13951368629932404
1772628363033832700,6.931832763671875,-0.004555723629891872,0.08944401890039444,0.2542104721069336
1772628363043764700,6.9417646484375,0.006378249730914831,0.0453018993139267,0.34992921352386475
1772628363053696000,6.951696044921875,-0.0011315981391817331,0.04033936187624931,0.3714134693145752
1772628363063628000,6.9616279296875,-0.03754672035574913,-0.04092828556895256,0.3796055316925049
1772628363073560000,6.97156005859375,-0.15928088128566742,-0.020502638071775436,0.3117188811302185
1772628363083490800,6.98149072265625,-0.27935343980789185,-0.11625755578279495,0.2859996557235718
1772628363093422800,6.9914228515625,-0.4267687201499939,-0.17938432097434998,0.23932376503944397
1772628363103355000,7.00135498046875,-0.5062913298606873,-0.15951097011566162,0.22424685955047607
1772628363113287000,7.011286865234375,-0.5821703672409058,-0.2854696810245514,0.2815319895744324
1772628363123218000,7.021218017578125,-0.6297215223312378,-0.2797550857067108,0.2955385148525238
1772628363133150000,7.03114990234375,-0.6521194577217102,-0.2652485966682434,0.27868738770484924
1772628363143082000,7.04108203125,-0.6437140703201294,-0.24073845148086548,0.24455209076404572
1772628363153014000,7.051013916015625,-0.6248610019683838,-0.2381674349308014,0.2078438699245453
1772628363162944800,7.06094482421875,-0.6100795269012451,-0.27066269516944885,0.15943871438503265
1772628363172876800,7.070876708984375,-0.5713928937911987,-0.2411423623561859,0.09173557162284851
1772628363182808800,7.080808837890625,-0.5233945846557617,-0.25738242268562317,0.06350959837436676
1772628363192739800,7.09073974609375,-0.48838815093040466,-0.21160373091697693,0.030495986342430115
1772628363202672000,7.100672119140625,-0.4609527885913849,-0.07532128691673279,0.019101513549685478
1772628363212604000,7.11060400390625,-0.39694851636886597,-0.14923334121704102,0.04924050346016884
1772628363222536000,7.120535888671875,-0.35214725136756897,-0.17277202010154724,0.07811014354228973
1772628363232467000,7.130467041015625,-0.3073219954967499,-0.09158794581890106,0.1139211356639862
1772628363242399000,7.14039892578125,-0.2619001269340515,-0.07748928666114807,0.13391585648059845
1772628363252331000,7.1503310546875,-0.2302495539188385,-0.0031596627086400986,0.1700621396303177
1772628363262262800,7.1602626953125,-0.1059502586722374,-0.16537997126579285,0.266408234834671
1772628363272193800,7.17019384765625,-0.1432662010192871,-0.20568957924842834,0.31232619285583496
1772628363282125800,7.180125732421875,-0.1486559510231018,-0.21334253251552582,0.3601510226726532
1772628363292058000,7.19005810546875,-0.18535670638084412,-0.28721970319747925,0.43673208355903625
1772628363301988900,7.19998876953125,-0.24341386556625366,-0.31550338864326477,0.4572843313217163
1772628363311921000,7.2099208984375,-0.3168790340423584,-0.30573996901512146,0.4444010257720947
1772628363321853000,7.21985302734375,-0.4188877046108246,-0.24508395791053772,0.47289860248565674
1772628363331785000,7.229784912109375,-0.5329626202583313,-0.1825510710477829,0.5349422693252563
1772628363341715700,7.2397158203125,-0.6555010080337524,-0.15400397777557373,0.6092970371246338
1772628363351647700,7.249647705078125,-0.7545250654220581,-0.14953279495239258,0.6819999814033508
1772628363361579800,7.259579833984375,-0.7907902002334595,-0.17886891961097717,0.6903079152107239
1772628363371512000,7.269511962890625,-0.7789663076400757,-0.18577289581298828,0.5908777117729187
1772628363381443000,7.279443115234375,-0.7409091591835022,-0.20155610144138336,0.4393543601036072
1772628363391374800,7.289374755859375,-0.6410462260246277,-0.11532506346702576,0.25712090730667114
1772628363401307000,7.299306884765625,-0.5909027457237244,-0.292044997215271,0.04956565052270889
1772628363411238000,7.30923779296875,-0.5091844797134399,-0.20160004496574402,-0.059032730758190155
1772628363421170000,7.319169921875,-0.42564907670021057,-0.052409447729587555,-0.07098884880542755
1772628363431101700,7.329101806640625,-0.28420621156692505,0.027191633358597755,-0.0072455573827028275
1772628363441033700,7.33903369140625,-0.15253187716007233,0.07165782898664474,0.06756813079118729
1772628363450965000,7.348965087890625,-0.04781797528266907,0.09182169288396835,0.1349562257528305
1772628363460897000,7.35889697265625,0.013296632096171379,0.09287114441394806,0.17698736488819122
1772628363470829000,7.3688291015625,0.04439276456832886,0.07246227562427521,0.1939336061477661
1772628363480760800,7.3787607421875,0.03484448790550232,0.0618196576833725,0.21680885553359985
1772628363490691800,7.38869189453125,0.0077169956639409065,0.06093522161245346,0.25728997588157654
1772628363500624000,7.398623779296875,-0.008120628073811531,0.05576706677675247,0.292369544506073
1772628363510556000,7.408555908203125,-0.01743609830737114,0.07314099371433258,0.34712252020835876
1772628363520487000,7.41848681640625,-0.027750086039304733,0.07944018393754959,0.4292331635951996
1772628363530419000,7.4284189453125,-0.043232906609773636,0.0848780944943428,0.5031537413597107
1772628363540351000,7.43835107421875,-0.03992269188165665,0.07694853842258453,0.5494301915168762
1772628363550283000,7.448282958984375,-0.0451241135597229,0.08440752327442169,0.5930354595184326
1772628363560213800,7.4582138671875,-0.055931512266397476,0.08985163271427155,0.5934955477714539
1772628363570145800,7.468145751953125,-0.05304570868611336,0.06348155438899994,0.5150592923164368
1772628363580077800,7.478077880859375,-0.07487491518259048,0.030041495338082314,0.36038893461227417
1772628363590009900,7.488009765625,-0.1508069634437561,-0.05795387178659439,0.14332854747772217
1772628363599941400,7.49794140625,-0.30174189805984497,-0.17223308980464935,-0.12202509492635727
1772628363609873400,7.507873291015625,-0.4117349684238434,-0.2738364040851593,-0.39431464672088623
1772628363619805400,7.517805419921875,-0.45743006467819214,-0.33724871277809143,-0.6503158211708069
1772628363629737500,7.527737548828125,-0.43933308124542236,-0.3770424723625183,-0.8411352634429932
1772628363639668500,7.53766845703125,-0.39272773265838623,-0.39729630947113037,-1.0017465353012085
1772628363649600300,7.547600341796875,-0.3264855742454529,-0.4040343761444092,-1.1380265951156616
1772628363659532300,7.5575322265625,-0.21869908273220062,-0.3685419261455536,-1.2152483463287354
1772628363669463300,7.56746337890625,-0.054595090448856354,-0.3183780908584595,-1.233360767364502
1772628363679395300,7.577395263671875,0.10103239119052887,-0.2992057204246521,-1.1433570384979248
1772628363689327400,7.587327392578125,0.26527461409568787,-0.2187574803829193,-0.9713975191116333
1772628363699259400,7.59725927734375,0.44991534948349,-0.12587353587150574,-0.7547881603240967
1772628363709190400,7.6071904296875,0.6339874863624573,-0.05210796743631363,-0.5188986659049988
1772628363719122400,7.617122314453125,0.7612357139587402,0.012185532599687576,-0.28658077120780945
1772628363729054500,7.627054443359375,0.8070759177207947,0.08617667108774185,-0.09217584878206253
1772628363738986200,7.636986328125,0.7767462134361267,0.14833708107471466,0.06501082330942154
1772628363748917200,7.646917236328125,0.7018879652023315,0.198855921626091,0.1728089153766632
1772628363758849300,7.656849365234375,0.6442578434944153,0.21397078037261963,0.2299293875694275
1772628363768781300,7.66678125,0.6082101464271545,0.20148853957653046,0.23151716589927673
1772628363778712300,7.67671240234375,0.5723580718040466,0.19933980703353882,0.19655707478523254
1772628363788644400,7.686644287109375,0.534302294254303,0.19654694199562073,0.12448395043611526
1772628363798576400,7.696576416015625,0.4855409562587738,0.2090911865234375,-0.015651369467377663
1772628363808508400,7.70650830078125,0.4119969606399536,0.16481159627437592,-0.15310163795948029
1772628363818439400,7.716439453125,0.319418340921402,0.15656715631484985,-0.2510717511177063
1772628363828371200,7.72637109375,0.2828240990638733,0.17728708684444427,-0.3570117652416229
1772628363838303200,7.73630322265625,0.2524077594280243,0.19102218747138977,-0.47607365250587463
1772628363848235300,7.7462353515625,0.22506296634674072,0.20000289380550385,-0.5894084572792053
1772628363858166500,7.75616650390625,0.21406790614128113,0.1988404542207718,-0.6725913882255554
1772628363868098300,7.766098388671875,0.2342866212129593,0.18775343894958496,-0.7205831408500671
1772628363878030300,7.7760302734375,0.2763087749481201,0.16905072331428528,-0.6999452114105225
1772628363887962400,7.78596240234375,0.33791008591651917,0.1514269858598709,-0.6196429133415222
1772628363897893400,7.795893310546875,0.39736658334732056,0.12305837869644165,-0.502371072769165
1772628363907825400,7.805825439453125,0.444180965423584,0.11359083652496338,-0.3868381083011627
1772628363917757200,7.815757080078125,0.49245619773864746,0.13827113807201385,-0.3095420002937317
1772628363927688400,7.8256884765625,0.5335873961448669,0.15630286931991577,-0.26630958914756775
1772628363937620500,7.835620361328125,0.5754292011260986,0.16941626369953156,-0.24432417750358582
1772628363947552500,7.845552490234375,0.648328959941864,0.21714968979358673,-0.21993307769298553
1772628363957484500,7.855484619140625,0.7007505297660828,0.223211407661438,-0.17576782405376434
1772628363967415300,7.865415283203125,0.6706944108009338,0.20333410799503326,-0.1556127518415451
1772628363977347300,7.875347412109375,0.7110006213188171,0.1978050321340561,-0.1673300564289093
1772628363987279400,7.885279296875,0.7348816990852356,0.17886808514595032,-0.19019649922847748
1772628363997211400,7.89521142578125,0.7445049285888672,0.1414637416601181,-0.2695344090461731
1772628364007142400,7.905142333984375,0.7606498003005981,0.1079835370182991,-0.34129008650779724
1772628364017074400,7.915074462890625,0.7883259654045105,0.09794782102108002,-0.399468332529068
1772628364027006500,7.92500634765625,0.7763739824295044,0.05369407683610916,-0.4501674473285675
1772628364036937500,7.9349375,0.7670190334320068,0.027373190969228745,-0.5075465440750122
1772628364046868200,7.9448681640625,0.7365692853927612,0.027788911014795303,-0.5704056620597839
1772628364056800300,7.95480029296875,0.6989477872848511,0.022179346531629562,-0.6118167638778687
1772628364066732300,7.964732177734375,0.6762259602546692,-0.0037140357308089733,-0.6356717348098755
1772628364076663300,7.974663330078125,0.655574381351471,-0.025688253343105316,-0.6411929726600647
1772628364086595300,7.98459521484375,0.6329367160797119,-0.030549321323633194,-0.6331803202629089
1772628364096527400,7.99452734375,0.6135972738265991,-0.023922113701701164,-0.6278271675109863
1772628364106459400,8.00445947265625,0.5533653497695923,-0.017848242074251175,-0.5864408612251282
1772628364116390400,8.014390380859375,0.4879377782344818,0.004022793844342232,-0.5284410119056702
1772628364126322200,8.024322265625,0.4542895257472992,0.030259720981121063,-0.4643275737762451
1772628364136254200,8.034254150390625,0.460256963968277,0.06098441779613495,-0.39759260416030884
1772628364146186200,8.044186279296875,0.4697495400905609,0.08689510822296143,-0.36370256543159485
1772628364156117500,8.054117431640625,0.4580017626285553,0.09891670197248459,-0.3434634804725647
1772628364166049500,8.064049560546875,0.4559149146080017,0.11457262933254242,-0.3395739495754242
1772628364175981300,8.073981201171875,0.4245229959487915,0.132806658744812,-0.3551287055015564
1772628364185913300,8.083913330078126,0.41213878989219666,0.1312204748392105,-0.36113813519477844
1772628364195844400,8.09384423828125,0.44745802879333496,0.12307985872030258,-0.3707788586616516
1772628364205776400,8.1037763671875,0.5501697659492493,0.08403418958187103,-0.33506345748901367
1772628364215708200,8.113708251953126,0.7114043235778809,0.12492586672306061,-0.27830901741981506
1772628364225640200,8.12364013671875,0.8762409090995789,0.2092684507369995,-0.25863251090049744
1772628364235571500,8.133571533203124,1.027783989906311,0.2600294053554535,-0.26389288902282715
1772628364245503500,8.14350341796875,1.1616547107696533,0.2932581901550293,-0.2676844298839569
1772628364255435500,8.153435546875,1.2722080945968628,0.25950413942337036,-0.26874223351478577
1772628364265366300,8.1633662109375,1.3292256593704224,0.2020120620727539,-0.2548852860927582
1772628364275298300,8.17329833984375,1.3128502368927002,0.1729346364736557,-0.23777025938034058
1772628364285230300,8.183230224609375,1.2521435022354126,0.16679897904396057,-0.2241649627685547
1772628364295162400,8.193162353515625,1.1867202520370483,0.19747011363506317,-0.19721736013889313
1772628364305093400,8.20309326171875,1.1114073991775513,0.25896304845809937,-0.153591588139534
1772628364315025400,8.213025390625,1.0379993915557861,0.287122905254364,-0.08950188755989075
1772628364324957400,8.22295751953125,0.9648122191429138,0.26479098200798035,0.010450009256601334
1772628364334889500,8.232889404296875,0.8856468200683594,0.22260813415050507,0.11964748054742813
1772628364344820200,8.2428203125,0.7981166839599609,0.1529771238565445,0.18006475269794464
1772628364354752300,8.252752197265625,0.7096244692802429,0.06604456901550293,0.14444012939929962
1772628364364685300,8.262685302734376,0.6240626573562622,0.031116144731640816,0.020541353151202202
1772628364374617300,8.272617431640626,0.5416027903556824,0.03618314117193222,-0.16511443257331848
1772628364384549400,8.28254931640625,0.47742804884910583,0.08745511621236801,-0.36277610063552856
1772628364394480400,8.29248046875,0.47683876752853394,0.151334747672081,-0.4885207712650299
1772628364404412200,8.302412109375,0.5569568276405334,0.21904003620147705,-0.4880819022655487
1772628364414344200,8.31234423828125,0.705893874168396,0.2663661539554596,-0.34694263339042664
1772628364424276200,8.322276123046874,0.8360161781311035,0.2755524516105652,-0.10453051328659058
1772628364434207500,8.33220751953125,0.8834519386291504,0.2316845804452896,0.15627826750278473
1772628364444139500,8.342139404296875,0.8501688241958618,0.1770237386226654,0.3919597566127777
1772628364454071300,8.3520712890625,0.7560520172119141,0.16331106424331665,0.5735325813293457
1772628364464003300,8.36200341796875,0.6265348196029663,0.2077680081129074,0.6808875203132629
1772628364473934300,8.371934326171875,0.5088499784469604,0.2296033352613449,0.706967830657959
1772628364483866400,8.381866455078125,0.3640992045402527,0.28570470213890076,0.645541250705719
1772628364493798100,8.391798095703125,0.2491271197795868,0.4026933014392853,0.540458619594574
1772628364503730200,8.401730224609375,0.16470305621623993,0.48411813378334045,0.41437098383903503
1772628364513661400,8.411661376953125,0.10384894907474518,0.5537829995155334,0.3100886642932892
1772628364523593500,8.421593505859375,0.08895202726125717,0.5875222682952881,0.24432536959648132
1772628364533525500,8.431525390625,0.12541311979293823,0.5730127096176147,0.2256106585264206
1772628364543456300,8.441456298828125,0.19093672931194305,0.5519213080406189,0.21039709448814392
1772628364553388300,8.45138818359375,0.26340314745903015,0.5110984444618225,0.15879212319850922
1772628364563320300,8.4613203125,0.3244459927082062,0.39528900384902954,0.06101575866341591
1772628364573252400,8.47125244140625,0.3330923020839691,0.28152090311050415,-0.0455876924097538
1772628364583183400,8.481183349609376,0.35918569564819336,0.25315210223197937,-0.19853302836418152
1772628364593115400,8.491115478515624,0.4282548725605011,0.20085850358009338,-0.35269442200660706
1772628364603047000,8.501046875,0.5096493363380432,0.0918494462966919,-0.4524676203727722
1772628364612979000,8.51097900390625,0.6047457456588745,-0.01994636282324791,-0.5425377488136292
1772628364622910000,8.520909912109374,0.7012581825256348,-0.12672580778598785,-0.6339523792266846
1772628364632842000,8.530842041015624,0.777746319770813,-0.22345221042633057,-0.681199848651886
1772628364642774000,8.54077392578125,0.8399490118026733,-0.23322094976902008,-0.7095843553543091
1772628364652705800,8.550705810546875,0.8934181332588196,-0.29595446586608887,-0.73221355676651
1772628364662637000,8.560636962890625,0.8457560539245605,-0.28130948543548584,-0.7074235677719116
1772628364672569000,8.570569091796875,0.797705888748169,-0.3428809940814972,-0.6398864388465881
1772628364682501000,8.580501220703125,0.6939646005630493,-0.3216622471809387,-0.5096865892410278
1772628364692433000,8.590432861328125,0.5707846879959106,-0.265453040599823,-0.3225773274898529
1772628364702364000,8.600364013671875,0.45094722509384155,-0.1832505762577057,-0.11406991630792618
1772628364712296000,8.6102958984375,0.3236270248889923,-0.09181872755289078,0.08110693842172623
1772628364722228000,8.62022802734375,0.2062084972858429,-0.060869596898555756,0.26455745100975037
1772628364732160000,8.630159912109375,0.11725696176290512,0.01914273202419281,0.4044797420501709
1772628364742091000,8.640091064453125,0.040459394454956055,0.024829644709825516,0.5697928071022034
1772628364752023000,8.65002294921875,-0.02840488590300083,0.016454579308629036,0.6706885099411011
1772628364761955000,8.659955078125,-0.06133647263050079,0.054481856524944305,0.7018061876296997
1772628364771887000,8.66988720703125,-0.1238027885556221,0.19787409901618958,0.62490314245224
1772628364781817900,8.67981787109375,-0.11272110790014267,0.09733203053474426,0.5713430047035217
1772628364791750000,8.68975,-0.17965911328792572,0.08343425393104553,0.507992684841156
1772628364801682000,8.699681884765624,-0.17791767418384552,0.12398699671030045,0.4186753034591675
1772628364811613200,8.70961328125,-0.15586645901203156,0.14029069244861603,0.3006846308708191
1772628364821545000,8.719544921875,-0.17425532639026642,0.13119439780712128,0.21727333962917328
1772628364831477000,8.72947705078125,-0.17448678612709045,0.21619679033756256,0.08287215232849121
1772628364841409000,8.739408935546875,-0.1611560583114624,0.11269437521696091,0.040483683347702026
1772628364851340000,8.749340087890625,-0.20847000181674957,0.2143590897321701,-0.04763554781675339
1772628364861272000,8.75927197265625,-0.10263571888208389,0.17627562582492828,-0.03978428244590759
1772628364871203800,8.769203857421875,-0.2249876856803894,-0.007807821035385132,0.014033651910722256
1772628364881135900,8.779135986328125,-0.18422721326351166,-0.01778961531817913,0.05712519586086273
1772628364891067100,8.789067138671875,-0.1610254943370819,0.042837101966142654,0.017386719584465027
1772628364900999200,8.798999267578125,-0.15527918934822083,-0.11430804431438446,0.0913083478808403
1772628364910931000,8.808930908203125,-0.19677141308784485,-0.12942956387996674,0.11402346193790436
1772628364920863000,8.818863037109375,-0.20618435740470886,-0.14211499691009521,0.12811078131198883
1772628364930794000,8.8287939453125,-0.24315717816352844,-0.18658988177776337,0.13082168996334076
1772628364940726000,8.83872607421875,-0.26302650570869446,-0.1966284066438675,0.11186743527650833
1772628364950658000,8.848657958984376,-0.27542367577552795,-0.2430635541677475,0.117852583527565
1772628364960589800,8.85858984375,-0.3038230836391449,-0.2581237554550171,0.13980022072792053
1772628364970521000,8.86852099609375,-0.3361688256263733,-0.24956421554088593,0.18841944634914398
1772628364980453000,8.878453125,-0.3492816984653473,-0.24143065512180328,0.2592611312866211
1772628364990385200,8.88838525390625,-0.3759137988090515,-0.14790770411491394,0.27018260955810547
1772628365000317200,8.898317138671874,-0.43402689695358276,-0.05144854635000229,0.2570185959339142
1772628365010248000,8.908248046875,-0.5129109621047974,-0.06121601164340973,0.2154935896396637
1772628365020180000,8.918179931640625,-0.5856783390045166,-0.03571624308824539,0.1259237676858902
1772628365030112000,8.928112060546875,-0.6016106605529785,-0.10036160051822662,0.09992008656263351
1772628365040044000,8.9380439453125,-0.6140950322151184,-0.2327076494693756,0.06851156800985336
1772628365049975000,8.94797509765625,-0.5408077239990234,-0.2338687926530838,0.062309861183166504
1772628365059907000,8.957906982421875,-0.43409568071365356,-0.1730421930551529,0.002612709067761898
1772628365069839000,8.967839111328125,-0.30911025404930115,-0.2876717746257782,0.0006386050954461098
1772628365079771100,8.977771240234375,-0.2156447470188141,-0.3435680866241455,0.0454404316842556
1772628365089702000,8.987701904296875,-0.15425421297550201,-0.33147984743118286,0.13259604573249817
1772628365099634000,8.997634033203125,-0.09388940781354904,-0.29146531224250793,0.2454615980386734
1772628365109566000,9.00756591796875,-0.024777865037322044,-0.3076862394809723,0.3888113796710968
1772628365119498000,9.017498046875,0.05010676011443138,-0.39261123538017273,0.5594803094863892
1772628365129429000,9.027428955078125,0.09272709488868713,-0.4256163239479065,0.6961793899536133
1772628365139361000,9.037361083984376,0.060669559985399246,-0.39287886023521423,0.679028332233429
1772628365149293000,9.04729296875,-0.0396936759352684,-0.30288514494895935,0.5139787197113037
1772628365159224000,9.05722412109375,-0.1943967044353485,-0.159000426530838,0.2938024401664734
1772628365169156000,9.067156005859376,-0.376632958650589,-0.015138272196054459,0.1597665250301361
1772628365179088000,9.077087890625,-0.5514284372329712,0.0713082030415535,0.16980211436748505
1772628365189020000,9.08702001953125,-0.6354483962059021,0.1292157620191574,0.2841090261936188
1772628365198951000,9.096950927734374,-0.657193124294281,0.1714329868555069,0.35029923915863037
