time,seconds_elapsed,z,y,x
1772806937367114000,0.058114013671875,-1.0012359619140625,-0.0227813720703125,-0.0126495361328125
1772806937377045800,0.068045654296875,-0.995574951171875,-0.0234375,-0.0076446533203125
1772806937386977000,0.07797705078125,-0.993408203125,-0.02410888671875,-0.00531005859375
1772806937396909000,0.087908935546875,-0.9980010986328125,-0.024200439453125,-0.008697509765625
1772806937406841000,0.097841064453125,-0.99664306640625,-0.02325439453125,-0.0082855224609375
1772806937416772900,0.10777294921875,-0.994171142578125,-0.024017333984375,-0.00927734375
1772806937426704000,0.117703857421875,-0.9967803955078125,-0.025390625,-0.012237548828125
1772806937436636000,0.127635986328125,-0.9964141845703125,-0.0239410400390625,-0.012664794921875
1772806937446567700,0.137567626953125,-0.9949493408203125,-0.023834228515625,-0.012054443359375
1772806937456499700,0.147499755859375,-0.9971923828125,-0.0235595703125,-0.00909423828125
1772806937466431000,0.157430908203125,-0.9972076416015625,-0.0234832763671875,-0.0084686279296875
1772806937476363000,0.167363037109375,-0.994964599609375,-0.0226287841796875,-0.004669189453125
1772806937486295000,0.177294921875,-0.996490478515625,-0.0222015380859375,-0.0069732666015625
1772806937496226800,0.187226806640625,-0.9967498779296875,-0.0223541259765625,-0.0083160400390625
1772806937506157800,0.19715771484375,-0.9966278076171875,-0.02215576171875,-0.0077362060546875
1772806937516089900,0.20708984375,-0.9952239990234375,-0.0225372314453125,-0.0102081298828125
1772806937526022000,0.21702197265625,-0.9960479736328125,-0.021331787109375,-0.0118408203125
1772806937535953700,0.22695361328125,-0.995880126953125,-0.02294921875,-0.0086517333984375
1772806937545885000,0.236885009765625,-0.996917724609375,-0.0243072509765625,-0.008392333984375
1772806937555817000,0.24681689453125,-0.995880126953125,-0.02471923828125,-0.0077056884765625
1772806937565749000,0.2567490234375,-0.9962310791015625,-0.024169921875,-0.008148193359375
1772806937575681000,0.266680908203125,-0.99688720703125,-0.0239715576171875,-0.01055908203125
1772806937585611800,0.27661181640625,-0.9962158203125,-0.0241851806640625,-0.01190185546875
1772806937595543800,0.286543701171875,-0.9955291748046875,-0.02490234375,-0.00933837890625
1772806937605475800,0.296475830078125,-0.99639892578125,-0.0240478515625,-0.0084991455078125
1772806937615406800,0.30640673828125,-0.996429443359375,-0.024871826171875,-0.0089263916015625
1772806937625339000,0.3163388671875,-0.9962005615234375,-0.0228118896484375,-0.0078125
1772806937635271000,0.32627099609375,-0.9962158203125,-0.0240936279296875,-0.009002685546875
1772806937645203000,0.336202880859375,-0.996734619140625,-0.02239990234375,-0.009185791015625
1772806937655134000,0.346134033203125,-0.995147705078125,-0.021728515625,-0.0119781494140625
1772806937665065700,0.356065673828125,-0.995941162109375,-0.02252197265625,-0.012908935546875
1772806937674997800,0.365997802734375,-0.9962005615234375,-0.0221099853515625,-0.011444091796875
1772806937684929800,0.3759296875,-0.9953155517578125,-0.0223388671875,-0.00836181640625
1772806937694861000,0.385861083984375,-0.9967041015625,-0.0217437744140625,-0.008056640625
1772806937704793000,0.39579296875,-0.9950103759765625,-0.02294921875,-0.008575439453125
1772806937714724900,0.405724853515625,-0.9972686767578125,-0.02362060546875,-0.0076751708984375
1772806937724657000,0.415656982421875,-0.9968414306640625,-0.0246734619140625,-0.009063720703125
1772806937734588000,0.425587890625,-0.9974517822265625,-0.0228729248046875,-0.01220703125
1772806937744520000,0.43552001953125,-0.997161865234375,-0.02496337890625,-0.0118560791015625
1772806937754451700,0.44545166015625,-0.995452880859375,-0.0260772705078125,-0.0104827880859375
1772806937764383700,0.4553837890625,-0.99664306640625,-0.0239410400390625,-0.0097198486328125
1772806937774315000,0.46531494140625,-0.995269775390625,-0.0248260498046875,-0.0084075927734375
1772806937784247000,0.4752470703125,-0.996429443359375,-0.0231170654296875,-0.0081939697265625
1772806937794179000,0.485178955078125,-0.9958038330078125,-0.0240631103515625,-0.0079498291015625
1772806937804110800,0.49511083984375,-0.9961395263671875,-0.024444580078125,-0.0100555419921875
1772806937814041900,0.505041748046875,-0.9964447021484375,-0.0228271484375,-0.011688232421875
1772806937823974000,0.514973876953125,-0.99755859375,-0.0231170654296875,-0.0108184814453125
1772806937833906000,0.524906005859375,-0.995025634765625,-0.02166748046875,-0.0092315673828125
1772806937843838000,0.534837890625,-0.9946136474609375,-0.0229034423828125,-0.009124755859375
1772806937853768700,0.544768798828125,-0.9947967529296875,-0.0231475830078125,-0.0072479248046875
1772806937863701000,0.554700927734375,-0.9966278076171875,-0.02294921875,-0.007904052734375
1772806937873633000,0.564633056640625,-0.9973297119140625,-0.0240478515625,-0.010833740234375
1772806937883565000,0.57456494140625,-0.996246337890625,-0.0238494873046875,-0.0118408203125
1772806937893495800,0.584495849609375,-0.996826171875,-0.023773193359375,-0.0123443603515625
1772806937903427800,0.594427734375,-0.9958038330078125,-0.0230560302734375,-0.0110931396484375
1772806937913360000,0.60435986328125,-0.9978485107421875,-0.02288818359375,-0.0088348388671875
1772806937923292000,0.6142919921875,-0.9969940185546875,-0.0237579345703125,-0.0083770751953125
1772806937933222700,0.62422265625,-0.9951629638671875,-0.0229949951171875,-0.006439208984375
1772806937943154700,0.63415478515625,-0.9954071044921875,-0.023101806640625,-0.0070037841796875
1772806937953087000,0.6440869140625,-0.995269775390625,-0.024200439453125,-0.0101470947265625
1772806937963019000,0.65401904296875,-0.9961700439453125,-0.0245208740234375,-0.0117034912109375
1772806937972950000,0.663949951171875,-0.9959716796875,-0.0252685546875,-0.01226806640625
1772806937982881800,0.6738818359375,-0.996246337890625,-0.0246124267578125,-0.010589599609375
1772806937992813800,0.683813720703125,-0.99652099609375,-0.0241241455078125,-0.0074615478515625
1772806938002745900,0.693745849609375,-0.9959564208984375,-0.023895263671875,-0.0065765380859375
1772806938012676900,0.7036767578125,-0.9971160888671875,-0.0238494873046875,-0.00830078125
1772806938022608600,0.713608642578125,-0.99615478515625,-0.0233001708984375,-0.0096893310546875
1772806938032540700,0.723540771484375,-0.99609375,-0.022186279296875,-0.0109100341796875
1772806938042473000,0.733472900390625,-0.996856689453125,-0.02301025390625,-0.0113067626953125
1772806938052404000,0.743404052734375,-0.9966888427734375,-0.0218658447265625,-0.0115966796875
1772806938062336000,0.7533359375,-0.9968719482421875,-0.0238800048828125,-0.0084991455078125
1772806938072267800,0.763267822265625,-0.9952239990234375,-0.0209808349609375,-0.0061492919921875
1772806938082199800,0.77319970703125,-0.9959259033203125,-0.0203857421875,-0.0078277587890625
1772806938092130800,0.783130859375,-0.996551513671875,-0.02337646484375,-0.009613037109375
1772806938102062800,0.793062744140625,-0.9959716796875,-0.02154541015625,-0.0109405517578125
1772806938111995000,0.802994873046875,-0.99578857421875,-0.0224609375,-0.011810302734375
1772806938121927000,0.812927001953125,-0.9964141845703125,-0.0225067138671875,-0.01190185546875
1772806938131858000,0.82285791015625,-0.9964752197265625,-0.0236968994140625,-0.009674072265625
1772806938141790000,0.8327900390625,-0.9956207275390625,-0.02349853515625,-0.0090484619140625
1772806938151722000,0.842721923828125,-0.9963226318359375,-0.0235443115234375,-0.010162353515625
1772806938161652700,0.85265283203125,-0.9962005615234375,-0.0243072509765625,-0.0098724365234375
1772806938171584800,0.862584716796875,-0.996826171875,-0.0271148681640625,-0.0103759765625
1772806938181516800,0.872516845703125,-0.9964447021484375,-0.0267181396484375,-0.0109405517578125
1772806938191448800,0.88244873046875,-0.996063232421875,-0.0265350341796875,-0.01019287109375
1772806938201379800,0.8923798828125,-0.996978759765625,-0.0267791748046875,-0.007476806640625
1772806938211311900,0.902311767578125,-0.9967193603515625,-0.0247650146484375,-0.0074615478515625
1772806938221244000,0.912243896484375,-0.9963836669921875,-0.02435302734375,-0.006072998046875
1772806938231176000,0.922176025390625,-0.994781494140625,-0.0250091552734375,-0.007049560546875
1772806938241106700,0.932106689453125,-0.996795654296875,-0.022705078125,-0.009796142578125
1772806938251038700,0.942038818359375,-0.9959564208984375,-0.022552490234375,-0.010650634765625
1772806938260970800,0.951970703125,-0.9944000244140625,-0.0216522216796875,-0.01080322265625
1772806938270902800,0.96190283203125,-0.996124267578125,-0.0207366943359375,-0.0122528076171875
1772806938280834000,0.971833984375,-0.9964141845703125,-0.02008056640625,-0.0098876953125
1772806938290765800,0.981765869140625,-0.996612548828125,-0.022735595703125,-0.007781982421875
1772806938300697900,0.99169775390625,-0.9962615966796875,-0.0225982666015625,-0.0097503662109375
1772806938310630000,1.0016298828125,-0.99664306640625,-0.0206451416015625,-0.00946044921875
1772806938320561000,1.011560791015625,-0.9972076416015625,-0.0227508544921875,-0.0102081298828125
1772806938330493000,1.021492919921875,-0.995849609375,-0.02392578125,-0.00811767578125
1772806938340424700,1.0314248046875,-0.9960784912109375,-0.0252838134765625,-0.01019287109375
1772806938350356700,1.041356689453125,-0.99578857421875,-0.025390625,-0.00958251953125
1772806938360288000,1.0512880859375,-0.995086669921875,-0.026214599609375,-0.0078277587890625
1772806938370220000,1.061219970703125,-0.9965057373046875,-0.0240478515625,-0.0092315673828125
1772806938380151800,1.07115185546875,-0.9973297119140625,-0.025146484375,-0.0085601806640625
1772806938390083800,1.081083740234375,-0.99566650390625,-0.024566650390625,-0.00946044921875
1772806938400014800,1.091014892578125,-0.9960784912109375,-0.02337646484375,-0.0093231201171875
1772806938409947000,1.10094677734375,-0.9950714111328125,-0.02264404296875,-0.010284423828125
1772806938419879000,1.11087890625,-0.9956207275390625,-0.021453857421875,-0.010406494140625
1772806938429810700,1.120810791015625,-0.996429443359375,-0.0211334228515625,-0.0085906982421875
1772806938439742000,1.130741943359375,-0.9964599609375,-0.0202178955078125,-0.0080413818359375
1772806938449673700,1.140673828125,-0.9963836669921875,-0.019561767578125,-0.008148193359375
1772806938459605500,1.15060546875,-0.996826171875,-0.02020263671875,-0.0095672607421875
1772806938469537500,1.16053759765625,-0.9952545166015625,-0.0196685791015625,-0.0117340087890625
1772806938479468500,1.170468505859375,-0.995391845703125,-0.0204925537109375,-0.0101318359375
1772806938489400600,1.180400634765625,-0.99591064453125,-0.0222930908203125,-0.0114898681640625
1772806938499332600,1.19033251953125,-0.996856689453125,-0.022796630859375,-0.0089263916015625
1772806938509264400,1.200264404296875,-0.99609375,-0.0238037109375,-0.008209228515625
1772806938519195600,1.210195556640625,-0.99688720703125,-0.0245361328125,-0.0077056884765625
1772806938529127700,1.220127685546875,-0.9953765869140625,-0.0254364013671875,-0.0095672607421875
1772806938539059700,1.230059814453125,-0.9962005615234375,-0.0276336669921875,-0.0095062255859375
1772806938548991700,1.23999169921875,-0.99578857421875,-0.027557373046875,-0.0096282958984375
1772806938558922500,1.249922607421875,-0.99560546875,-0.0262908935546875,-0.0098114013671875
1772806938568854500,1.2598544921875,-0.9949493408203125,-0.0259552001953125,-0.009674072265625
1772806938578786600,1.26978662109375,-0.996734619140625,-0.026458740234375,-0.0089874267578125
1772806938588718600,1.279718505859375,-0.996429443359375,-0.0255889892578125,-0.008087158203125
1772806938598649600,1.289649658203125,-0.995361328125,-0.025543212890625,-0.0080413818359375
1772806938608581600,1.29958154296875,-0.9967803955078125,-0.024017333984375,-0.00946044921875
1772806938618513700,1.309513671875,-0.9957733154296875,-0.022705078125,-0.0099334716796875
1772806938628444700,1.319444580078125,-0.9973297119140625,-0.0236968994140625,-0.01165771484375
1772806938638376400,1.32937646484375,-0.9960174560546875,-0.0234527587890625,-0.0111083984375
1772806938648308500,1.33930859375,-0.9971923828125,-0.0224456787109375,-0.007965087890625
1772806938658240500,1.349240478515625,-0.9972381591796875,-0.02142333984375,-0.0078277587890625
1772806938668171500,1.359171630859375,-0.995880126953125,-0.0225067138671875,-0.00714111328125
1772806938678103800,1.369103759765625,-0.9965667724609375,-0.0239715576171875,-0.0079193115234375
1772806938688035600,1.37903564453125,-0.9954071044921875,-0.02252197265625,-0.0105133056640625
1772806938697967600,1.388967529296875,-0.9966583251953125,-0.0225067138671875,-0.0106353759765625
1772806938707898600,1.398898681640625,-0.996368408203125,-0.0212249755859375,-0.0113525390625
1772806938717830700,1.40883056640625,-0.9953765869140625,-0.022918701171875,-0.0101776123046875
1772806938727762400,1.418762451171875,-0.9971466064453125,-0.02215576171875,-0.009765625
1772806938737694500,1.428694580078125,-0.9960174560546875,-0.022918701171875,-0.0074615478515625
1772806938747625500,1.43862548828125,-0.9965362548828125,-0.0227813720703125,-0.0088653564453125
1772806938757557500,1.4485576171875,-0.997100830078125,-0.0229644775390625,-0.0088348388671875
1772806938767489800,1.45848974609375,-0.9959564208984375,-0.0232086181640625,-0.0108642578125
1772806938777421600,1.468421630859375,-0.9958648681640625,-0.0245513916015625,-0.0104217529296875
1772806938787352600,1.4783525390625,-0.99658203125,-0.0245361328125,-0.010528564453125
1772806938797284600,1.48828466796875,-0.9949188232421875,-0.0249176025390625,-0.0097198486328125
1772806938807216600,1.498216552734375,-0.995849609375,-0.023895263671875,-0.0080718994140625
1772806938817148700,1.508148681640625,-0.99713134765625,-0.0228271484375,-0.0072479248046875
1772806938827079400,1.518079345703125,-0.99609375,-0.023529052734375,-0.0079498291015625
1772806938837011500,1.528011474609375,-0.9948272705078125,-0.0227813720703125,-0.0087432861328125
1772806938846943700,1.53794384765625,-0.9958343505859375,-0.0230255126953125,-0.01116943359375
1772806938856875800,1.547875732421875,-0.9967498779296875,-0.0220947265625,-0.0108642578125
1772806938866806500,1.557806640625,-0.996734619140625,-0.0218658447265625,-0.011077880859375
1772806938876738600,1.567738525390625,-0.9972076416015625,-0.0224609375,-0.010101318359375
1772806938886670600,1.577670654296875,-0.99615478515625,-0.0239715576171875,-0.0070037841796875
1772806938896602600,1.5876025390625,-0.9962158203125,-0.0228729248046875,-0.0065155029296875
1772806938906533400,1.597533447265625,-0.995941162109375,-0.02294921875,-0.0088653564453125
1772806938916465400,1.60746533203125,-0.9966278076171875,-0.02203369140625,-0.01141357421875
1772806938926397400,1.6173974609375,-0.9957275390625,-0.0225982666015625,-0.011932373046875
1772806938936329700,1.627329833984375,-0.996429443359375,-0.02191162109375,-0.0105438232421875
1772806938946260700,1.6372607421875,-0.99676513671875,-0.022613525390625,-0.009613037109375
1772806938956192500,1.647192626953125,-0.9972991943359375,-0.0229339599609375,-0.008697509765625
1772806938966124500,1.65712451171875,-0.9954376220703125,-0.0245208740234375,-0.0068359375
1772806938976056600,1.667056640625,-0.9963531494140625,-0.0232391357421875,-0.0080413818359375
1772806938985987600,1.676987548828125,-0.99676513671875,-0.0247802734375,-0.009552001953125
1772806938995919400,1.68691943359375,-0.99591064453125,-0.0217742919921875,-0.0122528076171875
1772806939005851400,1.696851318359375,-0.9964599609375,-0.02386474609375,-0.012054443359375
1772806939015782700,1.70678271484375,-0.996612548828125,-0.025115966796875,-0.010406494140625
1772806939025714700,1.716714599609375,-0.9951324462890625,-0.024627685546875,-0.0084686279296875
1772806939035646700,1.726646728515625,-0.996734619140625,-0.0243682861328125,-0.0074615478515625
1772806939045578500,1.73657861328125,-0.997222900390625,-0.0234527587890625,-0.0068206787109375
1772806939055509500,1.746509521484375,-0.996002197265625,-0.0231781005859375,-0.0074462890625
1772806939065441500,1.756441650390625,-0.99615478515625,-0.0230712890625,-0.0095367431640625
1772806939075373600,1.76637353515625,-0.998077392578125,-0.0242767333984375,-0.0104522705078125
1772806939085305600,1.7763056640625,-0.9978485107421875,-0.0231781005859375,-0.0108795166015625
1772806939095236600,1.786236572265625,-0.9964447021484375,-0.0234832763671875,-0.0099029541015625
1772806939105168600,1.796168701171875,-0.996185302734375,-0.0233612060546875,-0.009368896484375
1772806939115100700,1.8061005859375,-0.994873046875,-0.02294921875,-0.0069732666015625
1772806939125032700,1.81603271484375,-0.9956817626953125,-0.023712158203125,-0.007568359375
1772806939134963500,1.82596337890625,-0.9964447021484375,-0.0239715576171875,-0.0105133056640625
1772806939144895500,1.8358955078125,-0.9950714111328125,-0.0220184326171875,-0.009429931640625
1772806939154827500,1.84582763671875,-0.9952392578125,-0.022918701171875,-0.011474609375
1772806939164759600,1.855759521484375,-0.99627685546875,-0.0229339599609375,-0.010284423828125
1772806939174690600,1.865690673828125,-0.997711181640625,-0.0218353271484375,-0.0085296630859375
1772806939184622600,1.87562255859375,-0.99749755859375,-0.022430419921875,-0.0066680908203125
1772806939194554600,1.8855546875,-0.9969482421875,-0.0236053466796875,-0.006561279296875
1772806939204486700,1.895486572265625,-0.996124267578125,-0.0218658447265625,-0.0080413818359375
1772806939214417400,1.90541748046875,-0.99658203125,-0.0219879150390625,-0.010284423828125
1772806939224349400,1.915349365234375,-0.9965972900390625,-0.02386474609375,-0.0112152099609375
1772806939234281500,1.925281494140625,-0.9954681396484375,-0.023590087890625,-0.0120697021484375
1772806939244213500,1.935213623046875,-0.9967193603515625,-0.0235137939453125,-0.0105438232421875
1772806939254144800,1.945144775390625,-0.9953155517578125,-0.0237274169921875,-0.0081024169921875
1772806939264076500,1.95507666015625,-0.9965667724609375,-0.0234222412109375,-0.008026123046875
1772806939274008600,1.965008544921875,-0.9949798583984375,-0.0251312255859375,-0.00775146484375
1772806939283940600,1.974940673828125,-0.9967498779296875,-0.023590087890625,-0.0091094970703125
1772806939293871600,1.98487158203125,-0.9960784912109375,-0.0240020751953125,-0.010162353515625
1772806939303803600,1.9948037109375,-0.9953155517578125,-0.0243682861328125,-0.01116943359375
1772806939313735400,2.0047353515625,-0.9964141845703125,-0.0232391357421875,-0.011383056640625
1772806939323666700,2.014666748046875,-0.9955291748046875,-0.0223236083984375,-0.0089569091796875
1772806939333598700,2.0245986328125,-0.9960174560546875,-0.023345947265625,-0.00830078125
1772806939343530800,2.03453076171875,-0.99560546875,-0.0228118896484375,-0.00897216796875
1772806939353462500,2.044462646484375,-0.9955902099609375,-0.0230712890625,-0.007659912109375
1772806939363393500,2.0543935546875,-0.996917724609375,-0.0211029052734375,-0.00927734375
1772806939373325600,2.06432568359375,-0.9959259033203125,-0.0207061767578125,-0.01123046875
1772806939383257600,2.074257568359375,-0.9956207275390625,-0.020721435546875,-0.01019287109375
1772806939393189600,2.084189697265625,-0.99658203125,-0.0225067138671875,-0.0095367431640625
1772806939403120600,2.09412060546875,-0.99639892578125,-0.02178955078125,-0.0086212158203125
1772806939413052700,2.104052734375,-0.99725341796875,-0.023681640625,-0.007049560546875
1772806939422984700,2.113984619140625,-0.99615478515625,-0.0238800048828125,-0.008697509765625
1772806939432916700,2.123916748046875,-0.9969482421875,-0.023956298828125,-0.0108642578125
1772806939442847500,2.133847412109375,-0.9962310791015625,-0.0238037109375,-0.012542724609375
1772806939452779000,2.143779052734375,-0.99664306640625,-0.0247039794921875,-0.012176513671875
1772806939462711000,2.1537109375,-0.99560546875,-0.0238800048828125,-0.0100250244140625
1772806939472643000,2.16364306640625,-0.9964447021484375,-0.02520751953125,-0.0083160400390625
1772806939482574000,2.173573974609375,-0.9965972900390625,-0.0246429443359375,-0.0063018798828125
1772806939492506000,2.183506103515625,-0.995819091796875,-0.0247039794921875,-0.00787353515625
1772806939502438100,2.193438232421875,-0.9964752197265625,-0.0234832763671875,-0.007537841796875
1772806939512370200,2.2033701171875,-0.9960479736328125,-0.0221710205078125,-0.0102081298828125
1772806939522301000,2.213301025390625,-0.994781494140625,-0.0230255126953125,-0.0116424560546875
1772806939532233000,2.22323291015625,-0.995849609375,-0.0234375,-0.011474609375
1772806939542165000,2.2331650390625,-0.9969940185546875,-0.0226593017578125,-0.0091400146484375
1772806939552097000,2.243096923828125,-0.9970550537109375,-0.02178955078125,-0.0094757080078125
1772806939562028300,2.2530283203125,-0.9954071044921875,-0.0206756591796875,-0.0084991455078125
1772806939571960000,2.2629599609375,-0.9968109130859375,-0.020721435546875,-0.0082550048828125
1772806939581892000,2.27289208984375,-0.99725341796875,-0.0230560302734375,-0.008941650390625
1772806939591823000,2.282822998046875,-0.99481201171875,-0.022613525390625,-0.0124969482421875
1772806939601755100,2.292755126953125,-0.9968109130859375,-0.0223236083984375,-0.0115509033203125
1772806939611687200,2.302687255859375,-0.996734619140625,-0.02362060546875,-0.0083465576171875
1772806939621619000,2.312618896484375,-0.997406005859375,-0.024200439453125,-0.006988525390625
1772806939631550000,2.322550048828125,-0.9961090087890625,-0.0236968994140625,-0.00921630859375
1772806939641482200,2.332482177734375,-0.9944000244140625,-0.0251922607421875,-0.0069580078125
1772806939651414300,2.342414306640625,-0.99603271484375,-0.0255889892578125,-0.0078582763671875
1772806939661346000,2.352345947265625,-0.9965667724609375,-0.024871826171875,-0.0107421875
1772806939671277000,2.362277099609375,-0.9969940185546875,-0.026092529296875,-0.01092529296875
1772806939681209000,2.372208984375,-0.9956817626953125,-0.02642822265625,-0.011474609375
1772806939691141000,2.38214111328125,-0.9965972900390625,-0.0242767333984375,-0.009613037109375
1772806939701073200,2.3920732421875,-0.9960479736328125,-0.023468017578125,-0.008697509765625
1772806939711004000,2.40200390625,-0.9954071044921875,-0.023590087890625,-0.007110595703125
1772806939720936000,2.41193603515625,-0.996337890625,-0.0212860107421875,-0.0076141357421875
1772806939730868200,2.4218681640625,-0.9962921142578125,-0.0230712890625,-0.0089874267578125
1772806939740800300,2.43180029296875,-0.9970855712890625,-0.021942138671875,-0.00848388671875
1772806939750731000,2.44173095703125,-0.997467041015625,-0.020599365234375,-0.01300048828125
1772806939760663000,2.4516630859375,-0.9966888427734375,-0.0203094482421875,-0.011688232421875
1772806939770595000,2.461594970703125,-0.996734619140625,-0.0203094482421875,-0.009765625
1772806939780527000,2.471527099609375,-0.995758056640625,-0.0203704833984375,-0.0072784423828125
1772806939790457900,2.481457763671875,-0.99603271484375,-0.0203399658203125,-0.0072021484375
1772806939800390000,2.491389892578125,-0.9961700439453125,-0.021148681640625,-0.007537841796875
1772806939810322000,2.501322021484375,-0.9979400634765625,-0.0219879150390625,-0.0102996826171875
1772806939820254200,2.511254150390625,-0.9976806640625,-0.02374267578125,-0.0106658935546875
1772806939830185200,2.521185302734375,-0.997344970703125,-0.024993896484375,-0.01123046875
1772806939840117000,2.531116943359375,-0.996734619140625,-0.02642822265625,-0.0089569091796875
1772806939850049000,2.541049072265625,-0.9951934814453125,-0.0264892578125,-0.009185791015625
1772806939859980000,2.55097998046875,-0.9946136474609375,-0.0262603759765625,-0.00848388671875
1772806939869912000,2.560912109375,-0.996551513671875,-0.0274200439453125,-0.008148193359375
1772806939879844000,2.570843994140625,-0.9967193603515625,-0.0256195068359375,-0.0081024169921875
1772806939889775900,2.58077587890625,-0.99505615234375,-0.0267486572265625,-0.0097198486328125
1772806939899707100,2.59070703125,-0.997589111328125,-0.023895263671875,-0.011566162109375
1772806939909639200,2.60063916015625,-0.9950103759765625,-0.0231170654296875,-0.01031494140625
1772806939919571200,2.6105712890625,-0.9958038330078125,-0.0213165283203125,-0.0103912353515625
1772806939929503000,2.6205029296875,-0.9962310791015625,-0.0210723876953125,-0.0106658935546875
1772806939939434000,2.63043408203125,-0.99603271484375,-0.020050048828125,-0.01123046875
1772806939949366000,2.640365966796875,-0.9953460693359375,-0.0200347900390625,-0.0121917724609375
1772806939959298000,2.650298095703125,-0.9959564208984375,-0.0183563232421875,-0.0115509033203125
1772806939969230000,2.66022998046875,-0.9956512451171875,-0.0204925537109375,-0.009307861328125
1772806939979161000,2.6701611328125,-0.9969024658203125,-0.020050048828125,-0.009552001953125
1772806939989093000,2.680093017578125,-0.9962310791015625,-0.021881103515625,-0.0095367431640625
1772806939999025200,2.690025146484375,-0.9975738525390625,-0.0222320556640625,-0.0076904296875
1772806940008957200,2.699957275390625,-0.998260498046875,-0.0232696533203125,-0.0067901611328125
1772806940018888000,2.709887939453125,-0.996429443359375,-0.024322509765625,-0.007476806640625
1772806940028820000,2.719820068359375,-0.994049072265625,-0.0231475830078125,-0.0074615478515625
1772806940038752000,2.729751953125,-0.996490478515625,-0.0244903564453125,-0.011474609375
1772806940048684000,2.73968408203125,-0.996429443359375,-0.0241851806640625,-0.0111846923828125
1772806940058615000,2.749614990234375,-0.9952850341796875,-0.0233612060546875,-0.01202392578125
1772806940068547000,2.759547119140625,-0.9961090087890625,-0.0238037109375,-0.010894775390625
1772806940078479000,2.76947900390625,-0.994720458984375,-0.0229034423828125,-0.0093994140625
1772806940088411100,2.7794111328125,-0.9973602294921875,-0.023223876953125,-0.008087158203125
1772806940098342100,2.789342041015625,-0.993560791015625,-0.02435302734375,-0.0073089599609375
1772806940108274000,2.79927392578125,-0.9951324462890625,-0.0236053466796875,-0.0079345703125
1772806940118206000,2.8092060546875,-0.9974517822265625,-0.0230255126953125,-0.00946044921875
1772806940128137200,2.81913720703125,-0.996551513671875,-0.0226593017578125,-0.00970458984375
1772806940138069200,2.8290693359375,-0.9972076416015625,-0.02276611328125,-0.0097503662109375
1772806940148001000,2.8390009765625,-0.997589111328125,-0.025543212890625,-0.009613037109375
1772806940157933000,2.84893310546875,-0.9955902099609375,-0.0251007080078125,-0.0087738037109375
1772806940167864000,2.858864013671875,-0.9954071044921875,-0.02508544921875,-0.0087127685546875
1772806940177796000,2.868796142578125,-0.9959716796875,-0.0250701904296875,-0.0104217529296875
1772806940187728100,2.87872802734375,-0.9954376220703125,-0.0257110595703125,-0.0101318359375
1772806940197660000,2.888659912109375,-0.996490478515625,-0.023345947265625,-0.0105438232421875
1772806940207591200,2.898591064453125,-0.9954833984375,-0.0236053466796875,-0.0089874267578125
1772806940217523200,2.908523193359375,-0.9967193603515625,-0.0233917236328125,-0.0072784423828125
1772806940227455200,2.918455322265625,-0.9974822998046875,-0.0240631103515625,-0.0065155029296875
1772806940237387300,2.92838720703125,-0.99713134765625,-0.022857666015625,-0.0086517333984375
1772806940247318000,2.938318115234375,-0.9953460693359375,-0.02093505859375,-0.0095672607421875
1772806940257250000,2.94825,-0.994964599609375,-0.020904541015625,-0.0111846923828125
1772806940267182000,2.95818212890625,-0.9942474365234375,-0.020751953125,-0.013397216796875
1772806940277114000,2.968114013671875,-0.996551513671875,-0.0213470458984375,-0.0129547119140625
1772806940287045000,2.978045166015625,-0.996368408203125,-0.0199432373046875,-0.010986328125
1772806940296977200,2.98797705078125,-0.9952545166015625,-0.022857666015625,-0.006072998046875
1772806940306909200,2.9979091796875,-0.996490478515625,-0.023162841796875,-0.006011962890625
1772806940316841200,3.00784130859375,-0.99578857421875,-0.0242919921875,-0.006805419921875
1772806940326772000,3.01777197265625,-0.9956207275390625,-0.024932861328125,-0.0069732666015625
1772806940336704000,3.0277041015625,-0.9951171875,-0.0255584716796875,-0.00848388671875
1772806940346636000,3.037635986328125,-0.996337890625,-0.0265960693359375,-0.0110015869140625
1772806940356568000,3.047568115234375,-0.9953155517578125,-0.027130126953125,-0.01025390625
1772806940366499000,3.0574990234375,-0.9962615966796875,-0.02691650390625,-0.01129150390625
1772806940376431000,3.06743115234375,-0.996124267578125,-0.0277252197265625,-0.010894775390625
1772806940386363100,3.077363037109375,-0.9971160888671875,-0.0267486572265625,-0.0105743408203125
1772806940396294100,3.087294189453125,-0.9958343505859375,-0.0246124267578125,-0.0098724365234375
1772806940406226200,3.09722607421875,-0.996337890625,-0.02423095703125,-0.010833740234375
1772806940416158000,3.107157958984375,-0.9951629638671875,-0.0223388671875,-0.0112762451171875
1772806940426090000,3.117090087890625,-0.995758056640625,-0.021331787109375,-0.010498046875
1772806940436021000,3.12702099609375,-0.995391845703125,-0.01934814453125,-0.00909423828125
1772806940445953000,3.136953125,-0.9950714111328125,-0.018585205078125,-0.0076904296875
1772806940455885600,3.146885498046875,-0.9965667724609375,-0.0191497802734375,-0.0064544677734375
1772806940465817600,3.156817626953125,-0.9952239990234375,-0.0197296142578125,-0.0085601806640625
1772806940475748600,3.16674853515625,-0.996063232421875,-0.0211334228515625,-0.0105438232421875
1772806940485680600,3.1766806640625,-0.997406005859375,-0.01971435546875,-0.0111846923828125
1772806940495612700,3.18661279296875,-0.9964599609375,-0.0222015380859375,-0.01251220703125
1772806940505544700,3.196544677734375,-0.9961090087890625,-0.024261474609375,-0.0113677978515625
1772806940515475500,3.206475341796875,-0.9947357177734375,-0.023406982421875,-0.0096282958984375
1772806940525407500,3.216407470703125,-0.9963836669921875,-0.0242156982421875,-0.007293701171875
1772806940535339500,3.226339599609375,-0.99566650390625,-0.0264434814453125,-0.00677490234375
1772806940545271600,3.236271484375,-0.9958343505859375,-0.0275115966796875,-0.007904052734375
1772806940555202600,3.24620263671875,-0.9961395263671875,-0.0265045166015625,-0.0081939697265625
1772806940565134600,3.256134521484375,-0.9975128173828125,-0.026458740234375,-0.008514404296875
1772806940575066600,3.266066650390625,-0.9958648681640625,-0.024810791015625,-0.0105133056640625
1772806940584998700,3.27599853515625,-0.9959259033203125,-0.0252685546875,-0.0105438232421875
1772806940594929400,3.285929443359375,-0.9957275390625,-0.02447509765625,-0.0097808837890625
1772806940604861400,3.295861328125,-0.9956817626953125,-0.024078369140625,-0.01031494140625
1772806940614793500,3.30579345703125,-0.9969329833984375,-0.0213623046875,-0.0095977783203125
1772806940624725500,3.3157255859375,-0.9979095458984375,-0.02142333984375,-0.009429931640625
1772806940634656800,3.32565673828125,-0.9971923828125,-0.02093505859375,-0.0097808837890625
1772806940644588500,3.335588623046875,-0.996307373046875,-0.0201568603515625,-0.0093994140625
1772806940654520600,3.3455205078125,-0.9969482421875,-0.019012451171875,-0.0080108642578125
1772806940664452600,3.35545263671875,-0.99591064453125,-0.0215606689453125,-0.0063629150390625
1772806940674383600,3.365383544921875,-0.99591064453125,-0.022674560546875,-0.008544921875
1772806940684315600,3.375315673828125,-0.995941162109375,-0.0233001708984375,-0.00909423828125
1772806940694247400,3.385247314453125,-0.993499755859375,-0.022430419921875,-0.0108489990234375
1772806940704178700,3.3951787109375,-0.996002197265625,-0.023284912109375,-0.0112457275390625
1772806940714110700,3.40511083984375,-0.995574951171875,-0.02325439453125,-0.011962890625
1772806940724042800,3.415042724609375,-0.9954681396484375,-0.023681640625,-0.0093231201171875
1772806940733974500,3.424974609375,-0.9958038330078125,-0.0244903564453125,-0.0087127685546875
1772806940743905500,3.434905517578125,-0.995697021484375,-0.0256500244140625,-0.009033203125
1772806940753837600,3.444837646484375,-0.99603271484375,-0.0260772705078125,-0.0067596435546875
1772806940763769600,3.45476953125,-0.9953460693359375,-0.023712158203125,-0.0081329345703125
1772806940773701600,3.46470166015625,-0.9959259033203125,-0.0257720947265625,-0.009002685546875
1772806940783632600,3.474632568359375,-0.99554443359375,-0.024688720703125,-0.0086669921875
1772806940793564700,3.484564697265625,-0.9973602294921875,-0.024322509765625,-0.0100250244140625
1772806940803496700,3.49449658203125,-0.99688720703125,-0.0236663818359375,-0.0100555419921875
1772806940813428700,3.5044287109375,-0.9961090087890625,-0.0240631103515625,-0.009674072265625
1772806940823359500,3.514359375,-0.99578857421875,-0.02301025390625,-0.008544921875
1772806940833291500,3.52429150390625,-0.99700927734375,-0.0219573974609375,-0.0070953369140625
1772806940843223600,3.5342236328125,-0.9974822998046875,-0.022796630859375,-0.008575439453125
1772806940853155600,3.544155517578125,-0.9956512451171875,-0.0222320556640625,-0.007476806640625
1772806940863086300,3.55408642578125,-0.995269775390625,-0.022003173828125,-0.0082244873046875
1772806940873018600,3.5640185546875,-0.9952850341796875,-0.02227783203125,-0.0081329345703125
1772806940882950700,3.57395068359375,-0.9967803955078125,-0.0208587646484375,-0.0079498291015625
1772806940892882700,3.583882568359375,-0.9961700439453125,-0.0225677490234375,-0.01007080078125
1772806940902813700,3.593813720703125,-0.9963836669921875,-0.0225677490234375,-0.010833740234375
1772806940912745500,3.603745361328125,-0.9963836669921875,-0.0223388671875,-0.0116424560546875
1772806940922677500,3.613677490234375,-0.9964752197265625,-0.0236968994140625,-0.00958251953125
1772806940932608500,3.6236083984375,-0.996307373046875,-0.02349853515625,-0.0083770751953125
1772806940942540500,3.63354052734375,-0.99627685546875,-0.023834228515625,-0.0093994140625
1772806940952472600,3.64347265625,-0.99603271484375,-0.0240020751953125,-0.007568359375
1772806940962404600,3.653404541015625,-0.9961090087890625,-0.0247650146484375,-0.008087158203125
1772806940972335600,3.663335693359375,-0.9962158203125,-0.0260162353515625,-0.0087127685546875
1772806940982267600,3.673267578125,-0.99591064453125,-0.0252838134765625,-0.0099945068359375
1772806940992199700,3.68319970703125,-0.9952850341796875,-0.024566650390625,-0.01141357421875
1772806941002131500,3.69313134765625,-0.99713134765625,-0.02471923828125,-0.00921630859375
1772806941012062500,3.7030625,-0.995941162109375,-0.0237274169921875,-0.009368896484375
1772806941021994500,3.712994384765625,-0.9972686767578125,-0.0216827392578125,-0.009735107421875
1772806941031926500,3.722926513671875,-0.9971771240234375,-0.0225677490234375,-0.010498046875
1772806941041858600,3.732858642578125,-0.9973602294921875,-0.0223388671875,-0.01123046875
1772806941051789600,3.74278955078125,-0.9949951171875,-0.0233612060546875,-0.0095977783203125
1772806941061721600,3.7527216796875,-0.9964447021484375,-0.0233306884765625,-0.0074920654296875
1772806941071653600,3.762653564453125,-0.99591064453125,-0.02252197265625,-0.008392333984375
1772806941081585700,3.772585693359375,-0.99774169921875,-0.0219879150390625,-0.0070648193359375
1772806941091516400,3.782516357421875,-0.9954376220703125,-0.0226593017578125,-0.0073089599609375
1772806941101448400,3.792448486328125,-0.9961700439453125,-0.0227813720703125,-0.0116119384765625
1772806941111380500,3.80238037109375,-0.995941162109375,-0.023040771484375,-0.0125885009765625
1772806941121312500,3.8123125,-0.9952545166015625,-0.0242156982421875,-0.0136260986328125
1772806941131243500,3.822243408203125,-0.99627685546875,-0.0230712890625,-0.01043701171875
1772806941141175600,3.832175537109375,-0.9969024658203125,-0.02130126953125,-0.0088043212890625
1772806941151107600,3.842107666015625,-0.9963531494140625,-0.0216217041015625,-0.007080078125
1772806941161039600,3.85203955078125,-0.995452880859375,-0.02215576171875,-0.005889892578125
1772806941170970600,3.861970703125,-0.9957427978515625,-0.0219268798828125,-0.0060577392578125
1772806941180902400,3.87190234375,-0.9971923828125,-0.0213470458984375,-0.008514404296875
1772806941190834400,3.88183447265625,-0.9965667724609375,-0.0224609375,-0.0101318359375
1772806941200765700,3.891765625,-0.9958953857421875,-0.0218048095703125,-0.009521484375
1772806941210697700,3.90169775390625,-0.9952392578125,-0.02166748046875,-0.0098114013671875
1772806941220629800,3.911629638671875,-0.9952239990234375,-0.0228118896484375,-0.0119476318359375
1772806941230561500,3.9215615234375,-0.995880126953125,-0.0233306884765625,-0.009246826171875
1772806941240493600,3.93149365234375,-0.9939727783203125,-0.0224456787109375,-0.007965087890625
1772806941250424600,3.941424560546875,-0.995849609375,-0.0251007080078125,-0.0088043212890625
1772806941260356600,3.951356689453125,-0.9954071044921875,-0.0251007080078125,-0.0096588134765625
1772806941270288400,3.961288330078125,-0.9959869384765625,-0.0264892578125,-0.0088043212890625
1772806941280219600,3.9712197265625,-0.9952850341796875,-0.0286102294921875,-0.0085296630859375
1772806941290151700,3.981151611328125,-0.997406005859375,-0.02850341796875,-0.009368896484375
1772806941300082700,3.991082763671875,-0.9980010986328125,-0.0291748046875,-0.0074920654296875
1772806941310013400,4.001013427734375,-0.99664306640625,-0.028594970703125,-0.0081634521484375
1772806941319945500,4.010945556640625,-0.9959869384765625,-0.0266265869140625,-0.0083160400390625
1772806941329877500,4.02087744140625,-0.9963531494140625,-0.0253143310546875,-0.012298583984375
1772806941339808500,4.03080859375,-0.9955596923828125,-0.0247650146484375,-0.012237548828125
1772806941349740500,4.040740478515625,-0.9958648681640625,-0.023193359375,-0.013031005859375
1772806941359672600,4.050672607421875,-0.9959716796875,-0.02166748046875,-0.0083770751953125
1772806941369604600,4.0606044921875,-0.996307373046875,-0.0200958251953125,-0.0078582763671875
1772806941379535600,4.07053564453125,-0.9967041015625,-0.0196533203125,-0.0054779052734375
1772806941389467400,4.08046728515625,-0.99664306640625,-0.0181121826171875,-0.0050201416015625
1772806941399399400,4.0903994140625,-0.994873046875,-0.0193634033203125,-0.005828857421875
1772806941409331500,4.10033154296875,-0.9974822998046875,-0.0183868408203125,-0.0119781494140625
1772806941419262700,4.1102626953125,-0.996673583984375,-0.0199737548828125,-0.013336181640625
1772806941429194800,4.12019482421875,-0.99578857421875,-0.0214080810546875,-0.014404296875
1772806941439126500,4.13012646484375,-0.9963531494140625,-0.024169921875,-0.01300048828125
1772806941449058600,4.14005859375,-0.9970855712890625,-0.0261383056640625,-0.0107574462890625
1772806941458989300,4.1499892578125,-0.9965667724609375,-0.025360107421875,-0.0072479248046875
1772806941468921300,4.15992138671875,-0.9971466064453125,-0.0264739990234375,-0.0061798095703125
1772806941478853400,4.169853271484375,-0.9963226318359375,-0.0272979736328125,-0.008758544921875
1772806941488785400,4.179785400390625,-0.996429443359375,-0.0273590087890625,-0.0095977783203125
1772806941498716400,4.18971630859375,-0.9970245361328125,-0.0261383056640625,-0.0108489990234375
1772806941508648400,4.1996484375,-0.9980316162109375,-0.0245513916015625,-0.009185791015625
1772806941518580500,4.20958056640625,-0.9961395263671875,-0.0238800048828125,-0.0087890625
1772806941528512500,4.219512451171875,-0.9964141845703125,-0.0224609375,-0.0063323974609375
1772806941538443500,4.229443603515625,-0.996368408203125,-0.02154541015625,-0.006072998046875
1772806941548375300,4.239375244140625,-0.9958343505859375,-0.019439697265625,-0.0095672607421875
1772806941558307300,4.249307373046875,-0.9958953857421875,-0.0194549560546875,-0.0126800537109375
1772806941568239400,4.2592392578125,-0.995574951171875,-0.0195770263671875,-0.01324462890625
1772806941578170600,4.269170654296875,-0.99755859375,-0.020538330078125,-0.012908935546875
1772806941588102400,4.279102294921875,-0.9957427978515625,-0.0212554931640625,-0.0108184814453125
1772806941598034400,4.289034423828125,-0.995941162109375,-0.0210113525390625,-0.0082550048828125
1772806941607965400,4.29896533203125,-0.9963531494140625,-0.0240478515625,-0.005828857421875
1772806941617897500,4.3088974609375,-0.9963531494140625,-0.0266571044921875,-0.0057525634765625
1772806941627829500,4.31882958984375,-0.9954376220703125,-0.02618408203125,-0.008514404296875
1772806941637761300,4.32876123046875,-0.9964599609375,-0.0266571044921875,-0.0127105712890625
1772806941647692500,4.338692626953125,-0.997467041015625,-0.0288543701171875,-0.0125274658203125
1772806941657624600,4.34862451171875,-0.9955596923828125,-0.0289306640625,-0.0117950439453125
1772806941667556600,4.358556640625,-0.994873046875,-0.0272216796875,-0.0084991455078125
1772806941677488600,4.368488525390625,-0.9962921142578125,-0.0275421142578125,-0.0071868896484375
1772806941687419400,4.37841943359375,-0.995635986328125,-0.0262298583984375,-0.0059814453125
1772806941697351400,4.388351318359375,-0.997039794921875,-0.0262603759765625,-0.00872802734375
1772806941707283500,4.398283447265625,-0.99609375,-0.0243988037109375,-0.0111236572265625
1772806941717215500,4.408215576171875,-0.9969024658203125,-0.0224151611328125,-0.013031005859375
1772806941727146500,4.418146484375,-0.9937286376953125,-0.01983642578125,-0.012908935546875
1772806941737078500,4.42807861328125,-0.9960174560546875,-0.0192413330078125,-0.01220703125
1772806941747010600,4.438010498046875,-0.9970703125,-0.0192718505859375,-0.0089263916015625
1772806941756942600,4.447942626953125,-0.997344970703125,-0.01708984375,-0.0063934326171875
1772806941766873300,4.457873291015625,-0.9954681396484375,-0.0186767578125,-0.00640869140625
1772806941776805400,4.467805419921875,-0.9960174560546875,-0.018463134765625,-0.008575439453125
1772806941786737400,4.4777373046875,-0.996307373046875,-0.01861572265625,-0.010345458984375
1772806941796669400,4.48766943359375,-0.9978485107421875,-0.0210418701171875,-0.0102386474609375
1772806941806600400,4.497600341796875,-0.995269775390625,-0.0212554931640625,-0.0122833251953125
1772806941816532500,4.507532470703125,-0.9957427978515625,-0.0230712890625,-0.011260986328125
1772806941826464500,4.517464599609375,-0.9958343505859375,-0.0239715576171875,-0.0093994140625
1772806941836396500,4.527396484375,-0.99639892578125,-0.0257110595703125,-0.009307861328125
1772806941846327600,4.53732763671875,-0.9963531494140625,-0.02740478515625,-0.0081329345703125
1772806941856259300,4.54725927734375,-0.9964752197265625,-0.0271759033203125,-0.0081939697265625
1772806941866191400,4.55719140625,-0.9960479736328125,-0.0269775390625,-0.0098724365234375
1772806941876123400,4.567123291015625,-0.996063232421875,-0.0279083251953125,-0.0106353759765625
1772806941886054400,4.577054443359375,-0.9962005615234375,-0.0266265869140625,-0.00982666015625
1772806941895986400,4.586986328125,-0.9959869384765625,-0.0261993408203125,-0.0084686279296875
1772806941905918500,4.59691845703125,-0.994964599609375,-0.0262298583984375,-0.0074310302734375
1772806941915849500,4.606849365234375,-0.995361328125,-0.024993896484375,-0.0078887939453125
1772806941925781500,4.616781494140625,-0.9962005615234375,-0.023284912109375,-0.0074462890625
1772806941935713500,4.626713623046875,-0.99530029296875,-0.0217437744140625,-0.01141357421875
1772806941945645300,4.636645263671875,-0.9973602294921875,-0.0211944580078125,-0.01092529296875
1772806941955576300,4.646576416015625,-0.995880126953125,-0.01910400390625,-0.0111846923828125
1772806941965508400,4.65650830078125,-0.9964447021484375,-0.02032470703125,-0.00933837890625
1772806941975440400,4.6664404296875,-0.9957122802734375,-0.019744873046875,-0.009918212890625
1772806941985372400,4.676372314453125,-0.9965362548828125,-0.01910400390625,-0.008544921875
1772806941995303400,4.686303466796875,-0.99493408203125,-0.021392822265625,-0.0082244873046875
1772806942005235500,4.6962353515625,-0.996856689453125,-0.0212249755859375,-0.0089569091796875
1772806942015167500,4.70616748046875,-0.9955291748046875,-0.023529052734375,-0.011260986328125
1772806942025099500,4.716099609375,-0.996124267578125,-0.0252532958984375,-0.0124664306640625
1772806942035030300,4.7260302734375,-0.99627685546875,-0.023773193359375,-0.0119476318359375
1772806942044962300,4.73596240234375,-0.9951171875,-0.0255889892578125,-0.01019287109375
1772806942054894300,4.745894287109375,-0.9964752197265625,-0.0254974365234375,-0.006805419921875
1772806942064826400,4.755826416015625,-0.996826171875,-0.0264434814453125,-0.0077667236328125
1772806942074757400,4.76575732421875,-0.996856689453125,-0.0268402099609375,-0.007965087890625
1772806942084689400,4.775689453125,-0.99542236328125,-0.025421142578125,-0.0093841552734375
1772806942094621400,4.785621337890625,-0.9981536865234375,-0.0249176025390625,-0.0078887939453125
1772806942104553500,4.795553466796875,-0.996002197265625,-0.025634765625,-0.01031494140625
1772806942114484500,4.805484375,-0.9962158203125,-0.0243988037109375,-0.0078887939453125
1772806942124416300,4.815416259765625,-0.995330810546875,-0.02435302734375,-0.0078887939453125
1772806942134348300,4.825348388671875,-0.9957275390625,-0.0219573974609375,-0.0092926025390625
1772806942144280300,4.8352802734375,-0.99676513671875,-0.022735595703125,-0.0097198486328125
1772806942154211600,4.845211669921875,-0.9958953857421875,-0.0231170654296875,-0.0114593505859375
1772806942164143600,4.8551435546875,-0.9957427978515625,-0.0226593017578125,-0.010498046875
1772806942174075400,4.865075439453125,-0.995208740234375,-0.021697998046875,-0.0104217529296875
1772806942184006400,4.87500634765625,-0.99652099609375,-0.0221405029296875,-0.0104522705078125
1772806942193938400,4.8849384765625,-0.9967803955078125,-0.0221099853515625,-0.009368896484375
1772806942203870500,4.894870361328125,-0.996826171875,-0.0223541259765625,-0.00921630859375
1772806942213802200,4.90480224609375,-0.99652099609375,-0.024078369140625,-0.0078887939453125
1772806942223733500,4.9147333984375,-0.9964447021484375,-0.0221099853515625,-0.00830078125
1772806942233665500,4.92466552734375,-0.9964599609375,-0.02166748046875,-0.0090484619140625
1772806942243597600,4.93459765625,-0.9961395263671875,-0.023956298828125,-0.0108795166015625
1772806942253529600,4.944529541015625,-0.99615478515625,-0.0232391357421875,-0.010711669921875
1772806942263460400,4.95446044921875,-0.9961700439453125,-0.022552490234375,-0.01043701171875
1772806942273392400,4.964392333984375,-0.99627685546875,-0.0231475830078125,-0.007568359375
1772806942283324400,4.974324462890625,-0.9954833984375,-0.0223846435546875,-0.008087158203125
1772806942293256400,4.98425634765625,-0.996307373046875,-0.022674560546875,-0.007843017578125
1772806942303187500,4.9941875,-0.997161865234375,-0.0221710205078125,-0.0101776123046875
1772806942313119500,5.004119384765625,-0.9955596923828125,-0.025054931640625,-0.010833740234375
1772806942323051500,5.014051513671875,-0.9959564208984375,-0.02313232421875,-0.0104217529296875
1772806942332983600,5.023983642578125,-0.9952239990234375,-0.023529052734375,-0.01129150390625
1772806942342914300,5.033914306640625,-0.9951324462890625,-0.0238189697265625,-0.0086212158203125
1772806942352846300,5.043846435546875,-0.9969329833984375,-0.0235443115234375,-0.0093994140625
1772806942362778400,5.0537783203125,-0.9942474365234375,-0.0238800048828125,-0.008392333984375
1772806942372710400,5.06371044921875,-0.9954376220703125,-0.024200439453125,-0.0091400146484375
1772806942382641700,5.0736416015625,-0.995208740234375,-0.025146484375,-0.010650634765625
1772806942392573400,5.083573486328125,-0.994537353515625,-0.0247650146484375,-0.01141357421875
1772806942402505500,5.09350537109375,-0.996612548828125,-0.0239105224609375,-0.0087890625
1772806942412437500,5.1034375,-0.995697021484375,-0.0248565673828125,-0.0082550048828125
1772806942422368500,5.113368408203125,-0.9967193603515625,-0.0245208740234375,-0.0078887939453125
1772806942432300500,5.123300537109375,-0.9976959228515625,-0.024688720703125,-0.008758544921875
1772806942442232300,5.133232421875,-0.9964599609375,-0.0235137939453125,-0.009613037109375
1772806942452164400,5.143164306640625,-0.9973602294921875,-0.0219879150390625,-0.01007080078125
1772806942462096000,5.153095947265625,-0.9979095458984375,-0.022064208984375,-0.0096588134765625
1772806942472028000,5.16302783203125,-0.9970550537109375,-0.021759033203125,-0.00933837890625
1772806942481960000,5.1729599609375,-0.996063232421875,-0.0227813720703125,-0.0091400146484375
1772806942491891000,5.182890869140625,-0.994781494140625,-0.023773193359375,-0.00897216796875
1772806942501823000,5.192822998046875,-0.99713134765625,-0.023529052734375,-0.0078125
1772806942511755000,5.202755126953125,-0.9971923828125,-0.025543212890625,-0.0079498291015625
1772806942521687000,5.21268701171875,-0.9971771240234375,-0.0255126953125,-0.0088348388671875
1772806942531617800,5.22261767578125,-0.9954986572265625,-0.0259552001953125,-0.009735107421875
1772806942541549800,5.2325498046875,-0.9953155517578125,-0.0246124267578125,-0.0109405517578125
1772806942551481900,5.24248193359375,-0.995880126953125,-0.0260772705078125,-0.01043701171875
1772806942561414000,5.252413818359375,-0.9971160888671875,-0.0264739990234375,-0.0089111328125
1772806942571345200,5.26234521484375,-0.9972686767578125,-0.0255889892578125,-0.009033203125
1772806942581277000,5.27227685546875,-0.9975433349609375,-0.02398681640625,-0.007171630859375
1772806942591209000,5.282208984375,-0.9953155517578125,-0.023834228515625,-0.0086212158203125
1772806942601141000,5.29214111328125,-0.996917724609375,-0.02484130859375,-0.0087432861328125
1772806942611072000,5.302072021484375,-0.9975433349609375,-0.0230712890625,-0.010528564453125
1772806942621004000,5.312004150390625,-0.995574951171875,-0.0207366943359375,-0.010711669921875
1772806942630935800,5.321935791015625,-0.9954681396484375,-0.0193023681640625,-0.0086822509765625
1772806942640867800,5.331867919921875,-0.995361328125,-0.0204620361328125,-0.0080413818359375
1772806942650799000,5.341799072265625,-0.9945831298828125,-0.0203857421875,-0.0095367431640625
1772806942660731100,5.351731201171875,-0.9962310791015625,-0.02056884765625,-0.0116119384765625
1772806942670663000,5.361662841796875,-0.996429443359375,-0.0196685791015625,-0.010894775390625
1772806942680595000,5.371594970703125,-0.996673583984375,-0.0213775634765625,-0.0110931396484375
1772806942690526000,5.38152587890625,-0.9961090087890625,-0.02294921875,-0.0097198486328125
1772806942700458000,5.3914580078125,-0.99603271484375,-0.02264404296875,-0.0096588134765625
1772806942710390000,5.40139013671875,-0.9954071044921875,-0.0226898193359375,-0.0087127685546875
1772806942720321800,5.41132177734375,-0.9963836669921875,-0.02215576171875,-0.0063934326171875
1772806942730253000,5.421253173828125,-0.9961700439453125,-0.0242462158203125,-0.0079193115234375
1772806942740185000,5.43118505859375,-0.99542236328125,-0.0246429443359375,-0.0092620849609375
1772806942750117000,5.4411171875,-0.99639892578125,-0.0260467529296875,-0.0104522705078125
1772806942760049200,5.451049072265625,-0.993560791015625,-0.02581787109375,-0.0114593505859375
1772806942769980000,5.46097998046875,-0.9957275390625,-0.02630615234375,-0.01043701171875
1772806942779912000,5.470911865234375,-0.9950408935546875,-0.0264892578125,-0.0091400146484375
1772806942789844000,5.480843994140625,-0.995635986328125,-0.027801513671875,-0.0084228515625
1772806942799775000,5.49077490234375,-0.997344970703125,-0.0261688232421875,-0.0069732666015625
1772806942809707000,5.50070703125,-0.995513916015625,-0.0242919921875,-0.00701904296875
1772806942819639000,5.51063916015625,-0.996063232421875,-0.0238037109375,-0.0088653564453125
1772806942829571000,5.520571044921875,-0.9969940185546875,-0.0223541259765625,-0.0086822509765625
1772806942839502000,5.530502197265625,-0.99652099609375,-0.02099609375,-0.01019287109375
1772806942849433900,5.540433837890625,-0.994781494140625,-0.0219879150390625,-0.009246826171875
1772806942859366000,5.550365966796875,-0.9942474365234375,-0.0218353271484375,-0.00830078125
1772806942869298000,5.5602978515625,-0.995452880859375,-0.01959228515625,-0.0089111328125
1772806942879229200,5.570229248046875,-0.9965667724609375,-0.0203399658203125,-0.0108489990234375
1772806942889161200,5.5801611328125,-0.9968719482421875,-0.0198974609375,-0.0107574462890625
1772806942899093000,5.590093017578125,-0.9972076416015625,-0.02099609375,-0.011199951171875
1772806942909025000,5.60002490234375,-0.9959259033203125,-0.0218353271484375,-0.0112457275390625
1772806942918956000,5.6099560546875,-0.9960174560546875,-0.02313232421875,-0.0096282958984375
1772806942928888000,5.61988818359375,-0.99609375,-0.024993896484375,-0.0071563720703125
1772806942938819800,5.62981982421875,-0.996917724609375,-0.0254974365234375,-0.0069122314453125
1772806942948752000,5.639751953125,-0.9970245361328125,-0.024871826171875,-0.0080108642578125
1772806942958683100,5.64968310546875,-0.995513916015625,-0.025238037109375,-0.0067291259765625
1772806942968615200,5.659615234375,-0.99658203125,-0.0277557373046875,-0.009857177734375
1772806942978547200,5.669547119140625,-0.9954681396484375,-0.02777099609375,-0.0119476318359375
1772806942988479000,5.67947900390625,-0.996856689453125,-0.0288848876953125,-0.0112152099609375
1772806942998410000,5.689409912109375,-0.99603271484375,-0.0271759033203125,-0.01104736328125
1772806943008342000,5.699342041015625,-0.9964447021484375,-0.0270233154296875,-0.009307861328125
1772806943018274000,5.709274169921875,-0.9966583251953125,-0.0247955322265625,-0.0076904296875
1772806943028206000,5.7192060546875,-0.99774169921875,-0.0246429443359375,-0.0074615478515625
1772806943038136800,5.72913671875,-0.996978759765625,-0.0230255126953125,-0.0101165771484375
1772806943048069000,5.739069091796875,-0.996673583984375,-0.0216217041015625,-0.010162353515625
1772806943058001200,5.749001220703125,-0.9955291748046875,-0.0191802978515625,-0.0113067626953125
1772806943067933200,5.75893310546875,-0.9964752197265625,-0.0170440673828125,-0.0103759765625
1772806943077864000,5.768864013671875,-0.9956817626953125,-0.017486572265625,-0.010467529296875
1772806943087796000,5.7787958984375,-0.99658203125,-0.0173187255859375,-0.011566162109375
1772806943097728000,5.78872802734375,-0.9973907470703125,-0.016143798828125,-0.009063720703125
1772806943107660000,5.798659912109375,-0.995941162109375,-0.016632080078125,-0.010345458984375
1772806943117590800,5.8085908203125,-0.996185302734375,-0.0184783935546875,-0.01190185546875
1772806943127523000,5.818523193359375,-0.9946136474609375,-0.0205841064453125,-0.0115966796875
1772806943137455000,5.828455078125,-0.9968109130859375,-0.022491455078125,-0.0114593505859375
1772806943147386000,5.83838623046875,-0.994537353515625,-0.0236663818359375,-0.00946044921875
1772806943157318000,5.84831787109375,-0.995697021484375,-0.0262603759765625,-0.0078582763671875
1772806943167250000,5.85825,-0.996826171875,-0.0300445556640625,-0.00885009765625
1772806943177182000,5.868181884765625,-0.9966888427734375,-0.03021240234375,-0.0086669921875
1772806943187113000,5.878113037109375,-0.9977264404296875,-0.02960205078125,-0.00909423828125
1772806943197045000,5.888044921875,-0.99432373046875,-0.029541015625,-0.0112762451171875
1772806943206976800,5.897976806640625,-0.9983062744140625,-0.027587890625,-0.0105438232421875
1772806943216909000,5.907908935546875,-0.99566650390625,-0.025177001953125,-0.0093231201171875
1772806943226840000,5.917840087890625,-0.9972686767578125,-0.023895263671875,-0.0066680908203125
1772806943236772000,5.927772216796875,-0.995147705078125,-0.02178955078125,-0.005523681640625
1772806943246704000,5.9377041015625,-0.9970245361328125,-0.021026611328125,-0.0072174072265625
1772806943256636000,5.947635986328125,-0.9969635009765625,-0.018310546875,-0.0099334716796875
1772806943266567000,5.95756689453125,-0.997894287109375,-0.0179290771484375,-0.0118865966796875
1772806943276499000,5.9674990234375,-0.997161865234375,-0.01690673828125,-0.0124664306640625
1772806943286431000,5.977430908203125,-0.9956207275390625,-0.0171966552734375,-0.0104522705078125
1772806943296362800,5.98736279296875,-0.9960784912109375,-0.016815185546875,-0.0108642578125
1772806943306294000,5.9972939453125,-0.995513916015625,-0.0184173583984375,-0.00738525390625
1772806943316226000,6.00722607421875,-0.995819091796875,-0.021759033203125,-0.0062713623046875
1772806943326158000,6.017157958984375,-0.99578857421875,-0.0248260498046875,-0.0074920654296875
1772806943336090000,6.027090087890625,-0.9949951171875,-0.0271453857421875,-0.0099639892578125
1772806943346020900,6.037020751953125,-0.99639892578125,-0.0268096923828125,-0.0107269287109375
1772806943355953000,6.046952880859375,-0.997467041015625,-0.02899169921875,-0.0101470947265625
1772806943365885000,6.056885009765625,-0.996856689453125,-0.02874755859375,-0.0079498291015625
1772806943375817000,6.06681689453125,-0.9962615966796875,-0.0302886962890625,-0.0061187744140625
1772806943385748000,6.076748046875,-0.9983673095703125,-0.0291595458984375,-0.006927490234375
1772806943395680000,6.086679931640625,-0.9965667724609375,-0.0287017822265625,-0.008453369140625
1772806943405612000,6.096612060546875,-0.995513916015625,-0.0260009765625,-0.0086669921875
1772806943415543000,6.10654296875,-0.995208740234375,-0.02398681640625,-0.0114898681640625
1772806943425474800,6.116474853515625,-0.9961700439453125,-0.0225067138671875,-0.0114898681640625
1772806943435406800,6.12640673828125,-0.9976348876953125,-0.0216827392578125,-0.011505126953125
1772806943445339000,6.1363388671875,-0.9963836669921875,-0.019744873046875,-0.0076904296875
1772806943455270000,6.146269775390625,-0.994659423828125,-0.019744873046875,-0.0090179443359375
1772806943465202000,6.156201904296875,-0.99603271484375,-0.0183258056640625,-0.0072174072265625
1772806943475134000,6.166134033203125,-0.99615478515625,-0.01812744140625,-0.00860595703125
1772806943485066000,6.17606591796875,-0.997528076171875,-0.020599365234375,-0.01190185546875
1772806943494996700,6.185996826171875,-0.9954071044921875,-0.0215606689453125,-0.012603759765625
1772806943504928800,6.1959287109375,-0.9961090087890625,-0.0225372314453125,-0.009735107421875
1772806943514860800,6.20586083984375,-0.9959716796875,-0.02423095703125,-0.0082855224609375
1772806943524792800,6.215792724609375,-0.9967498779296875,-0.02447509765625,-0.0062103271484375
1772806943534723800,6.225723876953125,-0.9959869384765625,-0.0251312255859375,-0.0064239501953125
1772806943544656000,6.23565576171875,-0.9957122802734375,-0.0253143310546875,-0.0086212158203125
1772806943554588000,6.245587890625,-0.9959259033203125,-0.0248260498046875,-0.0103912353515625
1772806943564520000,6.25552001953125,-0.99566650390625,-0.025299072265625,-0.0118560791015625
1772806943574451000,6.265450927734375,-0.99542236328125,-0.02593994140625,-0.0139007568359375
1772806943584382700,6.2753828125,-0.9970245361328125,-0.0254364013671875,-0.0123748779296875
1772806943594314800,6.285314697265625,-0.9967193603515625,-0.0244293212890625,-0.00848388671875
1772806943604246800,6.295246826171875,-0.9953155517578125,-0.02386474609375,-0.00567626953125
1772806943614178000,6.305177978515625,-0.9964447021484375,-0.021881103515625,-0.005218505859375
1772806943624110000,6.315110107421875,-0.994964599609375,-0.022308349609375,-0.0076904296875
1772806943634041900,6.325041748046875,-0.9970855712890625,-0.02178955078125,-0.0087127685546875
1772806943643974000,6.334973876953125,-0.99609375,-0.02142333984375,-0.0096588134765625
1772806943653905000,6.34490478515625,-0.9960479736328125,-0.0220947265625,-0.0104217529296875
1772806943663837000,6.3548369140625,-0.996307373046875,-0.0220489501953125,-0.0113067626953125
1772806943673768700,6.364768798828125,-0.9960174560546875,-0.023345947265625,-0.008575439453125
1772806943683700700,6.37470068359375,-0.9956207275390625,-0.0235137939453125,-0.0079803466796875
1772806943693632000,6.384632080078125,-0.9961700439453125,-0.0244903564453125,-0.00848388671875
1772806943703564000,6.39456396484375,-0.9954833984375,-0.0252838134765625,-0.0099334716796875
1772806943713496000,6.40449609375,-0.997406005859375,-0.0247650146484375,-0.0099639892578125
1772806943723426800,6.4144267578125,-0.9962158203125,-0.025238037109375,-0.01031494140625
1772806943733358800,6.42435888671875,-0.9964447021484375,-0.0231170654296875,-0.011138916015625
1772806943743291000,6.434290771484375,-0.9961700439453125,-0.0228729248046875,-0.01043701171875
1772806943753223000,6.444222900390625,-0.9966278076171875,-0.0241546630859375,-0.0098114013671875
1772806943763153700,6.454153564453125,-0.996368408203125,-0.0240478515625,-0.00616455078125
1772806943773086000,6.4640859375,-0.9960174560546875,-0.0233917236328125,-0.0072021484375
1772806943783018000,6.47401806640625,-0.9962615966796875,-0.0213775634765625,-0.0105743408203125
1772806943792950000,6.483949951171875,-0.996307373046875,-0.021484375,-0.0100555419921875
1772806943802880800,6.493880859375,-0.9965972900390625,-0.021697998046875,-0.0123138427734375
1772806943812812800,6.503812744140625,-0.9972686767578125,-0.0234832763671875,-0.011016845703125
1772806943822744800,6.513744873046875,-0.9959716796875,-0.024200439453125,-0.007720947265625
1772806943832676900,6.5236767578125,-0.9969635009765625,-0.024139404296875,-0.0085906982421875
1772806943842607900,6.53360791015625,-0.99609375,-0.0247802734375,-0.0061492919921875
1772806943852540000,6.543539794921875,-0.997772216796875,-0.0249786376953125,-0.00872802734375
1772806943862472000,6.553471923828125,-0.997589111328125,-0.0241851806640625,-0.0103607177734375
1772806943872404000,6.563404052734375,-0.9953765869140625,-0.023529052734375,-0.0113525390625
1772806943882335000,6.5733349609375,-0.9962921142578125,-0.0241851806640625,-0.0109710693359375
1772806943892266800,6.583266845703125,-0.9965362548828125,-0.0234527587890625,-0.0091094970703125
1772806943902198800,6.59319873046875,-0.9957427978515625,-0.023284912109375,-0.0088958740234375
1772806943912130800,6.603130859375,-0.9975433349609375,-0.02325439453125,-0.0073699951171875
1772806943922061800,6.613061767578125,-0.9967803955078125,-0.0223541259765625,-0.00726318359375
1772806943931993900,6.622993896484375,-0.9973907470703125,-0.021697998046875,-0.0081634521484375
1772806943941926000,6.63292578125,-0.9972686767578125,-0.0215911865234375,-0.009124755859375
1772806943951858000,6.64285791015625,-0.9963226318359375,-0.0205535888671875,-0.0094757080078125
1772806943961789000,6.652788818359375,-0.9953155517578125,-0.0223846435546875,-0.0099945068359375
1772806943971721000,6.662720947265625,-0.9966888427734375,-0.022003173828125,-0.00970458984375
1772806943981653000,6.672653076171875,-0.9948272705078125,-0.0226287841796875,-0.0076904296875
1772806943991584800,6.682584716796875,-0.9960174560546875,-0.0237274169921875,-0.007904052734375
1772806944001515800,6.692515869140625,-0.9960174560546875,-0.0229949951171875,-0.0084991455078125
1772806944011447800,6.70244775390625,-0.996673583984375,-0.0242919921875,-0.00958251953125
1772806944021379800,6.7123798828125,-0.997283935546875,-0.025909423828125,-0.0126190185546875
1772806944031310800,6.722310791015625,-0.9966888427734375,-0.0269775390625,-0.0119171142578125
1772806944041243000,6.732242919921875,-0.995452880859375,-0.0258026123046875,-0.010650634765625
1772806944051175000,6.7421748046875,-0.9964599609375,-0.0243377685546875,-0.0085601806640625
1772806944061107000,6.75210693359375,-0.9951019287109375,-0.02545166015625,-0.0063629150390625
1772806944071037700,6.76203759765625,-0.995147705078125,-0.024658203125,-0.0061798095703125
1772806944080969700,6.7719697265625,-0.99560546875,-0.0247344970703125,-0.008453369140625
1772806944090901800,6.78190185546875,-0.997314453125,-0.0243682861328125,-0.010223388671875
1772806944100833800,6.791833740234375,-0.9950103759765625,-0.0247344970703125,-0.010040283203125
1772806944110765000,6.80176513671875,-0.9954071044921875,-0.02197265625,-0.01019287109375
1772806944120696800,6.81169677734375,-0.9957733154296875,-0.022857666015625,-0.0109100341796875
1772806944130628900,6.82162890625,-0.9969940185546875,-0.0218048095703125,-0.009246826171875
1772806944140561000,6.831560791015625,-0.9952850341796875,-0.0214996337890625,-0.0084075927734375
1772806944150492000,6.841491943359375,-0.9967041015625,-0.0212554931640625,-0.0090179443359375
1772806944160423700,6.851423583984375,-0.997222900390625,-0.0202178955078125,-0.009857177734375
1772806944170355700,6.861355712890625,-0.9954986572265625,-0.020599365234375,-0.010833740234375
1772806944180287700,6.871287841796875,-0.9948577880859375,-0.0207977294921875,-0.0111541748046875
1772806944190219000,6.881218994140625,-0.99688720703125,-0.019195556640625,-0.0115509033203125
1772806944200151000,6.891151123046875,-0.995147705078125,-0.020965576171875,-0.007659912109375
1772806944210082800,6.901082763671875,-0.99542236328125,-0.0213623046875,-0.006927490234375
1772806944220014800,6.911014892578125,-0.99566650390625,-0.0232696533203125,-0.00653076171875
1772806944229945900,6.92094580078125,-0.9972381591796875,-0.0244140625,-0.0081939697265625
1772806944239878000,6.9308779296875,-0.9970245361328125,-0.0252838134765625,-0.008941650390625
1772806944249810000,6.940809814453125,-0.9958953857421875,-0.0272064208984375,-0.011260986328125
1772806944259741700,6.95074169921875,-0.9967041015625,-0.0263671875,-0.01177978515625
1772806944269673000,6.9606728515625,-0.99798583984375,-0.0268402099609375,-0.011077880859375
1772806944279605000,6.97060498046875,-0.9958953857421875,-0.0276336669921875,-0.0085296630859375
1772806944289537000,6.980537109375,-0.9953460693359375,-0.026702880859375,-0.00726318359375
1772806944299468800,6.99046875,-0.9971160888671875,-0.025177001953125,-0.0083770751953125
1772806944309399800,7.00039990234375,-0.996978759765625,-0.0249481201171875,-0.008697509765625
1772806944319331800,7.010331787109375,-0.99761962890625,-0.0231170654296875,-0.0108795166015625
1772806944329263900,7.020263916015625,-0.9974365234375,-0.0221099853515625,-0.0113067626953125
1772806944339195000,7.03019482421875,-0.996063232421875,-0.0201416015625,-0.00970458984375
1772806944349127000,7.040126953125,-0.9962310791015625,-0.021026611328125,-0.01019287109375
1772806944359059000,7.050058837890625,-0.996124267578125,-0.0210418701171875,-0.0078125
1772806944368991000,7.059990966796875,-0.9949798583984375,-0.01849365234375,-0.0088958740234375
1772806944378921700,7.069921630859375,-0.994720458984375,-0.017852783203125,-0.0090179443359375
1772806944388853800,7.079853759765625,-0.9954986572265625,-0.0195465087890625,-0.01104736328125
1772806944398785800,7.089785888671875,-0.9969482421875,-0.021331787109375,-0.0118560791015625
1772806944408717800,7.0997177734375,-0.9957122802734375,-0.022369384765625,-0.0118560791015625
1772806944418648800,7.10964892578125,-0.996307373046875,-0.024169921875,-0.011505126953125
1772806944428580900,7.119580810546875,-0.9963836669921875,-0.0254058837890625,-0.0094146728515625
1772806944438513000,7.129512939453125,-0.9964752197265625,-0.0255279541015625,-0.0075531005859375
1772806944448445000,7.13944482421875,-0.9959869384765625,-0.0268707275390625,-0.0071258544921875
1772806944458376000,7.1493759765625,-0.995819091796875,-0.028961181640625,-0.0102386474609375
1772806944468308000,7.159307861328125,-0.99725341796875,-0.027435302734375,-0.01031494140625
1772806944478240000,7.169239990234375,-0.9969329833984375,-0.02764892578125,-0.0098419189453125
1772806944488172000,7.179172119140625,-0.9959716796875,-0.027099609375,-0.0099334716796875
1772806944498102800,7.189102783203125,-0.9973602294921875,-0.0262908935546875,-0.0113983154296875
1772806944508035000,7.19903515625,-0.9960174560546875,-0.024505615234375,-0.0092315673828125
1772806944517967000,7.208967041015625,-0.9957275390625,-0.0232696533203125,-0.0061798095703125
1772806944527899100,7.218899169921875,-0.9958038330078125,-0.0211181640625,-0.01025390625
1772806944537830000,7.228829833984375,-0.9951171875,-0.0205230712890625,-0.0104827880859375
1772806944547762000,7.238761962890625,-0.995574951171875,-0.0195770263671875,-0.0112457275390625
1772806944557694000,7.24869384765625,-0.996856689453125,-0.0196075439453125,-0.0116729736328125
1772806944567626000,7.2586259765625,-0.9949951171875,-0.0200042724609375,-0.0105438232421875
1772806944577556700,7.268556640625,-0.995880126953125,-0.0203704833984375,-0.0101470947265625
1772806944587488800,7.27848876953125,-0.9965057373046875,-0.020416259765625,-0.008148193359375
1772806944597421000,7.288421142578125,-0.996124267578125,-0.0223388671875,-0.0079193115234375
1772806944607353000,7.29835302734375,-0.996368408203125,-0.0223236083984375,-0.010101318359375
1772806944617284000,7.3082841796875,-0.9952239990234375,-0.024932861328125,-0.01080322265625
1772806944627216000,7.3182158203125,-0.996307373046875,-0.0248260498046875,-0.0099334716796875
1772806944637148000,7.32814794921875,-0.9970703125,-0.0257110595703125,-0.009368896484375
1772806944647080000,7.338079833984375,-0.9962005615234375,-0.0259246826171875,-0.0098419189453125
1772806944657011000,7.348010986328125,-0.9978790283203125,-0.0263519287109375,-0.006439208984375
1772806944666942700,7.357942626953125,-0.997406005859375,-0.025390625,-0.0063934326171875
1772806944676874800,7.367874755859375,-0.99603271484375,-0.0265045166015625,-0.007659912109375
1772806944686806000,7.377805908203125,-0.9964599609375,-0.0252838134765625,-0.0090789794921875
1772806944696738000,7.387738037109375,-0.995513916015625,-0.0257568359375,-0.0108184814453125
1772806944706670000,7.397670166015625,-0.995391845703125,-0.0232086181640625,-0.01275634765625
1772806944716601900,7.407601806640625,-0.9980316162109375,-0.0229339599609375,-0.0097198486328125
1772806944726532900,7.417532958984375,-0.99560546875,-0.022491455078125,-0.0097198486328125
1772806944736465000,7.42746484375,-0.99578857421875,-0.02197265625,-0.009674072265625
1772806944746397000,7.43739697265625,-0.9956207275390625,-0.0215911865234375,-0.0096893310546875
1772806944756329000,7.447328857421875,-0.996063232421875,-0.0217742919921875,-0.0111541748046875
1772806944766260000,7.457260009765625,-0.99554443359375,-0.0218963623046875,-0.0101318359375
1772806944776192000,7.46719189453125,-0.996246337890625,-0.0208282470703125,-0.0107574462890625
1772806944786124000,7.4771240234375,-0.997955322265625,-0.02069091796875,-0.011322021484375
1772806944796056000,7.48705615234375,-0.997039794921875,-0.0203399658203125,-0.0100555419921875
1772806944805986800,7.49698681640625,-0.99615478515625,-0.0221099853515625,-0.0072784423828125
1772806944815918800,7.5069189453125,-0.996490478515625,-0.022613525390625,-0.007659912109375
1772806944825851000,7.516850830078125,-0.997161865234375,-0.02197265625,-0.0090484619140625
1772806944835783000,7.526782958984375,-1.0065460205078125,-0.024383544921875,-0.0153961181640625
1772806944845714000,7.5367138671875,-0.9854583740234375,-0.02435302734375,-0.003753662109375
1772806944855646000,7.54664599609375,-0.9973602294921875,-0.024444580078125,-0.00738525390625
1772806944865578000,7.556577880859375,-0.9989471435546875,-0.02508544921875,-0.0104217529296875
1772806944875510000,7.566510009765625,-0.9892120361328125,-0.0259552001953125,-0.0040740966796875
1772806944885441000,7.57644091796875,-0.9992523193359375,-0.026702880859375,-0.0065155029296875
1772806944895372800,7.586372802734375,-0.999176025390625,-0.02734375,-0.0077972412109375
1772806944905304800,7.596304931640625,-1.011962890625,-0.0259857177734375,-0.0169830322265625
1772806944915236900,7.60623681640625,-0.982513427734375,-0.0257415771484375,0.0047149658203125
1772806944925168000,7.616168212890625,-0.97283935546875,-0.0233306884765625,0.0086517333984375
1772806944935100000,7.626099853515625,-1.0224151611328125,-0.022308349609375,-0.021942138671875
1772806944945032000,7.636031982421875,-0.9842376708984375,-0.0225982666015625,0.004791259765625
1772806944954964000,7.6459638671875,-0.98968505859375,-0.021942138671875,0.0012054443359375
1772806944964895000,7.65589501953125,-1.0061798095703125,-0.0220184326171875,-0.0099334716796875
1772806944974827000,7.665826904296875,-0.98590087890625,-0.0211944580078125,0.0009002685546875
1772806944984758800,7.6757587890625,-0.9788818359375,-0.0220184326171875,0.0055389404296875
1772806944994690000,7.68568994140625,-1.00445556640625,-0.021881103515625,-0.0126495361328125
1772806945004622000,7.6956220703125,-1.022247314453125,-0.0198211669921875,-0.028656005859375
1772806945014554000,7.70555419921875,-0.9778594970703125,-0.0241546630859375,0.00469970703125
1772806945024486100,7.715486083984375,-1.0010833740234375,-0.023193359375,-0.0113372802734375
1772806945034417000,7.7254169921875,-1.007293701171875,-0.0233612060546875,-0.0169525146484375
