time,seconds_elapsed,z,y,x
1772806937372079900,0.063079833984375,0.00019574233738239855,0.011511513963341713,0.0016498282784596086
1772806937382011000,0.073010986328125,-0.0009800433181226254,-0.0078073227778077126,-0.003463707398623228
1772806937391943000,0.08294287109375,0.001219727797433734,0.011390872299671173,0.002287921728566289
1772806937401875000,0.092875,-0.0029792783316224813,0.011040667071938515,0.0006072007236070931
1772806937411807000,0.102806884765625,0.0009917612187564373,-0.002502039773389697,-0.0015992282424122095
1772806937421738000,0.112738037109375,-0.0007789746159687638,0.005044027231633663,0.0013880395563319325
1772806937431670000,0.122669921875,0.0013523531379178166,0.012318718247115612,0.001728657865896821
1772806937441602000,0.13260205078125,-0.0014564828015863895,0.0020501012913882732,-0.0024383901618421078
1772806937451533800,0.142533935546875,-0.0005747101386077702,0.006974552292376757,-0.001714010490104556
1772806937461464800,0.15246484375,0.000037017940485384315,0.008611065335571766,-0.0009249158320017159
1772806937471396900,0.16239697265625,-0.002371012233197689,0.004427238833159208,-0.0002836266648955643
1772806937481329000,0.172328857421875,0.000245543458731845,0.0043593281880021095,0.0009387642494402826
1772806937491260700,0.1822607421875,-0.003652791725471616,0.007337541319429874,0.002222141483798623
1772806937501192000,0.19219189453125,-0.00119629199616611,0.0046964846551418304,-0.0010375675046816468
1772806937511124000,0.2021240234375,-0.0016101471846923232,0.007476558443158865,0.0022836606949567795
1772806937521056000,0.212055908203125,-0.0001627191377338022,0.0054703992791473866,-0.0016591493040323257
1772806937530988000,0.221988037109375,0.0007635282818228006,0.005407015793025494,0.0024048343766480684
1772806937540918800,0.231918701171875,-0.0007502124644815922,0.005365470424294472,0.00008921589324017987
1772806937550850800,0.241850830078125,-0.0021797972731292248,0.006968959700316191,-0.00040986048406921327
1772806937560782800,0.251782958984375,-0.0006410228670574725,0.004382231738418341,0.0010780475568026304
1772806937570715000,0.26171484375,-0.0032226911280304193,0.005315935704857111,-0.0011116034584119916
1772806937580646000,0.27164599609375,-0.002522546099498868,0.00598492193967104,0.00077631144085899
1772806937590578000,0.281577880859375,-0.00015446334145963192,0.00860600546002388,-0.0013883059145882726
1772806937600510000,0.291510009765625,-0.0012833772925660014,0.005056011490523815,-0.000636761833447963
1772806937610442000,0.30144189453125,-0.003891411004588008,0.007056844420731068,0.0011779161868616939
1772806937620372700,0.311372802734375,-0.0008602010202594101,0.0062365904450416565,-0.002287655370309949
1772806937630304800,0.3213046875,0.000355532014509663,0.004063983913511038,-0.0006330333999358118
1772806937640236800,0.33123681640625,-0.0017813884187489748,0.005272526293992996,0.0021939121652394533
1772806937650168800,0.3411689453125,-0.0001584580895723775,0.008746353909373283,-0.0011776498286053538
1772806937660100000,0.35110009765625,0.00015632755821570754,0.008824650198221207,-0.0015361113473773003
1772806937670032000,0.361031982421875,-0.0018402442801743746,0.0076155755668878555,-0.00017310546536464244
1772806937679964000,0.3709638671875,-0.0008649947121739388,0.010824950411915779,0.002067944500595331
1772806937689896000,0.38089599609375,-0.0022354573011398315,0.008928780443966389,-0.0011371697764843702
1772806937699827000,0.390826904296875,0.0004846953088417649,0.0041276332922279835,0.0008415589109063148
1772806937709758700,0.4007587890625,-0.001612011343240738,0.0037982002831995487,-0.0024288028944283724
1772806937719690800,0.410690673828125,-0.0005539375124499202,0.0054360441863536835,-0.002447711303830147
1772806937729622800,0.420622802734375,-0.002442118711769581,0.005420331843197346,0.0029917950741946697
1772806937739554000,0.430553955078125,0.000508663768414408,0.0062674833461642265,0.0014612764352932572
1772806937749486000,0.440486083984375,0.00044581317342817783,0.006440056022256613,0.001017327536828816
1772806937759417900,0.45041796875,-0.0005515406373888254,0.006789462640881538,0.002609098795801401
1772806937769350000,0.460349853515625,-0.0027379959356039762,0.005013134330511093,0.0014120079576969147
1772806937779281000,0.470281005859375,-0.0017270599491894245,0.005045624915510416,-0.0008370315190404654
1772806937789213000,0.480212890625,-0.001163268811069429,0.005031243897974491,-0.0010772485984489322
1772806937799145000,0.49014501953125,-0.000639691308606416,0.004522313829511404,0.001189900329336524
1772806937809076700,0.50007666015625,-0.0007012102869339287,0.008376706391572952,-0.0018679412314668298
1772806937819008000,0.510008056640625,0.00025992453447543085,0.005367334932088852,0.001535046030767262
1772806937828940000,0.51993994140625,0.0004141215467825532,0.006421946454793215,-0.0006503439508378506
1772806937838872000,0.5298720703125,-0.0003304982965346426,0.005389438942074776,0.0021941782906651497
1772806937848803800,0.539803955078125,-0.003171025775372982,0.006977215874940157,0.0004868258547503501
1772806937858734800,0.54973486328125,-0.0003225088003091514,0.006009955424815416,-0.001546763931401074
1772806937868667000,0.5596669921875,-0.0013275857781991363,0.007463242392987013,-0.0032565132714807987
1772806937878599000,0.569598876953125,-0.0026812704745680094,0.006068279035389423,0.0012397015234455466
1772806937888531000,0.579531005859375,-0.003306048223748803,0.007898136973381042,-0.0014146711910143495
1772806937898461700,0.589461669921875,-0.0008396946941502392,0.006953513715416193,-0.0003158508916385472
1772806937908394000,0.59939404296875,-0.0013363742036744952,0.008110923692584038,0.00011904330312972888
1772806937918326000,0.609325927734375,-0.0010932276491075754,0.005095692351460457,0.0008247809601016343
1772806937928256800,0.6192568359375,-0.001086037140339613,0.0057524279691278934,0.0013350426452234387
1772806937938188800,0.629188720703125,-0.00045912896166555583,0.005813946947455406,0.0005145227187313139
1772806937948120800,0.639120849609375,-0.0009265137487091124,0.00692128948867321,-0.00004953479583491571
1772806937958052900,0.649052978515625,-0.001041562296450138,0.006361492909491062,0.00043995422311127186
1772806937967983900,0.65898388671875,-0.0019254654180258512,0.010073939338326454,0.001160072977654636
1772806937977915600,0.66891552734375,-0.0009970874525606632,0.007821970619261265,-0.0002790992730297148
1772806937987847700,0.67884765625,0.0010410296963527799,0.007231014780700207,0.0018839201657101512
1772806937997780000,0.688780029296875,0.00019574233738239855,0.005341768264770508,0.0011891013709828258
1772806938007711000,0.6987109375,-0.0011350392596796155,0.006086920853704214,-0.00032330775866284966
1772806938017643000,0.70864306640625,-0.0034083134960383177,0.005915147252380848,-0.001270327833481133
1772806938027574800,0.71857470703125,-0.0024170849937945604,0.007907990366220474,-0.002528671408072114
1772806938037506800,0.7285068359375,-0.0029260150622576475,0.00672208471223712,-0.0005344964447431266
1772806938047437800,0.738437744140625,-0.002606435678899288,0.008567389100790024,0.0007360977469943464
1772806938057369900,0.748369873046875,-0.0014911039033904672,0.007725297473371029,-0.0012716593919321895
1772806938067301600,0.758301513671875,-0.0006836334359832108,0.006627276539802551,-0.0006468818173743784
1772806938077233700,0.768233642578125,-0.0012708604335784912,0.005595567636191845,-0.0014897723449394107
1772806938087165000,0.7781650390625,-0.0018993664998561144,0.003340669209137559,-0.002231995342299342
1772806938097097000,0.788096923828125,-0.000010918960470007733,0.004393683280795813,0.0003733751946128905
1772806938107029000,0.798029052734375,-0.002442118711769581,0.0049316417425870895,-0.00008894957863958552
1772806938116960800,0.807960693359375,-0.00006578007742064074,0.0065162223763763905,0.0014599448768422008
1772806938126891800,0.817891845703125,-0.0005427522119134665,0.008494152687489986,-0.0005398227367550135
1772806938136823800,0.82782373046875,-0.0020234698895365,0.0049042110331356525,-0.0016607472207397223
1772806938146755800,0.837755859375,-0.0020836573094129562,0.007230482529848814,-0.0006303702248260379
1772806938156688000,0.84768798828125,0.0001816275907913223,0.007017695810645819,0
1772806938166619000,0.857618896484375,-0.0007808388327248394,0.0030714236199855804,0.001106809708289802
1772806938176551000,0.867551025390625,0.0005624596378766,0.006201170384883881,-0.00041518680518493056
1772806938186483000,0.87748291015625,-0.0034059167373925447,0.008616125211119652,-0.002123870886862278
1772806938196415000,0.8874150390625,-0.0009472863748669624,0.005349758081138134,-0.00026258768048137426
1772806938206345700,0.897345703125,-0.002781671704724431,0.007759652566164732,0.00034647725988179445
1772806938216277800,0.90727783203125,0.0012708604335784912,0.004841094370931387,-0.0015028218040242791
1772806938226209800,0.917209716796875,-0.0019270633347332478,0.006696784868836403,-0.0026162895374000072
1772806938236141800,0.927141845703125,-0.0009294432238675654,0.006477074231952429,-0.0003121224872302264
1772806938246072800,0.93707275390625,-0.0009092031978070736,0.007795072626322508,-0.001734250457957387
1772806938256004900,0.9470048828125,-0.0009267800487577915,0.007385211996734142,-0.001651692553423345
1772806938265937000,0.95693701171875,-0.0011656655697152019,0.007811317685991526,0.0011808456620201468
1772806938275869000,0.966868896484375,-0.00023462448734790087,0.004994492046535015,0.0022660838440060616
1772806938285800000,0.976800048828125,-0.0010841728653758764,0.0049510826356709,0.0023675502743571997
1772806938295731700,0.986731689453125,-0.0008239820599555969,0.005471197888255119,0.001237571006640792
1772806938305663700,0.996663818359375,-0.0008223841432482004,0.005060805007815361,0.00006950850365683436
1772806938315595800,1.006595703125,-0.002028796123340726,0.005880792159587145,0.001615473534911871
1772806938325527000,1.016527099609375,-0.0006703176186420023,0.006953513715416193,-0.0013164004776626825
1772806938335458800,1.026458740234375,-0.000483363721286878,0.005840312223881483,0.0012921657180413604
1772806938345390800,1.036390869140625,-0.00033902039285749197,0.005213404074311256,0.0012506204657256603
1772806938355323000,1.046322998046875,-0.0011606055777519941,0.005218730308115482,0.0003576625313144177
1772806938365254000,1.05625390625,-0.0020783308427780867,0.004217914305627346,0.00009454221435589716
1772806938375186000,1.06618603515625,-0.0033984598703682423,0.006053098943084478,0.0017243968322873116
1772806938385117700,1.07611767578125,-0.0026130937039852142,0.007421164773404598,-0.0014114753575995564
1772806938395049700,1.0860498046875,-0.0030426615849137306,0.007306648883968592,0.001547030289657414
1772806938404981000,1.09598095703125,-0.0008796420879662037,0.00848270021378994,-0.0019491675775498152
1772806938414913000,1.1059130859375,-0.0010604707058519125,0.005033374298363924,0.0013667342718690634
1772806938424845000,1.115844970703125,-0.002624012529850006,0.008792959153652191,-0.0011531487107276917
1772806938434775800,1.12577587890625,0.0010546117555350065,0.0049433596432209015,-0.0015747271245345473
1772806938444707800,1.135707763671875,-0.0014317154418677092,0.003811249742284417,0.001032241270877421
1772806938454639600,1.1456396484375,-0.0019198728259652853,0.004248540848493576,0.0036495958920568228
1772806938464571400,1.1555712890625,0.000032490566809428856,0.0049470881931483746,0.0024375913199037313
1772806938474502700,1.165502685546875,0.00001944107498275116,0.007501591928303242,0.0016157397767528892
1772806938484434700,1.1754345703125,-0.00033688987605273724,0.0072778863832354546,-0.001541171339340508
1772806938494366700,1.18536669921875,0.0025158883072435856,0.005222192499786615,0.000395745737478137
1772806938504298800,1.195298828125,-0.0021116205025464296,0.006800381932407618,0.0013166668359190226
1772806938514229500,1.2052294921875,0.00013928332191426307,0.006577741354703903,-0.001187237212434411
1772806938524161500,1.21516162109375,0.0012322446564212441,0.002826412906870246,-0.0012950951931998134
1772806938534093600,1.225093505859375,-0.00013741910515818745,0.0033481260761618614,0.002727875951677561
1772806938544025600,1.235025634765625,-0.0017449031583964825,0.006873352453112602,0.00043782367720268667
1772806938553956600,1.24495654296875,-0.0017654094845056534,0.0057441722601652145,0.003556119045242667
1772806938563888600,1.254888671875,-0.0006524744676426053,0.009984723292291164,0.0015646071406081319
1772806938573820700,1.264820556640625,0.00010412959818495438,0.006114884279668331,0.000018908443962573074
1772806938583752700,1.274752685546875,-0.002241050126031041,0.007680024020373821,0.00105328019708395
1772806938593683500,1.284683349609375,0.00014460964302998036,0.005678125657141209,0.00028336033574305475
1772806938603615500,1.294615478515625,-0.003611512714996934,0.007151918951421976,-0.00042743736412376165
1772806938613547500,1.304547607421875,-0.0014207963831722736,0.0038136467337608337,-0.0002897519152611494
1772806938623479600,1.3144794921875,0.00009667274571256712,0.005793973337858915,0.00009161273919744417
1772806938633410800,1.324410888671875,-0.0007864314829930663,0.00649678148329258,0.0026144252624362707
1772806938643342600,1.334342529296875,-0.0005499427788890898,0.0062850601971149445,0.0020572920329868793
1772806938653274600,1.344274658203125,-0.0028069717809557915,0.004463191609829664,-0.000559530162718147
1772806938663206700,1.35420654296875,-0.0009057410643436015,0.006888798903673887,0.001253017340786755
1772806938673137700,1.3641376953125,-0.0020836573094129562,0.008865396492183208,0.0005225121858529747
1772806938683069400,1.3740693359375,0.0006956176948733628,0.007937551476061344,0.000031957933970261365
1772806938693001500,1.38400146484375,-0.003394465195015073,0.009029713459312916,-0.0012753878254443407
1772806938702933500,1.39393359375,-0.0010098706698045135,0.006770554464310408,-0.0023811322171241045
1772806938712864500,1.403864501953125,-0.0029356025625020266,0.008775915019214153,0.0013827132061123848
1772806938722796800,1.413796875,0.000319845654303208,0.006410761270672083,0.00009214537567459047
1772806938732728600,1.423728515625,-0.0011169298086315393,0.005915147252380848,0.0024671524297446012
1772806938742660600,1.43366064453125,-0.0004106594424229115,0.004408863373100758,-0.0020594224333763123
1772806938752591600,1.443591552734375,-0.0018498316640034318,0.005102084018290043,0.0000852211524033919
1772806938762523600,1.453523681640625,-0.0010135991033166647,0.007022489327937365,0.0005081311101093888
1772806938772455700,1.46345556640625,-0.0003709783486556262,0.006400108803063631,0.0003099919413216412
1772806938782387500,1.473387451171875,0.00004394215648062527,0.008285893127322197,0.001273257308639586
1772806938792318500,1.483318359375,-0.0007507451227866113,0.00609411159530282,0.0007294398383237422
1772806938802250500,1.49325048828125,-0.0020660804584622383,0.00686243362724781,-0.000028762138754245825
1772806938812182800,1.503182861328125,-0.0013265205780044198,0.007515707053244114,0.0026013758033514023
1772806938822113500,1.513113525390625,-0.002216815249994397,0.005660282447934151,0.00034967303508892655
1772806938832045600,1.523045654296875,-0.00036724991514347494,0.009180448949337006,0.0015283881220966578
1772806938841977600,1.5329775390625,-0.0017678063595667481,0.0068328725174069405,0.0004724447790067643
1772806938851909600,1.54290966796875,0.00027377295191399753,0.004054396413266659,0.0006554039428010583
1772806938861840400,1.55284033203125,-0.0008532768115401268,0.007024353835731745,-0.00022530343267135322
1772806938871772400,1.5627724609375,-0.0015020228456705809,0.008081628940999508,0.0003408846096135676
1772806938881704400,1.572704345703125,-0.0001637844106880948,0.004933505784720182,-0.0016772588714957237
1772806938891636700,1.58263671875,0.0014375743921846151,0.0028330706991255283,0.0012855078093707561
1772806938901567500,1.5925673828125,-0.00227886694483459,0.007276288699358702,-0.00031664984999224544
1772806938911499500,1.60249951171875,-0.0014945659786462784,0.005225388333201408,0.0012679309584200382
1772806938921431600,1.612431640625,-0.002576608443632722,0.008139153011143208,-0.002305764937773347
1772806938931363600,1.622363525390625,-0.0005078648100607097,0.0068270135670900345,-0.0025803367607295513
1772806938941294600,1.632294677734375,-0.0020538298413157463,0.005902097560465336,-0.0018021611031144857
1772806938951226400,1.642226318359375,-0.0015094797126948833,0.007503456436097622,-0.0007416903390549123
1772806938961158400,1.652158447265625,-0.00256462418474257,0.006747651379555464,-0.001817341079004109
1772806938971090400,1.66209033203125,-0.0017483652336522937,0.006434463430196047,-0.0020812603179365396
1772806938981021700,1.672021728515625,-0.001898301183246076,0.0062605589628219604,-0.0003653856983873993
1772806938990953700,1.68195361328125,0.00022264027211349458,0.006764695513993502,-0.0011374361347407103
1772806939000885500,1.691885498046875,-0.0024463797453790903,0.010067281313240528,-0.0003635214816313237
1772806939010817500,1.701817626953125,-0.000028495824153651483,0.007938084192574024,0.003710848744958639
1772806939020748500,1.71174853515625,-0.0010634001810103655,0.005567871034145355,0.0002969424531329423
1772806939030680600,1.7216806640625,-0.0005435511702671647,0.004145476501435041,0.001398159540258348
1772806939040612400,1.7316123046875,-0.0004644552827812731,0.004189951345324516,0.000580036488827318
1772806939050544400,1.74154443359375,-0.0004122573300264776,0.004210191313177347,0.001478587044402957
1772806939060475600,1.7514755859375,-0.0016588830621913075,0.006829143967479467,0.0012391688069328666
1772806939070407700,1.76140771484375,-0.001776062068529427,0.0065678879618644714,0.0005912217311561108
1772806939080339700,1.771339599609375,-0.002877545543015003,0.007586546707898378,0.0008431567694060504
1772806939090271500,1.781271484375,-0.0008663262706249952,0.007818774320185184,0.00006178533658385277
1772806939100202500,1.791202392578125,-0.00035260253935121,0.008171110413968563,0.0015909724170342088
1772806939110134500,1.801134521484375,-0.0006205165409483016,0.0056799896992743015,-0.0015315839555114508
1772806939120066600,1.811066650390625,-0.0032261533197015524,0.003291134489700198,0.000014381069377122913
1772806939129997600,1.82099755859375,-0.002492984989657998,0.007729026023298502,-0.0008162588928826153
1772806939139929600,1.8309296875,-0.002931075170636177,0.0065503111109137535,0.0025100293569266796
1772806939149861600,1.840861572265625,-0.0009864348685368896,0.006668821442872286,0.000358461489668116
1772806939159793700,1.850793701171875,-0.001261805766262114,0.010342651978135109,-0.0020058928057551384
1772806939169724400,1.860724365234375,-0.00025539714260958135,0.0062696137465536594,0.001192829804494977
1772806939179656400,1.870656494140625,-0.0008143946761265397,0.005770004820078611,0.00026738137239590287
1772806939189588500,1.88058837890625,0.0009917612187564373,0.004060521721839905,-0.0024410535115748644
1772806939199520500,1.8905205078125,0.0003981425834354013,0.005784652195870876,-0.0015390408225357533
1772806939209451800,1.90045166015625,-0.0013587448047474027,0.0035420041531324387,0.00017843178648035973
1772806939219383600,1.910383544921875,-0.002620816696435213,0.0059479037299752235,0.0005302353529259562
1772806939229315600,1.920315673828125,-0.0013374395202845335,0.008447014726698399,0.0017299894243478775
1772806939239247600,1.93024755859375,0.0004138552176300436,0.006158027332276106,0.0015326491557061672
1772806939249178600,1.9401787109375,0.00011877698125317693,0.00466505903750658,0.00042290997225791216
1772806939259110700,1.950110595703125,-0.0020666129421442747,0.005410211626440287,0.00047404266661033034
1772806939269042400,1.96004248046875,-0.0012937636347487569,0.007641141768544912,0.00014860439114272594
1772806939278974500,1.969974365234375,-0.004264253657311201,0.006205165293067694,0.000919323181733489
1772806939288905700,1.97990576171875,-0.0005358280031941831,0.005029646214097738,-0.0022389194928109646
1772806939298837800,1.989837646484375,0.001538241864182055,0.007891478948295116,0.0024317323695868254
1772806939308769500,1.99976953125,-0.0006956176948733628,0.007089867256581783,-0.0021670141723006964
1772806939318701600,2.00970166015625,0.0011795139871537685,0.00586667750030756,-0.00013848437811248004
1772806939328632600,2.019632568359375,-0.0006266417913138866,0.008441155776381493,0.0015459649730473757
1772806939338564600,2.029564697265625,-0.000517718493938446,0.006568686570972204,0.0019137475173920393
1772806939348496600,2.03949658203125,-0.0004439489566721022,0.0046362970024347305,0.0007512777228839695
1772806939358428400,2.049428466796875,-0.0021521004382520914,0.0052232579328119755,-0.0013233247445896268
1772806939368359700,2.059359619140625,-0.002245843643322587,0.00490154791623354,-0.0030631679110229015
1772806939378291700,2.069291748046875,-0.0010450243717059493,0.006195045076310635,0.0015169365797191858
1772806939388223700,2.0792236328125,0.0004972121678292751,0.0031909996178001165,-0.00004261057620169595
1772806939398155800,2.08915576171875,0.0005089300684630871,0.009008408524096012,0.0006221143994480371
1772806939408086500,2.09908642578125,0.00026285400963388383,0.006593187805265188,0.00011185276525793597
1772806939418018600,2.1090185546875,-0.001017593895085156,0.005958556663244963,-0.00023702133330516517
1772806939427950600,2.11895068359375,-0.00028815402765758336,0.004579837899655104,0.0016500946367159486
1772806939437881300,2.12888134765625,-0.0009547432418912649,0.007035539019852877,-0.0012900352012366056
1772806939447813000,2.138813232421875,-0.00048070057528093457,0.003811249742284417,-0.0007840346079319715
1772806939457745200,2.1487451171875,-0.00006285060226218775,0.0049561429768800735,0.00012969593808520585
1772806939467677200,2.15867724609375,-0.0027382622938603163,0.006404369603842497,-0.0010719223646447062
1772806939477608000,2.16860791015625,-0.0021286646369844675,0.006167881190776825,-0.0009318400407209992
1772806939487540000,2.1785400390625,-0.0034402713645249605,0.009157279506325722,-0.0009062737226486206
1772806939497472000,2.188471923828125,0.000535561703145504,0.007870972156524658,0.0026027073618024588
1772806939507404000,2.198404052734375,-0.001814677962101996,0.005375590641051531,0.0003145193331874907
1772806939517335300,2.208335205078125,0.0000125168571685208,0.008216118440032005,-0.00040027310024015605
1772806939527267000,2.21826708984375,-0.00011158645065734163,0.006610231939703226,0.002103897277265787
1772806939537199000,2.22819921875,-0.0005209143273532391,0.007227553054690361,-0.0010436928132548928
1772806939547131100,2.238131103515625,-0.0022029669489711523,0.00887951161712408,-0.0011733887949958444
1772806939557062100,2.248062255859375,-0.0023166837636381388,0.005428054835647345,0.000150202278746292
1772806939566994200,2.257994140625,0.0008005462004803121,0.003910053055733442,-0.000598145998083055
1772806939576926000,2.267926025390625,-0.001371527905575931,0.005154814571142197,-0.0007403587806038558
1772806939586858000,2.27785791015625,0.00038402783684432507,0.00538357999175787,-0.0011973571963608265
1772806939596789200,2.287789306640625,-0.0019971043802797794,0.00800040178000927,0.0009768474847078323
1772806939606721300,2.29772119140625,-0.0021137509029358625,0.006514624692499638,-0.000431432097684592
1772806939616653000,2.307653076171875,0.00018482338055036962,0.007245928514748812,0.0003398193512111902
1772806939626585000,2.317585205078125,0.0001459412305848673,0.0062371231615543365,-0.0020815266761928797
1772806939636516000,2.32751611328125,0.0003981425834354013,0.005340436939150095,0.0007893609581515193
1772806939646448000,2.3374482421875,-0.00030839405371807516,0.004580104257911444,-0.0010090717114508152
1772806939656380200,2.347380126953125,-0.001389371114782989,0.007708519697189331,0.0026756778825074434
1772806939666312000,2.35731201171875,0.0002671150432433933,0.0062464443035423756,-0.0012365056900307536
1772806939676243000,2.367242919921875,-0.0009781790431588888,0.006029130425304174,0.0019707391038537025
1772806939686175200,2.37717529296875,0.00005725796290789731,0.004078897647559643,0.0008974852971732616
1772806939696107300,2.387107177734375,-0.00012996226723771542,0.007188138086348772,-0.0024583640042692423
1772806939706039300,2.397039306640625,-0.0024176177103072405,0.005874134600162506,-0.0009203884401358664
1772806939715970000,2.406969970703125,0.0004367584188003093,0.006629406940191984,-0.0014921691035851836
1772806939725902000,2.416902099609375,-0.00044288369826972485,0.005625128746032715,0.002575543010607362
1772806939735834000,2.426834228515625,-0.0023494407068938017,0.006921821739524603,-0.0030242856591939926
1772806939745764900,2.436764892578125,-0.0012394351651892066,0.0075601814314723015,-0.000943025341257453
1772806939755697000,2.44669677734375,-0.0017212009988725185,0.006847786251455545,0.0014234596164897084
1772806939765629000,2.45662890625,-0.0020397149492055178,0.007376157213002443,-0.0019800602458417416
1772806939775561200,2.466561279296875,-0.001341434195637703,0.00660517206415534,0.0018024274613708258
1772806939785492200,2.4764921875,-0.0029710223898291588,0.005386509466916323,0.000013315805517777335
1772806939795424000,2.486424072265625,0.0008050735923461616,0.005281314719468355,0.00004500742215896025
1772806939805356000,2.49635595703125,-0.002073537092655897,0.006095176562666893,-0.00018722022650763392
1772806939815288000,2.5062880859375,0.00018375810759607702,0.005118329077959061,0.0010700580896809697
1772806939825219000,2.516218994140625,-0.0003259709046687931,0.0037997981999069452,0.0005118595436215401
1772806939835150800,2.52615087890625,-0.0007118629291653633,0.004759334959089756,-0.0007661914569325745
1772806939845083000,2.536082763671875,-0.0005885586142539978,0.008610532619059086,0.0016849819803610444
1772806939855015000,2.546014892578125,-0.001333178486675024,0.004613660275936127,0.0016351809026673436
1772806939864946200,2.5559462890625,-0.0019883159548044205,0.0027475832030177116,0.00022530343267135322
1772806939874878200,2.565878173828125,-0.002055960241705179,0.005919940769672394,0.0023244069889187813
1772806939884810000,2.57581005859375,0.0024972460232675076,0.00561128044500947,-0.0012538161827251315
1772806939894742000,2.585741943359375,-0.0025899240281432867,0.0073165022768080235,-0.0002234392159152776
1772806939904673000,2.595673095703125,-0.002615224104374647,0.003907123580574989,-0.0007922904333099723
1772806939914605000,2.60560498046875,-0.00006631271389778703,0.007664311211556196,0.0010343717876821756
1772806939924537000,2.615537109375,0.00038722361205145717,0.004279433749616146,0.00046099317842163146
1772806939934468900,2.62546875,-0.0007691209320910275,0.005075718741863966,-0.001079645473510027
1772806939944400100,2.635400146484375,0.00022157499915920198,0.008411061950027943,0.0011448930017650127
1772806939954332200,2.645332275390625,-0.0012721919920295477,0.005634982604533434,-0.0013041499769315124
1772806939964264200,2.65526416015625,-0.001499359728768468,0.008652877062559128,-0.00046578687033616006
1772806939974196000,2.665196044921875,-0.00028815402765758336,0.007248857989907265,0.0007227819296531379
1772806939984127000,2.675126953125,-0.0010194580536335707,0.0059899818152189255,0.0003009371866937727
1772806939994059000,2.68505908203125,-0.0032053806353360415,0.006072539836168289,0.0015749934827908874
1772806940003991000,2.694990966796875,-0.0015345134306699038,0.006477074231952429,0.00012117382721044123
1772806940013922000,2.704922119140625,0.0016056197928264737,0.006876814644783735,0.00017443705291952938
1772806940023854000,2.71485400390625,-0.0024053670931607485,0.004575044382363558,-0.000461259507574141
1772806940033786000,2.7247861328125,0.000026365294615970924,0.005175587255507708,-0.001341700553894043
1772806940043718100,2.73471826171875,0.0008575378451496363,0.0068179587833583355,0.00046924897469580173
1772806940053649200,2.744649169921875,-0.002237854292616248,0.008576976135373116,0.0013065468519926071
1772806940063581000,2.754580810546875,-0.0009411611245013773,0.0052051483653485775,0.0006482133758254349
1772806940073513000,2.764512939453125,-0.000883636821527034,0.006712497677654028,0.00043036683928221464
1772806940083445000,2.774445068359375,-0.001547030289657414,0.0073015885427594185,0.0012570120161399245
1772806940093376300,2.784376220703125,-0.0015837819082662463,0.007763647008687258,-0.00010945591930067167
1772806940103308000,2.79430810546875,0.00010839065362233669,0.006596117280423641,0.0015893745003268123
1772806940113240000,2.804239990234375,-0.001377653214149177,0.007993211969733238,0.0018788601737469435
1772806940123172000,2.814172119140625,-0.002540122950449586,0.005933789070695639,-0.0001174454009742476
1772806940133103000,2.82410302734375,-0.00021917815320193768,0.006607835181057453,0.003041063668206334
1772806940143035100,2.83403515625,-0.001862348522990942,0.005652559455484152,-0.0011952266795560718
1772806940152967000,2.843966796875,-0.0022426480427384377,0.00418302696198225,0.0031758195254951715
1772806940162899000,2.85389892578125,0.00022077605535741895,0.006265352945774794,0.0015433018561452627
1772806940172830200,2.863830322265625,-0.0008604673203080893,0.007125553674995899,-0.00015632755821570754
1772806940182762200,2.87376220703125,-0.0009779128013178706,0.007238471880555153,0.0016117451013997197
1772806940192694300,2.8836943359375,-0.0012889700010418892,0.005539108533412218,0.001311873085796833
1772806940202626000,2.8936259765625,-0.0008958873804658651,0.008923720568418503,-0.0001549959706608206
1772806940212557000,2.90355712890625,-0.00021225394448265433,0.004876514431089163,0.0009882990270853043
1772806940222489000,2.913489013671875,0.0011313108261674643,0.006648315116763115,-0.003602457931265235
1772806940232421000,2.923421142578125,-0.0013632721966132522,0.0046821036376059055,0.0016381103778257966
1772806940242353000,2.933352783203125,-0.0006237123161554337,0.008644088171422482,-0.0014868428697809577
1772806940252284200,2.9432841796875,-0.0013869742397218943,0.0038626487366855145,-0.0004878911131527275
1772806940262216200,2.95321630859375,0.0005605954211205244,0.007527957204729319,-0.0019049590919166803
1772806940272148200,2.963148193359375,0.00032384038786403835,0.00481259822845459,-0.0007254450465552509
1772806940282080300,2.973080322265625,0.0001257012045243755,0.005825132131576538,-0.00004234426160110161
1772806940292011000,2.983010986328125,-0.002211222657933831,0.005111937876790762,0.0010135991033166647
1772806940301943000,2.992943115234375,-0.001181111903861165,0.006718622520565987,-0.0013078784104436636
1772806940311875000,3.002875,-0.0008617989369668067,0.00646801944822073,0.0018032263033092022
1772806940321806000,3.01280615234375,-0.001121723442338407,0.006530071143060923,-0.0003121224872302264
1772806940331738000,3.022738037109375,0.00022130868455860764,0.006857906002551317,-0.0005440838285721838
1772806940341670100,3.032670166015625,0.0005486111622303724,0.005520466715097427,-0.00043516053119674325
1772806940351602200,3.042602294921875,0.0013020194601267576,0.007406783755868673,-0.0009171926649287343
1772806940361533200,3.052533203125,-0.003573962254449725,0.006335127633064985,0.001333178486675024
1772806940371465000,3.06246484375,-0.0010008158860728145,0.007482417393475771,0.0005858954391442239
1772806940381397000,3.07239697265625,0.0006016080733388662,0.007198790553957224,-0.0002894856152124703
1772806940391329000,3.0823291015625,0.0015954998089000583,0.004322310443967581,0.002531600883230567
1772806940401260000,3.092260009765625,0.0006543386843986809,0.0030043120495975018,0.0005041363765485585
1772806940411192000,3.102192138671875,-0.0014969628537073731,0.007484015077352524,-0.0012990899849683046
1772806940421124000,3.1121240234375,-0.0023704797495156527,0.006899717729538679,0.0008860336965881288
1772806940431056100,3.12205615234375,-0.0006154565489850938,0.0060088904574513435,0.0013622068800032139
1772806940440987100,3.131987060546875,0.0004247741890139878,0.0076270271092653275,-0.0007118629291653633
1772806940450919700,3.141919677734375,0.0002769687562249601,0.007155114784836769,0.0010162622202187777
1772806940460851700,3.151851806640625,-0.002031192881986499,0.004800613969564438,-0.0006980145117267966
1772806940470783500,3.161783447265625,0.00005619269722956233,0.0052259210497140884,0.0006476807757280767
1772806940480714500,3.171714599609375,-0.0012966931099072099,0.007932225242257118,-0.0003507383225951344
1772806940490646500,3.181646484375,-0.0008796420879662037,0.007199056912213564,-0.00020905814017169178
1772806940500578600,3.19157861328125,-0.0009659285424277186,0.005023520905524492,0.0005957491230219603
1772806940510510600,3.201510498046875,-0.001439971150830388,0.006491188891232014,0.001076982356607914
1772806940520441600,3.211441650390625,-0.0018141453620046377,0.006199839059263468,0.00035712990211322904
1772806940530373600,3.22137353515625,0.0008567389450035989,0.007041131611913443,-0.0007909588166512549
1772806940540305700,3.2313056640625,-0.0012157330056652427,0.006716225761920214,0.0005707154050469398
1772806940550237700,3.24123779296875,-0.0017238641157746315,0.008636631071567535,-0.0012737899087369442
1772806940560168400,3.25116845703125,0.00020106865849811584,0.005747634451836348,0.0007499461644329131
1772806940570100500,3.2611005859375,-0.0001131843455368653,0.006293582264333963,-0.0007624630234204233
1772806940580032500,3.271032470703125,-0.0017084177816286683,0.006915164180099964,-0.00011851066665258259
1772806940589963800,3.2809638671875,-0.002930808812379837,0.00595536082983017,-0.0002926813904196024
1772806940599895600,3.2908955078125,-0.0006780407857149839,0.006601443514227867,0.0014365090755745769
1772806940609827600,3.30082763671875,-0.0005030711181461811,0.005795038305222988,0.0002745719102676958
1772806940619759600,3.310759521484375,-0.0018916432745754719,0.004168912302702665,0.00011052118497900665
1772806940629690600,3.320690673828125,0.0017827199772000313,0.006178267300128937,0.0000018642127770363004
1772806940639622700,3.33062255859375,-0.0008420915110036731,0.007227020338177681,0.0008783105295151472
1772806940649554400,3.340554443359375,-0.0012311793398112059,0.006866161711513996,-0.0015699334908276796
1772806940659486500,3.350486572265625,-0.00010412959818495438,0.00290417717769742,-0.0003400856803636998
1772806940669417700,3.360417724609375,-0.000749679864384234,0.00785339530557394,0.002441852353513241
1772806940679349800,3.370349853515625,-0.0014948323369026184,0.003938815090805292,-0.0009065400226972997
1772806940689281500,3.380281494140625,-0.0016290555940940976,0.0038075214251875877,0.001130511867813766
1772806940699213600,3.390213623046875,-0.0017904432024806738,0.0073428675532341,-0.00011265171633567661
1772806940709144600,3.40014453125,-0.0010934938909485936,0.00794154591858387,-0.000059921123465755954
1772806940719076600,3.41007666015625,-0.0001853560097515583,0.007286142557859421,-0.0003328951424919069
1772806940729008600,3.420008544921875,-0.0024860608391463757,0.009011604823172092,-0.00018668759730644524
1772806940738940400,3.4299404296875,-0.00020985709852539003,0.005194761790335178,0.0013257216196507215
1772806940748871700,3.43987158203125,0.00023968449386302382,0.004315652418881655,0.0010090717114508152
1772806940758803700,3.4498037109375,0.0008111988427117467,0.007415572181344032,0.0009653958841226995
1772806940768735700,3.45973583984375,-0.000022903184799361043,0.005030178464949131,0.0019092201255261898
1772806940778667800,3.469667724609375,-0.0010950918076559901,0.005545233841985464,-0.0009227853151969612
1772806940788598500,3.4795986328125,-0.001213602488860488,0.007694937754422426,0.0019244002178311348
1772806940798530600,3.489530517578125,-0.00029827404068782926,0.004551608581095934,0.0015776565996930003
1772806940808462600,3.499462646484375,-0.0014921691035851836,0.006162022240459919,0.00008841694943839684
1772806940818394600,3.50939453125,0.002549710450693965,0.006708236411213875,-0.0005893575726076961
1772806940828325600,3.51932568359375,0.0006285060080699623,0.007428088691085577,0.0006562029011547565
1772806940838257700,3.529257568359375,-0.00006444849714171141,0.007764978799968958,-0.00038962045800872147
1772806940848189700,3.539189697265625,-0.00119602563790977,0.008216384798288345,0.00015872440417297184
1772806940858120700,3.54912060546875,-0.003610979998484254,0.0062333946116268635,0.00025752768851816654
1772806940868052500,3.559052490234375,-0.002591255819424987,0.007787082809954882,0.00010040117194876075
1772806940877984500,3.568984619140625,-0.002740392694249749,0.006625412032008171,0.0006628608098253608
1772806940887916500,3.57891650390625,-0.0006673881434835494,0.00669225724413991,0.0015068164793774486
1772806940897847600,3.58884765625,0.0009185242815874517,0.003940146882086992,0.002528138691559434
1772806940907779600,3.598779541015625,-0.0022189458832144737,0.0071164988912642,-0.000041545314161339775
1772806940917711600,3.608711669921875,0.0014588796766474843,0.006441121455281973,0.001264735241420567
1772806940927643600,3.6186435546875,-0.0036400086246430874,0.008903213776648045,0.001958222361281514
1772806940937574700,3.62857470703125,-0.0008631304954178631,0.007909588515758514,0.0020732709672302008
1772806940947506700,3.638506591796875,-0.0011659319279715419,0.006666691042482853,0.0013459615875035524
1772806940957438500,3.6484384765625,-0.0030485205352306366,0.0059995693154633045,0.0011041465913876891
1772806940967370500,3.65837060546875,-0.002615224104374647,0.005622731987386942,0.0007249124464578927
1772806940977301500,3.668301513671875,-0.0022242721170186996,0.0065324679017066956,0.00004953479583491571
1772806940987233500,3.678233642578125,-0.0011659319279715419,0.006514358334243298,-0.0009531453251838684
1772806940997165600,3.68816552734375,-0.0007917577750049531,0.0044232443906366825,-0.0008815063047222793
1772806941007097600,3.69809765625,-0.0012580773327499628,0.005682386923581362,0.00019094864546786994
1772806941017028600,3.708028564453125,0.0016642092959955335,0.005265069659799337,0.0000697748182574287
1772806941026960600,3.717960693359375,-0.0020389161072671413,0.0046573360450565815,0.0014897723449394107
1772806941036892700,3.727892578125,-0.0002980077115353197,0.003930293023586273,-0.0006133259739726782
1772806941046824700,3.73782470703125,-0.0007994809420779347,0.0049620019271969795,-0.0021632856223732233
1772806941056755500,3.74775537109375,-0.001228782464750111,0.004639759194105864,-0.00033582461765035987
1772806941066687500,3.7576875,-0.002020007697865367,0.006204632576555014,-0.0008900284301489592
1772806941076619500,3.76761962890625,0.00041784998029470444,0.00669278996065259,-0.001107076066546142
1772806941086551600,3.777551513671875,-0.0036397422663867474,0.0027393274940550327,-0.00003435477628954686
1772806941096482600,3.787482666015625,-0.0001728391507640481,0.005935919936746359,0.000431432097684592
1772806941106414600,3.79741455078125,-0.002435993403196335,0.0062336609698832035,-0.0007523429812863469
1772806941116346600,3.8073466796875,-0.00023702133330516517,0.008359662257134914,-0.0008791094878688455
1772806941126277600,3.817277587890625,-0.0014314490836113691,0.008885636925697327,-0.0007416903390549123
1772806941136209400,3.82720947265625,-0.001136104459874332,0.008175372146070004,0.0015717976493760943
1772806941146141400,3.837141357421875,-0.0018841864075511694,0.010461695492267609,0.0006993460701778531
1772806941156073500,3.847073486328125,-0.002171541564166546,0.005605687852948904,0.0000828243064461276
1772806941166004700,3.857004638671875,-0.00213638786226511,0.004923386033624411,0.0009574064170010388
1772806941175936500,3.8669365234375,-0.0005408879951573908,0.006098372396081686,-0.002457032445818186
1772806941185868500,3.87686865234375,-0.0012740562669932842,0.0049191247671842575,-0.0017797905020415783
1772806941195800600,3.886800537109375,-0.0001805623178370297,0.004572913981974125,-0.0002258360618725419
1772806941205731600,3.896731689453125,-0.0006948187365196645,0.00791518110781908,0.0008452873444184661
1772806941215663600,3.90666357421875,0.0010721886064857244,0.005079180933535099,0.00008628641808172688
1772806941225595400,3.916595458984375,-0.001791242160834372,0.00663393409922719,0.0009552759001962841
1772806941235527400,3.92652734375,-0.0016391756944358349,0.004811533261090517,0.001942509668879211
1772806941245458700,3.936458740234375,-0.0018157431622967124,0.006530603393912315,0.0017933726776391268
1772806941255390700,3.946390625,-0.001290834159590304,0.006183327175676823,0.0002956108655780554
1772806941265322800,3.95632275390625,-0.0007888282998465002,0.006125270389020443,0.0013398362789303064
1772806941275254500,3.966254638671875,-0.0023398532066494226,0.007231813855469227,-0.0012234562309458852
1772806941285185500,3.976185546875,-0.0004644552827812731,0.009121326729655266,0.003483681008219719
1772806941295117600,3.98611767578125,-0.002126534003764391,0.0070890686474740505,0.0003028014034498483
1772806941305047600,3.996047607421875,-0.0012391688069328666,0.006708502769470215,0.0015257250051945448
1772806941314979600,4.0059794921875,0.00008149272616719827,0.0076118470169603825,0.0012836436508223414
1772806941324911600,4.01591162109375,-0.0018242653459310532,0.00603498937562108,-0.000147272803587839
1772806941334843600,4.02584375,-0.00026365293888375163,0.004032026045024395,-0.0002972087822854519
1772806941344774400,4.0357744140625,-0.0006532734259963036,0.008766593411564827,0.00026604978484101593
1772806941354706400,4.04570654296875,-0.0005001416429877281,0.008342884480953217,0.0006681871018372476
1772806941364638500,4.055638427734375,-0.001589108258485794,0.010949053801596165,0.00010759170982055366
1772806941374570500,4.065570556640625,0.0008977515972219408,0.007501325570046902,0.002302036387845874
1772806941384501500,4.07550146484375,-0.0028519791085273027,0.009229717776179314,-0.0015182681381702423
1772806941394433500,4.08543359375,-0.0014527543680742383,0.002862099092453718,0.0013648699969053268
1772806941404365600,4.095365478515625,-0.0008676578872837126,0.006127933505922556,-0.0013315805699676275
1772806941414297600,4.105297607421875,-0.0001054611784638837,0.004670385736972094,-0.002228799508884549
1772806941424228600,4.115228515625,0.00007217166421469301,0.007809187285602093,-0.00009880327706923708
1772806941434160400,4.125160400390625,-0.0024924525059759617,0.00771837355569005,-0.0014082795241847634
1772806941444092400,4.135092529296875,-0.0016144082183018327,0.008028099313378334,-0.0021704763639718294
1772806941454024400,4.1450244140625,-0.000723048229701817,0.006652043666690588,-0.00046099317842163146
1772806941463955500,4.15495556640625,-0.0017725999932736158,0.009089102037250996,-0.0006743124104104936
1772806941473887500,4.164887451171875,-0.0024919197894632816,0.00549330236390233,0.0017915084026753902
1772806941483819500,4.174819580078125,-0.0046389601193368435,0.005864547099918127,0.000371777277905494
1772806941493750300,4.184750244140625,-0.0008420915110036731,0.00535481795668602,-0.0010785802733153105
1772806941503682300,4.194682373046875,-0.0017158746486529708,0.0073356772772967815,0.00023329291434492916
1772806941513614300,4.2046142578125,0.001549959764815867,0.006430468522012234,0.002377403900027275
1772806941523546400,4.21454638671875,-0.0010388991795480251,0.004166515544056892,-0.00023089606838766485
1772806941533477600,4.2244775390625,-0.001996838254854083,0.0030213561840355396,0.002368881832808256
1772806941543409400,4.234409423828125,-0.0014588796766474843,0.005760150961577892,-0.0002644518972374499
1772806941553341400,4.244341552734375,0.0010783139150589705,0.004259726032614708,0.002639458980411291
1772806941563273500,4.2542734375,-0.0007241134881041944,0.004132693167775869,-0.003329750383272767
1772806941573204500,4.26420458984375,-0.0012431635987013578,0.006600644905120134,0.0011342403013259172
1772806941583136500,4.274136474609375,-0.003358246060088277,0.008611065335571766,0.0002580603177193552
1772806941593068300,4.284068359375,0.0004902879591099918,0.0057135457172989845,0.0012540825409814715
1772806941603000300,4.294000244140625,-0.0023614249657839537,0.008656605146825314,-0.0039867521263659
1772806941612931600,4.303931640625,-0.0011656655697152019,0.00560994865372777,-0.000036218989407643676
1772806941622863600,4.313863525390625,-0.0010279801208525896,0.004664793144911528,-0.00006950850365683436
1772806941632795400,4.32379541015625,-0.00014567491598427296,0.004367318004369736,0.0012926984345540404
1772806941642727400,4.3337275390625,0.00018695391190703958,0.00703793577849865,0.0015363775892183185
1772806941652658400,4.343658447265625,0.002666356973350048,0.006478405557572842,0.0010138654615730047
1772806941662590500,4.353590576171875,0.000687361869495362,0.0067726848646998405,0.0009369000908918679
1772806941672522500,4.3635224609375,0.00014061490946915,0.006053631659597158,-0.00017204020696226507
1772806941682454300,4.373454345703125,-0.00007217166421469301,0.007509049028158188,0.0004884237423539162
1772806941692385500,4.383385498046875,-0.0036722328513860703,0.0043896883726119995,0.000477504770969972
1772806941702317600,4.393317626953125,-0.0010823087068274617,0.00518837058916688,0.0008748483960516751
1772806941712249600,4.40324951171875,-0.0014048174489289522,0.005409678909927607,0.00020373181905597448
1772806941722181600,4.413181640625,0.0017646105261519551,0.007255516014993191,-0.0005938849062658846
1772806941732112400,4.4231123046875,-0.0003587277897167951,0.006581469904631376,-0.00023861923546064645
1772806941742044400,4.43304443359375,-0.0013278521364554763,0.007811317685991526,-0.00017204020696226507
1772806941751976400,4.4429765625,-0.0007845672662369907,0.007254983298480511,0.0001954760227818042
1772806941761907500,4.452907470703125,-0.0017419736832380295,0.00600436283275485,-0.000672448193654418
1772806941771839500,4.462839599609375,-0.002043177140876651,0.0028929917607456446,-0.0014202637830749154
1772806941781771500,4.472771484375,-0.0021885856986045837,0.0051806471310555935,-0.0012058793799951673
1772806941791703600,4.48270361328125,0.001463939668610692,0.005278118886053562,-0.0011001517996191978
1772806941801634600,4.492634521484375,-0.0014450311427935958,0.008211856707930565,0.00007776429993100464
1772806941811566300,4.50256640625,-0.0011046791914850473,0.004999286029487848,0.0008996158139780164
1772806941821498400,4.512498291015625,-0.00049108691746369,0.00592420157045126,0.0008114652009680867
1772806941831430400,4.522430419921875,-0.0014109427575021982,0.005900233518332243,-0.001567802974022925
1772806941841361400,4.532361328125,-0.0015414375811815262,0.0055803875438869,-0.0013997574569657445
1772806941851293400,4.54229345703125,0.0004801679460797459,0.004138552118092775,0.003019758267328143
1772806941861225500,4.5522255859375,0.0004942826926708221,0.009630256332457066,-0.0012988236267119646
1772806941871157500,4.562157470703125,-0.0012929646763950586,0.0076003954745829105,-0.0007808388327248394
1772806941881088500,4.572088623046875,-0.0017976337112486362,0.007182811852544546,0.001368598430417478
1772806941891020500,4.5820205078125,-0.002141714096069336,0.005811283830553293,0.00032437301706522703
1772806941900952300,4.591952392578125,-0.0011733887949958444,0.006352970842272043,-0.0006700513185933232
1772806941910884400,4.60188427734375,-0.0009126652730628848,0.005801696330308914,-0.0008724515791982412
1772806941920815400,4.6118154296875,-0.0028567728586494923,0.007735151331871748,-0.0007592672482132912
1772806941930747400,4.621747314453125,0.0004141215467825532,0.006700513418763876,0.0018825886072590947
1772806941940679400,4.631679443359375,-0.000803209375590086,0.005461877211928368,0.00024101608141791075
1772806941950611500,4.641611572265625,-0.0014442323008552194,0.007433947641402483,-0.001457814360037446
1772806941960542500,4.65154248046875,0.00038456046604551375,0.005564142484217882,0.00009800432599149644
1772806941970474500,4.661474609375,-0.0026756778825074434,0.00689199473708868,0.0009150621481239796
1772806941980406500,4.671406494140625,0.00034674355993047357,0.0054365769028663635,0.0005110605852678418
1772806941990338600,4.681338623046875,-0.0021028320770710707,0.006792126223444939,-0.0024586303625255823
1772806942000269300,4.691269287109375,-0.00012410330236889422,0.006186523009091616,-0.001406947965733707
1772806942010201300,4.701201416015625,-0.0010705908061936498,0.006969226058572531,-0.00029774141148664057
1772806942020133400,4.71113330078125,-0.0033515882678329945,0.007721036672592163,-0.000040480048483004794
1772806942030065700,4.721065673828125,0.00047351003740914166,0.007482151035219431,-0.0013337110867723823
1772806942039996400,4.730996337890625,-0.0031292142812162638,0.009772202931344509,0.00018908442871179432
1772806942049928400,4.740928466796875,-0.002198439557105303,0.007110906299203634,0.002350772265344858
1772806942059860500,4.750860595703125,-0.0015923039754852653,0.005947637837380171,0.001365402713418007
1772806942069791500,4.76079150390625,0.000045273736759554595,0.006536995060741901,0.0006910903030075133
1772806942079723300,4.77072314453125,-0.002442651428282261,0.005262938793748617,0.00040986048406921327
1772806942089655300,4.7806552734375,-0.0020474381744861603,0.0057159424759447575,-0.003197923768311739
1772806942099587300,4.79058740234375,0.0003890878288075328,0.006645918358117342,-0.0015475628897547722
1772806942109518600,4.8005185546875,0.002234392100945115,0.006656837183982134,0.0018341189716011286
1772806942119450400,4.810450439453125,-0.003162770066410303,0.0052320463582873344,-0.004540423396974802
1772806942129382400,4.82038232421875,-0.0022833943367004395,0.00729386555030942,0.0008567389450035989
1772806942139314400,4.830314453125,0.0013960290234535933,0.006447779480367899,-0.0002769687562249601
1772806942149245400,4.840245361328125,0.00023568976030219346,0.007931692525744438,-0.0009776464430615306
1772806942159177500,4.850177490234375,-0.0020301276817917824,0.008743956685066223,-0.0019803266040980816
1772806942169109200,4.860109130859375,-0.0007590008899569511,0.004137753508985043,0.00007909588020993397
1772806942179041300,4.870041259765625,-0.0015214639715850353,0.006049903109669685,-0.00012303804396651685
1772806942188972500,4.87997265625,-0.0014644722687080503,0.0068001155741512775,-0.0004953479510731995
1772806942198904600,4.889904541015625,-0.003912982530891895,0.00689199473708868,-0.001713744131848216
1772806942208836600,4.899836669921875,-0.0025398568250238895,0.006680539343506098,-0.0007574030314572155
1772806942218768400,4.909768310546875,-0.000021837920940015465,0.006074670236557722,0.0006988134700804949
1772806942228699400,4.919699462890625,-0.002382730133831501,0.005524461157619953,0.0015241270884871483
1772806942238631400,4.92963134765625,-0.003344131400808692,0.006687197368592024,0.0011611381778493524
1772806942248563500,4.9395634765625,-0.0034416031558066607,0.0065740132704377174,0.0010122675448656082
1772806942258495200,4.9494951171875,-0.0012426309986039996,0.004129497334361076,0.000055393749789800495
1772806942268426500,4.959426513671875,-0.0026256104465574026,0.0051777176558971405,0.0015707324491813779
1772806942278358500,4.969358642578125,-0.0012769857421517372,0.0038804919458925724,0.0005004079430364072
1772806942288290600,4.97929052734375,-0.0007227819296531379,0.004315652418881655,0.001520665013231337
1772806942298222600,4.98922265625,-0.002629871480166912,0.005705290008336306,-0.0003270361921750009
1772806942308153300,4.9991533203125,-0.00013875069271307439,0.0060328589752316475,-0.0016892430139705539
1772806942318085400,5.00908544921875,-0.000913197931367904,0.00469568558037281,-0.00009560748003423214
1772806942328017400,5.019017333984375,-0.001969940261915326,0.00612207455560565,-0.0012247877893969417
1772806942337948700,5.02894873046875,-0.0010639328975230455,0.007680822629481554,-0.00010759170982055366
1772806942347880400,5.03888037109375,0.0004649879119824618,0.007733020931482315,0.001797101111151278
1772806942357812500,5.0488125,-0.002348109148442745,0.0069489860907197,-0.000336090917699039
1772806942367744500,5.05874462890625,-0.003194727934896946,0.00714526092633605,0.00047058056225068867
1772806942377675500,5.068675537109375,0.0001584580895723775,0.004290885291993618,-0.001127316034398973
1772806942387607300,5.078607177734375,-0.002579537918791175,0.007583617232739925,-0.001121457084082067
1772806942397539300,5.088539306640625,0.00013528858835343271,0.008642756380140781,-0.0006412891671061516
1772806942407471400,5.098471435546875,-0.0010791128734126687,0.006036587059497833,0.0009028115891851485
1772806942417402600,5.108402587890625,-0.0007113303290680051,0.007677893154323101,-0.0023121563717722893
1772806942427334700,5.118334716796875,-0.0005576659459620714,0.005826197564601898,0.000023169501218944788
1772806942437266400,5.128266357421875,0.00013662016135640442,0.0059633501805365086,0.0022093583829700947
1772806942447198500,5.138198486328125,-0.00030173614504747093,0.005290369503200054,-0.00021784658019896597
1772806942457130000,5.1481298828125,-0.002365153282880783,0.007939682342112064,-0.0012950951931998134
1772806942467062000,5.15806201171875,-0.0009797769598662853,0.005417668726295233,0.00036698358599096537
1772806942476994000,5.167994140625,0.000431432097684592,0.007291468791663647,-0.00009480853623244911
1772806942486926000,5.177926025390625,0.0011435613268986344,0.006879211403429508,-0.000185888638952747
1772806942496856800,5.18785693359375,-0.0007848335662856698,0.008311459794640541,0.001050084363669157
1772806942506788900,5.197788818359375,-0.00013981595111545175,0.008298410102725029,-0.0008562062866985798
1772806942516721000,5.207720947265625,-0.001019990653730929,0.007677893154323101,0.0012636699248105288
1772806942526653000,5.21765283203125,0.0013518205378204584,0.006925550289452076,0.00011185276525793597
1772806942536584000,5.227583984375,0.0008178567513823509,0.006170544307678938,0.0011779161868616939
1772806942546516000,5.237515869140625,-0.00088976213010028,0.004344947170466185,-0.0002412823960185051
1772806942556448000,5.247447998046875,-0.00096113485051319,0.007873369380831718,0.0009262474486604333
1772806942566380000,5.257380126953125,-0.000985103310085833,0.0071127708069980145,-0.0002564624010119587
1772806942576310800,5.267310791015625,-0.0011440940434113145,0.006615824531763792,0.0023302659392356873
1772806942586242800,5.277242919921875,-0.0006761765689589083,0.008755408227443695,0.001064731739461422
1772806942596174800,5.2871748046875,-0.0021968416403979063,0.004126301966607571,-0.0008655273704789579
1772806942606107000,5.29710693359375,0.000040480048483004794,0.006444317288696766,0.0022005699574947357
1772806942616038100,5.3070380859375,-0.00013448962999973446,0.008186024613678455,0.002100701443850994
1772806942625970000,5.316969970703125,-0.0009424926829524338,0.006886934395879507,-0.0005608617211692035
1772806942635902000,5.32690185546875,-0.003659183392301202,0.007903463207185268,-0.000755805114749819
1772806942645833000,5.3368330078125,-0.000007190534688561456,0.005971073638647795,0.0001699096756055951
1772806942655765000,5.346764892578125,-0.00130947632715106,0.005381449591368437,0.0017062872648239136
1772806942665697000,5.356697021484375,0.00012543488992378116,0.007876831106841564,-0.00017496968212071806
1772806942675628800,5.36662890625,-0.00012516857532318681,0.006205698009580374,-0.0012982910266146064
1772806942685560000,5.37656005859375,-0.0012689962750300765,0.005803560372442007,-0.00007297061529243365
1772806942695492000,5.3864921875,-0.001755289500579238,0.006222475785762072,0.0019837887957692146
1772806942705424100,5.396424072265625,-0.0011590076610445976,0.004352670628577471,0.0001968075957847759
1772806942715356000,5.40635595703125,-0.0001627191377338022,0.0051745218224823475,-0.002546514617279172
1772806942725287000,5.416286865234375,-0.0022620889358222485,0.005254949443042278,0.0004649879119824618
1772806942735219000,5.426218994140625,-0.0012191950809210539,0.004851746838539839,0.0013046825770288706
1772806942745151000,5.43615087890625,-0.0007920240750536323,0.0049500176683068275,-0.00096086849225685
1772806942755083000,5.4460830078125,0.00039734362508170307,0.006310892757028341,0.004049336537718773
1772806942765014000,5.456013916015625,0.0012231898726895452,0.007803061977028847,0.0015044197207316756
1772806942774946000,5.465946044921875,-0.0011582087026908994,0.007867776788771152,-0.0021467742044478655
1772806942784878000,5.475878173828125,-0.000993891735561192,0.0052237906493246555,-0.0010266485624015331
1772806942794810000,5.48581005859375,-0.0005677859298884869,0.005606220569461584,-0.0015515576815232635
1772806942804740900,5.495740966796875,-0.0010551444720476866,0.007507450878620148,-0.0023558323737233877
1772806942814673000,5.5056728515625,-0.004177967086434364,0.006447779480367899,0.002252501668408513
1772806942824605000,5.51560498046875,-0.0011124024167656898,0.005310076754540205,0.0012428972404450178
1772806942834537000,5.525536865234375,0.0003448793722782284,0.004670917987823486,0.0012868394842371345
1772806942844468000,5.535468017578125,-0.0011028150329366326,0.006911435630172491,-0.0016106797847896814
1772806942854400000,5.54539990234375,-0.00242134602740407,0.006901315413415432,-0.0008215851848945022
1772806942864332000,5.55533203125,-0.0004873584839515388,0.004653607495129108,-0.0026466494891792536
1772806942874264000,5.56526416015625,-0.003689809702336788,0.005490106530487537,0.00000852211542223813
1772806942884195000,5.575195068359375,-0.002956641372293234,0.0059625511057674885,-0.001422128058038652
1772806942894126800,5.585126953125,0.000391218374716118,0.004505536053329706,0.000330231967382133
1772806942904059000,5.595058837890625,-0.0020160130225121975,0.007595069240778685,0.000028495824153651483
1772806942913990100,5.604990234375,-0.0015480954898521304,0.0059510995633900166,0.0001651159836910665
1772806942923922200,5.614922119140625,-0.0001680454588495195,0.0060946443118155,0.0006785734440200031
1772806942933854200,5.624854248046875,0.0009049421059899032,0.005210474599152803,-0.0008972189389169216
1772806942943786000,5.634785888671875,-0.002121474128216505,0.004567321389913559,-0.0011142665753141046
1772806942953717000,5.644717041015625,-0.0013875069562345743,0.004267715383321047,-0.00018189390539191663
1772806942963649000,5.65464892578125,0.0004439489566721022,0.0046091326512396336,0.0006032059900462627
1772806942973581000,5.6645810546875,-0.0027212179265916348,0.008843825198709965,-0.0022690133191645145
1772806942983512800,5.674512939453125,-0.0021313277538865805,0.008742358535528183,-0.0006428870838135481
1772806942993443800,5.68444384765625,-0.00010865696822293103,0.00762782571837306,0.00041518680518493056
1772806943003376000,5.694376220703125,0.0015028218040242791,0.008433432318270206,0.0008910936885513365
1772806943013308200,5.70430810546875,-0.003477289341390133,0.00703900121152401,-0.0010181264951825142
1772806943023240200,5.714240234375,-0.0012450277572497725,0.0034993935842067003,-0.001916410750709474
1772806943033171000,5.7241708984375,0.0010748518398031592,0.005834453273564577,0.00040986048406921327
1772806943043103000,5.73410302734375,-0.0033342777751386166,0.00737322773784399,0.001273257308639586
1772806943053035000,5.744034912109375,-0.001695900922641158,0.0038344194181263447,0.00012516857532318681
1772806943062967000,5.753967041015625,-0.001898034941405058,0.007484281435608864,-0.00009747169679030776
1772806943072897800,5.763897705078125,0.0001448759576305747,0.007722101639956236,-0.0010764497565105557
1772806943082830000,5.773830078125,-0.0018247979460284114,0.00643899105489254,-0.0012492889072746038
1772806943092762000,5.78376220703125,-0.0031254857312887907,0.006139118690043688,0.0008069378091022372
1772806943102694100,5.793694091796875,-0.0009384979493916035,0.0031079088803380728,0.0010631339391693473
1772806943112625000,5.803625,-0.0032413334120064974,0.006268282420933247,-0.0012713931500911713
1772806943122557000,5.813556884765625,-0.00040772996726445854,0.008807073347270489,0.0003312972257845104
1772806943132489000,5.823489013671875,-0.0018895127577707171,0.008127967827022076,-0.00013555490295402706
1772806943142421000,5.8334208984375,-0.0029079054947942495,0.009980196133255959,0.0007531419396400452
1772806943152352000,5.84335205078125,-0.0015363775892183185,0.007256048731505871,0.0023102923296391964
1772806943162283800,5.85328369140625,0.001377386855892837,0.0033625070936977863,-0.00002663161103555467
1772806943172216000,5.863216064453125,-0.0028221518732607365,0.006911968346685171,-0.0006095975404605269
1772806943182148000,5.873148193359375,-0.0023811322171241045,0.008582568727433681,0.00006870955257909372
1772806943192079000,5.8830791015625,-0.0003531351685523987,0.005736182443797588,0.00013848437811248004
1772806943202011100,5.89301123046875,-0.0019241338595747948,0.008537295274436474,0.0004319647268857807
1772806943211943000,5.90294287109375,-0.002359294332563877,0.009074188768863678,0.00012969593808520585
1772806943221875000,5.912875,-0.002817358123138547,0.008441155776381493,0.0006498112925328314
1772806943231806000,5.922805908203125,-0.0022421153262257576,0.006104497704654932,-0.0000679106087773107
1772806943241738000,5.932738037109375,-0.0000876179983606562,0.005736182443797588,-0.0004040015337523073
1772806943251669800,5.942669677734375,-0.0025829998776316643,0.00646562222391367,-0.0014255901332944632
1772806943261601000,5.95260107421875,-0.00016484966909047216,0.0020937772933393717,-0.0004548678989522159
1772806943271533000,5.962532958984375,-0.0020762004423886538,0.007842742837965488,0.0003677825443446636
1772806943281465000,5.972465087890625,-0.0018128136871382594,0.005852030124515295,-0.00079735042527318
1772806943291397000,5.982397216796875,-0.0022980417124927044,0.008203601464629173,-0.0009566074586473405
1772806943301328000,5.992327880859375,0.0008940231637097895,0.005299424286931753,-0.001282312092371285
1772806943311260000,6.002260009765625,-0.0032413334120064974,0.007099454756826162,-0.001121989800594747
1772806943321192000,6.01219189453125,-0.002394980750977993,0.006235259119421244,0.0007510114228352904
1772806943331124000,6.0221240234375,-0.0004551342281047255,0.005790244787931442,0.00029081720276735723
1772806943341055000,6.032054931640625,0.00029081720276735723,0.005607019178569317,-0.0006087986403144896
1772806943350987000,6.041987060546875,0.000017843178284238093,0.007435812149196863,-0.0004370247188489884
1772806943360919000,6.0519189453125,0.000014114753867033869,0.004707137122750282,0.0009707222343422472
1772806943370851000,6.06185107421875,-0.0035832831636071205,0.008273908868432045,-0.0000021305288555595325
1772806943380781800,6.07178173828125,-0.002886067610234022,0.009614810347557068,0.00008016114588826895
1772806943390713900,6.0817138671875,-0.0012860405258834362,0.005788380745798349,-0.001711081014946103
1772806943400646000,6.09164599609375,-0.00250523560680449,0.004664260428398848,0.0012463594321161509
1772806943410578000,6.101577880859375,-0.004129763692617416,0.00632048025727272,-0.001014664419926703
1772806943420509200,6.11150927734375,-0.00048629322554916143,0.0060030315071344376,-0.0006021407316438854
1772806943430441000,6.12144091796875,-0.001597363967448473,0.007552991155534983,0.00035499935620464385
1772806943440373000,6.131373046875,0.0006197175825946033,0.006918093655258417,0.00003834952076431364
1772806943450305000,6.141304931640625,-0.0006130596739239991,0.005887716542929411,-0.0010365023044869304
1772806943460235800,6.15123583984375,0.00008442220860160887,0.005244562868028879,-0.0015651397407054901
1772806943470167800,6.161167724609375,-0.0031196267809718847,0.0051934304647147655,-0.000006125270374468528
1772806943480099800,6.171099853515625,-0.003088201628997922,0.006304234731942415,-0.00353428116068244
1772806943490031900,6.181031982421875,-0.002409628126770258,0.008578041568398476,-0.0006846986943855882
1772806943499963000,6.190962890625,-0.0017747305100783706,0.0075910743325948715,0.001116130850277841
1772806943509895000,6.20089501953125,-0.0023190807551145554,0.00737376045435667,0.002130528911948204
1772806943519827000,6.210826904296875,-0.0021758025977760553,0.00723474333062768,-0.000841825210954994
1772806943529759000,6.220759033203125,0.00042823629337362945,0.005533515941351652,0.0001424791116733104
1772806943539689700,6.230689697265625,0.00021784658019896597,0.004287156742066145,-0.0005105279851704836
1772806943549621800,6.240621826171875,-0.0030983216129243374,0.003950799349695444,-0.0002516687090974301
1772806943559553800,6.2505537109375,-0.000963797967415303,0.004588626325130463,-0.0006133259739726782
1772806943569485000,6.260485107421875,-0.003181145992130041,0.0048922267742455006,-0.0013781858142465353
1772806943579416800,6.270416748046875,-0.001201884588226676,0.006105563137680292,0.0007771103992126882
1772806943589348900,6.280348876953125,-0.0036629117093980312,0.010093913413584232,-0.0007459514308720827
1772806943599281000,6.290281005859375,-0.0010921623324975371,0.004173705819994211,0.0011717908782884479
1772806943609212000,6.3002119140625,-0.0023102923296391964,0.008333830162882805,0.00042317630141042173
1772806943619144000,6.31014404296875,-0.0011416971683502197,0.006596916355192661,0.0013664679136127234
1772806943629075700,6.32007568359375,-0.002557966159656644,0.008700015023350716,-0.00032384038786403835
1772806943639007700,6.3300078125,-0.002011485630646348,0.0054938350804150105,0.003581685246899724
1772806943648939000,6.33993896484375,-0.001252750982530415,0.006537261418998241,-0.0003296993381809443
1772806943658871000,6.34987109375,-0.0010924286907538772,0.007678425870835781,-0.001505751279182732
1772806943668803000,6.359802978515625,-0.0012405004817992449,0.006143379956483841,-0.0007121292874217033
1772806943678734800,6.36973486328125,-0.002591255819424987,0.006105296779423952,-0.0010218549286946654
1772806943688665900,6.379665771484375,-0.0003251719754189253,0.008568987250328064,0.002683933824300766
1772806943698598000,6.389597900390625,-0.0004487426485866308,0.005787048954516649,0.0010522148804739118
1772806943708530000,6.399530029296875,-0.0003701793903019279,0.003634948516264558,0.0007193197961896658
1772806943718461700,6.409461669921875,-0.00145222176797688,0.006307696923613548,-0.002065015025436878
1772806943728393000,6.41939306640625,-0.00008948221511673182,0.006726079620420933,0.0019006980583071709
1772806943738325000,6.429324951171875,0.00018562232435215265,0.006340453866869211,-0.0022972426377236843
1772806943748257000,6.439257080078125,-0.0005515406373888254,0.005350556690245867,-0.0010788465151563287
1772806943758189000,6.44918896484375,0.00022743394947610795,0.002882871776819229,-0.0007520766812376678
1772806943768119800,6.459119873046875,0.0004396878939587623,0.004007524810731411,0.001374723738990724
1772806943778051800,6.4690517578125,-0.0012974920682609081,0.003563842037692666,-0.000874582096002996
1772806943787984000,6.47898388671875,0.0009558085002936423,0.00609384523704648,-0.0001001348573481664
1772806943797916000,6.488916015625,-0.001014664419926703,0.004769188817590475,0.000041545314161339775
1772806943807847000,6.498846923828125,-0.0007605988066643476,0.0057015614584088326,-0.00019361180602572858
1772806943817779000,6.508779052734375,0.0008671252289786935,0.005334045272320509,-0.0006761765689589083
1772806943827711000,6.5187109375,-0.0009672601008787751,0.006677876226603985,-0.0005691175465472043
1772806943837643000,6.52864306640625,0.0010820423485711217,0.0057377805933356285,-0.0006034722900949419
1772806943847573800,6.53857373046875,0.00009267800487577915,0.005321261938661337,-0.00015286543930415064
1772806943857505800,6.548505859375,0.00035473305615596473,0.003023753175511956,0.00037284253630787134
1772806943867437800,6.558437744140625,-0.0007789746159687638,0.0043862261809408665,0.0006514092092402279
1772806943877368800,6.568368896484375,0.00010466222738614306,0.0076155755668878555,0.00003382214708835818
1772806943887300900,6.57830078125,-0.001169394003227353,0.008162855170667171,-0.0013856426812708378
1772806943897233000,6.58823291015625,0.0005174521938897669,0.0054211304523050785,-0.00031851406674832106
1772806943907165000,6.5981650390625,-0.001722798915579915,0.004309527110308409,0.000040480048483004794
1772806943917096000,6.608095947265625,0.0003608583356253803,0.0041401502676308155,-0.0003861583536490798
1772806943927028000,6.618028076171875,-0.0007893609581515193,0.00503870053216815,0.0015169365797191858
1772806943936960000,6.6279599609375,-0.0014146711910143495,0.007707720622420311,-0.002672215923666954
1772806943946891800,6.637891845703125,-0.0007150587625801563,0.007538343779742718,0.000606934423558414
1772806943956822800,6.64782275390625,0.0003736414946615696,0.006069077644497156,-0.0004348942020442337
1772806943966754800,6.6577548828125,-0.00046578687033616006,0.008053398691117764,0.002159024588763714
1772806943976686800,6.667686767578125,-0.00032863407977856696,0.0070344735868275166,0.0009307747823186219
1772806943986619000,6.677618896484375,-0.0007539408979937434,0.005487443413585424,0.0015523566398769617
1772806943996550000,6.6875498046875,-0.00020719393796753138,0.005829659756273031,0.00236222380772233
1772806944006482000,6.69748193359375,-0.0020692760590463877,0.0065593658946454525,0.0020591560751199722
1772806944016414000,6.7074140625,0.001511876587755978,0.005245095584541559,0.00033635724685154855
1772806944026346000,6.717345947265625,0.00012090751260984689,0.005859486758708954,-0.00025300029665231705
1772806944036276700,6.72727685546875,0.00014514227223116904,0.007162039168179035,-0.000029827404432580806
1772806944046208800,6.737208740234375,-0.0017869811272248626,0.00740385428071022,0.001520665013231337
1772806944056140800,6.747140869140625,-0.0004727110790554434,0.007326888851821423,0.000303334032651037
1772806944066072800,6.75707275390625,0.0012263857061043382,0.004632302559912205,0.0011619371362030506
1772806944076003800,6.76700390625,0.000910268456209451,0.0038077877834439278,0.0008335694437846541
1772806944085935900,6.776935791015625,-0.0014879080699756742,0.005458947736769915,0.0001584580895723775
1772806944095868000,6.786867919921875,0.0005273058777675033,0.004933505784720182,-0.0003193130251020193
1772806944105800000,6.796800048828125,-0.0036165728233754635,0.00809148233383894,0.0011203918838873506
1772806944115730700,6.806730712890625,-0.002635996788740158,0.007859520614147186,0.00004953479583491571
1772806944125662700,6.816662841796875,-0.0020295949652791023,0.00740145705640316,-0.002162486780434847
1772806944135594800,6.8265947265625,-0.0010998855577781796,0.006609433330595493,-0.0001424791116733104
1772806944145526800,6.83652685546875,-0.002407231368124485,0.005886118393391371,-0.0019885823130607605
1772806944155458000,6.8464580078125,-0.0029854036401957273,0.003622964257374406,0.0008921589469537139
1772806944165389800,6.856389892578125,0.00018189390539191663,0.005381449591368437,-0.00028336033574305475
1772806944175321900,6.86632177734375,-0.0005451490869745612,0.0031047132797539234,0.0011347729014232755
1772806944185252900,6.8762529296875,-0.002835201332345605,0.005980394314974546,-0.0014378406340256333
1772806944195185000,6.886184814453125,-0.00013875069271307439,0.00481446273624897,-0.0010404969798400998
1772806944205116700,6.89611669921875,-0.0025960493367165327,0.007397196255624294,-0.0025939189363271
1772806944215048700,6.906048583984375,-0.0004777711001224816,0.004892493132501841,-0.0004625910660251975
1772806944224980000,6.91597998046875,-0.0030011162161827087,0.005666141398251057,0.001529453438706696
1772806944234912000,6.925912109375,-0.0006660565850324929,0.00583738274872303,-0.00023169501218944788
1772806944244844000,6.935843994140625,0.000474575295811519,0.006127667147666216,-0.001600559800863266
1772806944254775800,6.94577587890625,0.0008514125947840512,0.0051625375635921955,-0.00016351809608750045
1772806944264706800,6.955706787109375,-0.0015488944482058287,0.006794522982090712,-0.0006122607155703008
1772806944274638800,6.965638916015625,0.0007001450285315514,0.006619553081691265,0.00020479709201026708
1772806944284571000,6.97557080078125,-0.0011374361347407103,0.006130862981081009,0.0018825886072590947
1772806944294503000,6.9855029296875,-0.002269279444590211,0.006429669912904501,0.0011089402250945568
1772806944304434000,6.995433837890625,-0.0026501116808503866,0.005341502372175455,-0.0014500912511721253
1772806944314366000,7.005365966796875,0.001323857344686985,0.007450193166732788,0.00112438655924052
1772806944324298000,7.015298095703125,-0.0013318468118086457,0.00771863991394639,0.0010599381057545543
1772806944334230000,7.02522998046875,-0.0025473134592175484,0.005844307132065296,-0.00028043086058460176
1772806944344160800,7.035160888671875,-0.002014148747548461,0.008243015967309475,0.0024807346053421497
1772806944354092800,7.0450927734375,-0.0025278725661337376,0.007322094868868589,-0.0013986921403557062
1772806944364024800,7.05502490234375,-0.00036218989407643676,0.006598514039069414,-0.0005499427788890898
1772806944373956900,7.064956787109375,-0.0006250438746064901,0.004797950852662325,-0.0004069310089107603
1772806944383888000,7.074887939453125,-0.004169711377471685,0.005224589258432388,-0.00025726135936565697
1772806944393820000,7.08481982421875,-0.0007472829893231392,0.005712480284273624,-0.0007781756576150656
1772806944403752000,7.094751953125,-0.0018748653819784522,0.008594021201133728,-0.00002902845517382957
1772806944413684000,7.10468408203125,-0.0046149916015565395,0.005541239399462938,-0.002692722249776125
1772806944423615000,7.114614990234375,0.00030173614504747093,0.005961486138403416,0.00199310970492661
1772806944433546800,7.124546630859375,-0.002177666872739792,0.007620102725923061,-0.0001627191377338022
1772806944443478800,7.134478759765625,0.0002623213513288647,0.00567040266469121,0.0008255799184553325
1772806944453410800,7.144410888671875,-0.004269846249371767,0.0065135592594742775,-0.0011880361707881093
1772806944463341800,7.154341796875,0.0002865561400540173,0.006789196282625198,-0.0023094932548701763
1772806944473274000,7.164274169921875,-0.003058107802644372,0.008272310718894005,0.0001496696495451033
1772806944483206100,7.1742060546875,0.0021552962716668844,0.006243514828383923,0.002662894781678915
1772806944493138000,7.184137939453125,-0.0007749798824079335,0.005989182740449905,0.002630936913192272
1772806944503069000,7.19406884765625,-0.0017718010349199176,0.00672155199572444,0.0024839304387569427
1772806944513001000,7.2040009765625,-0.002356631215661764,0.00751916877925396,-0.0006458165589720011
1772806944522933000,7.21393310546875,-0.001948368619196117,0.006960703991353512,-0.00020639497961383313
1772806944532863700,7.22386376953125,-0.0010801780736073852,0.006511428859084845,0.00045833003241568804
1772806944542795800,7.233795654296875,-0.002201901515945792,0.007961519993841648,0.001141963410191238
1772806944552728000,7.24372802734375,-0.0002426139690214768,0.0060091568157076836,0.0010575412306934595
1772806944562660000,7.25366015625,0.00041092574247159064,0.004886367823928595,-0.0012026835465803742
1772806944572591000,7.263591064453125,-0.0021289309952408075,0.006450974848121405,-0.00021225394448265433
1772806944582523000,7.27352294921875,-0.0013539510546252131,0.0070608388632535934,-0.001520132296718657
1772806944592455000,7.283454833984375,-0.0019148128340020776,0.002751844236627221,0.0009984191274270415
1772806944602387000,7.293386962890625,-0.0036096484400331974,0.006719155237078667,-0.0001853560097515583
1772806944612318000,7.30331787109375,0.0010479538468644023,0.006059756502509117,0.00019920444174204022
1772806944622249700,7.313249755859375,-0.001876995898783207,0.007399326656013727,-0.002525741932913661
1772806944632181800,7.323181640625,0.00043542683124542236,0.00686056911945343,0.0008338357438333333
1772806944642114000,7.333114013671875,-0.0012120045721530914,0.007751929108053446,0.0006378270918503404
1772806944652045000,7.343045166015625,0.0001507349224993959,0.005876265000551939,-0.0026351979468017817
1772806944661977000,7.35297705078125,-0.0005118595436215401,0.005693838465958834,0.0020149475894868374
1772806944671908900,7.362908935546875,0.00036671728594228625,0.00631994754076004,-0.0014689996605738997
1772806944681841000,7.3728408203125,-0.0020783308427780867,0.006269347388297319,0.00006205165118444711
1772806944691772000,7.38277197265625,0.0013603427214547992,0.004082093480974436,-0.0011377023765817285
1772806944701704000,7.392703857421875,-0.0012631373247131705,0.006258694920688868,0.0013797837309539318
1772806944711636000,7.402635986328125,-0.0013693973887711763,0.009632120840251446,-0.0022951122373342514
1772806944721567700,7.412567626953125,-0.00047164582065306604,0.005248824134469032,0.0001270327775273472
1772806944731499000,7.4224990234375,-0.0007254450465552509,0.006027798634022474,0.0005211806274019182
1772806944741431000,7.43243115234375,0.00012090751260984689,0.005260542035102844,0.001520665013231337
1772806944751363000,7.442363037109375,-0.002266882685944438,0.007186806295067072,-0.0015755260828882456
1772806944761294800,7.452294921875,-0.0022218753583729267,0.004990497604012489,0.0003608583356253803
1772806944771225900,7.462225830078125,0.0014729943359270692,0.0051564122550189495,0.001976331928744912
1772806944781158000,7.472157958984375,-0.0015126754296943545,0.006609433330595493,0.0010863033821806312
1772806944791090000,7.48208984375,-0.0005315669695846736,0.006842193193733692,0.0004423510399647057
1772806944801022000,7.49202197265625,-0.0026296053547412157,0.006994260009378195,0.0010335728293284774
1772806944810953000,7.501952880859375,-0.0017145430902019143,0.007231547497212887,0.0032147017773240805
1772806944820885000,7.511885009765625,-0.0018242653459310532,0.028721394017338753,0.0030186930671334267
1772806944830817000,7.521817138671875,-0.00034967303508892655,0.11059176176786423,0.013084109872579575
1772806944840747800,7.531747802734375,-0.00046871634549461305,0.013919809833168983,0.0018112158868461847
1772806944850679800,7.5416796875,-0.0012988236267119646,0.03728931397199631,0.0041193775832653046
1772806944860611800,7.55161181640625,-0.003055178327485919,0.048465535044670105,0.0023840616922825575
1772806944870544000,7.5615439453125,-0.00034674355993047357,0.016878049820661545,0.0005166532355360687
1772806944880475100,7.57147509765625,-0.0032112395856529474,0.03933382406830788,0.001966744428500533
1772806944890407000,7.581406982421875,-0.0021640846971422434,0.06552042067050934,0.0030623688362538815
1772806944900339000,7.5913388671875,-0.0065255435183644295,0.21256285905838013,0.013125388883054256
1772806944910271000,7.60127099609375,-0.001969407545402646,0.032704684883356094,0.0016974988393485546
1772806944920202000,7.611201904296875,0.0023076289799064398,-0.06683442741632462,-0.0038370825350284576
1772806944930134000,7.621134033203125,-0.0043651871383190155,0.09367722272872925,0.00404640706256032
1772806944940065800,7.631065673828125,0.0005589975044131279,-0.018328407779335976,-0.0014895059866830707
1772806944949997800,7.640997802734375,-0.0007627293234691024,-0.03844113275408745,-0.002103364560753107
1772806944959929000,7.65092919921875,-0.0031547807157039642,0.005727394018322229,-0.0009331716573797166
1772806944969861000,7.660861083984375,-0.00008442220860160887,-0.0713500827550888,-0.0046456181444227695
1772806944979793000,7.67079296875,0.0035918052308261395,-0.21454665064811707,-0.014458035118877888
1772806944989725000,7.680724853515625,0.0014306501252576709,-0.12267451733350754,-0.015152853913605213
1772806944999656000,7.690656005859375,-0.0031103058718144894,0.05524913966655731,0.005434180144220591
1772806945009588000,7.700587890625,0.003058107802644372,-0.08684488385915756,-0.010032393969595432
1772806945019520000,7.71052001953125,0.00015659387281630188,-0.033312149345874786,-0.004703674931079149
1772806945029451800,7.72045166015625,-0.0022775353863835335,0.05036543682217598,0.00654578348621726
1772806945039383000,7.730383056640625,-0.004488225560635328,0.04753982275724411,0.003940146882086992
