time,seconds_elapsed,z,y,x
1772806363041031000,0.069031005859375,-0.3834686279296875,0.9178619384765625,0.1783294677734375
1772806363050962000,0.0789619140625,-0.395294189453125,0.9185638427734375,0.1767425537109375
1772806363060894000,0.08889404296875,-0.4022216796875,0.9164886474609375,0.1716461181640625
1772806363070825000,0.098824951171875,-0.4027099609375,0.9180145263671875,0.1728973388671875
1772806363080757000,0.108757080078125,-0.3870697021484375,0.9190521240234375,0.1671600341796875
1772806363090688000,0.11868798828125,-0.3761444091796875,0.9168701171875,0.1636962890625
1772806363100620000,0.1286201171875,-0.36639404296875,0.908416748046875,0.1669158935546875
1772806363110550800,0.13855078125,-0.3740386962890625,0.8901214599609375,0.177978515625
1772806363120482800,0.14848291015625,-0.3852386474609375,0.8907012939453125,0.1796875
1772806363130414000,0.1584140625,-0.397979736328125,0.89556884765625,0.1787109375
1772806363140346000,0.16834619140625,-0.4138946533203125,0.8948516845703125,0.1868743896484375
1772806363150276900,0.17827685546875,-0.4184722900390625,0.9024658203125,0.1822662353515625
1772806363160209400,0.18820947265625,-0.413482666015625,0.9152984619140625,0.1734771728515625
1772806363170140400,0.198140380859375,-0.400390625,0.9302520751953125,0.1698455810546875
1772806363180072400,0.208072509765625,-0.3986358642578125,0.9320526123046875,0.1774444580078125
1772806363190003500,0.21800341796875,-0.395538330078125,0.925079345703125,0.1942901611328125
1772806363199935500,0.227935546875,-0.387908935546875,0.9175872802734375,0.216705322265625
1772806363209866500,0.237866455078125,-0.3840484619140625,0.913543701171875,0.236724853515625
1772806363219798500,0.247798583984375,-0.38232421875,0.914825439453125,0.2497711181640625
1772806363229729500,0.2577294921875,-0.3818359375,0.9196624755859375,0.25225830078125
1772806363239661600,0.26766162109375,-0.3824310302734375,0.925750732421875,0.2389068603515625
1772806363249592600,0.277592529296875,-0.3860321044921875,0.9317169189453125,0.2186279296875
1772806363259524400,0.2875244140625,-0.39300537109375,0.9240875244140625,0.2007598876953125
1772806363269455400,0.297455322265625,-0.4028472900390625,0.9022674560546875,0.18463134765625
1772806363279387400,0.307387451171875,-0.4049835205078125,0.87872314453125,0.17822265625
1772806363289318700,0.317318603515625,-0.405670166015625,0.861236572265625,0.169219970703125
1772806363299249400,0.32724951171875,-0.4127197265625,0.865081787109375,0.16143798828125
1772806363309181400,0.337181396484375,-0.416656494140625,0.880706787109375,0.16064453125
1772806363319112400,0.347112548828125,-0.41949462890625,0.897979736328125,0.175079345703125
1772806363329044200,0.357044189453125,-0.4163818359375,0.9105224609375,0.1808319091796875
1772806363338975500,0.3669755859375,-0.4019927978515625,0.9224853515625,0.17578125
1772806363348907500,0.376907470703125,-0.391937255859375,0.925872802734375,0.169952392578125
1772806363358838500,0.386838623046875,-0.394439697265625,0.92401123046875,0.1617431640625
1772806363368770300,0.396770263671875,-0.4100341796875,0.9134063720703125,0.1569366455078125
1772806363378701600,0.40670166015625,-0.4105987548828125,0.88787841796875,0.1631317138671875
1772806363388633600,0.416633544921875,-0.39434814453125,0.8595733642578125,0.16412353515625
1772806363398564400,0.426564453125,-0.375244140625,0.843719482421875,0.15838623046875
1772806363408496400,0.436496337890625,-0.3728790283203125,0.845550537109375,0.14117431640625
1772806363418427400,0.446427490234375,-0.39447021484375,0.8592987060546875,0.125579833984375
1772806363428359400,0.456359375,-0.4234771728515625,0.875091552734375,0.124542236328125
1772806363438290400,0.46629052734375,-0.4393157958984375,0.8882904052734375,0.12786865234375
1772806363448222500,0.476222412109375,-0.4417572021484375,0.8923492431640625,0.12664794921875
1772806363458153500,0.486153564453125,-0.434417724609375,0.892059326171875,0.1278228759765625
1772806363468085500,0.49608544921875,-0.4195709228515625,0.881072998046875,0.130157470703125
1772806363478016300,0.506016357421875,-0.4171142578125,0.8580169677734375,0.127685546875
1772806363487948500,0.515948486328125,-0.422698974609375,0.8507080078125,0.124359130859375
1772806363497879600,0.525879638671875,-0.4352874755859375,0.845489501953125,0.139251708984375
1772806363507811600,0.5358115234375,-0.4117889404296875,0.83526611328125,0.154205322265625
1772806363517742300,0.545742431640625,-0.3898773193359375,0.8360748291015625,0.15948486328125
1772806363527674400,0.55567431640625,-0.4118499755859375,0.849517822265625,0.15771484375
1772806363537605600,0.565605712890625,-0.42626953125,0.86395263671875,0.1651153564453125
1772806363547537700,0.57553759765625,-0.4372406005859375,0.8785552978515625,0.1703643798828125
1772806363557468400,0.585468505859375,-0.4487457275390625,0.896026611328125,0.1717681884765625
1772806363567400400,0.595400390625,-0.448211669921875,0.8962554931640625,0.1706695556640625
1772806363577331500,0.60533154296875,-0.446075439453125,0.8852996826171875,0.17327880859375
1772806363587263200,0.61526318359375,-0.4369354248046875,0.8678436279296875,0.1830902099609375
1772806363597194500,0.625194580078125,-0.4280853271484375,0.851959228515625,0.191619873046875
1772806363607126500,0.63512646484375,-0.435577392578125,0.8469390869140625,0.204315185546875
1772806363617057500,0.6450576171875,-0.4570159912109375,0.8491668701171875,0.2061309814453125
1772806363626989300,0.6549892578125,-0.459869384765625,0.852935791015625,0.1902923583984375
1772806363636920600,0.664920654296875,-0.4578704833984375,0.8594818115234375,0.164031982421875
1772806363646852600,0.6748525390625,-0.455902099609375,0.8652191162109375,0.1475067138671875
1772806363656783400,0.684783447265625,-0.4546966552734375,0.86846923828125,0.1526336669921875
1772806363666715400,0.69471533203125,-0.4522857666015625,0.866455078125,0.1567840576171875
1772806363676646400,0.704646484375,-0.4640045166015625,0.85931396484375,0.1584930419921875
1772806363686578400,0.714578369140625,-0.477142333984375,0.85772705078125,0.1567230224609375
1772806363696509400,0.724509521484375,-0.4722747802734375,0.86572265625,0.154449462890625
1772806363706441500,0.73444140625,-0.4705657958984375,0.870208740234375,0.153076171875
1772806363716372500,0.74437255859375,-0.4809112548828125,0.8737030029296875,0.1579742431640625
1772806363726304500,0.754304443359375,-0.4682159423828125,0.8731689453125,0.1596221923828125
1772806363736235300,0.7642353515625,-0.4499664306640625,0.865447998046875,0.165802001953125
1772806363746167300,0.774167236328125,-0.4466094970703125,0.8548583984375,0.166717529296875
1772806363756098600,0.7840986328125,-0.46356201171875,0.850311279296875,0.1616668701171875
1772806363766030600,0.794030517578125,-0.4783935546875,0.8546142578125,0.155303955078125
1772806363775961300,0.80396142578125,-0.485595703125,0.86322021484375,0.1558685302734375
1772806363785893400,0.813893310546875,-0.4887542724609375,0.8697509765625,0.162109375
1772806363795824600,0.82382470703125,-0.483917236328125,0.8585662841796875,0.1707611083984375
1772806363805756400,0.83375634765625,-0.472625732421875,0.846527099609375,0.171112060546875
1772806363815687400,0.8436875,-0.4488372802734375,0.8467254638671875,0.1641845703125
1772806363825619500,0.853619384765625,-0.4300689697265625,0.8492584228515625,0.166351318359375
1772806363835550500,0.863550537109375,-0.427490234375,0.8502197265625,0.1650848388671875
1772806363845482200,0.873482177734375,-0.42987060546875,0.84747314453125,0.17083740234375
1772806363855413500,0.88341357421875,-0.4459381103515625,0.8394622802734375,0.1935577392578125
1772806363865345500,0.893345458984375,-0.4634246826171875,0.8351287841796875,0.2147674560546875
1772806363875276500,0.903276611328125,-0.477752685546875,0.845672607421875,0.2294464111328125
1772806363885208300,0.913208251953125,-0.460845947265625,0.855010986328125,0.2322235107421875
1772806363895139300,0.923139404296875,-0.445770263671875,0.8554229736328125,0.233551025390625
1772806363905071600,0.933071533203125,-0.4458465576171875,0.8409271240234375,0.2423553466796875
1772806363915002400,0.94300244140625,-0.4410552978515625,0.8266448974609375,0.2450103759765625
1772806363924934400,0.952934326171875,-0.4383697509765625,0.8196258544921875,0.2471466064453125
1772806363934865400,0.962865478515625,-0.4571990966796875,0.821624755859375,0.2471466064453125
1772806363944797400,0.97279736328125,-0.462310791015625,0.8342742919921875,0.2314605712890625
1772806363954728400,0.982728515625,-0.4456634521484375,0.841644287109375,0.2104949951171875
1772806363964660500,0.992660400390625,-0.4346771240234375,0.8408660888671875,0.205535888671875
1772806363974591500,1.002591552734375,-0.4446563720703125,0.830108642578125,0.2073516845703125
1772806363984523500,1.0125234375,-0.453155517578125,0.8191986083984375,0.2069549560546875
1772806363994454300,1.022454345703125,-0.45770263671875,0.81134033203125,0.199310302734375
1772806364004386300,1.03238623046875,-0.466552734375,0.80206298828125,0.195098876953125
1772806364014317600,1.042317626953125,-0.4780426025390625,0.7929534912109375,0.1943511962890625
1772806364024249600,1.05224951171875,-0.4755096435546875,0.7850341796875,0.190582275390625
1772806364034180400,1.062180419921875,-0.46942138671875,0.779998779296875,0.185211181640625
1772806364044112400,1.0721123046875,-0.4691619873046875,0.7690887451171875,0.190948486328125
1772806364054043600,1.082043701171875,-0.4713592529296875,0.7476043701171875,0.212799072265625
1772806364063975400,1.091975341796875,-0.48291015625,0.73907470703125,0.2500762939453125
1772806364073906400,1.101906494140625,-0.4788665771484375,0.7726287841796875,0.2779388427734375
1772806364083838500,1.11183837890625,-0.4662933349609375,0.8425750732421875,0.285980224609375
1772806364093769500,1.12176953125,-0.454681396484375,0.9197998046875,0.298980712890625
1772806364103701200,1.131701171875,-0.449615478515625,0.979888916015625,0.310302734375
1772806364113632500,1.141632568359375,-0.4520721435546875,1.0103912353515625,0.319183349609375
1772806364123564500,1.151564453125,-0.4716644287109375,1.035552978515625,0.32000732421875
1772806364133495300,1.161495361328125,-0.5008392333984375,1.0533905029296875,0.3094940185546875
1772806364143427300,1.17142724609375,-0.531097412109375,1.0343170166015625,0.311553955078125
1772806364153358000,1.181358154296875,-0.54071044921875,1.004547119140625,0.3222503662109375
1772806364163290000,1.1912900390625,-0.5381622314453125,0.9730987548828125,0.3309783935546875
1772806364173221000,1.20122119140625,-0.54559326171875,0.9381561279296875,0.3447265625
1772806364183153200,1.211153076171875,-0.5365447998046875,0.9077606201171875,0.3561248779296875
1772806364193084000,1.221083984375,-0.5293121337890625,0.8849029541015625,0.3528900146484375
1772806364203016000,1.231015869140625,-0.524658203125,0.88787841796875,0.3277740478515625
1772806364212947200,1.240947265625,-0.494964599609375,0.916473388671875,0.304840087890625
1772806364222879200,1.250879150390625,-0.4308319091796875,0.964141845703125,0.27099609375
1772806364232810000,1.26081005859375,-0.37408447265625,0.99591064453125,0.2374420166015625
1772806364242742000,1.270741943359375,-0.3352203369140625,0.9812164306640625,0.2112884521484375
1772806364252673000,1.280673095703125,-0.310760498046875,0.9368438720703125,0.2028350830078125
1772806364262605300,1.290605224609375,-0.29620361328125,0.8767852783203125,0.20123291015625
1772806364272536000,1.3005361328125,-0.291046142578125,0.831298828125,0.1991119384765625
1772806364282468000,1.310468017578125,-0.27435302734375,0.8244171142578125,0.1996002197265625
1772806364292399000,1.320399169921875,-0.2462615966796875,0.8517913818359375,0.2108306884765625
1772806364302331000,1.330330810546875,-0.240386962890625,0.9030303955078125,0.221923828125
1772806364312262100,1.34026220703125,-0.2377777099609375,0.931976318359375,0.22430419921875
1772806364322194200,1.350194091796875,-0.2340087890625,0.927520751953125,0.23358154296875
1772806364332125200,1.360125244140625,-0.220733642578125,0.9098052978515625,0.253509521484375
1772806364342057000,1.370056884765625,-0.1873931884765625,0.8839874267578125,0.2719268798828125
1772806364351988000,1.379988037109375,-0.15155029296875,0.8682098388671875,0.2705078125
1772806364361920000,1.389919921875,-0.1196746826171875,0.8784637451171875,0.2450408935546875
1772806364371851000,1.39985107421875,-0.0964813232421875,0.89837646484375,0.21636962890625
1772806364381783000,1.409782958984375,-0.0876922607421875,0.91644287109375,0.195587158203125
1772806364391714000,1.419714111328125,-0.08770751953125,0.8077545166015625,0.2197418212890625
1772806364401646000,1.42964599609375,-0.07904052734375,0.7016754150390625,0.2811737060546875
1772806364411577000,1.4395771484375,-0.1134033203125,0.9699249267578125,0.285736083984375
1772806364421509000,1.449509033203125,-0.134857177734375,1.1536102294921875,0.1719207763671875
1772806364431440100,1.459440185546875,-0.155059814453125,1.1027374267578125,0.11724853515625
1772806364441372200,1.4693720703125,-0.1591949462890625,1.0308837890625,0.171356201171875
1772806364451303000,1.479302978515625,-0.155487060546875,1.0025787353515625,0.1905364990234375
1772806364461235000,1.48923486328125,-0.14715576171875,0.9468994140625,0.1551971435546875
1772806364471166200,1.499166259765625,-0.141754150390625,0.935577392578125,0.1182861328125
1772806364481098200,1.50909814453125,-0.1276092529296875,0.93212890625,0.1138153076171875
1772806364491029000,1.519029052734375,-0.1132354736328125,0.94891357421875,0.110992431640625
1772806364500961000,1.5289609375,-0.0913238525390625,0.98809814453125,0.1190032958984375
1772806364510892000,1.53889208984375,-0.08477783203125,1.030426025390625,0.1114654541015625
1772806364520824000,1.548823974609375,-0.091705322265625,1.0551605224609375,0.1233367919921875
1772806364530755000,1.558755126953125,-0.1136322021484375,1.0333099365234375,0.1127166748046875
1772806364540687000,1.56868701171875,-0.1099090576171875,1.0052032470703125,0.1067352294921875
1772806364550618000,1.5786181640625,-0.13348388671875,0.98516845703125,0.1585235595703125
1772806364560550000,1.5885498046875,-0.1342620849609375,0.960723876953125,0.19317626953125
1772806364570481200,1.598481201171875,-0.123870849609375,0.9625701904296875,0.202606201171875
1772806364580413200,1.6084130859375,-0.1524505615234375,0.977264404296875,0.2193145751953125
1772806364590344200,1.61834423828125,-0.1544952392578125,0.987457275390625,0.21429443359375
1772806364600276000,1.62827587890625,-0.120819091796875,0.9762725830078125,0.21673583984375
1772806364610207000,1.63820703125,-0.1107177734375,0.95025634765625,0.2489471435546875
1772806364620139000,1.648138916015625,-0.1135711669921875,0.92242431640625,0.27435302734375
1772806364630070000,1.658070068359375,-0.105712890625,0.9183502197265625,0.2566986083984375
1772806364640002000,1.668001953125,-0.08026123046875,0.936492919921875,0.2322845458984375
1772806364649933000,1.67793310546875,-0.074615478515625,0.9443817138671875,0.2012481689453125
1772806364659865000,1.687864990234375,-0.0867919921875,0.9504547119140625,0.165863037109375
1772806364669796000,1.697796142578125,-0.0812835693359375,0.9628448486328125,0.1177520751953125
1772806364679728000,1.70772802734375,-0.07562255859375,0.9696197509765625,0.0912933349609375
1772806364689659100,1.7176591796875,-0.0850982666015625,0.982025146484375,0.0778961181640625
1772806364699591200,1.727591064453125,-0.09515380859375,0.9618377685546875,0.060943603515625
1772806364709522000,1.73752197265625,-0.095245361328125,0.908447265625,0.0531005859375
1772806364719454000,1.747453857421875,-0.0782012939453125,0.94122314453125,0.1301116943359375
1772806364729385200,1.75738525390625,-0.0836029052734375,0.9449310302734375,0.134613037109375
1772806364739317200,1.767317138671875,-0.0787506103515625,0.9334564208984375,0.1257171630859375
1772806364749248000,1.777248046875,-0.06219482421875,0.9224700927734375,0.130950927734375
1772806364759180000,1.787179931640625,-0.0865631103515625,0.9196929931640625,0.127105712890625
1772806364769111000,1.797111083984375,-0.1124725341796875,0.9318389892578125,0.126983642578125
1772806364779043000,1.80704296875,-0.12109375,0.945281982421875,0.1178436279296875
1772806364788974000,1.81697412109375,-0.1208343505859375,0.9704742431640625,0.12646484375
1772806364798906000,1.826906005859375,-0.1514434814453125,1.025482177734375,0.153167724609375
1772806364808837000,1.836837158203125,-0.1486358642578125,1.0002593994140625,0.1048126220703125
1772806364818769000,1.846768798828125,-0.1402587890625,0.981842041015625,0.1002349853515625
1772806364828700200,1.8567001953125,-0.158843994140625,0.99530029296875,0.1150970458984375
1772806364838632200,1.866632080078125,-0.1497344970703125,1.016204833984375,0.0981597900390625
1772806364848563000,1.87656298828125,-0.1507415771484375,1.0164337158203125,0.06829833984375
1772806364858495000,1.886494873046875,-0.15081787109375,0.992828369140625,0.045501708984375
1772806364868426000,1.896426025390625,-0.144256591796875,0.98040771484375,0.036865234375
1772806364878358000,1.90635791015625,-0.141693115234375,0.96826171875,0.03900146484375
1772806364888289000,1.9162890625,-0.1510467529296875,0.980712890625,0.0534515380859375
1772806364898221000,1.926220947265625,-0.1671600341796875,1.014068603515625,0.0769805908203125
1772806364908152000,1.936152099609375,-0.156768798828125,1.0383758544921875,0.084869384765625
1772806364918084000,1.946083984375,-0.12774658203125,1.0292816162109375,0.0800628662109375
1772806364928015000,1.95601513671875,-0.0896759033203125,1.00140380859375,0.0655364990234375
1772806364937947100,1.965947021484375,-0.0529327392578125,0.9854888916015625,0.041717529296875
1772806364947878100,1.975878173828125,-0.0382080078125,0.9878692626953125,0.0115814208984375
1772806364957810200,1.98581005859375,-0.0485992431640625,0.9818572998046875,-0.0135498046875
1772806364967741000,1.995740966796875,-0.063873291015625,0.89898681640625,-0.0616455078125
1772806364977673000,2.0056728515625,-0.0533294677734375,0.910797119140625,-0.0146331787109375
1772806364987604200,2.015604248046875,-0.068603515625,0.957794189453125,-0.011077880859375
1772806364997536300,2.025536376953125,-0.056976318359375,0.9712677001953125,-0.0199127197265625
1772806365007467000,2.035467041015625,-0.025543212890625,0.9777374267578125,-0.0237884521484375
1772806365017399000,2.04539892578125,-0.037994384765625,0.99755859375,-0.0077667236328125
1772806365027330000,2.055330078125,-0.077911376953125,1.0224609375,0.0062408447265625
1772806365037262000,2.065261962890625,-0.0685272216796875,0.9976043701171875,-0.003265380859375
1772806365047193000,2.075193115234375,-0.019073486328125,0.9963226318359375,0.001434326171875
1772806365057125000,2.085125,-0.0120697021484375,0.9946136474609375,0.0070343017578125
1772806365067056000,2.09505615234375,-0.049957275390625,0.9999237060546875,0.0590057373046875
1772806365076988000,2.10498779296875,-0.130859375,0.9964447021484375,0.1324462890625
1772806365086919200,2.114919189453125,-0.171661376953125,0.99371337890625,0.1843109130859375
1772806365096851200,2.124851318359375,-0.1800079345703125,0.96466064453125,0.2248077392578125
1772806365106782000,2.134781982421875,-0.158782958984375,0.9670562744140625,0.2503204345703125
1772806365116714000,2.1447138671875,-0.2037811279296875,1.079681396484375,0.29339599609375
1772806365126645000,2.15464501953125,-0.3204193115234375,1.15960693359375,0.3441009521484375
1772806365136577000,2.164576904296875,-0.40899658203125,1.300201416015625,0.3814697265625
1772806365146508000,2.174508056640625,-0.3789520263671875,1.4303436279296875,0.40850830078125
1772806365156440600,2.184440673828125,-0.33697509765625,1.490936279296875,0.3425140380859375
1772806365166371600,2.19437158203125,-0.33184814453125,1.5831756591796875,0.36077880859375
1772806365176303400,2.204303466796875,-0.3017120361328125,1.6152191162109375,0.337799072265625
1772806365186235400,2.2142353515625,-0.2533721923828125,1.484954833984375,0.217376708984375
1772806365196166400,2.22416650390625,-0.190704345703125,1.2424774169921875,0.0874176025390625
1772806365206098400,2.234098388671875,-0.18450927734375,1.0236053466796875,0.0692291259765625
1772806365216029400,2.244029541015625,-0.23822021484375,0.93719482421875,0.05987548828125
1772806365225961500,2.25396142578125,-0.2516937255859375,0.9152679443359375,0.033050537109375
1772806365235892500,2.263892578125,-0.2431182861328125,0.96197509765625,0.0374603271484375
1772806365245824500,2.273824462890625,-0.2269744873046875,1.0073089599609375,0.0447845458984375
1772806365255755500,2.283755615234375,-0.1999359130859375,0.9898834228515625,0.0323638916015625
1772806365265687600,2.2936875,-0.206329345703125,0.91754150390625,0.044891357421875
1772806365275618600,2.30361865234375,-0.2227783203125,0.8292388916015625,0.06494140625
1772806365285550600,2.313550537109375,-0.2278900146484375,0.7487335205078125,0.0983734130859375
1772806365295481300,2.3234814453125,-0.2329559326171875,0.7046051025390625,0.1406402587890625
1772806365305413400,2.333413330078125,-0.2507476806640625,0.7333984375,0.2031097412109375
1772806365315344600,2.3433447265625,-0.236846923828125,0.7775726318359375,0.215789794921875
1772806365325276400,2.3532763671875,-0.23626708984375,0.8131866455078125,0.1925506591796875
1772806365335207400,2.36320751953125,-0.2350311279296875,0.8076019287109375,0.140045166015625
1772806365345139500,2.373139404296875,-0.2191009521484375,0.8404388427734375,0.1998291015625
1772806365355070500,2.383070556640625,-0.23687744140625,0.862823486328125,0.25067138671875
1772806365365002500,2.39300244140625,-0.2389984130859375,0.8411712646484375,0.263946533203125
1772806365374933500,2.40293359375,-0.229278564453125,0.784454345703125,0.214935302734375
1772806365384865500,2.412865478515625,-0.2363128662109375,0.7546844482421875,0.2079925537109375
1772806365394796300,2.42279638671875,-0.2665557861328125,0.7570343017578125,0.2388153076171875
1772806365404728300,2.432728271484375,-0.333099365234375,0.7716522216796875,0.25811767578125
1772806365414659600,2.44265966796875,-0.3720245361328125,0.8029327392578125,0.2660675048828125
1772806365424591600,2.452591552734375,-0.37579345703125,0.8289031982421875,0.2369842529296875
1772806365434522400,2.4625224609375,-0.3801116943359375,0.8528900146484375,0.1984710693359375
1772806365444454400,2.472454345703125,-0.3845672607421875,0.8698272705078125,0.1595916748046875
1772806365454385400,2.482385498046875,-0.3923492431640625,0.8726806640625,0.1335601806640625
1772806365464317400,2.4923173828125,-0.414093017578125,0.860382080078125,0.134918212890625
1772806365474248400,2.50224853515625,-0.436920166015625,0.8389434814453125,0.1200103759765625
1772806365484180500,2.512180419921875,-0.43756103515625,0.83349609375,0.1038055419921875
1772806365494111500,2.522111572265625,-0.438751220703125,0.836395263671875,0.097015380859375
1772806365504043500,2.53204345703125,-0.4608306884765625,0.8454437255859375,0.0928802490234375
1772806365513974500,2.541974609375,-0.4583282470703125,0.8556671142578125,0.100494384765625
1772806365523906600,2.551906494140625,-0.4571685791015625,0.841339111328125,0.0915374755859375
1772806365533837600,2.561837646484375,-0.456695556640625,0.836517333984375,0.060333251953125
1772806365543769600,2.57176953125,-0.4503021240234375,0.83587646484375,0.0418853759765625
1772806365553700400,2.581700439453125,-0.461334228515625,0.837860107421875,0.012847900390625
1772806365563632400,2.59163232421875,-0.488616943359375,0.84295654296875,0.015228271484375
1772806365573563600,2.601563720703125,-0.499267578125,0.834259033203125,0.0198974609375
1772806365583495400,2.611495361328125,-0.497833251953125,0.804962158203125,0.006805419921875
1772806365593426400,2.621426513671875,-0.4771728515625,0.796539306640625,0.016754150390625
1772806365603358500,2.6313583984375,-0.4417877197265625,0.791656494140625,0.02996826171875
1772806365613289500,2.64128955078125,-0.4295501708984375,0.7975006103515625,0.054901123046875
1772806365623221500,2.651221435546875,-0.4229888916015625,0.821868896484375,0.0704345703125
1772806365633152500,2.661152587890625,-0.403289794921875,0.8262176513671875,0.0722503662109375
1772806365643084500,2.67108447265625,-0.41326904296875,0.83734130859375,0.080841064453125
1772806365653015300,2.681015380859375,-0.419036865234375,0.8547821044921875,0.0757598876953125
1772806365662947300,2.690947265625,-0.42974853515625,0.869873046875,0.0716094970703125
1772806365672878600,2.700878662109375,-0.430267333984375,0.8848114013671875,0.073089599609375
1772806365682810600,2.710810546875,-0.448883056640625,0.895477294921875,0.0677032470703125
1772806365692741400,2.720741455078125,-0.4707489013671875,0.9057464599609375,0.0626373291015625
1772806365702673400,2.73067333984375,-0.473846435546875,0.9091796875,0.04168701171875
1772806365712604400,2.7406044921875,-0.4586944580078125,0.90460205078125,0.050872802734375
1772806365722536400,2.750536376953125,-0.4410858154296875,0.8865814208984375,0.0859832763671875
1772806365732468500,2.760468505859375,-0.42901611328125,0.8783416748046875,0.1161041259765625
1772806365742399500,2.7703994140625,-0.4252166748046875,0.870574951171875,0.1292572021484375
1772806365752331500,2.78033154296875,-0.42510986328125,0.8625335693359375,0.1330413818359375
1772806365762262500,2.790262451171875,-0.414947509765625,0.86029052734375,0.1099700927734375
1772806365772194300,2.8001943359375,-0.4029083251953125,0.86932373046875,0.088623046875
1772806365782125600,2.81012548828125,-0.3888702392578125,0.874664306640625,0.09686279296875
1772806365792057600,2.8200576171875,-0.386199951171875,0.8687896728515625,0.1155242919921875
1772806365801988600,2.829988525390625,-0.3952789306640625,0.8675537109375,0.1414337158203125
1772806365811920400,2.83992041015625,-0.4019622802734375,0.8773345947265625,0.1610107421875
1772806365821851400,2.849851318359375,-0.3951416015625,0.8846282958984375,0.1591949462890625
1772806365831783400,2.859783447265625,-0.3954315185546875,0.899383544921875,0.1548919677734375
1772806365841714400,2.86971435546875,-0.4033355712890625,0.90545654296875,0.158782958984375
1772806365851646500,2.879646484375,-0.40411376953125,0.8917083740234375,0.1546478271484375
1772806365861577500,2.889577392578125,-0.404388427734375,0.8769683837890625,0.1363372802734375
1772806365871509500,2.899509521484375,-0.4042205810546875,0.8713836669921875,0.1193695068359375
1772806365881440500,2.9094404296875,-0.4068450927734375,0.86376953125,0.099853515625
1772806365891372500,2.91937255859375,-0.416839599609375,0.8502655029296875,0.0941925048828125
1772806365901303600,2.929303466796875,-0.43048095703125,0.836700439453125,0.0918426513671875
1772806365911235600,2.939235595703125,-0.444976806640625,0.840118408203125,0.0863494873046875
1772806365921166300,2.949166259765625,-0.4672088623046875,0.8855438232421875,0.0998687744140625
1772806365931098400,2.959098388671875,-0.480682373046875,0.9740447998046875,0.104217529296875
1772806365941029600,2.969029541015625,-0.465545654296875,1.0591583251953125,0.0942535400390625
1772806365950961700,2.978961669921875,-0.4514617919921875,1.1085205078125,0.0807647705078125
1772806365960892400,2.988892333984375,-0.4403533935546875,1.1135101318359375,0.0704803466796875
1772806365970824400,2.998824462890625,-0.4365997314453125,1.107452392578125,0.0629119873046875
1772806365980755500,3.00875537109375,-0.454315185546875,1.1184234619140625,0.066802978515625
1772806365990687500,3.0186875,-0.4739532470703125,1.132781982421875,0.0600128173828125
1772806366000618500,3.028618408203125,-0.4904632568359375,1.1337890625,0.036865234375
1772806366010550500,3.038550537109375,-0.5079498291015625,1.0751190185546875,0.026336669921875
1772806366020481500,3.0484814453125,-0.495361328125,0.9408721923828125,0.05224609375
1772806366030413300,3.058413330078125,-0.48333740234375,0.774505615234375,0.136383056640625
1772806366040344600,3.068344482421875,-0.5010833740234375,0.6443328857421875,0.2454986572265625
1772806366050276600,3.078276611328125,-0.494384765625,0.6011505126953125,0.2891082763671875
1772806366060207600,3.08820751953125,-0.453033447265625,0.6878204345703125,0.2682647705078125
1772806366070139400,3.098139404296875,-0.4270782470703125,0.8801116943359375,0.2256317138671875
1772806366080070400,3.1080703125,-0.398773193359375,1.0564727783203125,0.1754302978515625
1772806366090002400,3.11800244140625,-0.3292999267578125,1.2087554931640625,0.1122894287109375
1772806366099934500,3.1279345703125,-0.220611572265625,1.29754638671875,0.0554656982421875
1772806366109865500,3.137865478515625,-0.0838165283203125,1.2620391845703125,0.0080718994140625
1772806366119797500,3.147797607421875,0.032379150390625,1.123016357421875,-0.0065155029296875
1772806366129728500,3.157728515625,0.01776123046875,0.9533538818359375,0.051849365234375
1772806366139660500,3.16766064453125,-0.07696533203125,0.8101654052734375,0.1685791015625
1772806366149591600,3.177591552734375,-0.1481170654296875,0.7397613525390625,0.2657623291015625
1772806366159523300,3.1875234375,-0.0961456298828125,0.7844390869140625,0.291839599609375
1772806366169454000,3.1974541015625,-0.0158843994140625,0.8907470703125,0.3112945556640625
1772806366179386000,3.20738623046875,-0.0594024658203125,0.983489990234375,0.305877685546875
1772806366189317000,3.217317138671875,-0.1326446533203125,1.0458984375,0.274444580078125
1772806366199249200,3.227249267578125,-0.13592529296875,1.07391357421875,0.24920654296875
1772806366209180200,3.23718017578125,-0.1118621826171875,1.0760498046875,0.2322998046875
1772806366219112200,3.2471123046875,-0.111480712890625,1.0553436279296875,0.1964263916015625
1772806366229043200,3.257043212890625,-0.113067626953125,1.0066375732421875,0.15228271484375
1772806366238975200,3.266975341796875,-0.1469879150390625,0.9787445068359375,0.105133056640625
1772806366248906200,3.27690625,-0.180908203125,0.9659881591796875,0.029510498046875
1772806366258838300,3.28683837890625,-0.2017974853515625,0.9721527099609375,-0.0386199951171875
1772806366268769300,3.296769287109375,-0.188690185546875,0.998565673828125,-0.06976318359375
1772806366278701300,3.306701416015625,-0.1456146240234375,1.0129241943359375,-0.0671234130859375
1772806366288632000,3.316632080078125,-0.106048583984375,1.0034332275390625,-0.0570831298828125
1772806366298564000,3.326564208984375,-0.0908203125,1.01220703125,-0.0318450927734375
1772806366308495400,3.336495361328125,-0.1119232177734375,1.0470123291015625,-0.008880615234375
1772806366318427100,3.34642724609375,-0.144378662109375,1.053253173828125,-0.0210113525390625
1772806366328358100,3.356358154296875,-0.1637115478515625,1.0594329833984375,-0.0205841064453125
1772806366338290200,3.366290283203125,-0.17889404296875,1.0398712158203125,0.006866455078125
1772806366348221200,3.37622119140625,-0.1921539306640625,0.9989166259765625,0.0354461669921875
1772806366358153200,3.3861533203125,-0.1862640380859375,0.9638671875,0.06451416015625
1772806366368084200,3.396084228515625,-0.1585845947265625,0.9398651123046875,0.077606201171875
1772806366378016300,3.406016357421875,-0.1482086181640625,0.9318695068359375,0.083465576171875
1772806366387947000,3.415947021484375,-0.1345977783203125,0.933807373046875,0.0665130615234375
1772806366397879000,3.425879150390625,-0.1371002197265625,0.9456024169921875,0.050140380859375
1772806366407811000,3.43581103515625,-0.1634521484375,0.955474853515625,0.0441741943359375
1772806366417742300,3.445742431640625,-0.2046356201171875,0.9510040283203125,0.0319671630859375
1772806366427674400,3.45567431640625,-0.2598114013671875,0.94000244140625,0.014434814453125
1772806366437605000,3.465605224609375,-0.3012847900390625,0.9369049072265625,0.0062103271484375
1772806366447537200,3.475537109375,-0.3268280029296875,0.9385833740234375,-0.0018463134765625
1772806366457468200,3.48546826171875,-0.3305511474609375,0.93829345703125,-0.0138702392578125
1772806366467400200,3.495400146484375,-0.3179168701171875,0.939117431640625,-0.02069091796875
1772806366477331200,3.505331298828125,-0.2994537353515625,0.9454498291015625,-0.0183258056640625
1772806366487263200,3.51526318359375,-0.285369873046875,0.952362060546875,-0.008331298828125
1772806366497194200,3.5251943359375,-0.272003173828125,0.9579925537109375,-0.001861572265625
1772806366507126000,3.5351259765625,-0.2447509765625,0.9779205322265625,0.0092620849609375
1772806366517057300,3.545057373046875,-0.2285003662109375,0.9868011474609375,0.028228759765625
1772806366526989300,3.5549892578125,-0.23760986328125,0.9791717529296875,0.034423828125
1772806366536920300,3.56492041015625,-0.245147705078125,0.9551849365234375,0.03607177734375
1772806366546852000,3.57485205078125,-0.22271728515625,0.9404144287109375,0.03857421875
1772806366556783000,3.584783203125,-0.1608734130859375,0.9499053955078125,0.04925537109375
1772806366566715100,3.594715087890625,-0.0792083740234375,0.9658966064453125,0.0750885009765625
1772806366576646100,3.604646240234375,-0.0469970703125,0.98870849609375,0.1197357177734375
1772806366586578200,3.614578125,-0.0828704833984375,1.0189666748046875,0.1843719482421875
1772806366596509200,3.62450927734375,-0.17376708984375,1.0589599609375,0.2205810546875
1772806366606441200,3.634441162109375,-0.2649078369140625,1.1333160400390625,0.2054290771484375
1772806366616372200,3.644372314453125,-0.3509521484375,1.201934814453125,0.17730712890625
1772806366626304300,3.65430419921875,-0.3921966552734375,1.2440185546875,0.1501922607421875
1772806366636235300,3.6642353515625,-0.3831024169921875,1.238494873046875,0.1419677734375
1772806366646167300,3.674167236328125,-0.3920135498046875,1.1849517822265625,0.1768035888671875
1772806366656098000,3.68409814453125,-0.4034576416015625,1.1196441650390625,0.2042999267578125
1772806366666030000,3.694030029296875,-0.3820343017578125,1.0431976318359375,0.1657867431640625
1772806366675961300,3.70396142578125,-0.3556365966796875,0.956756591796875,0.09930419921875
1772806366685893400,3.713893310546875,-0.355712890625,0.8774261474609375,0.019683837890625
1772806366695825200,3.7238251953125,-0.363433837890625,0.834686279296875,-0.013702392578125
1772806366705756200,3.733756103515625,-0.3482666015625,0.813018798828125,-0.0049591064453125
1772806366715688200,3.743688232421875,-0.32452392578125,0.8045501708984375,0.037200927734375
1772806366725619200,3.753619140625,-0.3400115966796875,0.8251953125,0.0905609130859375
1772806366735551200,3.76355126953125,-0.35479736328125,0.8627471923828125,0.1503753662109375
1772806366745482200,3.773482177734375,-0.35748291015625,0.902130126953125,0.2119903564453125
1772806366755414300,3.783414306640625,-0.34613037109375,0.90142822265625,0.2528076171875
1772806366765345000,3.793344970703125,-0.34197998046875,0.860809326171875,0.2770233154296875
1772806366775277000,3.803277099609375,-0.3587493896484375,0.8143157958984375,0.2857666015625
1772806366785208300,3.813208251953125,-0.3696441650390625,0.7852935791015625,0.256683349609375
1772806366795140400,3.823140380859375,-0.374969482421875,0.7693634033203125,0.2148284912109375
1772806366805071000,3.833071044921875,-0.3717498779296875,0.7699432373046875,0.18341064453125
1772806366815003100,3.843003173828125,-0.3769683837890625,0.78350830078125,0.1629486083984375
1772806366824934100,3.85293408203125,-0.38970947265625,0.789215087890625,0.13311767578125
1772806366834866200,3.8628662109375,-0.396942138671875,0.797821044921875,0.126190185546875
1772806366844797200,3.872797119140625,-0.4002838134765625,0.8169097900390625,0.120941162109375
1772806366854729200,3.882729248046875,-0.4034271240234375,0.8384552001953125,0.12060546875
1772806366864660200,3.89266015625,-0.404998779296875,0.851348876953125,0.1203765869140625
1772806366874592300,3.90259228515625,-0.40985107421875,0.8538818359375,0.1149139404296875
1772806366884523300,3.912523193359375,-0.418060302734375,0.8473968505859375,0.1011505126953125
1772806366894455300,3.922455322265625,-0.422576904296875,0.835693359375,0.0799560546875
1772806366904386300,3.93238623046875,-0.41796875,0.8192596435546875,0.05975341796875
1772806366914318000,3.942318115234375,-0.4112091064453125,0.8039703369140625,0.0473175048828125
1772806366924249000,3.9522490234375,-0.4148101806640625,0.7998809814453125,0.03466796875
1772806366934181000,3.96218115234375,-0.4210968017578125,0.80780029296875,0.0335845947265625
1772806366944113200,3.972113037109375,-0.4377288818359375,0.8176422119140625,0.03778076171875
1772806366954043100,3.982043212890625,-0.46258544921875,0.8299102783203125,0.0430755615234375
1772806366963974100,3.99197412109375,-0.492218017578125,0.841583251953125,0.04766845703125
1772806366973906200,4.00190625,-0.51544189453125,0.857025146484375,0.05035400390625
1772806366983837200,4.011837158203125,-0.5042266845703125,0.866729736328125,0.0442657470703125
1772806366993769200,4.021769287109375,-0.4762420654296875,0.86724853515625,0.021392822265625
1772806367003700200,4.0317001953125,-0.46307373046875,0.8652801513671875,0.00592041015625
1772806367013632300,4.04163232421875,-0.4727020263671875,0.8652801513671875,0.0118255615234375
1772806367023563300,4.051563232421875,-0.493408203125,0.853302001953125,0.0250091552734375
1772806367033495300,4.061495361328125,-0.50665283203125,0.8326263427734375,0.0289459228515625
1772806367043426300,4.07142626953125,-0.516357421875,0.8236236572265625,0.0196380615234375
1772806367053358300,4.0813583984375,-0.538238525390625,0.8390655517578125,0.000823974609375
1772806367063289000,4.0912890625,-0.562286376953125,0.8765869140625,-0.0174102783203125
1772806367073221000,4.10122119140625,-0.566009521484375,0.919464111328125,-0.05938720703125
1772806367083152400,4.11115234375,-0.6249542236328125,0.975555419921875,-0.0906524658203125
1772806367093084200,4.121084228515625,-0.662139892578125,1.044342041015625,-0.1025390625
1772806367103016200,4.13101611328125,-0.5319671630859375,1.0640106201171875,-0.138824462890625
1772806367112947200,4.140947265625,-0.3037567138671875,1.020751953125,-0.1605682373046875
1772806367122879200,4.150879150390625,-0.183624267578125,0.9370880126953125,-0.077239990234375
1772806367132810200,4.160810302734375,-0.20159912109375,0.84027099609375,0.0467071533203125
1772806367142742300,4.1707421875,-0.2209014892578125,0.7690887451171875,0.1068572998046875
1772806367152673300,4.18067333984375,-0.2616424560546875,0.807281494140625,0.1627960205078125
1772806367162604800,4.190604736328125,-0.36944580078125,0.93170166015625,0.2049560546875
1772806367172535800,4.200535888671875,-0.4829864501953125,1.1566619873046875,0.223785400390625
1772806367182467800,4.2104677734375,-0.5171966552734375,1.3931121826171875,0.2041473388671875
1772806367192398800,4.22039892578125,-0.46197509765625,1.5086212158203125,0.1648712158203125
1772806367202331000,4.230330810546875,-0.3949737548828125,1.411102294921875,0.2160491943359375
1772806367212262000,4.240261962890625,-0.343353271484375,1.1179046630859375,0.30267333984375
1772806367222194000,4.25019384765625,-0.275360107421875,0.77960205078125,0.349639892578125
1772806367232125000,4.260125,-0.1958770751953125,0.5568695068359375,0.3644866943359375
1772806367242057000,4.270056884765625,-0.1435394287109375,0.5191802978515625,0.3048858642578125
1772806367251988000,4.279988037109375,-0.111846923828125,0.6586456298828125,0.1924896240234375
1772806367261920000,4.289919921875,-0.09014892578125,0.85931396484375,0.1207733154296875
1772806367271850800,4.299850830078125,-0.1125640869140625,1.0256805419921875,0.11029052734375
1772806367281782800,4.30978271484375,-0.127685546875,1.1278839111328125,0.099853515625
1772806367291714800,4.31971484375,-0.1178741455078125,1.1591339111328125,0.100677490234375
1772806367301645800,4.329645751953125,-0.1100006103515625,1.130096435546875,0.125946044921875
1772806367311577900,4.339577880859375,-0.1190185546875,1.063751220703125,0.1518707275390625
1772806367321508900,4.3495087890625,-0.1081085205078125,0.9996185302734375,0.176849365234375
1772806367331442000,4.35944189453125,-0.1024017333984375,0.947723388671875,0.182403564453125
1772806367341373000,4.369373046875,-0.0990447998046875,0.9174041748046875,0.184814453125
1772806367351304700,4.3793046875,-0.12347412109375,0.9025115966796875,0.1949920654296875
1772806367361236000,4.389236083984375,-0.169769287109375,0.902374267578125,0.20819091796875
1772806367371168000,4.39916796875,-0.1941070556640625,0.9161529541015625,0.1864166259765625
1772806367381100000,4.40910009765625,-0.201446533203125,0.946197509765625,0.1607818603515625
1772806367391030800,4.41903076171875,-0.230926513671875,0.99237060546875,0.13629150390625
1772806367400962800,4.428962890625,-0.2392120361328125,1.02398681640625,0.128936767578125
1772806367410893800,4.438893798828125,-0.256195068359375,1.02886962890625,0.1376495361328125
1772806367420825900,4.448825927734375,-0.2669677734375,1.000579833984375,0.14080810546875
1772806367430756900,4.4587568359375,-0.259674072265625,0.9622650146484375,0.122802734375
1772806367440689000,4.46868896484375,-0.245941162109375,0.9538116455078125,0.0956878662109375
1772806367450620000,4.478619873046875,-0.202484130859375,0.9629974365234375,0.048065185546875
1772806367460552000,4.488552001953125,-0.170684814453125,0.9778594970703125,0.000091552734375
1772806367470483000,4.49848291015625,-0.1451568603515625,0.9847564697265625,-0.0260009765625
1772806367480415000,4.5084150390625,-0.129638671875,0.9668731689453125,-0.0557403564453125
1772806367490346000,4.518345947265625,-0.138275146484375,0.9624786376953125,-0.06134033203125
1772806367500277800,4.52827783203125,-0.16925048828125,0.974151611328125,-0.055511474609375
1772806367510208800,4.538208740234375,-0.2086334228515625,0.9890289306640625,-0.0406341552734375
1772806367520140800,4.548140869140625,-0.2273406982421875,0.9932708740234375,-0.0211639404296875
1772806367530072000,4.558072021484375,-0.2257080078125,0.996307373046875,0.0061492919921875
1772806367540003800,4.56800390625,-0.2008514404296875,0.989166259765625,0.039276123046875
1772806367549934800,4.577934814453125,-0.1719512939453125,0.982818603515625,0.07330322265625
1772806367559867000,4.587866943359375,-0.1519012451171875,0.980865478515625,0.094482421875
1772806367569797600,4.597797607421875,-0.16546630859375,0.9747467041015625,0.100799560546875
1772806367579730000,4.60772998046875,-0.1937103271484375,0.95867919921875,0.0855712890625
1772806367589662000,4.617661865234375,-0.1997528076171875,0.949371337890625,0.0548858642578125
1772806367599593000,4.627593017578125,-0.1931610107421875,0.942169189453125,0.0343780517578125
1772806367609525000,4.63752490234375,-0.2066192626953125,0.9542388916015625,0.022796630859375
1772806367619455700,4.647455810546875,-0.193359375,0.97509765625,0.01275634765625
1772806367629387800,4.6573876953125,-0.2003326416015625,0.978118896484375,0.00103759765625
1772806367639319000,4.667319091796875,-0.2112884521484375,0.9743194580078125,0.0009307861328125
1772806367649250800,4.677250732421875,-0.2061920166015625,0.9603271484375,-0.0008087158203125
1772806367659181800,4.687181884765625,-0.1943206787109375,0.944427490234375,-0.00372314453125
1772806367669113900,4.69711376953125,-0.1973114013671875,0.941925048828125,-0.006195068359375
1772806367679044900,4.707044921875,-0.213165283203125,0.950531005859375,-0.0142974853515625
1772806367688976600,4.7169765625,-0.21246337890625,0.967987060546875,-0.0277862548828125
1772806367698908000,4.726907958984375,-0.207550048828125,0.9808807373046875,-0.0359954833984375
1772806367708840000,4.73683984375,-0.20880126953125,0.984283447265625,-0.033050537109375
1772806367718771000,4.74677099609375,-0.19671630859375,0.9862823486328125,-0.032958984375
1772806367728702700,4.75670263671875,-0.1895294189453125,0.9834442138671875,-0.0299072265625
1772806367738634000,4.766634033203125,-0.182586669921875,0.9736480712890625,-0.0197601318359375
1772806367748566000,4.77656591796875,-0.1746368408203125,0.966583251953125,-0.0157928466796875
1772806367758498000,4.786498046875,-0.1677093505859375,0.9657440185546875,-0.01806640625
1772806367768428800,4.7964287109375,-0.159698486328125,0.97027587890625,-0.0212554931640625
1772806367778360800,4.80636083984375,-0.173095703125,0.9712982177734375,-0.0197296142578125
1772806367788291800,4.816291748046875,-0.20367431640625,0.966766357421875,-0.0125274658203125
1772806367798224000,4.826223876953125,-0.2239837646484375,0.9629364013671875,-0.00946044921875
1772806367808155000,4.83615478515625,-0.234039306640625,0.961181640625,-0.0236968994140625
1772806367818087000,4.8460869140625,-0.2487945556640625,0.957000732421875,-0.0454559326171875
1772806367828018000,4.856017822265625,-0.2623443603515625,0.9573211669921875,-0.0788726806640625
1772806367837949700,4.86594970703125,-0.2591705322265625,0.9734344482421875,-0.119903564453125
1772806367847881000,4.875880859375,-0.2392578125,0.990325927734375,-0.14990234375
1772806367857813000,4.88581298828125,-0.2068634033203125,0.9935150146484375,-0.1660003662109375
1772806367867744000,4.895743896484375,-0.1911163330078125,0.9943695068359375,-0.1611328125
1772806367877675800,4.90567578125,-0.1795654296875,0.9999847412109375,-0.1258697509765625
1772806367887606800,4.915606689453125,-0.1813201904296875,0.9974822998046875,-0.0654296875
1772806367897538800,4.925538818359375,-0.1839447021484375,0.9669036865234375,0.000152587890625
1772806367907469800,4.9354697265625,-0.16998291015625,0.9291534423828125,0.060546875
1772806367917401900,4.94540185546875,-0.1162872314453125,0.8994598388671875,0.1021270751953125
1772806367927334000,4.955333984375,-0.0616912841796875,0.9173583984375,0.1260528564453125
1772806367937265000,4.965264892578125,-0.045806884765625,0.98162841796875,0.1308441162109375
1772806367947197000,4.975197021484375,-0.0858001708984375,1.0638580322265625,0.123779296875
1772806367957128000,4.9851279296875,-0.1667633056640625,1.1351165771484375,0.09661865234375
1772806367967060000,4.99506005859375,-0.2286834716796875,1.21795654296875,0.058135986328125
1772806367976991000,5.004990966796875,-0.25958251953125,1.274688720703125,0.0389862060546875
1772806367986923000,5.014923095703125,-0.2773590087890625,1.2913818359375,0.015594482421875
1772806367996853800,5.024853759765625,-0.268310546875,1.2601165771484375,-0.0077667236328125
1772806368006785800,5.034785888671875,-0.248046875,1.187255859375,-0.0385589599609375
1772806368016717000,5.044717041015625,-0.2541351318359375,1.0834808349609375,-0.0503387451171875
1772806368026648800,5.05464892578125,-0.298797607421875,0.9633331298828125,-0.034027099609375
1772806368036579800,5.064579833984375,-0.3108978271484375,0.9281463623046875,-0.0797271728515625
1772806368046511900,5.074511962890625,-0.3468475341796875,0.984283447265625,-0.1291351318359375
1772806368056443000,5.08444287109375,-0.4062347412109375,0.990753173828125,-0.059173583984375
1772806368066374700,5.094374755859375,-0.4334869384765625,0.97216796875,-0.0007476806640625
1772806368076306000,5.104305908203125,-0.418487548828125,0.9730072021484375,0.0065460205078125
1772806368086238000,5.114238037109375,-0.3652191162109375,0.977569580078125,0.0305328369140625
1772806368096170000,5.124169921875,-0.3024444580078125,0.9916839599609375,0.0545806884765625
1772806368106100700,5.134100830078125,-0.2707366943359375,0.993988037109375,0.0693359375
1772806368116032800,5.14403271484375,-0.2740325927734375,0.9604949951171875,0.06146240234375
1772806368125964000,5.153964111328125,-0.2822113037109375,0.90289306640625,0.040008544921875
1772806368135896000,5.16389599609375,-0.28216552734375,0.8525238037109375,0.010040283203125
1772806368145826800,5.173826904296875,-0.273956298828125,0.838775634765625,-0.0023345947265625
1772806368155758800,5.1837587890625,-0.295684814453125,0.8529205322265625,-0.015594482421875
1772806368165690400,5.1936904296875,-0.3280487060546875,0.888397216796875,-0.0178375244140625
1772806368175622100,5.2036220703125,-0.3320770263671875,0.92364501953125,-0.0213470458984375
1772806368185553400,5.213553466796875,-0.3481903076171875,0.95257568359375,-0.0193023681640625
1772806368195485400,5.2234853515625,-0.3713531494140625,0.962677001953125,-0.003082275390625
1772806368205416400,5.23341650390625,-0.3791046142578125,0.9537506103515625,0.0060272216796875
1772806368215348200,5.24334814453125,-0.3719940185546875,0.9238128662109375,0.0128631591796875
1772806368225279200,5.253279296875,-0.3653411865234375,0.8824462890625,0.0273284912109375
1772806368235211300,5.263211181640625,-0.35986328125,0.8466949462890625,0.033111572265625
1772806368245142300,5.273142333984375,-0.3625030517578125,0.827484130859375,0.024688720703125
1772806368255074300,5.28307421875,-0.369110107421875,0.821624755859375,-0.0043487548828125
1772806368265006300,5.29300634765625,-0.3665924072265625,0.840484619140625,-0.01177978515625
1772806368274937300,5.302937255859375,-0.3726043701171875,0.851806640625,-0.0491180419921875
1772806368284869400,5.312869384765625,-0.37939453125,0.86065673828125,-0.0570068359375
1772806368294800400,5.32280029296875,-0.3738555908203125,0.8686676025390625,-0.051025390625
1772806368304732400,5.332732421875,-0.3591156005859375,0.869476318359375,-0.04400634765625
1772806368314663400,5.342663330078125,-0.363250732421875,0.872344970703125,-0.0367584228515625
1772806368324595200,5.35259521484375,-0.364013671875,0.874725341796875,-0.029388427734375
1772806368334526200,5.362526123046875,-0.3724517822265625,0.8607025146484375,-0.020263671875
1772806368344458200,5.372458251953125,-0.3822021484375,0.84442138671875,-0.008392333984375
1772806368354389500,5.382389404296875,-0.3916473388671875,0.83111572265625,0.0012664794921875
1772806368364321300,5.3923212890625,-0.4026641845703125,0.8228759765625,0.0057220458984375
1772806368374252300,5.402252197265625,-0.4151153564453125,0.8206329345703125,-0.006683349609375
1772806368384184300,5.412184326171875,-0.42962646484375,0.830230712890625,-0.0310211181640625
1772806368394115300,5.422115234375,-0.4443511962890625,0.8432769775390625,-0.0637359619140625
1772806368404047400,5.43204736328125,-0.4513397216796875,0.864166259765625,-0.101531982421875
1772806368413978400,5.441978271484375,-0.4520721435546875,0.889495849609375,-0.1339263916015625
1772806368423910400,5.451910400390625,-0.4462432861328125,0.9055328369140625,-0.14520263671875
1772806368433842400,5.461842529296875,-0.449798583984375,0.90631103515625,-0.1425628662109375
1772806368443773200,5.471773193359375,-0.4509735107421875,0.897308349609375,-0.135528564453125
1772806368453705200,5.481705322265625,-0.444061279296875,0.87841796875,-0.1504058837890625
1772806368463636500,5.491636474609375,-0.42071533203125,0.8682403564453125,-0.137115478515625
1772806368473568500,5.501568603515625,-0.403778076171875,0.86083984375,-0.127899169921875
1772806368483499300,5.511499267578125,-0.4204254150390625,0.844390869140625,-0.14288330078125
1772806368493431300,5.521431396484375,-0.4398956298828125,0.8311614990234375,-0.1342926025390625
1772806368503362300,5.5313623046875,-0.4578094482421875,0.8298492431640625,-0.0962371826171875
1772806368513294300,5.54129443359375,-0.4774627685546875,0.8385467529296875,-0.0905303955078125
1772806368523225300,5.551225341796875,-0.48492431640625,0.8480987548828125,-0.101898193359375
1772806368533157400,5.561157470703125,-0.468963623046875,0.850341796875,-0.1134033203125
1772806368543088400,5.57108837890625,-0.441192626953125,0.8456878662109375,-0.08251953125
1772806368553020200,5.581020263671875,-0.4369659423828125,0.8348388671875,-0.049530029296875
1772806368562951400,5.590951416015625,-0.4484405517578125,0.82818603515625,-0.028533935546875
1772806368572883500,5.600883544921875,-0.4481353759765625,0.8300018310546875,0.0142364501953125
1772806368582814200,5.610814208984375,-0.4247283935546875,0.8260040283203125,0.00775146484375
1772806368592746200,5.620746337890625,-0.4168853759765625,0.8151092529296875,0.024688720703125
1772806368602678300,5.63067822265625,-0.4129486083984375,0.8053131103515625,0.0410919189453125
1772806368612609300,5.640609375,-0.4188690185546875,0.802093505859375,0.0472412109375
1772806368622541300,5.650541259765625,-0.42633056640625,0.82244873046875,0.081207275390625
1772806368632472300,5.660472412109375,-0.431671142578125,0.84747314453125,0.0743255615234375
1772806368642404400,5.670404296875,-0.4319305419921875,0.8698883056640625,0.0739898681640625
1772806368652335400,5.68033544921875,-0.438568115234375,0.8794708251953125,0.101104736328125
1772806368662267100,5.69026708984375,-0.4653778076171875,0.87286376953125,0.1350860595703125
1772806368672198400,5.700198486328125,-0.4908599853515625,0.849822998046875,0.1683349609375
1772806368682130400,5.71013037109375,-0.498565673828125,0.8140716552734375,0.1715850830078125
1772806368692061400,5.7200615234375,-0.4929962158203125,0.7885284423828125,0.1487579345703125
1772806368701993200,5.7299931640625,-0.493560791015625,0.7873382568359375,0.140869140625
1772806368711924200,5.73992431640625,-0.50433349609375,0.7979736328125,0.1413421630859375
1772806368721856300,5.749856201171875,-0.5226593017578125,0.811370849609375,0.154266357421875
1772806368731787300,5.759787353515625,-0.549468994140625,0.819000244140625,0.1750030517578125
1772806368741719300,5.76971923828125,-0.5541229248046875,0.822540283203125,0.1871490478515625
1772806368751651300,5.7796513671875,-0.5325469970703125,0.8191986083984375,0.1999359130859375
1772806368761582300,5.789582275390625,-0.514678955078125,0.81488037109375,0.2140350341796875
1772806368771514400,5.799514404296875,-0.515625,0.832275390625,0.24224853515625
1772806368781445400,5.8094453125,-0.513824462890625,0.8787994384765625,0.255035400390625
1772806368791377400,5.81937744140625,-0.493499755859375,0.9578399658203125,0.2422637939453125
1772806368801308400,5.829308349609375,-0.4674530029296875,1.061187744140625,0.2186431884765625
1772806368811240400,5.839240478515625,-0.4581756591796875,1.136566162109375,0.19110107421875
1772806368821171200,5.849171142578125,-0.45947265625,1.1407012939453125,0.1651153564453125
1772806368831103200,5.859103271484375,-0.4671173095703125,1.09173583984375,0.1680755615234375
1772806368841034500,5.869034423828125,-0.4844970703125,1.03497314453125,0.2174224853515625
1772806368850966300,5.87896630859375,-0.541900634765625,1.02105712890625,0.2725372314453125
1772806368860897300,5.888897216796875,-0.608245849609375,1.06732177734375,0.261383056640625
1772806368870829300,5.898829345703125,-0.6161956787109375,1.1198272705078125,0.242034912109375
1772806368880760300,5.90876025390625,-0.5721893310546875,1.1569061279296875,0.2515716552734375
1772806368890692400,5.9186923828125,-0.4887237548828125,1.1409759521484375,0.2482757568359375
1772806368900624400,5.928624267578125,-0.4087066650390625,1.012664794921875,0.2719573974609375
1772806368910555400,5.938555419921875,-0.38507080078125,0.8364105224609375,0.3055572509765625
1772806368920487400,5.9484873046875,-0.38677978515625,0.715087890625,0.3054962158203125
1772806368930418200,5.958418212890625,-0.349945068359375,0.66357421875,0.2548370361328125
1772806368940350200,5.96835009765625,-0.291259765625,0.678558349609375,0.196014404296875
1772806368950281500,5.978281494140625,-0.2280426025390625,0.7528839111328125,0.128570556640625
1772806368960213500,5.988213623046875,-0.1624908447265625,0.9085235595703125,0.05987548828125
1772806368970144300,5.998144287109375,-0.0838623046875,1.0807952880859375,0.017547607421875
1772806368980076300,6.008076171875,-0.0049285888671875,1.1702423095703125,-0.0251312255859375
1772806368990007300,6.01800732421875,0.051116943359375,1.1450653076171875,-0.0779571533203125
1772806368999939300,6.027939208984375,0.0726776123046875,1.0618896484375,-0.10137939453125
1772806369009870300,6.037870361328125,0.083221435546875,0.9950714111328125,-0.095550537109375
1772806369019802400,6.04780224609375,0.089508056640625,0.960662841796875,-0.043853759765625
1772806369029733400,6.0577333984375,0.07818603515625,0.9356231689453125,0.0781402587890625
1772806369039665200,6.0676650390625,0.060546875,0.89556884765625,0.211212158203125
1772806369049597200,6.07759716796875,0.04443359375,0.8574371337890625,0.298553466796875
1772806369059528400,6.087528564453125,0.0239410400390625,0.845306396484375,0.353118896484375
1772806369069460500,6.09746044921875,0.0182952880859375,0.886993408203125,0.3594207763671875
1772806369079391200,6.10739111328125,0.01837158203125,0.944854736328125,0.287200927734375
1772806369089323300,6.1173232421875,-0.010467529296875,1.0078582763671875,0.178863525390625
1772806369099254300,6.127254150390625,-0.0116424560546875,1.063232421875,0.06549072265625
1772806369109186300,6.137186279296875,0.009429931640625,1.0921630859375,-0.0112762451171875
1772806369119117300,6.147117431640625,0.0104217529296875,1.0924835205078125,-0.05364990234375
1772806369129049300,6.15704931640625,0.0027923583984375,1.056396484375,-0.0852508544921875
1772806369138980400,6.16698046875,0.0218505859375,1.00872802734375,-0.1023406982421875
1772806369148912400,6.176912353515625,0.02685546875,0.9720001220703125,-0.0728759765625
1772806369158843400,6.186843505859375,0.013671875,0.95050048828125,-0.070098876953125
1772806369168775400,6.196775390625,-0.0187835693359375,0.934478759765625,-0.0803680419921875
1772806369178707500,6.20670751953125,-0.060089111328125,0.9253692626953125,-0.0554656982421875
1772806369188638500,6.216638427734375,-0.0650634765625,0.9402618408203125,-0.022186279296875
1772806369198570200,6.2265703125,-0.0054779052734375,0.963409423828125,0.0227203369140625
1772806369208501200,6.236501220703125,0.0154266357421875,0.960418701171875,0.04998779296875
1772806369218433300,6.246433349609375,-0.024017333984375,0.9719085693359375,0.0468902587890625
1772806369228364500,6.256364501953125,-0.0406646728515625,0.97119140625,0.044189453125
1772806369238296300,6.26629638671875,0.0178985595703125,0.9702911376953125,0.0418548583984375
1772806369248227300,6.276227294921875,0.0214080810546875,0.9751739501953125,0.1070404052734375
1772806369258159400,6.286159423828125,0.0208892822265625,0.9937591552734375,0.1202239990234375
1772806369268090400,6.29609033203125,0.03662109375,1.0299072265625,0.11529541015625
1772806369278022400,6.3060224609375,-0.00225830078125,1.00360107421875,0.1294708251953125
1772806369287953400,6.315953369140625,-0.0401611328125,0.9642181396484375,0.1332550048828125
1772806369297885400,6.325885498046875,-0.032470703125,0.96343994140625,0.1174774169921875
1772806369307817500,6.3358173828125,-0.022003173828125,0.9658355712890625,0.079254150390625
1772806369317748200,6.345748291015625,0.0037689208984375,0.9736480712890625,0.086669921875
1772806369327680300,6.35568017578125,0.013671875,0.988250732421875,0.058197021484375
1772806369337611500,6.365611572265625,0.0311431884765625,0.9763336181640625,0.029693603515625
1772806369347543600,6.37554345703125,0.0557708740234375,0.9471435546875,0.0288848876953125
1772806369357474300,6.385474365234375,0.0610504150390625,0.935760498046875,0.00726318359375
1772806369367406300,6.39540625,0.0540008544921875,0.9645233154296875,-0.0339813232421875
1772806369377337300,6.40533740234375,0.02874755859375,0.987060546875,-0.0582733154296875
1772806369387269400,6.415269287109375,0.0079803466796875,1.02093505859375,-0.0728759765625
1772806369397200400,6.425200439453125,-0.0187835693359375,1.0128936767578125,-0.0567474365234375
1772806369407132400,6.43513232421875,-0.0546875,0.9884185791015625,-0.0393218994140625
1772806369417063400,6.4450634765625,-0.0559234619140625,0.9808502197265625,-0.047332763671875
1772806369426995200,6.4549951171875,-0.0306243896484375,0.9692230224609375,-0.0788116455078125
1772806369436926500,6.464926513671875,0.006439208984375,0.9643096923828125,-0.0960693359375
1772806369446858500,6.4748583984375,0.0120391845703125,0.9666595458984375,-0.0810394287109375
1772806369456790500,6.48479052734375,-0.0023956298828125,0.981048583984375,-0.05780029296875
1772806369466721300,6.49472119140625,-0.0051727294921875,1.0024566650390625,-0.0449676513671875
1772806369476653300,6.5046533203125,-0.0018157958984375,1.0240020751953125,-0.030303955078125
1772806369486584300,6.514584228515625,0.011138916015625,1.05401611328125,0.0030670166015625
1772806369496516400,6.524516357421875,0.026947021484375,1.0834503173828125,0.0280609130859375
1772806369506447400,6.534447265625,0.0298309326171875,1.0786895751953125,0.04339599609375
1772806369516379400,6.54437939453125,0.02056884765625,1.0897064208984375,0.0308074951171875
1772806369526310400,6.554310302734375,-0.007171630859375,1.083343505859375,0.027069091796875
1772806369536242200,6.5642421875,-0.02313232421875,1.0767822265625,0.0240478515625
1772806369546173400,6.57417333984375,-0.0137176513671875,1.0691986083984375,0.014862060546875
1772806369556105500,6.58410546875,-0.0107574462890625,1.0467987060546875,0.0087432861328125
1772806369566036500,6.594036376953125,-0.012298583984375,1.03643798828125,0.0108184814453125
1772806369575968300,6.60396826171875,-0.0088653564453125,1.0265960693359375,0.0209503173828125
1772806369585900300,6.613900390625,-0.0039215087890625,1.0316619873046875,0.02435302734375
1772806369595831300,6.623831298828125,-0.0291900634765625,1.0536956787109375,0.029754638671875
1772806369605763300,6.633763427734375,-0.060882568359375,1.08074951171875,0.031707763671875
1772806369615694300,6.6436943359375,-0.0531463623046875,1.10516357421875,0.0277557373046875
1772806369625626400,6.65362646484375,-0.0189208984375,1.1343841552734375,0.0212249755859375
1772806369635557400,6.663557373046875,0.0001373291015625,1.1605987548828125,0.0047454833984375
1772806369645489400,6.673489501953125,0.0073394775390625,1.1697540283203125,-0.0267181396484375
1772806369655420400,6.68342041015625,0.056732177734375,1.151336669921875,-0.03973388671875
1772806369665352400,6.6933525390625,0.10711669921875,1.1346282958984375,-0.008148193359375
1772806369675283500,6.703283447265625,0.1090087890625,1.140289306640625,0.0479736328125
1772806369685215500,6.713215576171875,0.1031341552734375,1.1311798095703125,0.1013641357421875
1772806369695146200,6.723146240234375,0.06427001953125,1.1091766357421875,0.183013916015625
1772806369705078300,6.733078369140625,-0.003997802734375,1.090423583984375,0.2589874267578125
1772806369715010300,6.74301025390625,-0.0716705322265625,1.0683135986328125,0.3388824462890625
1772806369724941300,6.75294140625,-0.1141204833984375,0.9901885986328125,0.4721832275390625
1772806369734873300,6.762873291015625,-0.2213897705078125,1.0424041748046875,0.5027923583984375
1772806369744804400,6.772804443359375,-0.21575927734375,1.1038360595703125,0.37042236328125
1772806369754736400,6.782736328125,-0.161468505859375,1.1670074462890625,0.35003662109375
1772806369764667400,6.79266748046875,-0.08642578125,1.2292633056640625,0.28607177734375
1772806369774599400,6.802599365234375,-0.0379486083984375,1.24853515625,0.1740264892578125
1772806369784530400,6.812530517578125,-0.0536346435546875,1.2430267333984375,0.1288909912109375
1772806369794462500,6.82246240234375,-0.0811920166015625,1.222137451171875,0.094146728515625
1772806369804393200,6.832393310546875,-0.0996551513671875,1.2084808349609375,0.0426177978515625
1772806369814325200,6.8423251953125,-0.117279052734375,1.17852783203125,0.06256103515625
1772806369824256500,6.852256591796875,-0.14276123046875,1.145111083984375,0.072906494140625
1772806369834188500,6.8621884765625,-0.1634979248046875,1.13140869140625,0.0724334716796875
1772806369844120300,6.872120361328125,-0.1676788330078125,1.12890625,0.0978546142578125
1772806369854051300,6.88205126953125,-0.1430511474609375,1.0990142822265625,0.11029052734375
1772806369863983400,6.8919833984375,-0.12567138671875,1.0261688232421875,0.114501953125
1772806369873914400,6.901914306640625,-0.124969482421875,0.9540557861328125,0.1510772705078125
1772806369883846400,6.911846435546875,-0.1395263671875,0.8816680908203125,0.1996002197265625
1772806369893777400,6.92177734375,-0.1423187255859375,0.8212127685546875,0.209228515625
1772806369903709400,6.93170947265625,-0.1367340087890625,0.774078369140625,0.2273712158203125
1772806369913640200,6.94164013671875,-0.1384735107421875,0.722625732421875,0.235565185546875
1772806369923572200,6.951572265625,-0.115142822265625,0.704833984375,0.2427978515625
1772806369933503500,6.96150341796875,-0.154510498046875,0.6579437255859375,0.2325286865234375
1772806369943435500,6.971435546875,-0.187835693359375,0.6290283203125,0.204986572265625
1772806369953366300,6.9813662109375,-0.1742706298828125,0.621246337890625,0.1796722412109375
1772806369963298300,6.99129833984375,-0.153533935546875,0.6196441650390625,0.1500091552734375
1772806369973229300,7.001229248046875,-0.1623687744140625,0.6404571533203125,0.1214752197265625
1772806369983161300,7.011161376953125,-0.170379638671875,0.6677398681640625,0.108245849609375
1772806369993093400,7.02109326171875,-0.2110748291015625,0.701141357421875,0.10595703125
1772806370003024400,7.0310244140625,-0.24151611328125,0.740142822265625,0.095489501953125
1772806370012956400,7.040956298828125,-0.25958251953125,0.7573394775390625,0.0742950439453125
1772806370022887400,7.050887451171875,-0.272216796875,0.7767791748046875,0.0466461181640625
1772806370032819200,7.060819091796875,-0.269378662109375,0.7751007080078125,0.0380096435546875
1772806370042750500,7.07075048828125,-0.2736663818359375,0.7584228515625,0.03863525390625
1772806370052682500,7.0806826171875,-0.290496826171875,0.7492218017578125,0.041534423828125
1772806370062613200,7.09061328125,-0.2990875244140625,0.748443603515625,0.064208984375
1772806370072545300,7.100545166015625,-0.319793701171875,0.75616455078125,0.08514404296875
1772806370082476300,7.110476318359375,-0.359222412109375,0.767578125,0.09027099609375
1772806370092408300,7.120408203125,-0.3930206298828125,0.7692718505859375,0.0948028564453125
1772806370102339300,7.13033935546875,-0.4027252197265625,0.77288818359375,0.0846710205078125
1772806370112271400,7.140271240234375,-0.400909423828125,0.791351318359375,0.0636749267578125
1772806370122203400,7.150203369140625,-0.4113311767578125,0.8193359375,0.037261962890625
1772806370132134400,7.160134521484375,-0.413909912109375,0.8399505615234375,0.0060577392578125
1772806370142066400,7.17006640625,-0.408966064453125,0.8570404052734375,-0.016845703125
1772806370151997400,7.17999755859375,-0.3968963623046875,0.889068603515625,-0.049224853515625
1772806370161929200,7.18992919921875,-0.391204833984375,0.8951416015625,-0.0723876953125
1772806370171860200,7.199860107421875,-0.3714447021484375,0.904541015625,-0.065948486328125
1772806370181792300,7.209792236328125,-0.354400634765625,0.940155029296875,-0.0357208251953125
1772806370191723000,7.219722900390625,-0.3801116943359375,0.9529876708984375,-0.00457763671875
1772806370201655000,7.229655029296875,-0.4368896484375,0.964324951171875,0.0293731689453125
1772806370211586300,7.23958642578125,-0.513671875,0.99481201171875,0.0496368408203125
1772806370221518300,7.249518310546875,-0.582855224609375,1.051727294921875,0.0609588623046875
1772806370231449000,7.259448974609375,-0.615234375,1.1016082763671875,0.050689697265625
1772806370241381000,7.269381103515625,-0.5975189208984375,1.1160430908203125,0.0279541015625
1772806370251313200,7.279313232421875,-0.5589141845703125,1.115936279296875,0.046630859375
1772806370261244400,7.289244384765625,-0.5115966796875,1.0899200439453125,0.0842437744140625
1772806370271176200,7.29917626953125,-0.4847412109375,1.025054931640625,0.12493896484375
1772806370281107200,7.309107177734375,-0.4897003173828125,0.9877777099609375,0.162078857421875
1772806370291039200,7.319039306640625,-0.4937744140625,1.0454254150390625,0.188812255859375
1772806370300970200,7.32897021484375,-0.486236572265625,1.1208953857421875,0.1814422607421875
1772806370310902000,7.338902099609375,-0.4990692138671875,1.135406494140625,0.1996307373046875
1772806370320833300,7.348833251953125,-0.5222930908203125,1.106719970703125,0.2750701904296875
1772806370330765300,7.358765380859375,-0.4917755126953125,1.09356689453125,0.3060302734375
1772806370340696000,7.368696044921875,-0.412689208984375,1.0852203369140625,0.284759521484375
1772806370350628000,7.378628173828125,-0.36614990234375,1.02569580078125,0.2285003662109375
1772806370360560000,7.38856005859375,-0.43115234375,0.9345855712890625,0.147857666015625
1772806370370491400,7.398491455078125,-0.440032958984375,0.8287506103515625,0.086456298828125
1772806370380423400,7.40842333984375,-0.349945068359375,0.7445220947265625,0.102294921875
1772806370390354200,7.418354248046875,-0.3002471923828125,0.750640869140625,0.15130615234375
1772806370400286200,7.4282861328125,-0.3048553466796875,0.8523712158203125,0.177764892578125
1772806370410217200,7.43821728515625,-0.2849578857421875,1.0292816162109375,0.1336669921875
1772806370420149000,7.44814892578125,-0.20172119140625,1.1742706298828125,0.068878173828125
1772806370430080300,7.458080322265625,-0.0926361083984375,1.2056427001953125,0.048370361328125
1772806370440012300,7.46801220703125,-0.0474853515625,1.1212158203125,0.099700927734375
1772806370449943300,7.477943359375,-0.0596466064453125,1.0095977783203125,0.1494140625
1772806370459875000,7.487875,-0.0610198974609375,0.9468231201171875,0.199981689453125
1772806370469806000,7.49780615234375,-0.077301025390625,0.930908203125,0.2461700439453125
1772806370479738000,7.507738037109375,-0.08929443359375,0.928955078125,0.253082275390625
1772806370489670400,7.51767041015625,-0.0970001220703125,0.94195556640625,0.275482177734375
1772806370499601200,7.52760107421875,-0.1298675537109375,0.9511566162109375,0.2899169921875
1772806370509533200,7.537533203125,-0.14959716796875,0.9366912841796875,0.2654571533203125
1772806370519464200,7.547464111328125,-0.1399993896484375,0.9179840087890625,0.2423248291015625
1772806370529396200,7.557396240234375,-0.1266632080078125,0.9137420654296875,0.22991943359375
1772806370539327200,7.5673271484375,-0.1242523193359375,0.93206787109375,0.2203369140625
1772806370549259300,7.57725927734375,-0.123077392578125,0.966888427734375,0.2030029296875
1772806370559190300,7.587190185546875,-0.1178436279296875,0.9876861572265625,0.1609344482421875
1772806370569122300,7.597122314453125,-0.1183013916015625,0.9832611083984375,0.11138916015625
1772806370579053000,7.607052978515625,-0.1138153076171875,0.989532470703125,0.070892333984375
1772806370588985000,7.616985107421875,-0.131561279296875,0.9721527099609375,0.0529022216796875
1772806370598916400,7.626916259765625,-0.1443939208984375,0.9655609130859375,0.045013427734375
1772806370608848100,7.63684814453125,-0.145050048828125,0.961212158203125,0.0398712158203125
1772806370618780200,7.6467802734375,-0.1400909423828125,0.958282470703125,0.038604736328125
1772806370628711200,7.656711181640625,-0.1572265625,0.96148681640625,0.0431671142578125
1772806370638643200,7.666643310546875,-0.1820220947265625,0.9682769775390625,0.050750732421875
1772806370648574200,7.67657421875,-0.1955413818359375,0.975616455078125,0.06866455078125
1772806370658506200,7.68650634765625,-0.1880035400390625,0.97589111328125,0.0848846435546875
1772806370668437200,7.696437255859375,-0.1664581298828125,0.9736480712890625,0.093048095703125
1772806370678369300,7.706369384765625,-0.1444854736328125,0.9618682861328125,0.09637451171875
1772806370688300000,7.716300048828125,-0.142974853515625,0.950164794921875,0.1017913818359375
1772806370698232000,7.726232177734375,-0.1412353515625,0.9581451416015625,0.1032867431640625
1772806370708163300,7.736163330078125,-0.1451568603515625,0.9665679931640625,0.0981292724609375
1772806370718095400,7.746095458984375,-0.1457672119140625,0.968536376953125,0.0885009765625
1772806370728026000,7.756026123046875,-0.1495361328125,0.97137451171875,0.0844268798828125
1772806370737958100,7.765958251953125,-0.16143798828125,0.979034423828125,0.087310791015625
1772806370747890200,7.77589013671875,-0.1739501953125,0.996795654296875,0.0949859619140625
1772806370757821200,7.7858212890625,-0.1790771484375,0.9969635009765625,0.09466552734375
1772806370767753200,7.795753173828125,-0.1676025390625,0.9843902587890625,0.0868377685546875
1772806370777684200,7.805684326171875,-0.16522216796875,0.98870849609375,0.092254638671875
1772806370787616300,7.8156162109375,-0.1636962890625,0.9955291748046875,0.0907745361328125
1772806370797547000,7.825547119140625,-0.1539306640625,0.999542236328125,0.07861328125
1772806370807479000,7.83547900390625,-0.151458740234375,0.999603271484375,0.0677947998046875
1772806370817410300,7.845410400390625,-0.1576995849609375,0.9939727783203125,0.0582275390625
1772806370827342300,7.85534228515625,-0.170562744140625,0.9839019775390625,0.052825927734375
1772806370837273000,7.865273193359375,-0.1798095703125,0.9785003662109375,0.0466156005859375
1772806370847205000,7.875205078125,-0.185302734375,0.9792633056640625,0.046600341796875
1772806370857137200,7.88513720703125,-0.18511962890625,0.9813079833984375,0.0469970703125
1772806370867068400,7.895068359375,-0.1774444580078125,0.9869232177734375,0.0474853515625
1772806370877000200,7.905000244140625,-0.164825439453125,0.9960784912109375,0.0500335693359375
1772806370886931200,7.91493115234375,-0.15069580078125,1.0000152587890625,0.05108642578125
1772806370896863200,7.92486328125,-0.1428985595703125,0.9927215576171875,0.051116943359375
1772806370906794200,7.934794189453125,-0.1371612548828125,0.9806671142578125,0.0526885986328125
1772806370916726000,7.94472607421875,-0.125152587890625,0.9715728759765625,0.056549072265625
1772806370926657300,7.9546572265625,-0.1223297119140625,0.968414306640625,0.05340576171875
1772806370936589300,7.96458935546875,-0.1282958984375,0.9740753173828125,0.051361083984375
1772806370946520000,7.97452001953125,-0.1376495361328125,0.9768218994140625,0.0572967529296875
1772806370956451000,7.984451171875,-0.145263671875,0.9813995361328125,0.0655364990234375
1772806370966382300,7.99438232421875,-0.1486663818359375,0.98992919921875,0.0724945068359375
1772806370976314400,8.004314453125,-0.1474456787109375,0.9948883056640625,0.070770263671875
1772806370986245000,8.0142451171875,-0.1418609619140625,0.99664306640625,0.067413330078125
1772806370996177200,8.02417724609375,-0.1351165771484375,0.9949798583984375,0.0693206787109375
1772806371006108200,8.034108154296876,-0.13360595703125,0.98773193359375,0.0803680419921875
1772806371016040200,8.044040283203126,-0.13006591796875,0.975982666015625,0.0904388427734375
1772806371025971200,8.05397119140625,-0.1523284912109375,0.9685211181640625,0.104278564453125
1772806371035903200,8.0639033203125,-0.1640167236328125,0.9671783447265625,0.125213623046875
1772806371045834200,8.073834228515626,-0.16217041015625,0.968414306640625,0.1463623046875
1772806371055766000,8.08376611328125,-0.1551361083984375,0.9703216552734375,0.161285400390625
1772806371065698000,8.093697998046874,-0.1495819091796875,0.97100830078125,0.163818359375
1772806371075629300,8.10362939453125,-0.1553497314453125,0.97711181640625,0.1715240478515625
1772806371085561300,8.113561279296874,-0.17315673828125,0.976959228515625,0.176727294921875
1772806371095492000,8.1234921875,-0.1844635009765625,0.9637298583984375,0.176544189453125
1772806371105424100,8.133424072265624,-0.1926727294921875,0.9564208984375,0.1682891845703125
1772806371115355100,8.143355224609374,-0.1937255859375,0.9546966552734375,0.159027099609375
1772806371125287200,8.153287109375,-0.1910552978515625,0.9559326171875,0.1508026123046875
1772806371135218200,8.16321826171875,-0.1816558837890625,0.963165283203125,0.14459228515625
