time,seconds_elapsed,z,y,x
1772806363084480000,0.11247998046875,0.044994208961725235,0.12757158279418945,0.14177511632442474
1772806363094411000,0.122410888671875,0.04869581013917923,0.1281605362892151,0.13962598145008087
1772806363104343000,0.132343017578125,0.05147242173552513,0.14160950481891632,0.11447668820619583
1772806363114274000,0.142274169921875,0.03372380509972572,0.13233213126659393,0.08922336995601654
1772806363124206000,0.1522060546875,0.007764110807329416,0.11275816708803177,0.06686799973249435
1772806363134136800,0.16213671875,-0.0009695502812974155,0.10591945797204971,0.05479978024959564
1772806363144068900,0.17206884765625,-0.006277230568230152,0.10528243333101273,0.05889012664556503
1772806363154000100,0.182000244140625,-0.01978156901896,0.10613646358251572,0.0790482684969902
1772806363163932700,0.1919326171875,-0.047866202890872955,0.1084241196513176,0.11487896740436554
1772806363173863400,0.201863525390625,-0.07519320398569107,0.11877718567848206,0.14719246327877045
1772806363183795500,0.21179541015625,-0.11068089306354523,0.10532423108816147,0.17216038703918457
1772806363193726500,0.2217265625,-0.1276295781135559,0.07722625136375427,0.18142689764499664
1772806363203658200,0.231658203125,-0.14694149792194366,0.05204925313591957,0.18316727876663208
1772806363213589500,0.241589599609375,-0.16338004171848297,0.02993343211710453,0.18577533960342407
1772806363223521500,0.251521484375,-0.17391923069953918,-0.011700829491019249,0.1828485131263733
1772806363233452500,0.26145263671875,-0.20761898159980774,-0.07425820082426071,0.17789484560489655
1772806363243384300,0.27138427734375,-0.25105488300323486,-0.15396501123905182,0.1677258312702179
1772806363253315300,0.2813154296875,-0.2885645627975464,-0.20863978564739227,0.1548556387424469
1772806363263247600,0.29124755859375,-0.3058985471725464,-0.21979176998138428,0.14495320618152618
1772806363273178400,0.301178466796875,-0.2929719388484955,-0.20223727822303772,0.14227040112018585
1772806363283110400,0.3111103515625,-0.26033225655555725,-0.1538553684949875,0.15122182667255402
1772806363293041400,0.32104150390625,-0.20956730842590332,-0.09945973753929138,0.17703036963939667
1772806363302972700,0.33097265625,-0.15766283869743347,-0.053320467472076416,0.2213166058063507
1772806363312904400,0.340904541015625,-0.10066429525613785,0.0229339562356472,0.26049259305000305
1772806363322835500,0.35083544921875,-0.0669553354382515,0.06120144948363304,0.2799432575702667
1772806363332767500,0.360767578125,-0.06002487242221832,0.06716524809598923,0.26410993933677673
1772806363342698200,0.3706982421875,-0.06860771030187607,0.05635734274983406,0.2248602658510208
1772806363352630300,0.38063037109375,-0.09218517690896988,0.02717621624469757,0.1856764256954193
1772806363362561500,0.3905615234375,-0.10706798732280731,-0.00006872182711958885,0.17142824828624725
1772806363372493600,0.40049365234375,-0.09755080938339233,0.021379372105002403,0.15102887153625488
1772806363382424300,0.41042431640625,-0.06789038330316544,0.08278973400592804,0.12478688359260559
1772806363392356400,0.4203564453125,-0.03604099899530411,0.1832098811864853,0.09805423766374588
1772806363402287400,0.430287353515625,-0.0062652588821947575,0.2625989615917206,0.08812810480594635
1772806363412219600,0.4402197265625,0.007861407473683357,0.2805607318878174,0.1028284952044487
1772806363422150400,0.450150390625,0.004118600394576788,0.26195454597473145,0.10908292233943939
1772806363432082400,0.46008251953125,-0.013727695681154728,0.21936754882335663,0.0886186957359314
1772806363442013400,0.470013427734375,-0.0438496433198452,0.14931415021419525,0.06577783077955246
1772806363451945500,0.479945556640625,-0.06512803584337234,0.11293963342905045,0.041848525404930115
1772806363461876500,0.48987646484375,-0.08652923256158829,0.11181212216615677,0.026697926223278046
1772806363471808500,0.49980859375,-0.09660998731851578,0.1325978934764862,0.022712944075465202
1772806363481739500,0.509739501953125,-0.09610025584697723,0.1584462672472,0.030047288164496422
1772806363491671600,0.519671630859375,-0.0742921456694603,0.12101022899150848,0.06555426120758057
1772806363501602300,0.529602294921875,-0.04070808365941048,0.18485313653945923,0.06056242808699608
1772806363511534300,0.539534423828125,0.0023187175393104553,0.31586048007011414,0.0431785024702549
1772806363521465600,0.549465576171875,0.03353309631347656,0.35242965817451477,0.07225888967514038
1772806363531397400,0.5593974609375,0.03716316074132919,0.3567887544631958,0.08664997667074203
1772806363541328400,0.569328369140625,0.018374556675553322,0.34746208786964417,0.06754738837480545
1772806363551260400,0.579260498046875,-0.0014560248237103224,0.3144189119338989,0.036253057420253754
1772806363561191700,0.589191650390625,-0.02889563888311386,0.2613855302333832,0.013815660029649734
1772806363571123500,0.59912353515625,-0.04516303911805153,0.21927900612354279,0.021590953692793846
1772806363581054500,0.609054443359375,-0.04801688343286514,0.19260238111019135,0.022022917866706848
1772806363590986500,0.618986572265625,-0.039328113198280334,0.18444819748401642,0.010971943847835064
1772806363600917200,0.628917236328125,-0.024767812341451645,0.17254413664340973,0.0028256000950932503
1772806363610849300,0.638849365234375,-0.0031300722621381283,0.17966113984584808,0.007135494612157345
1772806363620780500,0.648780517578125,0.011691750958561897,0.17648638784885406,0.0069168489426374435
1772806363630712600,0.658712646484375,0.01717524416744709,0.16223715245723724,0.00709912646561861
1772806363640643300,0.668643310546875,0.019858378916978836,0.16722020506858826,0.008802484720945358
1772806363650575400,0.678575439453125,0.027376407757401466,0.18659189343452454,0.026048818603157997
1772806363660506400,0.68850634765625,0.03510037437081337,0.2409435510635376,0.03767378255724907
1772806363670438700,0.698438720703125,0.05089743807911873,0.29299643635749817,0.048817478120326996
1772806363680369400,0.708369384765625,0.06383214145898819,0.30960071086883545,0.07235024124383926
1772806363690301400,0.718301513671875,0.06594334542751312,0.30925509333610535,0.0925244390964508
1772806363700232400,0.728232421875,0.06147509068250656,0.2998490631580353,0.11850623786449432
1772806363710164500,0.73816455078125,0.05984749644994736,0.2901953458786011,0.15007422864437103
1772806363720095500,0.748095458984375,0.05479254946112633,0.2953930199146271,0.15746556222438812
1772806363730027500,0.758027587890625,0.04385007917881012,0.304177850484848,0.13328614830970764
1772806363739958500,0.76795849609375,0.03200807049870491,0.33654192090034485,0.10331467539072037
1772806363749890600,0.777890625,0.01601097360253334,0.3528539538383484,0.09130667895078659
1772806363759821300,0.7878212890625,0.003964963369071484,0.33881962299346924,0.0766955092549324
1772806363769753300,0.79775341796875,-0.01740669086575508,0.32722148299217224,0.07242037355899811
1772806363779684600,0.8076845703125,-0.031322505325078964,0.3396211564540863,0.07773524522781372
1772806363789616400,0.817616455078125,-0.038401175290346146,0.3548193871974945,0.08295644819736481
1772806363799547400,0.82754736328125,-0.036399275064468384,0.3730388879776001,0.09524746984243393
1772806363809479400,0.8374794921875,-0.04052038863301277,0.39711833000183105,0.09225619584321976
1772806363819410700,0.84741064453125,-0.03340815007686615,0.44512951374053955,0.08419880270957947
1772806363829342500,0.857342529296875,-0.03468955308198929,0.4778694212436676,0.0866703912615776
1772806363839273500,0.8672734375,-0.04010322690010071,0.48312172293663025,0.08706294000148773
1772806363849205500,0.87720556640625,-0.036052025854587555,0.49783623218536377,0.07068929076194763
1772806363859136300,0.88713623046875,-0.03378541022539139,0.5054291486740112,0.05398087948560715
1772806363869068300,0.897068359375,-0.041462771594524384,0.5082984566688538,0.038936153054237366
1772806363878999600,0.90699951171875,-0.06408233195543289,0.48113685846328735,0.009161478839814663
1772806363888931600,0.916931640625,-0.08863816410303116,0.4308668076992035,-0.019185036420822144
1772806363898862300,0.9268623046875,-0.1016564890742302,0.41313600540161133,-0.03493763506412506
1772806363908794400,0.93679443359375,-0.09746542572975159,0.4095017611980438,-0.04029812291264534
1772806363918725400,0.946725341796875,-0.07824699580669403,0.43078386783599854,-0.046521395444869995
1772806363928657400,0.956657470703125,-0.05472876504063606,0.47527939081192017,-0.03249938040971756
1772806363938588400,0.96658837890625,-0.04923173412680626,0.4828305244445801,-0.007188430987298489
1772806363948520400,0.9765205078125,-0.0671134665608406,0.45729371905326843,-0.01485088374465704
1772806363958451500,0.986451416015625,-0.08581231534481049,0.4573190212249756,-0.04629988595843315
1772806363968383500,0.996383544921875,-0.09521147608757019,0.4756602346897125,-0.06682220101356506
1772806363978314500,1.006314453125,-0.10045976936817169,0.49700650572776794,-0.08330104500055313
1772806363988246500,1.01624658203125,-0.11263774335384369,0.5161647200584412,-0.10757923126220703
1772806363998177500,1.026177490234375,-0.12067676335573196,0.5328041315078735,-0.1318099945783615
1772806364008109300,1.036109375,-0.13584209978580475,0.5693604946136475,-0.1501270830631256
1772806364018040300,1.046040283203125,-0.14880476891994476,0.599426805973053,-0.16081488132476807
1772806364027972400,1.055972412109375,-0.1468411237001419,0.635131299495697,-0.17674078047275543
1772806364037903600,1.065903564453125,-0.13675573468208313,0.6692474484443665,-0.1934654265642166
1772806364047835400,1.07583544921875,-0.11431265622377396,0.7050813436508179,-0.20724986493587494
1772806364057766400,1.085766357421875,-0.08214513212442398,0.7402830123901367,-0.22986382246017456
1772806364067698400,1.095698486328125,-0.05327408015727997,0.7696268558502197,-0.2505643367767334
1772806364077629400,1.10562939453125,-0.03629642724990845,0.769681990146637,-0.2590488791465759
1772806364087561500,1.1155615234375,-0.02718285657465458,0.7569366097450256,-0.23990434408187866
1772806364097492500,1.125492431640625,-0.03497207164764404,0.7315263152122498,-0.2068667709827423
1772806364107424500,1.135424560546875,-0.04958348348736763,0.6958059668540955,-0.17766033113002777
1772806364117355300,1.145355224609375,-0.051164332777261734,0.6408660411834717,-0.15280185639858246
1772806364127287300,1.155287353515625,-0.073968805372715,0.5379191637039185,-0.1276119202375412
1772806364137218600,1.165218505859375,-0.09989867359399796,0.40794333815574646,-0.07232629507780075
1772806364147150600,1.175150634765625,-0.10730142146348953,0.35131609439849854,-0.009958350099623203
1772806364157081000,1.1850810546875,-0.09015386551618576,0.35953885316848755,0.03183943033218384
1772806364167013000,1.19501318359375,-0.06361149996519089,0.39875054359436035,0.0635298416018486
1772806364176944000,1.204944091796875,-0.04227398708462715,0.4255499243736267,0.06555544584989548
1772806364186876200,1.214876220703125,-0.04488448053598404,0.45904532074928284,0.06492934376001358
1772806364196807200,1.22480712890625,-0.06165653467178345,0.45667245984077454,0.08212137967348099
1772806364206739200,1.2347392578125,-0.1065029725432396,0.4046897888183594,0.0855289101600647
1772806364216670000,1.244669921875,-0.1702262908220291,0.3396894931793213,0.018969327211380005
1772806364226602000,1.25460205078125,-0.23258569836616516,0.2922149896621704,-0.09689664840698242
1772806364236533200,1.264533203125,-0.282882958650589,0.2164725512266159,-0.2176946997642517
1772806364246465000,1.274465087890625,-0.31380292773246765,0.16507765650749207,-0.31903356313705444
1772806364256396000,1.28439599609375,-0.30786699056625366,0.15441861748695374,-0.3863644003868103
1772806364266328000,1.294328125,-0.27305281162261963,0.21106849610805511,-0.3899686932563782
1772806364276259000,1.304259033203125,-0.22838760912418365,0.3227100670337677,-0.35753458738327026
1772806364286191000,1.314191162109375,-0.1833011358976364,0.44656965136528015,-0.30286410450935364
1772806364296122000,1.3241220703125,-0.14261282980442047,0.5723938941955566,-0.2289469838142395
1772806364306054100,1.33405419921875,-0.11339972913265228,0.6136688590049744,-0.18304118514060974
1772806364315985000,1.34398486328125,-0.08828665316104889,0.5982145667076111,-0.18354186415672302
1772806364325917000,1.3539169921875,-0.08112338930368423,0.5663550496101379,-0.20324836671352386
1772806364335848200,1.36384814453125,-0.09943768382072449,0.5381433963775635,-0.2287830114364624
1772806364345780200,1.3737802734375,-0.13562901318073273,0.5181735754013062,-0.2646447420120239
1772806364355711000,1.3837109375,-0.1876690536737442,0.5089622139930725,-0.3280375599861145
1772806364365643000,1.39364306640625,-0.23867514729499817,0.483524888753891,-0.4132729768753052
1772806364375574000,1.403573974609375,-0.2866162955760956,0.403617799282074,-0.47882962226867676
1772806364385506000,1.413506103515625,-0.2789180278778076,0.44290730357170105,-0.45894861221313477
1772806364395437000,1.42343701171875,-0.5518078804016113,0.44958409667015076,-0.440551221370697
1772806364405369000,1.433369140625,-0.5909460186958313,0.43775060772895813,-0.3842366337776184
1772806364415300000,1.443300048828125,-0.46735960245132446,0.4036642611026764,-0.36251378059387207
1772806364425232100,1.453232177734375,-0.44350042939186096,0.309560626745224,-0.35326656699180603
1772806364435163100,1.4631630859375,-0.4710524380207062,0.18860331177711487,-0.35856518149375916
1772806364445095200,1.47309521484375,-0.4949626624584198,0.16839493811130524,-0.3981369733810425
1772806364455026200,1.483026123046875,-0.5139310359954834,0.10968287289142609,-0.43575039505958557
1772806364464958200,1.492958251953125,-0.5288230180740356,0.03630989417433739,-0.4450518786907196
1772806364474889000,1.502888916015625,-0.4933030903339386,0.026933971792459488,-0.45068633556365967
1772806364484821000,1.512821044921875,-0.44578084349632263,0.15775403380393982,-0.4568384885787964
1772806364494752300,1.522752197265625,-0.39569902420043945,0.2465267777442932,-0.46140050888061523
1772806364504684000,1.53268408203125,-0.3495102822780609,0.34813934564590454,-0.43394434452056885
1772806364514615000,1.542614990234375,-0.255251407623291,0.40931403636932373,-0.4115807116031647
1772806364524547000,1.552547119140625,-0.17833782732486725,0.3993901312351227,-0.4591531455516815
1772806364534478000,1.56247802734375,-0.22596819698810577,0.29560887813568115,-0.6029518246650696
1772806364544410000,1.57241015625,-0.27696606516838074,0.2469518482685089,-0.6421436071395874
1772806364554341000,1.582341064453125,-0.25999879837036133,0.2712942063808441,-0.6052180528640747
1772806364564273200,1.592273193359375,-0.21007992327213287,0.31650206446647644,-0.5501185059547424
1772806364574204000,1.602203857421875,-0.13125967979431152,0.3013593256473541,-0.4510944187641144
1772806364584136000,1.612135986328125,-0.08606687933206558,0.2954549193382263,-0.365185022354126
1772806364594067200,1.622067138671875,-0.07356280088424683,0.27619919180870056,-0.34217530488967896
1772806364603999200,1.631999267578125,-0.064810611307621,0.2135140746831894,-0.33935877680778503
1772806364613930000,1.641929931640625,-0.028232088312506676,0.13374413549900055,-0.3349573612213135
1772806364623862000,1.651862060546875,-0.016401654109358788,0.06355772167444229,-0.3335525691509247
1772806364633793000,1.66179296875,-0.03369621932506561,0.011533931829035282,-0.3770739436149597
1772806364643725000,1.67172509765625,-0.058632392436265945,-0.030937476083636284,-0.4243370294570923
1772806364653656000,1.681656005859375,-0.0743732750415802,-0.04391612485051155,-0.448111891746521
1772806364663588000,1.691588134765625,-0.09822569042444229,-0.02696330100297928,-0.4737219512462616
1772806364673519000,1.70151904296875,-0.10990577936172485,0.027494080364704132,-0.4911861717700958
1772806364683451100,1.711451171875,-0.10693946480751038,0.10578300058841705,-0.48249804973602295
1772806364693382100,1.721382080078125,-0.10838529467582703,0.08313494175672531,-0.41354748606681824
1772806364703314200,1.731314208984375,-0.18399357795715332,0.10633404552936554,-0.3674643337726593
1772806364713245200,1.7412451171875,-0.17449115216732025,0.18308554589748383,-0.36612823605537415
1772806364723177000,1.751177001953125,-0.16510877013206482,0.2040172517299652,-0.3442470133304596
1772806364733108000,1.76110791015625,-0.1662219762802124,0.17619679868221283,-0.31416046619415283
1772806364743040000,1.7710400390625,-0.15499632060527802,0.11143471300601959,-0.3078062832355499
1772806364752971300,1.78097119140625,-0.12687146663665771,0.09286954998970032,-0.2915942966938019
1772806364762903000,1.790903076171875,-0.09544910490512848,0.10038311779499054,-0.2728821337223053
1772806364772834000,1.800833984375,-0.06802387535572052,0.05124353989958763,-0.24061499536037445
1772806364782766000,1.81076611328125,-0.036625321954488754,-0.00512275006622076,-0.23405830562114716
1772806364792697000,1.820697021484375,0.018792398273944855,0.0579046867787838,-0.22415587306022644
1772806364802629000,1.830629150390625,0.008949498645961285,0.08084012567996979,-0.20504921674728394
1772806364812560100,1.84056005859375,-0.007561300881206989,0.07983425259590149,-0.20636935532093048
1772806364822492200,1.8504921875,0.025519859045743942,0.0934171974658966,-0.22355829179286957
1772806364832423000,1.8604228515625,0.0676683783531189,0.06652779132127762,-0.24817629158496857
1772806364842355000,1.87035498046875,0.0833110436797142,0.019560540094971657,-0.26120924949645996
1772806364852286200,1.8802861328125,0.07570798695087433,-0.03567555174231529,-0.26928237080574036
1772806364862218200,1.89021826171875,0.07083355635404587,-0.06944797188043594,-0.28365620970726013
1772806364872149000,1.90014892578125,0.07738413661718369,-0.08539392054080963,-0.29627078771591187
1772806364882081000,1.9100810546875,0.10883131623268127,-0.0868026539683342,-0.2953382134437561
1772806364892012000,1.920011962890625,0.17318235337734222,-0.11119134724140167,-0.2895785868167877
1772806364901944000,1.929944091796875,0.22187162935733795,-0.1591796725988388,-0.29748329520225525
1772806364911875000,1.939875,0.21697673201560974,-0.23453114926815033,-0.2826944887638092
1772806364921807000,1.94980712890625,0.18214735388755798,-0.27295422554016113,-0.26681119203567505
1772806364931738000,1.959738037109375,0.12028291821479797,-0.22522719204425812,-0.2477208524942398
1772806364941670100,1.969670166015625,0.046508047729730606,-0.12539151310920715,-0.19835273921489716
1772806364951601200,1.97960107421875,-0.02049602009356022,-0.03910030052065849,-0.1114138513803482
1772806364961533200,1.989533203125,-0.14393338561058044,-0.03178224340081215,-0.020226581022143364
1772806364971464200,1.999464111328125,-0.1722790151834488,-0.08197084069252014,0.0005958765977993608
1772806364981396000,2.00939599609375,-0.18912479281425476,-0.10380718857049942,-0.0035713347606360912
1772806364991327000,2.019326904296875,-0.21664457023143768,-0.1515243649482727,0.007883187383413315
1772806365001259000,2.029259033203125,-0.27501657605171204,-0.21789592504501343,0.015991609543561935
1772806365011190300,2.039190185546875,-0.31728601455688477,-0.2598319351673126,0.022505702450871468
1772806365021122000,2.0491220703125,-0.35799941420555115,-0.2536013424396515,0.05871054530143738
1772806365031053000,2.059052978515625,-0.4168691039085388,-0.2725659906864166,0.11268989741802216
1772806365040985000,2.068985107421875,-0.4733950197696686,-0.28204309940338135,0.15186356008052826
1772806365050915800,2.078915771484375,-0.5328764319419861,-0.22066254913806915,0.21333464980125427
1772806365060847900,2.088847900390625,-0.540912389755249,-0.10277262330055237,0.33158421516418457
1772806365070779100,2.098779052734375,-0.46126872301101685,-0.04548563435673714,0.5658526420593262
1772806365080711200,2.108711181640625,-0.33630886673927307,-0.08564870059490204,0.855815052986145
1772806365090642000,2.118641845703125,-0.1988905519247055,-0.2561458945274353,1.166123867034912
1772806365100574000,2.128573974609375,-0.07550523430109024,-0.5465552806854248,1.4417245388031006
1772806365110505200,2.138505126953125,0.0013746322365477681,-0.7380709648132324,1.5099424123764038
1772806365120437200,2.148437255859375,0.03623265400528908,-0.7279074788093567,1.5298666954040527
1772806365130368000,2.158367919921875,0.020162874832749367,-0.7352452874183655,1.6654260158538818
1772806365140300000,2.168300048828125,-0.05800881236791611,-0.8567061424255371,1.7484219074249268
1772806365150231000,2.17823095703125,-0.27484363317489624,-1.0899407863616943,1.7200120687484741
1772806365160163300,2.188163330078125,-0.42435070872306824,-1.2239023447036743,1.664079189300537
1772806365170094600,2.198094482421875,-0.4287603795528412,-1.2044223546981812,1.6186997890472412
1772806365180026600,2.208026611328125,-0.39111432433128357,-1.050978660583496,1.6577892303466797
1772806365189958700,2.217958740234375,-0.4535002112388611,-0.7770752310752869,1.6169555187225342
1772806365199889400,2.227889404296875,-0.4275822937488556,-0.5327917337417603,1.4738426208496094
1772806365209821400,2.237821533203125,-0.3012094497680664,-0.3034306466579437,1.3752667903900146
1772806365219752400,2.24775244140625,-0.17303380370140076,-0.09553644061088562,1.2973800897598267
1772806365229684500,2.2576845703125,-0.09127476066350937,0.14256401360034943,1.223022222518921
1772806365239615500,2.267615478515625,-0.058825671672821045,0.3170161247253418,1.1518570184707642
1772806365249547500,2.277547607421875,-0.08719898760318756,0.4185536801815033,1.069831371307373
1772806365259478500,2.287478515625,-0.1430758684873581,0.46137917041778564,0.988116443157196
1772806365269410300,2.297410400390625,-0.21408826112747192,0.43524476885795593,0.9056060910224915
1772806365279341600,2.307341552734375,-0.30860981345176697,0.33059242367744446,0.8153238892555237
1772806365289273600,2.317273681640625,-0.4010968804359436,0.2353641837835312,0.7325262427330017
1772806365299204600,2.32720458984375,-0.40921923518180847,0.15049591660499573,0.7009966373443604
1772806365309136400,2.337136474609375,-0.40291258692741394,0.1743575632572174,0.6769435405731201
1772806365319067400,2.3470673828125,-0.37865614891052246,0.3102012872695923,0.6704205274581909
1772806365328999400,2.35699951171875,-0.4488797187805176,0.4734935462474823,0.6786462068557739
1772806365338930700,2.3669306640625,-0.44995880126953125,0.5332152843475342,0.6509837508201599
1772806365348862500,2.376862548828125,-0.396965354681015,0.6159183979034424,0.6039126515388489
1772806365358793500,2.38679345703125,-0.33643782138824463,0.6134195327758789,0.5628834366798401
1772806365368725500,2.3967255859375,-0.32918068766593933,0.5406526327133179,0.5201168060302734
1772806365378656500,2.406656494140625,-0.31894010305404663,0.41409608721733093,0.42770665884017944
1772806365388588500,2.416588623046875,-0.2647136151790619,0.25358444452285767,0.33510854840278625
1772806365398519600,2.42651953125,-0.20204901695251465,0.22311845421791077,0.3196176290512085
1772806365408451600,2.43645166015625,-0.13335038721561432,0.2560439109802246,0.32413968443870544
1772806365418382300,2.44638232421875,-0.09730304032564163,0.24048389494419098,0.29631778597831726
1772806365428314400,2.456314453125,-0.09917949885129929,0.17288407683372498,0.25248056650161743
1772806365438245600,2.46624560546875,-0.13197554647922516,0.06852421164512634,0.1936694234609604
1772806365448177700,2.476177734375,-0.18002642691135406,-0.04149869084358215,0.13399943709373474
1772806365458108400,2.4861083984375,-0.2151155173778534,-0.08124101161956787,0.06956735998392105
1772806365468040400,2.49604052734375,-0.250259667634964,-0.09328409284353256,0.031848471611738205
1772806365477971500,2.505971435546875,-0.2683529853820801,-0.09803658723831177,-0.0063489461317658424
1772806365487903500,2.515903564453125,-0.25140196084976196,-0.06593191623687744,-0.026505880057811737
1772806365497834500,2.52583447265625,-0.20505890250205994,-0.0022077111061662436,-0.011369840241968632
1772806365507766500,2.5357666015625,-0.11976370960474014,0.04826505109667778,-0.01054399460554123
1772806365517697500,2.545697509765625,-0.04403632506728172,0.1141582578420639,-0.02172054536640644
1772806365527629300,2.55562939453125,-0.009708711877465248,0.162533238530159,-0.04961902275681496
1772806365537560600,2.565560546875,-0.0018264525569975376,0.216329887509346,-0.09552446752786636
1772806365547492600,2.57549267578125,-0.02271202765405178,0.26371124386787415,-0.14033029973506927
1772806365557423600,2.585423583984375,-0.03507009148597717,0.2944718897342682,-0.1445895880460739
1772806365567355400,2.59535546875,-0.03499605506658554,0.2973560690879822,-0.13322055339813232
1772806365577286400,2.605286376953125,-0.029213054105639458,0.33474990725517273,-0.10387690365314484
1772806365587218400,2.615218505859375,0.00236431322991848,0.3629959523677826,-0.08754773437976837
1772806365597149400,2.6251494140625,0.010023110546171665,0.37692779302597046,-0.11584269255399704
1772806365607081500,2.63508154296875,0.019441911950707436,0.4150032699108124,-0.14507567882537842
1772806365617012500,2.645012451171875,0.01957188919186592,0.5506811141967773,-0.15218095481395721
1772806365626944500,2.654944580078125,0.02306089736521244,0.6691603660583496,-0.18280544877052307
1772806365636875300,2.664875244140625,0.021154219284653664,0.662642240524292,-0.21047724783420563
1772806365646807600,2.6748076171875,0.018581604585051537,0.6720902919769287,-0.25589773058891296
1772806365656738600,2.684738525390625,0.01956207863986492,0.6632587909698486,-0.267677366733551
1772806365666670600,2.694670654296875,0.031005946919322014,0.6194391250610352,-0.28171300888061523
1772806365676601300,2.704601318359375,0.041615843772888184,0.6064591407775879,-0.255860835313797
1772806365686533400,2.714533447265625,0.05716284364461899,0.6359291672706604,-0.19929610192775726
1772806365696464600,2.724464599609375,0.050872962921857834,0.6399712562561035,-0.15218405425548553
1772806365706396700,2.734396728515625,0.02725551649928093,0.5695970058441162,-0.1439620852470398
1772806365716327400,2.744327392578125,0.007435332052409649,0.48459503054618835,-0.16061332821846008
1772806365726259500,2.754259521484375,-0.009517817758023739,0.42664089798927307,-0.18610084056854248
1772806365736191500,2.76419140625,-0.018221687525510788,0.38804689049720764,-0.2019558697938919
1772806365746122500,2.77412255859375,-0.035350073128938675,0.3482012152671814,-0.23032519221305847
1772806365756054500,2.784054443359375,-0.07675468176603317,0.29758086800575256,-0.25044846534729004
1772806365765985500,2.793985595703125,-0.10326724499464035,0.26418188214302063,-0.2562080919742584
1772806365775917600,2.80391748046875,-0.08571948856115341,0.2721121907234192,-0.2597530782222748
1772806365785848300,2.813848388671875,-0.059499338269233704,0.31300610303878784,-0.2596718668937683
1772806365795780400,2.8237802734375,-0.04923708364367485,0.3447292149066925,-0.24890835583209991
1772806365805711600,2.833711669921875,-0.04067714884877205,0.355643093585968,-0.24947667121887207
1772806365815643600,2.8436435546875,-0.040460024029016495,0.33507102727890015,-0.2628512680530548
1772806365825574400,2.853574462890625,-0.06295707076787949,0.2725980877876282,-0.28651851415634155
1772806365835506400,2.86350634765625,-0.08448287099599838,0.19241590797901154,-0.3084118366241455
1772806365845437400,2.8734375,-0.10515272617340088,0.1432448923587799,-0.31920483708381653
1772806365855369500,2.883369384765625,-0.11968481540679932,0.12736669182777405,-0.3147749602794647
1772806365865300500,2.893300537109375,-0.1443568766117096,0.1371263861656189,-0.31765276193618774
1772806365875232500,2.903232421875,-0.16789261996746063,0.1406458467245102,-0.32092583179473877
1772806365885163500,2.91316357421875,-0.17706800997257233,0.1521965116262436,-0.32459884881973267
1772806365895095600,2.923095458984375,-0.17171509563922882,0.14999400079250336,-0.3292919397354126
1772806365905026600,2.933026611328125,-0.1924576461315155,0.12583035230636597,-0.3428543508052826
1772806365914958600,2.94295849609375,-0.21981482207775116,0.11380497366189957,-0.3475094437599182
1772806365924889600,2.9528896484375,-0.24445891380310059,0.1491778939962387,-0.3419192135334015
1772806365934821600,2.962821533203125,-0.27177825570106506,0.16999079287052155,-0.34710872173309326
1772806365944752400,2.97275244140625,-0.28559499979019165,0.15450716018676758,-0.3435336947441101
1772806365954684400,2.982684326171875,-0.30871817469596863,0.09300819039344788,-0.31673210859298706
1772806365964615700,2.99261572265625,-0.32902848720550537,0.06819924712181091,-0.2668510973453522
1772806365974547500,3.00254736328125,-0.32829880714416504,0.12058594822883606,-0.18035410344600677
1772806365984478500,3.012478515625,-0.3025260865688324,0.21282958984375,-0.08432450890541077
1772806365994410500,3.022410400390625,-0.28451138734817505,0.29257503151893616,0.018085218966007233
1772806366004341500,3.032341552734375,-0.2960636615753174,0.31175315380096436,0.12816302478313446
1772806366014273300,3.042273193359375,-0.3176560699939728,0.25099343061447144,0.17537596821784973
1772806366024204500,3.05220458984375,-0.28121232986450195,0.20077632367610931,0.1283717006444931
1772806366034136600,3.062136474609375,-0.13735565543174744,0.2307293713092804,0.08497091382741928
1772806366044067300,3.0720673828125,0.022395120933651924,0.332258939743042,0.1258791834115982
1772806366053999400,3.081999267578125,0.07945218682289124,0.36867690086364746,0.18725953996181488
1772806366063930600,3.0919306640625,0.08954743295907974,0.2903251051902771,0.22458747029304504
1772806366073862700,3.101862548828125,0.061105359345674515,0.1871981918811798,0.2649684548377991
1772806366083793400,3.11179345703125,-0.016741234809160233,0.1016920953989029,0.24006867408752441
1772806366093725400,3.121725341796875,-0.13752397894859314,-0.07410154491662979,0.14121443033218384
1772806366103657500,3.131657470703125,-0.26145419478416443,-0.2647372782230377,-0.05225569009780884
1772806366113588500,3.14158837890625,-0.3389860987663269,-0.3879088759422302,-0.32226333022117615
1772806366123520300,3.151520263671875,-0.31081411242485046,-0.43942558765411377,-0.4509749710559845
1772806366133451500,3.161451416015625,-0.15606366097927094,-0.5146286487579346,-0.3075708746910095
1772806366143383600,3.171383544921875,0.06408122181892395,-0.47483357787132263,0.024933040142059326
1772806366153314600,3.181314453125,0.2067558765411377,-0.19234712421894073,0.23504768311977386
1772806366163246000,3.19124609375,0.25615137815475464,0.29065361618995667,0.1643306463956833
1772806366173177300,3.20117724609375,0.22438515722751617,0.4762757420539856,0.03208249434828758
1772806366183109400,3.211109375,0.19518865644931793,0.2884752154350281,-0.03628671169281006
1772806366193040100,3.2210400390625,0.13205024600028992,-0.05896902456879616,-0.1110561192035675
1772806366202972200,3.23097216796875,0.020007597282528877,-0.440731018781662,-0.21321631968021393
1772806366212903200,3.240903076171875,-0.12008573859930038,-0.8422152996063232,-0.29239439964294434
1772806366222835200,3.250835205078125,-0.26255419850349426,-1.161260962486267,-0.391153484582901
1772806366232766200,3.26076611328125,-0.3514758050441742,-1.2881196737289429,-0.4777359962463379
1772806366242698200,3.2706982421875,-0.3631891906261444,-1.2668191194534302,-0.5399661064147949
1772806366252629200,3.280629150390625,-0.30223560333251953,-1.2135820388793945,-0.5781123638153076
1772806366262561000,3.29056103515625,-0.1887042224407196,-1.1622192859649658,-0.6038627624511719
1772806366272492300,3.3004921875,-0.05043785274028778,-1.0345677137374878,-0.6478562951087952
1772806366282424300,3.31042431640625,0.08230261504650116,-0.7644315361976624,-0.6763228178024292
1772806366292355300,3.320355224609375,0.20383544266223907,-0.4747750759124756,-0.660510241985321
1772806366302287000,3.330287109375,0.30504462122917175,-0.31641820073127747,-0.5910316109657288
1772806366312218000,3.340218017578125,0.3438311815261841,-0.19904214143753052,-0.5192921161651611
1772806366322150100,3.350150146484375,0.34346047043800354,-0.12883296608924866,-0.5172249674797058
1772806366332081200,3.3600810546875,0.33126920461654663,-0.08845803886651993,-0.5651674270629883
1772806366342013200,3.37001318359375,0.30838146805763245,-0.12406450510025024,-0.6001328825950623
1772806366351944200,3.379944091796875,0.301582932472229,-0.15564677119255066,-0.6119990944862366
1772806366361876200,3.389876220703125,0.3280848562717438,-0.15392956137657166,-0.6105204820632935
1772806366371807000,3.399806884765625,0.3529174029827118,-0.2117358297109604,-0.598741888999939
1772806366381739300,3.4097392578125,0.3531304597854614,-0.21620674431324005,-0.5922022461891174
1772806366391670300,3.419670166015625,0.34766483306884766,-0.2393372654914856,-0.5782278776168823
1772806366401602300,3.429602294921875,0.3407749533653259,-0.2667664885520935,-0.5511810779571533
1772806366411534300,3.439534423828125,0.3205108642578125,-0.27370816469192505,-0.5304991006851196
1772806366421465000,3.449465087890625,0.3011680543422699,-0.28480714559555054,-0.5172467231750488
1772806366431397000,3.459397216796875,0.29549098014831543,-0.33403223752975464,-0.476930171251297
1772806366441328400,3.469328369140625,0.30127325654029846,-0.3734206557273865,-0.42780444025993347
1772806366451260200,3.47926025390625,0.3041256368160248,-0.3877260386943817,-0.36149850487709045
1772806366461191200,3.489191162109375,0.3138507008552551,-0.3828071653842926,-0.2906549572944641
1772806366471123200,3.499123291015625,0.3172193169593811,-0.3940325081348419,-0.21821054816246033
1772806366481054200,3.50905419921875,0.3041011095046997,-0.42711880803108215,-0.15087197721004486
1772806366490986000,3.518986083984375,0.27516981959342957,-0.47465816140174866,-0.06893643736839294
1772806366500917200,3.528917236328125,0.23436565697193146,-0.5034520030021667,0.031564343720674515
1772806366510849300,3.538849365234375,0.18113186955451965,-0.4855569303035736,0.1181081235408783
1772806366520780000,3.548780029296875,0.11392488330602646,-0.49964770674705505,0.18707014620304108
1772806366530712000,3.558712158203125,0.05128239840269089,-0.564179003238678,0.2716626822948456
1772806366540643300,3.568643310546875,0.006653146352618933,-0.6034966111183167,0.38870969414711
1772806366550575400,3.578575439453125,-0.03494260832667351,-0.6039392948150635,0.5486012101173401
1772806366560506000,3.588506103515625,-0.07956361025571823,-0.6325536370277405,0.6920715570449829
1772806366570438100,3.598438232421875,-0.12427946925163269,-0.5924549698829651,0.8020915389060974
1772806366580369200,3.608369140625,-0.14428406953811646,-0.4120151698589325,0.8561814427375793
1772806366590301200,3.61830126953125,-0.11441188305616379,-0.2570667564868927,0.889111340045929
1772806366600232200,3.628232177734375,-0.1374671459197998,-0.22983300685882568,0.9030047655105591
1772806366610164200,3.638164306640625,-0.21631376445293427,-0.4966587722301483,0.9563791751861572
1772806366620095200,3.64809521484375,-0.3209648132324219,-0.8902723789215088,1.0423041582107544
1772806366630027300,3.65802734375,-0.4175686240196228,-1.175649881362915,1.1106075048446655
1772806366639958000,3.6679580078125,-0.45833122730255127,-1.2438609600067139,1.1854248046875
1772806366649890300,3.677890380859375,-0.42669788002967834,-1.1159744262695312,1.2625435590744019
1772806366659821300,3.6878212890625,-0.3633681833744049,-0.8612480759620667,1.2750428915023804
1772806366669753300,3.69775341796875,-0.2902851402759552,-0.6161471605300903,1.2506349086761475
1772806366679684000,3.70768408203125,-0.22668805718421936,-0.4697350859642029,1.2405439615249634
1772806366689616100,3.7176162109375,-0.12283380329608917,-0.36165350675582886,1.2303862571716309
1772806366699548200,3.727548095703125,-0.003635240951552987,-0.21053002774715424,1.1457792520523071
1772806366709479200,3.737479248046875,0.09857720881700516,0.08381548523902893,1.011734127998352
1772806366719411200,3.7474111328125,0.15434059500694275,0.2773844301700592,0.9131497740745544
1772806366729342200,3.75734228515625,0.1884075105190277,0.2901933789253235,0.8074911832809448
1772806366739274200,3.767274169921875,0.2159310132265091,0.20483693480491638,0.6791505217552185
1772806366749205000,3.777205078125,0.22434364259243011,0.10626710206270218,0.5236778855323792
1772806366759137300,3.78713720703125,0.23061831295490265,-0.0001296461559832096,0.37462472915649414
1772806366769068300,3.797068359375,0.22641710937023163,-0.1356218159198761,0.25186192989349365
1772806366779000300,3.807000244140625,0.2125907689332962,-0.2832741141319275,0.13642428815364838
1772806366788931000,3.81693115234375,0.19578790664672852,-0.4198679029941559,0.0362728126347065
1772806366798863000,3.826863037109375,0.18813425302505493,-0.47741082310676575,-0.04114341363310814
1772806366808794400,3.83679443359375,0.1850401908159256,-0.48159196972846985,-0.09120232611894608
1772806366818726400,3.846726318359375,0.19607898592948914,-0.48651590943336487,-0.11761608719825745
1772806366828657200,3.8566572265625,0.21118289232254028,-0.47194600105285645,-0.17093202471733093
1772806366838589200,3.866589111328125,0.21660536527633667,-0.46207311749458313,-0.23431234061717987
1772806366848520200,3.876520263671875,0.22409383952617645,-0.45201376080513,-0.2820436656475067
1772806366858452000,3.886451904296875,0.22738604247570038,-0.4185743033885956,-0.33960044384002686
1772806366868383200,3.89638330078125,0.23995287716388702,-0.3774963319301605,-0.38171231746673584
1772806366878315300,3.906315185546875,0.2582189440727234,-0.3227662444114685,-0.4064943492412567
1772806366888246300,3.916246337890625,0.28558439016342163,-0.2641894817352295,-0.41194090247154236
1772806366898178000,3.926177978515625,0.3135680854320526,-0.2076023370027542,-0.4139454662799835
1772806366908109300,3.936109375,0.34031301736831665,-0.15276086330413818,-0.41658884286880493
1772806366918041300,3.946041259765625,0.36268651485443115,-0.10574621707201004,-0.42519935965538025
1772806366927972400,3.955972412109375,0.3823544681072235,-0.0935128852725029,-0.45488086342811584
1772806366937904000,3.965904052734375,0.3819882571697235,-0.10811019688844681,-0.47852733731269836
1772806366947836200,3.975836181640625,0.37150996923446655,-0.12319068610668182,-0.5007379055023193
1772806366957767200,3.98576708984375,0.36302512884140015,-0.12299494445323944,-0.5162926316261292
1772806366967699200,3.99569921875,0.3548990786075592,-0.1167815625667572,-0.5163457989692688
1772806366977630200,4.005630126953125,0.3404676914215088,-0.13550785183906555,-0.5011380910873413
1772806366987562200,4.015562255859375,0.31654781103134155,-0.15054866671562195,-0.4864078462123871
1772806366997493200,4.0254931640625,0.29315993189811707,-0.11458373814821243,-0.4647185206413269
1772806367007425300,4.03542529296875,0.28401055932044983,-0.01111430674791336,-0.4425174295902252
1772806367017356000,4.04535595703125,0.2886574864387512,0.13574650883674622,-0.41481947898864746
1772806367027288300,4.055288330078125,0.3070010542869568,0.2700957953929901,-0.37640446424484253
1772806367037219300,4.06521923828125,0.3353210985660553,0.35591134428977966,-0.3308263421058655
1772806367047151000,4.075151123046875,0.36403435468673706,0.427837073802948,-0.25340303778648376
1772806367057082000,4.08508203125,0.3900132179260254,0.5367915630340576,-0.15807759761810303
1772806367067014100,4.09501416015625,0.36509668827056885,0.6450965404510498,-0.0659698098897934
1772806367076945400,4.1049453125,0.297197550535202,0.7702935934066772,0.08330675959587097
1772806367086877200,4.114877197265625,0.23937831819057465,0.8416837453842163,0.23344430327415466
1772806367096808200,4.12480810546875,0.13092534244060516,0.6455472707748413,0.22460927069187164
1772806367106740200,4.134740234375,-0.05584562197327614,0.2516823410987854,0.02957812510430813
1772806367116671000,4.1446708984375,-0.22654706239700317,0.04255204647779465,-0.17335236072540283
1772806367126603000,4.15460302734375,-0.30808398127555847,0.049537476152181625,-0.320449560880661
1772806367136534300,4.1645341796875,-0.3418930768966675,-0.003809102810919285,-0.44124123454093933
1772806367146466300,4.17446630859375,-0.30838456749916077,0.006369772832840681,-0.5186052918434143
1772806367156397000,4.18439697265625,-0.2506459057331085,0.11376573890447617,-0.43409594893455505
1772806367166328800,4.194328857421875,-0.20124569535255432,0.23296619951725006,-0.22984625399112701
1772806367176260900,4.2042607421875,-0.2241709977388382,0.1780797690153122,-0.07550355046987534
1772806367186192000,4.21419189453125,-0.3062298595905304,-0.0704285129904747,-0.01580207422375679
1772806367196124000,4.2241240234375,-0.3167056739330292,-0.26510530710220337,-0.01143928337842226
1772806367206055000,4.234054931640625,-0.21630828082561493,-0.28158730268478394,-0.012730483897030354
1772806367215987000,4.243987060546875,-0.13525258004665375,-0.12243040651082993,-0.028309710323810577
1772806367225917700,4.253917724609375,-0.0629412978887558,0.08118408173322678,-0.022858353331685066
1772806367235850000,4.26385009765625,0.04891359433531761,0.2547502815723419,0.04699662700295448
1772806367245781000,4.273781005859375,0.15276312828063965,0.2922128736972809,0.13355793058872223
1772806367255712800,4.283712646484375,0.16867604851722717,0.29368215799331665,0.11860213428735733
1772806367265643800,4.293643798828125,0.1352633833885193,0.38454991579055786,0.051573771983385086
1772806367275575800,4.303575927734375,0.026327043771743774,0.31506991386413574,-0.011510389856994152
1772806367285507000,4.313507080078125,-0.1412651091814041,0.1429777890443802,-0.08415849506855011
1772806367295438800,4.32343896484375,-0.28764548897743225,-0.04349807649850845,-0.15740634500980377
1772806367305369900,4.333369873046875,-0.3723661005496979,-0.1745041459798813,-0.21744638681411743
1772806367315302000,4.343302001953125,-0.39264312386512756,-0.22644031047821045,-0.3085517883300781
1772806367325233000,4.35323291015625,-0.37518882751464844,-0.24922384321689606,-0.4157584309577942
1772806367335164700,4.36316455078125,-0.33773812651634216,-0.2776448428630829,-0.5124892592430115
1772806367345096000,4.373095947265625,-0.2801870107650757,-0.25882887840270996,-0.5502742528915405
1772806367355028000,4.383028076171875,-0.17636741697788239,-0.24800018966197968,-0.49066469073295593
1772806367364958700,4.392958740234375,-0.08752141147851944,-0.23097257316112518,-0.406131386756897
1772806367374890800,4.402890869140625,-0.039843376725912094,-0.2305840104818344,-0.33692196011543274
1772806367384822800,4.41282275390625,-0.05158236622810364,-0.36086586117744446,-0.2862612009048462
1772806367394754000,4.422754150390625,-0.07832929491996765,-0.48840436339378357,-0.2726671099662781
1772806367404686000,4.43268603515625,-0.0962459146976471,-0.5589686632156372,-0.27863892912864685
1772806367414616800,4.442616943359375,-0.09230630099773407,-0.6268052458763123,-0.29239147901535034
1772806367424548900,4.452548828125,-0.07123228162527084,-0.7004087567329407,-0.31771349906921387
1772806367434479900,4.46247998046875,-0.03125690668821335,-0.7654785513877869,-0.3201311230659485
1772806367444411600,4.47241162109375,-0.011751022189855576,-0.810745120048523,-0.3194766640663147
1772806367454343000,4.482343017578125,-0.007903552614152431,-0.8234990239143372,-0.3142733871936798
1772806367464275000,4.49227490234375,0.008583374321460724,-0.82393878698349,-0.32941290736198425
1772806367474206000,4.5022060546875,0.012238030321896076,-0.7778130769729614,-0.3702481985092163
1772806367484137700,4.5121376953125,0.020984841510653496,-0.6981023550033569,-0.4190477728843689
1772806367494068700,4.52206884765625,0.03815184161067009,-0.6133847832679749,-0.4547863304615021
1772806367504001000,4.5320009765625,0.058039795607328415,-0.5865529179573059,-0.45759329199790955
1772806367513931800,4.541931884765625,0.0874115377664566,-0.5814430713653564,-0.44880059361457825
1772806367523863800,4.55186376953125,0.10901270061731339,-0.6081130504608154,-0.4318751394748688
1772806367533794800,4.561794921875,0.1278657466173172,-0.6438611745834351,-0.4218558073043823
1772806367543726800,4.571726806640625,0.14912979304790497,-0.6764748096466064,-0.39607134461402893
1772806367553657900,4.581657958984375,0.15659676492214203,-0.6624742746353149,-0.3713611960411072
1772806367563590000,4.59158984375,0.1564149260520935,-0.6663133502006531,-0.33154284954071045
1772806367573521000,4.60152099609375,0.1587345451116562,-0.7268794775009155,-0.28509971499443054
1772806367583453000,4.611452880859375,0.15012918412685394,-0.8039016723632812,-0.28047579526901245
1772806367593385000,4.621385009765625,0.14527423679828644,-0.9132038950920105,-0.3134414553642273
1772806367603315700,4.631315673828125,0.1334686577320099,-1.0198791027069092,-0.33260297775268555
1772806367613247700,4.641247802734375,0.13217036426067352,-1.0555886030197144,-0.3457115888595581
1772806367623179000,4.651178955078125,0.12994055449962616,-1.0583113431930542,-0.33612945675849915
1772806367633110800,4.66111083984375,0.14857256412506104,-1.062607765197754,-0.29974669218063354
1772806367643041800,4.671041748046875,0.17608658969402313,-1.0681933164596558,-0.2758583128452301
1772806367652973800,4.680973876953125,0.203575998544693,-1.0573891401290894,-0.2677471339702606
1772806367662905000,4.690905029296875,0.2191295027732849,-1.0108277797698975,-0.2679203748703003
1772806367672836900,4.7008369140625,0.2364102303981781,-0.9447410106658936,-0.25257763266563416
1772806367682768000,4.710767822265625,0.24218367040157318,-0.9245719313621521,-0.24105310440063477
1772806367692700000,4.720699951171875,0.24552060663700104,-0.927341878414154,-0.24043792486190796
1772806367702630700,4.730630615234375,0.25122660398483276,-0.9244195818901062,-0.25214526057243347
1772806367712562700,4.740562744140625,0.26020145416259766,-0.9233242273330688,-0.2707410454750061
1772806367722494000,4.750493896484375,0.271404892206192,-0.9337511658668518,-0.27312803268432617
1772806367732426000,4.760426025390625,0.28056031465530396,-0.9621995687484741,-0.2718678116798401
1772806367742356700,4.770356689453125,0.2907891273498535,-0.9896403551101685,-0.2921529710292816
1772806367752288800,4.780288818359375,0.29997169971466064,-1.0217722654342651,-0.3208208382129669
1772806367762220800,4.790220703125,0.29686301946640015,-1.0560696125030518,-0.32955536246299744
1772806367772152000,4.800152099609375,0.28402283787727356,-1.071291446685791,-0.30365291237831116
1772806367782083800,4.810083740234375,0.285288542509079,-1.055962324142456,-0.2517891526222229
1772806367792014800,4.820014892578125,0.30309924483299255,-1.021736741065979,-0.22183895111083984
1772806367801947000,4.82994677734375,0.3221141993999481,-1.0188250541687012,-0.240656316280365
1772806367811878000,4.8398779296875,0.34148550033569336,-1.0259751081466675,-0.27756401896476746
1772806367821809700,4.8498095703125,0.34571710228919983,-1.0250242948532104,-0.29522427916526794
1772806367831741000,4.859740966796875,0.3366767466068268,-1.0591460466384888,-0.27329927682876587
1772806367841673000,4.8696728515625,0.29620441794395447,-1.1083149909973145,-0.21856392920017242
1772806367851603700,4.879603759765625,0.2405712604522705,-1.19959557056427,-0.180900439620018
1772806367861535700,4.88953564453125,0.18596795201301575,-1.241495966911316,-0.1753736287355423
1772806367871466800,4.899466796875,0.14712388813495636,-1.2393497228622437,-0.17649108171463013
1772806367881399000,4.90939892578125,0.11868330091238022,-1.2068496942520142,-0.12879879772663116
1772806367891329800,4.919329833984375,0.07760404050350189,-1.2176281213760376,-0.012891369871795177
1772806367901261800,4.92926171875,0.0005440149689093232,-1.2688404321670532,0.15046682953834534
1772806367911192800,4.93919287109375,-0.12788745760917664,-1.3617610931396484,0.28043681383132935
1772806367921124900,4.949124755859375,-0.2619961202144623,-1.3859994411468506,0.3494535982608795
1772806367931057000,4.959056884765625,-0.39579784870147705,-1.3171610832214355,0.4002443253993988
1772806367940988000,4.96898779296875,-0.47836580872535706,-1.1719638109207153,0.47089335322380066
1772806367950920000,4.978919921875,-0.47756901383399963,-1.03467857837677,0.5428985357284546
1772806367960851000,4.988850830078125,-0.4608671963214874,-0.9678428173065186,0.5752092003822327
1772806367970782700,4.99878271484375,-0.4225131571292877,-0.9772909283638,0.5623695254325867
1772806367980713700,5.008713623046875,-0.41141659021377563,-0.923527181148529,0.5570154190063477
1772806367990645800,5.018645751953125,-0.43659839034080505,-0.9472229480743408,0.6142235994338989
1772806368000577000,5.028576904296875,-0.5002191066741943,-0.9963909387588501,0.7048801183700562
1772806368010508800,5.0385087890625,-0.540892481803894,-0.9729984998703003,0.7970361709594727
1772806368020439800,5.048439697265625,-0.5457872748374939,-0.7810316681861877,0.9239014387130737
1772806368030371800,5.058371826171875,-0.6198362112045288,-0.7070893049240112,0.9822374582290649
1772806368040302800,5.068302734375,-0.7200548648834229,-0.6387689113616943,0.9198983311653137
1772806368050235000,5.07823486328125,-0.7392392158508301,-0.40654850006103516,0.7328493595123291
1772806368060166000,5.088165771484375,-0.6965374946594238,-0.3981139063835144,0.6277493834495544
1772806368070098000,5.098097900390625,-0.6615923047065735,-0.45672211050987244,0.6466096043586731
1772806368080028700,5.108028564453125,-0.6268923878669739,-0.4071028232574463,0.6862331032752991
1772806368089960700,5.117960693359375,-0.5851180553436279,-0.265202134847641,0.6767218708992004
1772806368099892700,5.127892822265625,-0.529601514339447,-0.09446865320205688,0.6243115663528442
1772806368109824000,5.137823974609375,-0.48543134331703186,-0.009266143664717674,0.5481811165809631
1772806368119756000,5.147756103515625,-0.4594111442565918,-0.01454664021730423,0.4878697693347931
1772806368129686800,5.157686767578125,-0.44806182384490967,-0.08224286139011383,0.41471433639526367
1772806368139618800,5.167618896484375,-0.40279752016067505,-0.11752400547266006,0.32726559042930603
1772806368149550000,5.177550048828125,-0.3585544228553772,-0.1241811141371727,0.2725040912628174
1772806368159482400,5.187482421875,-0.32242873311042786,-0.10874706506729126,0.2752881646156311
1772806368169413400,5.197413330078125,-0.29418617486953735,-0.09469596296548843,0.29620543122291565
1772806368179345400,5.207345458984375,-0.2970721125602722,-0.0493956133723259,0.3205838203430176
1772806368189276200,5.217276123046875,-0.30118268728256226,0.02550525963306427,0.35749152302742004
1772806368199208200,5.227208251953125,-0.3038594126701355,0.06564778089523315,0.391936331987381
1772806368209139500,5.237139404296875,-0.26690539717674255,0.06006819009780884,0.42967092990875244
1772806368219071500,5.247071533203125,-0.20106609165668488,0.06547370553016663,0.4700480103492737
1772806368229002200,5.257002197265625,-0.10905653983354568,0.10090280324220657,0.5033313632011414
1772806368238934300,5.266934326171875,-0.016493387520313263,0.14075960218906403,0.5207670331001282
1772806368248865300,5.276865234375,0.044498592615127563,0.19180093705654144,0.5143674612045288
1772806368258797300,5.28679736328125,0.1199360191822052,0.17495691776275635,0.474551796913147
1772806368268729000,5.29672900390625,0.14600835740566254,0.14991281926631927,0.41228654980659485
1772806368278660400,5.306660400390625,0.15379774570465088,0.12118026614189148,0.3877089321613312
1772806368288592400,5.31659228515625,0.16149188578128815,0.14193694293498993,0.3790464699268341
1772806368298523400,5.3265234375,0.16962029039859772,0.1989864557981491,0.36381447315216064
1772806368308455200,5.336455078125,0.16509903967380524,0.239826038479805,0.36312445998191833
1772806368318386400,5.346386474609375,0.14583735167980194,0.23740506172180176,0.36332905292510986
1772806368328318500,5.356318359375,0.13795998692512512,0.20986557006835938,0.3504337668418884
1772806368338249200,5.366249267578125,0.14044450223445892,0.15606673061847687,0.29935550689697266
1772806368348181200,5.37618115234375,0.15018928050994873,0.08885253965854645,0.23357541859149933
1772806368358112300,5.3861123046875,0.17560569941997528,0.02899479866027832,0.17492009699344635
1772806368368044300,5.396044189453125,0.20802754163742065,-0.0026472830213606358,0.1266646832227707
1772806368377975300,5.405975341796875,0.24454694986343384,-0.008008492179214954,0.069162517786026
1772806368387907300,5.4159072265625,0.2652498185634613,-0.02756914310157299,0.04265687242150307
1772806368397838300,5.42583837890625,0.28905582427978516,-0.011886587366461754,0.035009074956178665
1772806368407770400,5.435770263671875,0.30938851833343506,0.033608727157115936,0.043676331639289856
1772806368417701000,5.445701171875,0.3389330208301544,0.09993638843297958,0.0586775541305542
1772806368427633400,5.45563330078125,0.3753967583179474,0.18284857273101807,0.09147198498249054
1772806368437565400,5.4655654296875,0.4202873706817627,0.2868773341178894,0.12666919827461243
1772806368447496400,5.475496337890625,0.433493971824646,0.40698909759521484,0.14393579959869385
1772806368457428200,5.48542822265625,0.44005993008613586,0.4745512008666992,0.14368382096290588
1772806368467359200,5.495359130859375,0.45617392659187317,0.4259759485721588,0.11758271604776382
1772806368477291300,5.505291259765625,0.44074368476867676,0.40367940068244934,0.08824144303798676
1772806368487222500,5.515222412109375,0.3993035852909088,0.4543790817260742,0.05553675815463066
1772806368497154300,5.525154296875,0.3856077492237091,0.4804302752017975,0.0037047502119094133
1772806368507085300,5.535085205078125,0.37557002902030945,0.4752810299396515,-0.048882294446229935
1772806368517017300,5.545017333984375,0.3572864830493927,0.5114913582801819,-0.07307112216949463
1772806368526948000,5.554947998046875,0.32409578561782837,0.5965194702148438,-0.0761883556842804
1772806368536880000,5.564880126953125,0.3113030195236206,0.6136465072631836,-0.0671522468328476
1772806368546811400,5.574811279296875,0.32707348465919495,0.6525295972824097,-0.0622994638979435
1772806368556743400,5.584743408203125,0.36267802119255066,0.7652389407157898,-0.052160315215587616
1772806368566674200,5.594674072265625,0.42679470777511597,0.7947952151298523,-0.019039642065763474
1772806368576606200,5.604606201171875,0.464603990316391,0.8147554397583008,-0.012888609431684017
1772806368586537500,5.614537353515625,0.4867332875728607,0.8279013633728027,-0.0021107958164066076
1772806368596469500,5.624469482421875,0.4899865984916687,0.8713292479515076,-0.011759491637349129
1772806368606401300,5.6344013671875,0.46613559126853943,0.9360235333442688,-0.060780566185712814
1772806368616332300,5.644332275390625,0.4738531708717346,0.9227066040039062,-0.12248650938272476
1772806368626264300,5.654264404296875,0.4552754759788513,0.8566614985466003,-0.16373354196548462
1772806368636195300,5.6641953125,0.407173216342926,0.7667911052703857,-0.1921074390411377
1772806368646127000,5.674127197265625,0.35193154215812683,0.7054111361503601,-0.22529707849025726
1772806368656058400,5.684058349609375,0.30843067169189453,0.6910784244537354,-0.25529247522354126
1772806368665990400,5.693990478515625,0.2962419092655182,0.6547731757164001,-0.27277079224586487
1772806368675921400,5.70392138671875,0.2949562072753906,0.5782755017280579,-0.2910197973251343
1772806368685853200,5.713853271484375,0.2820255160331726,0.5169932246208191,-0.29949983954429626
1772806368695784400,5.723784423828125,0.25430241227149963,0.4405706524848938,-0.29194214940071106
1772806368705716500,5.733716552734375,0.21366310119628906,0.33802881836891174,-0.2945541739463806
1772806368715647200,5.743647216796875,0.16535930335521698,0.23833122849464417,-0.32137930393218994
1772806368725579300,5.753579345703125,0.10742437094449997,0.16376352310180664,-0.34482550621032715
1772806368735510300,5.76351025390625,0.05876736342906952,0.11639402061700821,-0.34759336709976196
1772806368745442300,5.7734423828125,0.028358325362205505,0.10130481421947479,-0.3445541560649872
1772806368755374300,5.783374267578125,0.01950615830719471,0.14766544103622437,-0.33784249424934387
1772806368765305300,5.793305419921875,0.040966443717479706,0.2679460346698761,-0.34780219197273254
1772806368775237400,5.8032373046875,0.07713228464126587,0.435702919960022,-0.3351598381996155
1772806368785168400,5.81316845703125,0.11606317013502121,0.6435434818267822,-0.2982305586338043
1772806368795100200,5.82310009765625,0.16552987694740295,0.8183815479278564,-0.23496387898921967
1772806368805031400,5.833031494140625,0.20662298798561096,0.8841837048530579,-0.18293316662311554
1772806368814963500,5.84296337890625,0.2212885320186615,0.7540385723114014,-0.17168498039245605
1772806368824894500,5.85289453125,0.17430797219276428,0.4754253029823303,-0.21974384784698486
1772806368834826200,5.862826171875,0.10637376457452774,0.25076591968536377,-0.2695488929748535
1772806368844757200,5.87275732421875,0.07206293195486069,0.23911328613758087,-0.24691654741764069
1772806368854689300,5.882689208984375,0.042416494339704514,0.2973179817199707,-0.1361592411994934
1772806368864620300,5.892620361328125,0.013980325311422348,0.27567315101623535,-0.0018618885660544038
1772806368874552300,5.90255224609375,0.0006036697886884212,0.22621986269950867,0.10431104898452759
1772806368884483300,5.9124833984375,-0.02056366577744484,0.24475066363811493,0.12368767708539963
1772806368894415400,5.922415283203125,-0.03538620471954346,0.30716100335121155,0.03409045562148094
1772806368904347400,5.932347412109375,-0.053668539971113205,0.32481083273887634,-0.13696624338626862
1772806368914278100,5.942278076171875,-0.041199106723070145,0.1677779257297516,-0.3447727560997009
1772806368924210400,5.95221044921875,0.01523806992918253,-0.12136360257863998,-0.5046417713165283
1772806368934141400,5.962141357421875,0.053966984152793884,-0.3757067918777466,-0.5691822171211243
1772806368944073500,5.972073486328125,0.04643556475639343,-0.5628756284713745,-0.6068078875541687
1772806368954004200,5.982004150390625,-0.019037926569581032,-0.7175090312957764,-0.6953630447387695
1772806368963936300,5.991936279296875,-0.08672402799129486,-0.767591655254364,-0.8911991119384766
1772806368973867500,6.001867431640625,-0.1399811953306198,-0.7659380435943604,-1.1453417539596558
1772806368983799300,6.01179931640625,-0.18318912386894226,-0.7484621405601501,-1.3104026317596436
1772806368993730300,6.021730224609375,-0.20538564026355743,-0.7460477352142334,-1.330666422843933
1772806369003662300,6.031662353515625,-0.21027947962284088,-0.7289608716964722,-1.2452958822250366
1772806369013593300,6.04159326171875,-0.1819029003381729,-0.5768765807151794,-1.1352417469024658
1772806369023525000,6.051525146484375,-0.09410379827022552,-0.34530118107795715,-1.032777190208435
1772806369033456400,6.061456298828125,0.0066807568073272705,-0.16759918630123138,-0.9453397393226624
1772806369043388400,6.071388427734375,0.054080232977867126,-0.0416276678442955,-0.8751324415206909
1772806369053320400,6.081320556640625,0.04922526702284813,0.010014593601226807,-0.8130448460578918
1772806369063251200,6.091251220703125,0.032891035079956055,-0.026203596964478493,-0.7853559851646423
1772806369073183200,6.101183349609375,-0.0089717460796237,-0.262748122215271,-0.7895435690879822
1772806369083114500,6.111114501953125,-0.12385518848896027,-0.6739857196807861,-0.7738394141197205
1772806369093046500,6.121046630859375,-0.3082575798034668,-1.1278499364852905,-0.7842271327972412
1772806369102977300,6.130977294921875,-0.4981057941913605,-1.4560874700546265,-0.8482338190078735
1772806369112909300,6.140909423828125,-0.6258964538574219,-1.6249351501464844,-0.9201335906982422
1772806369122840300,6.15084033203125,-0.6860545873641968,-1.7420284748077393,-0.9666033387184143
1772806369132772000,6.160772216796875,-0.6731021404266357,-1.6937886476516724,-1.0329861640930176
1772806369142703400,6.170703369140625,-0.5343855023384094,-1.3374640941619873,-1.0872968435287476
1772806369152635400,6.180635498046875,-0.333869993686676,-0.8097670078277588,-1.0977941751480103
1772806369162566400,6.19056640625,-0.12651759386062622,-0.41644904017448425,-1.039144515991211
1772806369172498400,6.20049853515625,0.06130600720643997,-0.39689767360687256,-0.916744589805603
1772806369182430200,6.21043017578125,0.19545795023441315,-0.47115272283554077,-0.794138491153717
1772806369192361500,6.220361572265625,0.253667950630188,-0.3082659840583801,-0.7502527832984924
1772806369202293500,6.23029345703125,0.26326411962509155,-0.04830685257911682,-0.7542632818222046
1772806369212224500,6.240224609375,0.22584551572799683,-0.14676162600517273,-0.7614552974700928
1772806369222156300,6.25015625,0.16827861964702606,-0.4279072880744934,-0.7864687442779541
1772806369232087300,6.26008740234375,0.10726291686296463,-0.49569472670555115,-0.8690693974494934
1772806369242019300,6.270019287109375,0.13050618767738342,-0.47496920824050903,-0.8694629669189453
1772806369251950300,6.279950439453125,0.10454613715410233,-0.6238642334938049,-0.8493799567222595
1772806369261882400,6.28988232421875,0.01785837672650814,-0.6005383729934692,-0.8543204069137573
1772806369271813400,6.2998134765625,-0.09011700004339218,-0.5589792132377625,-0.8193675875663757
1772806369281745400,6.309745361328125,-0.1533050239086151,-0.7805976271629333,-0.7573918700218201
1772806369291676200,6.31967626953125,-0.18448710441589355,-1.0332375764846802,-0.7000361084938049
1772806369301608400,6.3296083984375,-0.18931621313095093,-1.056791067123413,-0.6878417730331421
1772806369311540500,6.33954052734375,-0.11995100975036621,-1.060012698173523,-0.7261759042739868
1772806369321471500,6.349471435546875,-0.06326482445001602,-1.027950406074524,-0.7620744705200195
1772806369331403300,6.3594033203125,-0.04845651239156723,-1.0000718832015991,-0.7792344689369202
1772806369341334300,6.369334228515625,-0.03016592003405094,-0.9344885945320129,-0.7907915115356445
1772806369351266300,6.379266357421875,0.00003531057154759765,-0.819786548614502,-0.7768821120262146
1772806369361197600,6.389197509765625,0.03962559625506401,-0.7220996618270874,-0.7286719679832458
1772806369371129300,6.39912939453125,0.11737213283777237,-0.6871892213821411,-0.6529046893119812
1772806369381060400,6.409060302734375,0.1597486138343811,-0.6362682580947876,-0.5632978677749634
1772806369390992400,6.418992431640625,0.16967082023620605,-0.5768686532974243,-0.4725421369075775
1772806369400923100,6.428923095703125,0.18186382949352264,-0.5688639879226685,-0.41396084427833557
1772806369410855200,6.438855224609375,0.20584523677825928,-0.5952388048171997,-0.42136499285697937
1772806369420786400,6.448786376953125,0.21499453485012054,-0.6425578594207764,-0.47691160440444946
1772806369430718500,6.458718505859375,0.21994441747665405,-0.6387861967086792,-0.5475369691848755
1772806369440649200,6.468649169921875,0.24632996320724487,-0.5530699491500854,-0.5856528878211975
1772806369450581200,6.478581298828125,0.3074210286140442,-0.4612787067890167,-0.565497636795044
1772806369460513300,6.48851318359375,0.3730303943157196,-0.40540558099746704,-0.5198526382446289
1772806369470444500,6.498444580078125,0.42242005467414856,-0.39218589663505554,-0.4698127508163452
1772806369480376600,6.50837646484375,0.4517654478549957,-0.4247337281703949,-0.4200345575809479
1772806369490307300,6.518307373046875,0.44174322485923767,-0.447710782289505,-0.37735921144485474
1772806369500239400,6.5282392578125,0.4445347487926483,-0.5123744606971741,-0.326645165681839
1772806369510170400,6.53817041015625,0.38334113359451294,-0.538547158241272,-0.26911431550979614
1772806369520102100,6.54810205078125,0.2991543412208557,-0.5760133266448975,-0.2081897258758545
1772806369530033400,6.558033447265625,0.23837850987911224,-0.6773984432220459,-0.15656258165836334
1772806369539965400,6.56796533203125,0.1989232450723648,-0.7724242806434631,-0.1302603930234909
1772806369549896400,6.577896484375,0.18492946028709412,-0.8608482480049133,-0.1303362101316452
1772806369559828200,6.587828125,0.1686447560787201,-0.9302030801773071,-0.13129468262195587
1772806369569759500,6.597759521484375,0.14075076580047607,-0.9860491156578064,-0.1322697252035141
1772806369579691500,6.60769140625,0.11230581253767014,-1.0324668884277344,-0.12398996204137802
1772806369589623600,6.61762353515625,0.08919616043567657,-1.0534900426864624,-0.07454261183738708
1772806369599554300,6.62755419921875,0.08705125004053116,-1.0657999515533447,0.022349312901496887
1772806369609486300,6.637486328125,0.0974537581205368,-1.0847573280334473,0.12616093456745148
1772806369619417300,6.647417236328125,0.11002521216869354,-1.0836081504821777,0.2385772168636322
1772806369629349400,6.657349365234375,0.09589284658432007,-1.0547744035720825,0.37701520323753357
1772806369639280400,6.6672802734375,0.025652235373854637,-0.9997324347496033,0.5709748268127441
1772806369649212400,6.67721240234375,-0.08431864529848099,-0.9914103746414185,0.7612484693527222
1772806369659143400,6.687143310546875,-0.17888617515563965,-0.9865096211433411,0.936995267868042
1772806369669075200,6.6970751953125,-0.23198460042476654,-0.9447906017303467,1.1272399425506592
1772806369679006500,6.70700634765625,-0.27805569767951965,-0.9463909268379211,1.3319281339645386
1772806369688938500,6.7169384765625,-0.2867039442062378,-1.004622220993042,1.562537431716919
1772806369698869500,6.726869384765625,-0.28266605734825134,-1.1082594394683838,1.8255996704101562
1772806369708801300,6.73680126953125,-0.3898405134677887,-1.1020821332931519,2.0062942504882812
1772806369718733300,6.7467333984375,-0.6140137314796448,-0.5367211699485779,1.6138700246810913
1772806369728664300,6.756664306640625,-0.6730059385299683,-0.8772505521774292,1.6016261577606201
1772806369738596400,6.766596435546875,-0.7855879068374634,-1.7103012800216675,1.753765344619751
1772806369748527400,6.77652734375,-0.8522212505340576,-2.099231243133545,1.7505521774291992
1772806369758459400,6.78645947265625,-0.8609739542007446,-2.0957562923431396,1.6738388538360596
1772806369768390400,6.796390380859375,-0.8500008583068848,-1.868127703666687,1.5978070497512817
1772806369778322400,6.806322509765625,-0.7612006664276123,-1.6312518119812012,1.6038435697555542
1772806369788253200,6.816253173828125,-0.6101846098899841,-1.3098118305206299,1.6572891473770142
1772806369798185500,6.826185546875,-0.45304617285728455,-0.9071030616760254,1.6779299974441528
1772806369808116500,6.836116455078125,-0.2623734772205353,-0.5068366527557373,1.6955771446228027
1772806369818048500,6.846048583984375,-0.067164845764637,-0.1385537087917328,1.6859385967254639
1772806369827979300,6.855979248046875,0.04859670251607895,0.012269556522369385,1.6568353176116943
1772806369837911300,6.865911376953125,0.11885461956262589,0.01969551481306553,1.6119186878204346
1772806369847843300,6.87584326171875,0.1325305849313736,-0.09231532365083694,1.5408995151519775
1772806369857774300,6.8857744140625,0.08413908630609512,-0.22483742237091064,1.4553595781326294
1772806369867706400,6.895706298828125,0.042666010558605194,-0.30892494320869446,1.3436659574508667
1772806369877637400,6.905637451171875,0.02572990395128727,-0.4299600124359131,1.2428096532821655
1772806369887569400,6.9155693359375,-0.02553289383649826,-0.548235297203064,1.1637427806854248
1772806369897500200,6.925500244140625,-0.05873372033238411,-0.58095383644104,1.0962519645690918
1772806369907432200,6.93543212890625,-0.06423351168632507,-0.5412721633911133,1.0410956144332886
1772806369917363500,6.945363525390625,-0.04744947329163551,-0.38913825154304504,0.955434262752533
1772806369927295500,6.95529541015625,-0.03438550606369972,-0.25213462114334106,0.9292836785316467
1772806369937226200,6.965226318359375,-0.008387994021177292,-0.17780978977680206,0.8992919325828552
1772806369947158300,6.975158203125,0.038998670876026154,-0.187167227268219,0.83894944190979
1772806369957089500,6.985089599609375,0.08583994954824448,-0.19422434270381927,0.7492635250091553
1772806369967021600,6.995021484375,0.11138816922903061,-0.20277871191501617,0.6535192131996155
1772806369976952300,7.004952392578125,0.12314362823963165,-0.25171560049057007,0.5278891324996948
1772806369986884400,7.01488427734375,0.14553917944431305,-0.26203808188438416,0.4081701338291168
1772806369996816400,7.02481640625,0.17833440005779266,-0.23101918399333954,0.30861955881118774
1772806370006747100,7.0347470703125,0.2057390660047531,-0.14954502880573273,0.22137513756752014
1772806370016679200,7.04467919921875,0.22899991273880005,-0.05231114849448204,0.13037066161632538
1772806370026610400,7.0546103515625,0.23794855177402496,-0.0320357009768486,0.03415187448263168
1772806370036542500,7.06454248046875,0.24897776544094086,-0.029052959755063057,-0.07883433252573013
1772806370046473200,7.07447314453125,0.25332799553871155,-0.06813420355319977,-0.17978762090206146
1772806370056405200,7.0844052734375,0.23111724853515625,-0.11795981973409653,-0.22844970226287842
1772806370066336500,7.09433642578125,0.24099399149417877,-0.13439643383026123,-0.30256932973861694
1772806370076268500,7.1042685546875,0.24277111887931824,-0.1686990112066269,-0.38930395245552063
1772806370086199300,7.11419921875,0.24203404784202576,-0.19316071271896362,-0.48533982038497925
1772806370096131300,7.12413134765625,0.23005567491054535,-0.21439328789710999,-0.5789515376091003
1772806370106062300,7.134062255859375,0.21833983063697815,-0.23626485466957092,-0.6554834246635437
1772806370115994400,7.143994384765625,0.20091529190540314,-0.21017998456954956,-0.6719484329223633
1772806370125926100,7.153926025390625,0.17146338522434235,-0.14154915511608124,-0.6584398150444031
1772806370135857400,7.163857421875,0.14703261852264404,-0.07138737291097641,-0.6167331337928772
1772806370145789400,7.17378955078125,0.12154700607061386,-0.012494301423430443,-0.5653063654899597
1772806370155720400,7.183720458984375,0.10301433503627777,0.0026811896823346615,-0.5056193470954895
1772806370165652200,7.19365234375,0.08862686157226562,-0.01340179331600666,-0.46571850776672363
1772806370175583200,7.203583251953125,0.09158030897378922,-0.024872027337551117,-0.4527638256549835
1772806370185515300,7.213515380859375,0.07313548028469086,-0.013661490753293037,-0.44944214820861816
1772806370195446300,7.2234462890625,0.02592056430876255,-0.04723329842090607,-0.4383828341960907
1772806370205378300,7.23337841796875,-0.053008776158094406,-0.07987730205059052,-0.32941335439682007
1772806370215309000,7.24330908203125,-0.13979560136795044,-0.034790247678756714,-0.1408327966928482
1772806370225241000,7.253240966796875,-0.22327323257923126,0.022673919796943665,0.06598959863185883
1772806370235172400,7.26317236328125,-0.2835775911808014,0.02613310143351555,0.20137351751327515
1772806370245104400,7.2731044921875,-0.30351704359054565,0.04547205939888954,0.27436211705207825
1772806370255036200,7.2830361328125,-0.27982956171035767,0.13055206835269928,0.33406272530555725
1772806370264967200,7.29296728515625,-0.21561439335346222,0.2672674059867859,0.3945412039756775
1772806370274899200,7.302899169921875,-0.11330480128526688,0.40672409534454346,0.4395483732223511
1772806370284830200,7.312830322265625,-0.007199114188551903,0.4775584936141968,0.46270060539245605
1772806370294762200,7.32276220703125,0.0554024837911129,0.4712347984313965,0.4990847110748291
1772806370304693200,7.332693359375,0.09725192934274673,0.40914374589920044,0.5553751587867737
1772806370314625300,7.342625244140625,0.14851458370685577,0.32399076223373413,0.5893528461456299
1772806370324556000,7.35255615234375,0.21063777804374695,0.24154254794120789,0.5944028496742249
1772806370334488000,7.362488037109375,0.25353413820266724,0.23887458443641663,0.5638031363487244
1772806370344419300,7.37241943359375,0.22613926231861115,0.15884941816329956,0.45344552397727966
1772806370354351400,7.382351318359375,0.16029900312423706,0.01897433213889599,0.36814767122268677
1772806370364283100,7.392283203125,0.0609268881380558,-0.16247013211250305,0.22217503190040588
1772806370374214100,7.402214111328125,0.026836298406124115,-0.3015052378177643,-0.019821880385279655
1772806370384146200,7.412146240234375,0.04816638305783272,-0.1816651076078415,-0.1651817411184311
1772806370394077200,7.4220771484375,0.07387521117925644,0.004119674675166607,-0.16736340522766113
1772806370404009200,7.43200927734375,0.05420790985226631,0.08096373826265335,-0.1895631104707718
1772806370413940200,7.441940185546875,0.023126693442463875,0.035627689212560654,-0.29483091831207275
1772806370423872300,7.451872314453125,0.03517371416091919,-0.03532524034380913,-0.4459110498428345
1772806370433803000,7.461802978515625,0.12090779840946198,-0.14059999585151672,-0.5475125312805176
1772806370443735000,7.471735107421875,0.22457733750343323,-0.11209283769130707,-0.5427889823913574
1772806370453666300,7.481666259765625,0.3279024064540863,0.07712236046791077,-0.45845332741737366
1772806370463598300,7.491598388671875,0.3895851969718933,0.12954361736774445,-0.32032230496406555
1772806370473529000,7.501529052734375,0.36048030853271484,0.19856688380241394,-0.21948279440402985
1772806370483461000,7.511461181640625,0.29696932435035706,0.207863911986351,-0.19758325815200806
1772806370493393200,7.52139306640625,0.23360498249530792,0.059308528900146484,-0.21464985609054565
1772806370503324200,7.53132421875,0.13486631214618683,-0.16296684741973877,-0.2720680236816406
1772806370513256200,7.541256103515625,0.05570065975189209,-0.3733358085155487,-0.3567621409893036
1772806370523187200,7.551187255859375,0.005211832467466593,-0.5232805609703064,-0.44878214597702026
1772806370533119200,7.561119140625,-0.037702880799770355,-0.6241357922554016,-0.4995259940624237
1772806370543050200,7.57105029296875,-0.07476135343313217,-0.7062500715255737,-0.4933356046676636
1772806370552982000,7.58098193359375,-0.10479861497879028,-0.7539174556732178,-0.4660608470439911
1772806370562913300,7.590913330078125,-0.08757033199071884,-0.7806440591812134,-0.4772045612335205
1772806370572845300,7.60084521484375,-0.04253974184393883,-0.805182695388794,-0.48868224024772644
1772806370582776300,7.6107763671875,0.01027754507958889,-0.7861760854721069,-0.4891929030418396
1772806370592708000,7.6207080078125,0.06598608195781708,-0.7198180556297302,-0.4948137700557709
1772806370602639000,7.63063916015625,0.09941530972719193,-0.6620542407035828,-0.5130735635757446
1772806370612571100,7.640571044921875,0.12083511799573898,-0.5984464883804321,-0.5396066308021545
1772806370622503200,7.650503173828125,0.13987022638320923,-0.5227012038230896,-0.5522930026054382
1772806370632434200,7.66043408203125,0.15273623168468475,-0.4646744132041931,-0.5349118709564209
1772806370642366200,7.6703662109375,0.16501952707767487,-0.44306910037994385,-0.5118535757064819
1772806370652297200,7.680297119140625,0.18112978339195251,-0.42692795395851135,-0.5012618899345398
1772806370662229200,7.690229248046875,0.18385615944862366,-0.42276081442832947,-0.5118298530578613
1772806370672160300,7.70016015625,0.17043064534664154,-0.43549710512161255,-0.5360915064811707
1772806370682092300,7.71009228515625,0.17198717594146729,-0.42245808243751526,-0.5418925285339355
1772806370692023300,7.720023193359375,0.1851559728384018,-0.4195334017276764,-0.520645260810852
1772806370701955000,7.729955078125,0.1880854070186615,-0.4272301495075226,-0.48050346970558167
1772806370711886000,7.739885986328125,0.18710163235664368,-0.4486190378665924,-0.43862926959991455
1772806370721818000,7.749818115234375,0.19360117614269257,-0.4628504812717438,-0.39380285143852234
1772806370731749400,7.759749267578125,0.2030700445175171,-0.44976210594177246,-0.33913612365722656
1772806370741681200,7.76968115234375,0.20793519914150238,-0.45653510093688965,-0.28251081705093384
1772806370751613200,7.77961328125,0.19961947202682495,-0.4700644910335541,-0.23639313876628876
1772806370761544200,7.789544189453125,0.19546905159950256,-0.47621697187423706,-0.21127037703990936
1772806370771476200,7.799476318359375,0.20012584328651428,-0.47088131308555603,-0.19669727981090546
1772806370781407200,7.8094072265625,0.19546736776828766,-0.4771440625190735,-0.17023858428001404
1772806370791339300,7.81933935546875,0.17900051176548004,-0.5089563131332397,-0.15718697011470795
1772806370801270300,7.829270263671875,0.15528327226638794,-0.5385434627532959,-0.15013538300991058
1772806370811202300,7.839202392578125,0.13829870522022247,-0.55354905128479,-0.14849381148815155
1772806370821133000,7.849133056640625,0.12961716949939728,-0.5516468286514282,-0.15754202008247375
1772806370831065000,7.859065185546875,0.12994687259197235,-0.5503272414207458,-0.1736014187335968
1772806370840996400,7.868996337890625,0.13087685406208038,-0.5555209517478943,-0.1965397596359253
1772806370850928400,7.878928466796875,0.1329735517501831,-0.5632995367050171,-0.2062096893787384
1772806370860860200,7.888860107421875,0.13048087060451508,-0.5697325468063354,-0.20176644623279572
1772806370870791200,7.898791259765625,0.12922731041908264,-0.5644384026527405,-0.19307202100753784
1772806370880723200,7.90872314453125,0.13740508258342743,-0.549053966999054,-0.18615476787090302
1772806370890654200,7.918654296875,0.14810006320476532,-0.5052835941314697,-0.17101949453353882
1772806370900586200,7.928586181640625,0.16337883472442627,-0.44532740116119385,-0.13683681190013885
1772806370910517200,7.938517333984375,0.18445801734924316,-0.3883195221424103,-0.10454998165369034
1772806370920449300,7.94844921875,0.19684800505638123,-0.345497190952301,-0.09035276621580124
1772806370930380000,7.958380126953125,0.199574276804924,-0.30618494749069214,-0.087164968252182
1772806370940312000,7.96831201171875,0.19605635106563568,-0.26479411125183105,-0.08203694969415665
1772806370950243300,7.978243408203125,0.18910203874111176,-0.22081254422664642,-0.07792236655950546
1772806370960175400,7.98817529296875,0.17569991946220398,-0.1854531168937683,-0.061217717826366425
1772806370970106000,7.998106201171875,0.1686856895685196,-0.15771283209323883,-0.0519842728972435
1772806370980038100,8.0080380859375,0.16699716448783875,-0.13765396177768707,-0.04337354376912117
1772806370989970200,8.01797021484375,0.1599602997303009,-0.10889875143766403,-0.03621496632695198
1772806370999901200,8.027901123046876,0.15774932503700256,-0.015892261639237404,0.026299573481082916
1772806371009833200,8.037833251953124,0.16589593887329102,-0.013658935204148293,0.07213150709867477
1772806371019764200,8.04776416015625,0.16071052849292755,-0.02485360950231552,0.05335539951920509
1772806371029696300,8.0576962890625,0.13272656500339508,-0.05311986804008484,-0.020240789279341698
1772806371039627300,8.067627197265624,0.09465549141168594,-0.06490356475114822,-0.07090672850608826
1772806371049559000,8.07755908203125,0.06803932785987854,-0.07412689179182053,-0.07761603593826294
1772806371059490300,8.087490234375,0.059824734926223755,-0.07343534380197525,-0.05719205364584923
1772806371069422300,8.09742236328125,0.06176431477069855,-0.0841527059674263,-0.04270125925540924
1772806371079353000,8.10735302734375,0.06893754005432129,-0.09516248106956482,-0.04069456830620766
1772806371089285000,8.11728515625,0.07653875648975372,-0.1298302859067917,-0.056794144213199615
1772806371099217200,8.127217041015625,0.0758654847741127,-0.1892881840467453,-0.1109468936920166
1772806371109148200,8.137148193359375,0.07136660814285278,-0.22530795633792877,-0.16716249287128448
1772806371119080200,8.147080078125,0.0708589106798172,-0.20517602562904358,-0.16215398907661438
1772806371129011200,8.15701123046875,0.09247659146785736,-0.17721256613731384,-0.07291625440120697
1772806371138943200,8.166943115234375,0.11687133461236954,-0.17519795894622803,0.005311636719852686
