time,seconds_elapsed,z,y,x
1772882902953365800,0.07836572265625,-0.16333470520079135,-0.11428367404490708,-0.10007431223280727
1772882902963297800,0.0882978515625,0.038215456625819204,-0.0891515708759427,-0.26832703848294914
1772882902973230800,0.09823095703125,0.1507318287372589,-0.04120353252589702,-0.5395586393009871
1772882902983163000,0.108162841796875,0.2680301744282245,-0.11556275407001375,-0.6943425199080259
1772882902993096000,0.118095947265625,0.15135843620300293,-0.3145110628351569,-0.4203333441354334
1772882903003028000,0.128028076171875,0.22649171085953712,-0.3287183057554066,-0.507324010650441
1772882903012961000,0.1379609375,0.17800912724137305,-0.4973604697145521,-0.3729034844405949
1772882903022892800,0.147892822265625,0.22339725197553634,-0.5624582341775298,-0.09480733161531388
1772882903032825600,0.15782568359375,0.2992138327211141,-0.6201962835274636,0.16188260669633744
1772882903042757600,0.167757568359375,0.2739303383827209,-0.6739177907124161,0.34294805276840923
1772882903052690700,0.177690673828125,0.3785065651446581,-0.5710692645259201,0.3013283406570554
1772882903062622700,0.187622802734375,0.44439504159390925,-0.47044732834771275,0.2830289330523461
1772882903072555800,0.1975556640625,0.5489946492314338,-0.38869215133339163,0.2379377454381436
1772882903082487800,0.20748779296875,0.6657312693864107,-0.30029826695695516,0.08816482486091554
1772882903092420900,0.2174208984375,0.7557482249200344,-0.37306145148128267,0.01296528003513813
1772882903102354000,0.22735400390625,0.8219388991862535,-0.4606903428345918,0.1026736080110073
1772882903112286000,0.237285888671875,0.7354337511658668,-0.46338133548423643,0.08891403579302132
1772882903122218800,0.24721875,0.6495815140962601,-0.34043972320929167,-0.07062324988618493
1772882903132150500,0.257150634765625,0.7323240947127342,-0.05875146417617798,-0.4696438299451023
1772882903142083300,0.267083251953125,0.38399113403558727,0.05528598002269864,-0.8418601358391344
1772882903152015400,0.277015380859375,0.2393020925939083,0.11232318762689829,-0.9187876004360616
1772882903161948400,0.286948486328125,0.16356208421587942,0.3061861559517681,-0.9339088163960725
1772882903171880400,0.29688037109375,0.22842647831439972,0.3053596419997513,-0.8196681047100574
1772882903181813500,0.3068134765625,0.503325953990221,0.267370103084296,-0.6613646716747432
1772882903191745500,0.31674560546875,0.8108394130229949,0.2844451565258205,-0.39978462323397396
1772882903201678600,0.3266787109375,1.174952126634121,0.06822086491957306,-0.5406755875669419
1772882903211610600,0.336610595703125,2.0018997938930987,0.3934044206775725,-0.8537032069113105
1772882903221543400,0.34654345703125,2.7062790661036966,0.21310615958571433,-0.5334227668944745
1772882903231475700,0.356475830078125,3.1771675623476505,-0.4329702689990401,-0.19678572390377522
1772882903241408500,0.366408447265625,3.5943712301552293,-0.6847348066724837,-0.3213375478543341
1772882903251340300,0.37634033203125,4.003965592002868,-0.4457581466406583,-0.3360809434778988
1772882903261273600,0.386273681640625,4.121545092722774,-0.21632249128371475,0.01391885443292558
1772882903271205400,0.396205322265625,4.144180702900886,-0.46177273124381896,0.3255792770773172
1772882903281138400,0.406138427734375,4.386336431360244,-0.358326385294646,0.5211212114650756
1772882903291070500,0.416070556640625,4.634351407241821,-0.4827898003093898,0.6362699048414826
1772882903301003500,0.42600341796875,4.959962833023071,-0.4715386307157576,0.5999731413185596
1772882903310935600,0.435935546875,5.444186027136444,-0.29229879263564945,0.40966530819199976
1772882903320868600,0.44586865234375,5.605268569496274,-0.19369974058717487,0.14915303511321543
1772882903330800600,0.455800537109375,5.217079983770847,0.004351911599189043,0.023723916871473193
1772882903340733400,0.4657333984375,4.793986088880897,0.27124825969189403,0.5105134543415158
1772882903350665500,0.47566552734375,4.486909267699718,0.5253393406167626,0.7838499915495515
1772882903360598500,0.4855986328125,4.263592095223069,0.751224317754805,0.5575513555767014
1772882903370530600,0.495530517578125,3.962890069770813,0.7993947666838764,0.6282096402436494
1772882903380463600,0.505463623046875,3.288850990766287,0.9364981753021479,1.0697260576613248
1772882903390395400,0.5153955078125,1.9615169301003217,1.0820660454049706,1.2629653411298989
1772882903400328400,0.525328369140625,0.42725861335396764,1.1367410539224743,1.265055883668363
1772882903410260500,0.535260498046875,-1.575878028857708,1.3830048022225498,1.6871180974230169
1772882903420193500,0.545193603515625,-4.062933329278231,1.6577081708043813,1.6261334673672914
1772882903430125600,0.55512548828125,-6.961964333724975,2.3604104497134686,1.2407497099295257
1772882903440058400,0.565058349609375,-10.374477944517135,3.3372742454126474,1.2429799531996248
1772882903449990400,0.574990478515625,-14.400640170758962,4.195446195235848,1.6563767760701475
1772882903459923500,0.58492333984375,-17.917520164954663,4.960344525817036,2.192414328572899
1772882903469855500,0.59485546875,-21.47226198003292,5.851099771597981,1.5759133924320339
1772882903479788500,0.60478857421875,-22.788853112888336,6.510393701413274,0.7433688550140708
1772882903489720600,0.614720458984375,-21.112657099235058,6.330786491325497,1.2857447436928748
1772882903499653600,0.624653564453125,-17.462563397336005,4.934366619473695,1.4610089561402797
1772882903509585700,0.634585693359375,-13.644255986022948,2.9195833786100147,1.32207000265792
1772882903519518700,0.644518798828125,-11.721970411592721,0.48251346758604047,1.3947149676300585
1772882903529450500,0.654450439453125,-9.506559384444355,-0.3079328534886241,0.7764288285728543
1772882903539383300,0.66438330078125,-8.253670616170764,-0.4435340408504009,0.4345896868944168
1772882903549315300,0.6743154296875,-7.351718269070982,-0.4722141918897628,-0.23734065632782875
1772882903559248400,0.684248291015625,-6.618205256834626,0.1548275736182928,-0.5142702495917677
1772882903569180400,0.694180419921875,-5.817516650947928,0.7577928824901581,-0.4825351679611951
1772882903579113500,0.704113525390625,-4.967597857946157,0.9776125682398676,-0.18601093965023754
1772882903589045500,0.71404541015625,-3.920287776362896,0.8658490603223442,-0.030485373830422758
1772882903598978600,0.723978515625,-2.8027152410298584,0.4096986990049481,0.29413254740145056
1772882903608910600,0.73391064453125,-0.9287351400852203,0.12520634233653544,0.35456571758687494
1772882903618843600,0.74384375,1.2438999906539916,-0.06873743613958358,0.2692492678944021
1772882903628775700,0.753775634765625,2.7496599426686763,-0.1472092075690627,0.476016141455993
1772882903638708500,0.76370849609375,3.7886698134183883,0.05383914221525192,0.5557908852428197
1772882903648640500,0.773640625,4.317318424713611,0.12437106055617332,0.6697086485847831
1772882903658573300,0.7835732421875,3.9780496449798344,0.27989333844035863,0.39135965350959445
1772882903668505300,0.79350537109375,2.9286557428598403,0.48516836600899693,-0.03295402896627784
1772882903678438400,0.8034384765625,2.1602117024958134,0.660087126019597,-0.565698421675153
1772882903688370400,0.813370361328125,2.3100480436980724,0.8018170253947376,-1.1625574860937893
1772882903698303500,0.823303466796875,3.082880674409866,0.4477005128800869,-1.7497995945245026
1772882903708235500,0.833235595703125,4.4940591394543645,-0.19094459666013716,-2.048197288557142
1772882903718168600,0.84316845703125,6.359173796898126,-0.9701274731814861,-1.9725711158171295
1772882903728100600,0.8531005859375,8.267056167444586,-2.0346742285087704,-1.4369041501924396
1772882903738033400,0.863033447265625,9.694202016949653,-3.1864526925653216,-0.756630122321099
1772882903747965700,0.872965576171875,10.850554657053946,-4.346504771709442,0.06881685805134474
1772882903757898500,0.8828984375,11.784363447141647,-5.385513473415374,0.40963140592239794
1772882903767830500,0.89283056640625,12.689428957825898,-5.519649556660652,0.336611616288498
1772882903777763600,0.902763671875,13.140524373841284,-5.15823382704854,-0.15593085868507622
1772882903787695400,0.9126953125,12.911630278015135,-4.611537810148299,-0.47183659074902534
1772882903797628400,0.92262841796875,12.074722357755899,-4.0468405648723245,-0.7579961499772966
1772882903807561500,0.9325615234375,11.030234347856045,-3.525959372708201,-0.8906688826717436
1772882903817493500,0.942493408203125,9.909564431029558,-3.2894159311726687,-0.8498658937707543
1772882903827425500,0.952425537109375,9.100720575737952,-3.2555291514009235,-0.7025735379628837
1772882903837358600,0.962358642578125,8.81138983912766,-3.2927038668021558,-0.7181663900226354
1772882903847290600,0.97229052734375,8.895570343592762,-3.4248125358730555,-0.7958653504487126
1772882903857223400,0.982223388671875,9.0541926333189,-3.58097983366251,-0.8892252597346901
1772882903867155500,0.992155517578125,8.979721621963382,-3.690693423312902,-0.6733141257308423
1772882903877088500,1.002088623046875,8.557301096290349,-3.827100081838667,-0.3817247965388
1772882903887020500,1.0120205078125,7.737735355976223,-3.7919139099061487,-0.005847264723479747
1772882903896953600,1.02195361328125,6.811904705160856,-3.5810119823664426,0.16939002318438143
1772882903906886700,1.03188671875,6.016940906661748,-3.381910382735729,0.28763682870659973
1772882903916818700,1.041818603515625,5.470956545162201,-3.30351284558624,0.1425775291804224
1772882903926751500,1.05175146484375,5.341747396925092,-3.2018133433043956,-0.07813157968968153
1772882903936683500,1.06168359375,5.247698993918299,-3.1131533553376793,-0.42568084264323114
1772882903946616300,1.0716162109375,5.14540298704803,-2.9687805402383205,-0.7280240594312548
1772882903956548400,1.08154833984375,4.973886728957295,-2.7212702990084887,-0.8313629994831979
1772882903966481400,1.0914814453125,4.824670565479994,-2.489818335393071,-1.0634564758725464
1772882903976413400,1.101413330078125,4.614460127335787,-2.2574247070133686,-1.2029739598952234
1772882903986346500,1.111346435546875,4.452009219232202,-1.9357284088492392,-1.2268180690802633
1772882903996278500,1.121278564453125,4.141721034789085,-1.5788500304058193,-1.314740390422195
1772882904006211600,1.131211669921875,3.8590766440749165,-1.3266633217975496,-1.1804212056949734
1772882904016143600,1.1411435546875,3.228282248035073,-1.036592872735858,-0.749131729389727
1772882904026076700,1.15107666015625,2.1750772631943223,-0.23821400509625673,-0.6184416218798607
1772882904036008700,1.1610087890625,0.5879249761283397,1.1304264639481902,-0.19134104863181708
1772882904045941500,1.17094140625,-2.1622902623355387,3.061571928921342,0.32258093551155176
1772882904055873300,1.180873291015625,-5.695359759309888,4.904740712016821,0.9555798923909664
1772882904065806600,1.190806640625,-10.196501550501585,6.474183154869079,2.922865469020605
1772882904075738400,1.20073828125,-15.382331825006007,7.430769593954086,5.778056162697077
1772882904085671400,1.21067138671875,-19.754389555644988,8.176293361979722,8.199078025239706
1772882904095603500,1.220603515625,-22.550845151758192,9.432052132731675,9.47652372714281
1772882904105536500,1.23053662109375,-23.988390230202672,11.115852776169776,8.487569388416409
1772882904115468500,1.240468505859375,-24.12287936466932,12.808695973241328,6.048175418359041
1772882904125401600,1.250401611328125,-23.446138625490665,14.547795894575119,3.79006506716907
1772882904135333600,1.260333740234375,-22.67375607663393,14.55702432616949,1.315821317526698
1772882904145266400,1.270266357421875,-20.489210727870464,13.611415208172797,-0.7049468429654836
1772882904155198500,1.280198486328125,-17.260170354944467,12.067737321174144,-2.4192604058280587
1772882904165131500,1.290131591796875,-14.34972948321104,9.844064077115059,-3.723967331883311
1772882904175063600,1.3000634765625,-12.06731763445735,7.539822673869133,-4.060141068211197
1772882904184996600,1.30999658203125,-10.249779551702737,5.380743774795532,-3.474447796657681
1772882904194928400,1.319928466796875,-8.442634268146753,3.820881937976181,-2.501062198463082
1772882904204861400,1.329861328125,-6.829249223193526,2.7099834735795856,-1.1660345145545898
1772882904214793500,1.33979345703125,-5.234454312419891,1.6015674736484884,0.600057860459946
1772882904224726500,1.3497265625,-3.290741334557533,0.5592962630152702,2.503727326019108
1772882904234658600,1.359658447265625,-0.8447305767089128,-0.6429150419443845,3.6199034385576843
1772882904244591400,1.36959130859375,1.2188216634988784,-2.012615249174833,4.106975884622335
1772882904254523400,1.3795234375,2.6018817030400037,-3.1471216759130356,3.7648011543139814
1772882904264456400,1.38945654296875,3.5814462821304796,-3.681519644515216,2.314958758223802
1772882904274388500,1.399388427734375,4.603751686316729,-3.8077413013741372,0.9492778696373104
1772882904284321500,1.409321533203125,5.628736538845301,-4.09674733607471,-0.20979372883578762
1772882904294253600,1.419253662109375,6.689157446414232,-4.409288267880678,-0.7764376694664359
1772882904304186600,1.4291865234375,8.293439731979369,-4.888303371956944,-0.9916663010988384
1772882904314118700,1.43911865234375,9.407305814009904,-6.177748139211535,-1.2848768748171626
1772882904324051700,1.4490517578125,10.2329149261415,-7.024914418634772,-1.185722892299667
1772882904333983500,1.4589833984375,10.52320252508521,-7.435747966888546,-0.9414319053772836
1772882904343916500,1.46891650390625,10.487384192728996,-7.901498515722155,-0.040054517754400144
1772882904353848600,1.4788486328125,9.803619838523865,-8.036302122965454,0.06339402928501367
1772882904363781400,1.488781494140625,8.599270937013626,-7.8318311052560805,-0.09675220033908262
1772882904373713400,1.49871337890625,7.253768182450533,-7.54008863132894,-0.42649387605916705
1772882904383646500,1.508646484375,6.020051147636771,-6.684670656388998,-0.8605877787932753
1772882904393578500,1.51857861328125,5.324287143558263,-5.937630638581514,-1.1540052001953125
1772882904403511600,1.528511474609375,4.631435812056064,-5.661790082663297,-1.3483917540028691
1772882904413443600,1.538443603515625,4.482804754990339,-5.357287495884299,-1.1533519239183514
1772882904423376600,1.548376708984375,4.660702823072672,-5.353943446153402,-1.1122897726245224
1772882904433308700,1.55830859375,4.794723170983791,-5.194642526513338,-1.4527292035728692
1772882904443241500,1.568241455078125,5.068696763986349,-4.829994390851259,-1.8725863084986805
1772882904453173500,1.578173583984375,5.438250207346678,-4.476034237942099,-2.1319877707913517
1772882904463106300,1.588106201171875,5.246109094378352,-4.402055978539586,-2.3463449533514678
1772882904473038300,1.598038330078125,5.021469148865342,-4.2024499365180725,-2.4156632581189275
1772882904482971400,1.607971435546875,5.210101961451769,-3.9795992125093935,-2.2951269534200427
1772882904492903400,1.6179033203125,5.472656334817409,-4.031185022839904,-2.326096968962252
1772882904502836500,1.62783642578125,5.677672711449861,-3.6592625122606752,-1.8119103060007093
1772882904512768500,1.6377685546875,6.257911224728822,-3.7295781575024125,-1.152873858077824
1772882904522701600,1.64770166015625,6.139896255201101,-4.750070959308744,-0.7545759662702679
1772882904532633600,1.657633544921875,6.546755054605007,-4.574050960057973,0.36682832924537356
1772882904542566700,1.667566650390625,7.370327692472935,-4.482339475566149,0.7209216070149094
1772882904552498700,1.677498779296875,7.837603843438625,-4.908831780722737,0.37096024141833184
1772882904562431500,1.687431396484375,8.066658098262549,-4.677882213671505,-0.041835291090793904
1772882904572363500,1.697363525390625,7.419767722946405,-3.8040760568648575,-0.38852673163861035
1772882904582296600,1.707296630859375,5.648702637553215,-2.9803435522601007,-0.7946731449894606
1772882904592228400,1.717228271484375,3.5077322266221045,-2.166996832591295,-1.1504461925394833
1772882904602161400,1.727161376953125,1.6885224112629889,-1.1359311988443135,-1.4819129202201962
1772882904612093400,1.737093505859375,-0.22960896609723566,-0.10303864193111657,-1.3841422818198799
1772882904622026500,1.747026611328125,-2.504208679795265,1.0522829015597701,-1.0745498245559633
1772882904631958500,1.75695849609375,-4.199717881205678,1.6895634447485208,-0.9983134840283542
1772882904641891600,1.7668916015625,-5.490236999693512,1.5838438931703567,-0.46096839259099215
1772882904651823600,1.77682373046875,-7.48967829451859,1.6938605574205516,0.5646604569295421
1772882904661756400,1.78675634765625,-10.575445922541618,2.262875081373751,1.2390657023653386
1772882904671688400,1.7966884765625,-14.363853870153426,4.434042185387015,2.72241450060755
1772882904681621500,1.80662158203125,-18.166769651067256,7.789453268253803,4.089038953654468
1772882904691553500,1.816553466796875,-21.614604750609395,12.132170338118076,4.389931825503707
1772882904701486600,1.826486572265625,-21.86005016826391,16.064009436064957,3.170543175771832
1772882904711418400,1.83641845703125,-19.45034698759317,16.853187636899946,0.8942517095945774
1772882904721351700,1.8463515625,-17.277930468040704,16.64525449603796,0.4610149716790765
1772882904731283500,1.856283447265625,-15.178343037855624,15.063081166428328,0.3505930145636201
1772882904741216500,1.866216552734375,-13.178124328917264,13.32714818469286,0.16357994866613298
1772882904751148500,1.8761484375,-11.550532479435205,11.189690750318764,-0.3293948167774826
1772882904761081300,1.886081298828125,-10.166243190360069,8.984195552507042,-0.6441031557504088
1772882904771013400,1.896013427734375,-8.663410523968935,6.70273764347732,-0.7538622650429606
1772882904780946400,1.905946533203125,-6.9467001290976995,4.816911037394404,-0.23660529125798493
1772882904790878500,1.91587841796875,-5.566419491142034,3.3262709131002426,0.4553352455422282
1772882904800811500,1.9258115234375,-4.814110593020915,2.023535287117958,1.3602400127068162
1772882904810743600,1.93574365234375,-3.759891462701559,0.7791466361641883,2.352594076874107
1772882904820676600,1.945676513671875,-2.6380332128733395,-0.5640682997226715,3.199009391799569
1772882904830608600,1.955608642578125,-1.4610218156218528,-1.95172911105752,3.777888014902174
1772882904840541700,1.965541748046875,-0.15397241809368134,-2.9488369456231593,3.6790462401390074
1772882904850473500,1.975473388671875,0.9916109907150268,-3.6041479432821273,2.9120737336322664
1772882904860406300,1.98540625,1.8583494010925292,-4.360055158156157,1.3920023476704955
1772882904870338600,1.995338623046875,3.426086793592572,-4.814465397807956,-0.5142171311650425
1772882904880271400,2.005271240234375,5.26386745390892,-5.075404152670503,-2.0778481843248007
1772882904890203400,2.015203369140625,6.8690352901369325,-5.285493010261654,-2.9795421727493405
1772882904900136400,2.025136474609375,8.231669212242961,-5.625428144949674,-3.0212565774068234
1772882904910068500,2.035068359375,9.504353983354568,-6.078672263431549,-1.9260558867491782
1772882904920001500,2.04500146484375,10.408854845893382,-6.501366929870843,-0.7028288278982043
1772882904929933600,2.05493359375,11.259164684039353,-6.6889552018404,0.0773436076497659
1772882904939866600,2.06486669921875,11.813363916176558,-6.739119454935192,0.5824826389439404
1772882904949798700,2.074798583984375,11.843054121041297,-6.587378741416335,0.5857698804536834
1772882904959731500,2.0847314453125,11.270290473687648,-6.292224413219094,0.26439843032974747
1772882904969663700,2.094663818359375,10.434202053117751,-6.046504854798316,0.15259082754217088
1772882904979596500,2.104596435546875,9.340858534634112,-5.811510104009509,-0.22666480240412054
1772882904989528300,2.1145283203125,8.178395302695035,-5.538845840039849,-0.6632189212393015
1772882904999461400,2.12446142578125,7.298478846314549,-5.244101846209168,-1.2575991379216314
1772882905009393400,2.134393310546875,6.445503003829717,-5.1275855908066035,-1.6753279986470937
1772882905019326500,2.144326416015625,6.055504153811931,-5.183830040597916,-1.5007090983659028
1772882905029258500,2.154258544921875,6.231719967895746,-5.509027624881267,-1.0925444770604371
1772882905039191600,2.164191650390625,6.254345641201734,-5.932561664754152,-0.8203595210403204
1772882905049123600,2.17412353515625,6.151593122735619,-6.16602613723576,-0.22543931572977452
1772882905059056600,2.184056640625,6.108015846815705,-6.451420118919015,0.3128837904268876
1772882905068988700,2.19398876953125,6.580010258474946,-7.06223731033504,1.1789958490669727
1772882905078921500,2.20392138671875,6.844987475073337,-7.797666385325789,2.08561735702157
1772882905088853500,2.213853515625,6.147478088632226,-7.68576376119852,2.424336832309514
1772882905098786600,2.22378662109375,5.098670461967587,-6.660287325760722,1.8390877973921596
1772882905108718300,2.23371826171875,5.448170128336549,-5.946927459236979,0.7395759655371308
1772882905118651400,2.2436513671875,6.573992021098732,-5.573198776018619,-0.6021919864118099
1772882905128583400,2.25358349609375,7.565905209630727,-4.957638773989677,-1.6615084398701787
1772882905138517500,2.263517578125,7.867724840936064,-4.049558299398422,-2.3131300814919173
1772882905148449500,2.273449462890625,7.056365203431248,-3.0091397308945655,-2.744232949183881
1772882905158382600,2.283382568359375,5.206899366018176,-1.497348097500205,-3.3909421227142214
1772882905168314600,2.293314697265625,2.828632357096672,0.3802344118505716,-3.383779099217057
1772882905178247700,2.30324755859375,0.25528935079872606,2.200921898546815,-3.3566520228385923
1772882905188179700,2.3131796875,-2.4776059195518494,4.470168560779094,-2.8732199791029096
1772882905198112800,2.32311279296875,-4.952279292783141,6.360680694329738,-2.076981338362396
1772882905208044500,2.33304443359375,-7.183326865002512,7.907474667522311,-0.4500058672130108
1772882905217977600,2.3429775390625,-10.789762042438984,9.427913717752695,0.49954446269012986
1772882905227909600,2.35290966796875,-15.722088680517672,11.528894648122787,0.2688388604626059
1772882905237842400,2.362842529296875,-19.007312128436563,14.847094482970236,-0.29268041236437853
1772882905247774700,2.372774658203125,-21.179068138253687,16.10055491365194,-0.5049379192315042
1772882905257707500,2.38270751953125,-22.18040791130066,14.147569080531596,2.1807363118693233
1772882905267639600,2.3926396484375,-22.429697144901752,10.132390020596981,8.003791599982977
1772882905277572600,2.402572509765625,-20.075083983290195,6.699641431027651,12.04476677995324
1772882905287504600,2.412504638671875,-15.21831615180373,5.239889196950197,12.048770754897594
1772882905297437700,2.422437744140625,-10.967056883931159,5.57148145070672,9.48129751741588
1772882905307369700,2.43236962890625,-8.617849380755423,6.8713400599479675,6.223334416866302
1772882905317302800,2.442302734375,-6.922647053337097,8.12527278431654,3.5477930188536644
1772882905327234800,2.45223486328125,-5.193212201449275,8.428117082494497,1.2610334962844847
1772882905337167600,2.462167724609375,-3.433782024270296,8.29959182486832,-0.6132819010291248
1772882905347099600,2.472099609375,-2.0119453870892525,8.246110410049557,-1.9857775111317633
1772882905357032400,2.482032470703125,-2.2259540484726426,8.704576062572002,-3.011641484582424
1772882905366964500,2.491964599609375,-4.47782345944643,8.940100974714756,-2.8807909988790747
1772882905376897500,2.5018974609375,-8.075480871665476,8.459446286737919,-1.952882957267761
1772882905386829600,2.51182958984375,-10.947524500465393,7.759054622858763,-1.0001229446031152
1772882905396762600,2.5217626953125,-12.313873643702268,6.770757871258258,-0.5744437093950808
1772882905406694700,2.531694580078125,-11.652284880948066,4.866693013173341,-1.031969304588437
1772882905416627700,2.541627685546875,-8.469370299381017,2.8092595481067892,-1.408658445047587
1772882905426559700,2.551559814453125,-3.8956706369787453,0.36286125224530696,-1.9109378125943242
1772882905436492800,2.561492919921875,0.6712333739340305,-2.1150334211200477,-2.665556010571122
1772882905446424800,2.5714248046875,4.894026425778866,-4.5718438054025174,-3.0412381659448147
1772882905456357600,2.581357666015625,8.960223140767216,-6.798626705914735,-3.026742607602477
1772882905466289400,2.591289306640625,11.60589488569498,-8.225094510027766,-4.3062882043942805
1772882905476222500,2.601222412109375,14.24584825297594,-10.178958879548311,-3.783856860178709
1772882905486154500,2.611154541015625,16.86239736379385,-11.667415814584492,-2.5778999389499426
1772882905496087600,2.621087646484375,18.14253537352085,-11.625880858147143,-1.0424660025529562
1772882905506019600,2.63101953125,16.774761165916917,-11.544999395227432,0.023457886346429584
1772882905515952600,2.64095263671875,14.556376675915716,-10.944985337376593,-0.07188055647090077
1772882905525884700,2.650884765625,12.366502825605869,-9.528031796061992,0.04256035396233201
1772882905535817700,2.660817626953125,8.647433202636241,-8.696576295989752,0.32218671202957627
1772882905545749800,2.670749755859375,5.905567274844646,-7.868559538194536,0.7934273827120661
1772882905555682600,2.6806826171875,2.7720827868789435,-7.639684731590747,1.0635767412513495
1772882905565614600,2.690614501953125,0.4451128344744444,-7.242151978936791,1.308782797192037
1772882905575547600,2.700547607421875,-0.8549854287415742,-6.9175412546306845,1.1950475508101284
1772882905585479700,2.710479736328125,-1.066039331972599,-6.544630317535996,0.28598551783561704
1772882905595412700,2.720412841796875,-0.1601426311612129,-6.095252226832509,-1.5098470751978457
1772882905605344500,2.730344482421875,1.4980688129901885,-5.960887595528364,-3.363437737455964
1772882905615277600,2.740277587890625,3.2715567416161297,-6.2425342073768375,-4.4896290480524295
1772882905625209600,2.750209716796875,4.533274128511548,-6.797969703310728,-4.857421326959133
1772882905635142700,2.760142578125,5.039658301028609,-7.418469499829411,-4.540853331594169
1772882905645074700,2.77007470703125,5.073925312289595,-7.793910832184553,-3.992943847250938
1772882905655007500,2.780007568359375,4.8193607686340805,-8.215484970161318,-3.2525977741241454
1772882905664939500,2.789939453125,4.366888803568482,-8.402442543011903,-2.444954088402539
1772882905674872600,2.79987255859375,3.7095921850502487,-8.391569266819953,-1.7271864884391426
1772882905684804600,2.8098046875,3.2647184200286863,-8.274505898928641,-1.3691117398180066
1772882905694737700,2.819737548828125,3.051151657193899,-7.846182871213555,-1.4313143673613666
1772882905704669700,2.829669677734375,3.1394395969778297,-7.0213201935350895,-1.77358320569396
1772882905714602800,2.839602783203125,3.217883603617549,-6.170630416160821,-2.1763636497430503
1772882905724534800,2.84953466796875,2.9950509997874497,-5.749527402827144,-2.315248681081086
1772882905734467800,2.8594677734375,2.599117499023676,-5.390415273982286,-1.6215438014894723
1772882905744399600,2.869399658203125,1.7264812627792356,-4.5450598433732985,-1.1930104920245705
1772882905754332400,2.87933251953125,1.4768623588323593,-3.300293591278791,-1.007847255244851
1772882905764264700,2.8892646484375,1.0441782132983206,-2.1790759774416686,0.31754867696538563
1772882905774197500,2.899197509765625,1.555989671561122,0.13213351125121117,0.7564438059687614
1772882905784129500,2.909129638671875,2.7154876239538193,2.0190379756987094,1.4734334072969852
1772882905794062600,2.9190625,2.232428797444701,3.9895466060280795,1.147071236213669
1772882905803994600,2.92899462890625,0.4217208529710769,7.5370841888159505,0.26959932344108817
1772882905813927700,2.938927734375,-3.710318745759129,13.494171807539463,-0.9925973714038729
1772882905823859700,2.948859619140625,-11.734585563015937,20.449788233542442,-1.8380872420474885
1772882905833792800,2.958792724609375,-21.602133391571044,25.053244151782987,-1.1104640915673225
1772882905843724800,2.968724853515625,-25.71621355524063,27.351443936777112,-1.8854739932529627
1772882905853657600,2.97865771484375,-24.318142409050463,26.73641000444889,0.36228761707581575
1772882905863589600,2.988589599609375,-21.337564755773542,20.77722570570707,5.3693976203948255
1772882905873522400,2.9985224609375,-16.12119087444544,15.403355908334253,10.240317311352491
1772882905883454500,3.008454345703125,-10.899703595626354,11.553063459217547,10.461121624225378
1772882905893387500,3.018387451171875,-7.805403117057681,9.879219561648368,7.9326570395737885
1772882905903319600,3.028319580078125,-5.800977604079246,9.816063140511512,4.689245026946067
1772882905913252600,3.038252685546875,-4.268872665974498,9.70090180684924,2.652598037059605
1772882905923184600,3.0481845703125,-3.3670541743874547,8.814155796709656,1.6481969767458735
1772882905933117700,3.05811767578125,-3.5991023503303525,7.771404401344061,0.9237335324056446
1772882905943049700,3.0680498046875,-5.287883704790473,7.26867407515943,1.070477241354808
1772882905952982800,3.077982666015625,-6.9296285827875135,7.21251964173913,1.9675301990404723
1772882905962914800,3.087914794921875,-7.885258744060993,7.36843325702846,2.54806418813467
1772882905972847600,3.09784765625,-7.866683807450532,7.4048746897190805,2.186841496876627
1772882905982779600,3.107779541015625,-6.378312212610244,6.8431532453835,0.9628145198196172
1772882905992712700,3.117712646484375,-3.5493951933532952,5.981197393107414,-0.4676723106764257
1772882906002644500,3.12764453125,-0.9677660047471522,4.258509092870354,-2.378440465792268
1772882906012577500,3.13757763671875,1.4640543151855467,1.499658712530136,-3.6117844295099375
1772882906022509600,3.147509521484375,5.122233123862743,-2.164783248195052,-3.8133930435255166
1772882906032442600,3.157442626953125,9.212954623776673,-6.916147169923782,-3.1133342648625373
1772882906042374700,3.167374755859375,11.160972020834684,-9.934702379417418,-3.149422646331787
1772882906052307700,3.1773076171875,11.933711128044127,-11.541055041515827,-3.344761094036698
1772882906062239700,3.18723974609375,12.733693631488084,-13.230571139991282,-2.0725638141810894
1772882906072172500,3.197172607421875,13.362377318984269,-13.830186553913354,-0.2250780446693301
1772882906082104600,3.2071044921875,13.51239486197233,-11.518155811965466,-0.5250425496272743
1772882906092037600,3.21703759765625,11.84752337540984,-8.997706191465259,-1.8336397611193358
1772882906101969700,3.2269697265625,9.619486090922354,-7.516398543661833,-2.2449401962324975
1772882906111902700,3.23690283203125,7.696030303668976,-6.17287205760777,-1.4880243888378142
1772882906121834500,3.24683447265625,5.832603745442628,-5.08070518168807,-0.3324628991112113
1772882906131767300,3.256767333984375,3.6502713965535163,-4.365991562467813,0.20712825421988962
1772882906141699300,3.26669921875,1.5064643008917569,-4.317807669535279,0.26690745400860905
1772882906151632400,3.27663232421875,0.08978139321208,-4.276677786767483,0.2541590315945446
1772882906161564400,3.286564453125,-0.28733225626945497,-4.414923058897257,-0.062453095173090695
1772882906171497500,3.29649755859375,0.6741998225241899,-5.229657725793123,-0.4246383478529751
1772882906181429200,3.30642919921875,3.1915316032648087,-6.457572796329855,-0.5440891954027116
1772882906191362000,3.316362060546875,5.404632599905133,-7.876990681931376,-0.6911306451894342
1772882906201294000,3.326294189453125,6.745191468325257,-8.995980098325013,-0.8988108342036605
1772882906211227100,3.33622705078125,7.584201329299807,-9.598750176885723,-1.0201894349455833
1772882906221159200,3.3461591796875,8.307032204002141,-10.079839164626598,-1.0263630090139806
1772882906231092200,3.35609228515625,8.730226052135228,-10.220892479914426,-1.140265574786812
1772882906241024300,3.366024169921875,8.873634990638495,-9.326457668837904,-1.9880315736688672
1772882906250957300,3.375957275390625,8.371758650934696,-8.129838484796881,-3.2265228371471166
1772882906260889300,3.385889404296875,7.657053215020895,-7.286057171636819,-4.049121077024936
1772882906270822400,3.395822509765625,6.8279837333023545,-6.670019615224003,-4.4124733276575805
1772882906280754400,3.40575439453125,5.8788172150850295,-6.206779587906599,-4.234634588547051
1772882906290686500,3.4156865234375,4.800489479425549,-5.853252565717697,-3.3679946701079606
1772882906300619300,3.425619384765625,3.6172698751837014,-5.890623388212919,-2.31705558437258
1772882906310551000,3.435551025390625,2.786296605670452,-5.913335570758581,-1.548897521343082
1772882906320484000,3.445484130859375,2.426072131669521,-5.6118666525870555,-0.9318114787906407
1772882906330416000,3.455416015625,1.7801070545047522,-5.082390942817926,-0.8470521515242755
1772882906340349200,3.46534912109375,1.1305009904891252,-3.986030706861615,-1.9364871182620524
1772882906350281200,3.47528125,1.3329741123795509,-3.0990514724880454,-3.0619770025908943
1772882906360214300,3.48521435546875,1.4843874936401844,-2.393237783560157,-2.050188023982942
1772882906370146300,3.495146240234375,1.4647504807561635,-0.386399364221096,-0.846147750030458
1772882906380079400,3.505079345703125,1.954201638650894,2.292324755480885,1.3574312388963996
1772882906390011400,3.515011474609375,0.7093500463604927,4.5819192092150445,3.3458775308459994
1772882906399944200,3.524944091796875,-2.9770763671576974,7.444836697751283,4.416324742388725
1772882906409876200,3.534876220703125,-9.113523943209648,12.480234418725967,4.989776372006535
1772882906419809300,3.544809326171875,-16.883205174022912,18.633919545304774,5.160431629353761
1772882906429741000,3.554740966796875,-23.295240792536735,24.564001668202877,3.755316409870982
1772882906439674000,3.564674072265625,-24.535921236622332,26.23817055994272,0.6251973066851496
1772882906449606100,3.574606201171875,-21.745490892148016,22.693667230284213,0.5871237427480519
1772882906459539200,3.584539306640625,-17.21753065213561,17.348922989630697,3.6453643352895972
1772882906469471200,3.59447119140625,-13.710139786297082,13.26964642831683,6.037627720859646
1772882906479404300,3.604404296875,-11.942722117495537,10.07504491608739,6.620885874220728
1772882906489336300,3.61433642578125,-10.359840347355604,8.286231408035755,5.933917755538225
1772882906499269000,3.62426904296875,-8.883312335044145,7.560012644460797,3.9328006364554167
1772882906509201400,3.634201416015625,-7.622013465821743,7.253951722323894,1.8542869739592074
1772882906519134200,3.64413427734375,-6.521184560018778,7.209126492169499,0.7383614751808345
1772882906529066200,3.654066162109375,-6.584877572250366,7.850768445438146,0.1483326586410403
1772882906538999300,3.663999267578125,-8.041984260255099,8.495278647619486,-0.19094445052966474
1772882906548931300,3.673931396484375,-9.096786743420362,8.998461393746734,-0.4842641106456518
1772882906558864400,3.683864501953125,-8.646348914530872,9.016168899872898,-0.047726504553854465
1772882906568796200,3.693796142578125,-6.9111588601171965,7.8388044514000415,0.8397067571975291
1772882906578729200,3.703729248046875,-4.319221627986431,5.591310186770558,1.3230506842583416
1772882906588661200,3.7136611328125,-0.932786461302638,2.939111670422554,1.3055411849223078
1772882906598594300,3.72359423828125,2.6876719807893035,0.008063479468226432,1.0732998244948684
1772882906608526300,3.7335263671875,5.8030140783429145,-2.409574585855007,0.2581200441800058
1772882906618459100,3.743459228515625,8.239395422580838,-4.098502655309439,-0.8852956652007996
1772882906628391200,3.75339111328125,9.833663094609975,-5.629446732941269,-1.6621382622063159
1772882906638324200,3.76332421875,10.834138944303989,-7.4667007390350095,-2.092041690980643
1772882906648256300,3.77325634765625,11.136356635016202,-8.650673207470774,-2.0580394681356844
1772882906658189300,3.783189208984375,10.747129353892802,-9.066028032541274,-1.606818233783543
1772882906668121300,3.793121337890625,10.525275239706039,-8.757348452338576,-1.3793730215914546
1772882906678054400,3.803054443359375,10.08464861073494,-7.547520242634415,-1.4039413533978162
1772882906687986400,3.812986328125,9.298833748853205,-7.014372566354274,-0.9330981576003133
1772882906697919500,3.82291943359375,9.236452403742074,-6.162862704768776,-0.32366759823709723
1772882906707851300,3.832851318359375,10.157650718581676,-5.653477596870064,-0.43279725051969287
1772882906717784000,3.8427841796875,11.213621076482534,-5.599215845328569,-0.36057884039655325
1772882906727716000,3.852716064453125,10.31380106523633,-5.930560261803865,-0.21137612092271446
1772882906737649200,3.862649169921875,8.185611809945106,-6.105770698237419,0.12464797780141233
1772882906747581200,3.872581298828125,5.778208138388395,-6.237225579574703,0.5350257451117039
1772882906757514200,3.88251416015625,3.385194226711988,-6.666897099289297,0.9022688657030463
1772882906767446300,3.8924462890625,1.9271558108150957,-7.3384209806025025,1.2091557172700762
1772882906777379300,3.90237939453125,1.7913947567164896,-8.258439730268716,1.2846781373746692
1772882906787311400,3.912311279296875,2.842243533819914,-9.012440234738587,0.7500066125281155
1772882906797244400,3.922244384765625,4.104395805001259,-8.956326133328675,-0.5507506991185248
1772882906807176400,3.932176513671875,4.707223751229048,-8.67742385175228,-2.0360092765048146
1772882906817109200,3.942109130859375,5.075206584271788,-8.324533958423137,-3.0267344242960212
1772882906827041000,3.952041015625,5.356254061183333,-7.594383116096258,-3.9581177408024666
1772882906836974000,3.96197412109375,5.4244642585784195,-7.057135018759966,-4.684734856045246
1772882906846906000,3.971906005859375,5.0480818459808825,-6.611849750328064,-5.135616337049007
1772882906856839200,3.981839111328125,4.519512729662656,-6.061508362662792,-5.394876929566264
1772882906866771200,3.991771240234375,4.204869272619486,-6.010240532240271,-4.914263742643595
1772882906876703200,4.001703125,4.5586511463522905,-5.727551717862487,-4.275391546349227
1772882906886636300,4.01163623046875,5.000605224534869,-5.518500971147418,-3.9429344924569127
1772882906896568300,4.021568359375,5.207230205407738,-5.769952351218461,-3.5520050835907457
1772882906906501400,4.03150146484375,5.318580456349253,-5.810199021410941,-2.8782439447447654
1772882906916433400,4.041433349609375,4.869129884931445,-5.681664995956421,-2.0528997671596705
1772882906926366200,4.0513662109375,3.662732234197855,-5.253373532423376,-1.55645480485484
1772882906936298500,4.061298583984375,3.4980905380517244,-3.7915503372907637,-1.676103074672818
1772882906946231300,4.071231201171875,3.2542887959510085,-1.4329939910113811,-1.094616899420321
1772882906956163000,4.0811630859375,2.938285156470537,1.1407558425217865,-0.6790289962463081
1772882906966096100,4.09109619140625,2.8912118551284074,3.3176860401064157,1.6308623955853283
1772882906976028200,4.101028076171875,0.7519394802868365,5.6755888909131285,4.815107202842832
1772882906985961200,4.110961181640625,-3.383140801313519,8.751156611961125,7.99707193633914
1772882906995893200,4.120893310546875,-10.483737945181131,11.722301250982284,9.78119407170415
1772882907005826300,4.130826416015625,-19.561086997681855,16.613052016091345,10.174090981251
1772882907015758300,4.14075830078125,-27.454163137495517,23.483760792398453,9.032162003296612
1772882907025691400,4.15069140625,-30.4025453250885,25.870055040431023,5.715813349273801
1772882907035623400,4.16062353515625,-27.497602466249464,23.55133619902134,2.5550690984606743
1772882907045556200,4.17055615234375,-20.124803415226935,18.796935686075685,0.8527959558732807
1772882907055488300,4.18048828125,-12.324563380020857,14.147360990738868,-0.29978987904340026
1772882907065421300,4.19042138671875,-6.861452872183919,10.147433275949954,-0.8023357885718345
1772882907075353000,4.20035302734375,-3.933909474480152,6.685866003653406,-0.4169288694541901
1772882907085286100,4.2102861328125,-2.829889079159498,3.832947346562147,0.9971356724206357
1772882907095218200,4.22021826171875,-3.112208475703001,1.550426192215085,2.42952431795001
1772882907105151200,4.230151123046875,-4.313825906422734,0.7963514534652233,3.3667747729241846
1772882907115083300,4.240083251953125,-6.150699388766288,2.789240842428803,2.8183570467978716
1772882907125016300,4.250016357421875,-8.501548813930153,5.317116813537478,1.3401865279763936
1772882907134947800,4.25994775390625,-9.783861245086788,6.876161781015992,0.2518792500942945
1772882907144881000,4.269880859375,-9.856291106003523,7.373065008482336,-0.22771175417378545
1772882907154813000,4.27981298828125,-8.735847399148344,7.4527248206526036,0.2989022825539112
1772882907164745700,4.289745849609375,-6.562972029912471,7.789809242084622,0.13757175678238273
1772882907174677800,4.299677734375,-4.213296324703097,7.140867779457569,-1.1393860154733062
1772882907184610800,4.30961083984375,-1.7524854726076124,5.3478474673658605,-1.8626824618607758
1772882907194542800,4.31954296875,0.5945651447951793,2.860270188897848,-1.6136055558361113
1772882907204476000,4.329475830078125,2.7797756794691084,0.17575345726907252,-1.6345568661890924
1772882907214407700,4.33940771484375,5.266587234261632,-2.300013556417823,-1.9545519133932887
1772882907224341000,4.349341064453125,8.136137877202033,-4.14031233703494,-2.2518609354063868
1772882907234272800,4.359272705078125,11.04877772028446,-6.24200813767612,-2.1419769576251504
1772882907244205800,4.369205810546875,13.351623285257816,-8.47999515376985,-0.8370629646904766
1772882907254138600,4.379138671875,14.51267431231141,-10.062725532740354,0.6580040361352264
1772882907264070700,4.389070556640625,14.91096518985629,-10.54634842287302,1.4657374459668993
1772882907274003700,4.399003662109375,14.314509701269865,-9.914115518462657,1.6085238686576484
1772882907283935700,4.408935791015625,13.197027766829729,-8.511925246515869,1.0993899590410292
1772882907293867800,4.41886767578125,11.713610579526424,-8.01743550993204,0.7545558002650737
1772882907303800800,4.42880078125,10.472462517929076,-7.51243139359653,1.1209766446880995
1772882907313734000,4.43873388671875,9.470526532554626,-7.219076223775744,1.1759613036766647
1772882907323666000,4.448666015625,8.33981979036033,-7.194527473452687,0.47016748849302525
1772882907333599000,4.458598876953125,6.662766867616773,-6.591595482328533,-0.06947729472145438
1772882907343531000,4.468531005859375,5.318911295738816,-5.579654820290208,-0.6388491076797247
1772882907353462800,4.478462890625,4.352424809408188,-4.891565004101396,-1.4667732187554239
1772882907363395600,4.4883955078125,4.430468418553471,-4.425198369196057,-2.719766324186325
1772882907373327600,4.49832763671875,4.565170318987965,-4.6230368170231575,-3.5127506393060086
1772882907383260700,4.5082607421875,4.442199772879481,-5.099500483050942,-3.910992417012155
1772882907393192700,4.518192626953125,4.299004769387841,-5.428536038061976,-3.687743341335654
1772882907403125800,4.528125732421875,3.898298647394776,-5.82314676578939,-3.1233804425805807
1772882907413057800,4.538057861328125,3.55499958923161,-6.2567877736568445,-2.6146628586798903
1772882907422990800,4.547990966796875,3.37778658080399,-6.753176037338376,-2.3296270427845416
1772882907432923000,4.5579228515625,3.763490948498249,-7.000806397816539,-2.0015319834940133
1772882907442856000,4.56785595703125,4.481548617449403,-6.979256244787574,-1.7528091516040265
1772882907452788000,4.5777880859375,5.213909537041187,-6.701602501967549,-1.9540448406539856
1772882907462720800,4.587720703125,5.802644075986743,-6.237038532570004,-2.3062525969378647
1772882907472652800,4.59765283203125,6.151432963737845,-5.733503319743275,-2.764187065193057
1772882907482585900,4.6075859375,6.331734585830569,-5.440756052687764,-2.687838569527864
1772882907492517600,4.617517578125,6.119771166539191,-5.393576952883601,-1.801810352268815
1772882907502450700,4.62745068359375,5.007124981692433,-3.7746623308539387,-1.3049077093243597
1772882907512382700,4.6373828125,5.029514508154988,-2.418381577166915,-1.4892469163700937
1772882907522315800,4.647315673828125,4.3693730215996505,-1.8617618398845195,-0.26804595651924606
1772882907532247800,4.657247802734375,2.1862837168633935,1.6718705516695975,0.27267946153879163
1772882907542180900,4.667180908203125,-0.19817747052311896,5.762908277925849,0.19855156453251838
1772882907552113000,4.67711279296875,-2.574125681108236,8.197339657139779,0.9546770983323454
1772882907562045700,4.687045654296875,-5.7241369409829375,9.562570610001682,2.643177590024471
1772882907571977700,4.696977783203125,-10.307302350866793,9.698128835004567,5.1352439966052765
1772882907581910800,4.706910888671875,-14.953271715188025,10.338541538739204,6.9378715104758735
1772882907591842800,4.7168427734375,-16.87434966739416,11.610243728554249,7.218133974489569
1772882907601775900,4.72677587890625,-16.96478689416647,11.319993539011477,7.114662494099139
1772882907611707600,4.736707763671875,-16.57975531116724,9.44547275531888,6.952539502775669
1772882907621640700,4.746640625,-15.21283216743469,8.10240804155767,5.94940700109303
1772882907631572700,4.75657275390625,-13.325603877860306,7.477468216764927,3.890655439165234
1772882907641505800,4.766505859375,-11.622294231832027,6.824505243536829,1.461634686823189
1772882907651437800,4.776437744140625,-10.8179687307477,6.391136038348078,-0.3806482533484697
1772882907661371000,4.786370849609375,-10.789871932554245,6.436328932771087,-1.0921725750081241
1772882907671303000,4.796302978515625,-11.279113247090578,6.574242780989408,-1.516605025025457
1772882907681235700,4.806235595703125,-11.588619925767183,6.61816083317101,-1.7499787504836917
1772882907691167700,4.816167724609375,-12.054506083679199,7.133813184770942,-1.8033049747407435
1772882907701100800,4.826100830078125,-12.668417733979224,7.874836134245991,-1.9078141276158391
1772882907711032800,4.83603271484375,-12.755608526176214,8.26854085304439,-1.9925893831036983
1772882907720966000,4.8459658203125,-11.891817275166511,7.938999686598777,-1.7386562692195175
1772882907730898000,4.85589794921875,-10.400420195025205,6.799250975292921,-1.005775417406857
1772882907740831000,4.8658310546875,-8.568374278968571,6.004784020400047,0.03889335588738322
1772882907750762800,4.8757626953125,-6.709086720243096,5.416487872871756,0.8961775630906224
1772882907760695800,4.88569580078125,-4.75794739177227,4.446979992893338,1.4927183918729423
1772882907770627800,4.8956279296875,-2.1435013907134532,3.2466707221627233,1.5425589659713208
1772882907780560600,4.905560546875,0.7093114679157734,2.246377243298292,1.1538500096336006
1772882907790492700,4.91549267578125,3.3553689972907303,1.0589397291004656,0.432116282518208
1772882907800425700,4.92542578125,6.20442805634439,-0.9820008663266897,-0.15909779828339815
1772882907810357800,4.935357666015625,9.304313057047128,-3.3396967963844535,-0.10410773246735333
1772882907820290800,4.945290771484375,12.049164722651243,-5.259734299626946,0.017650076850503682
1772882907830222800,4.955222900390625,14.176799851191044,-6.479898025384545,-0.047587972865998744
1772882907840156000,4.965156005859375,15.669812549835443,-7.253602178233861,-0.44683410530909895
1772882907850088000,4.975087890625,16.405418150436876,-7.383526196742057,-0.5560005824707448
1772882907860021000,4.98502099609375,16.240052231669424,-7.158808509817719,-0.4253603785172105
1772882907869953000,4.994953125,15.19674027981162,-6.87888682206571,-0.06534297139570117
1772882907879885800,5.0048857421875,13.487622824287413,-6.405284975209832,0.362802361664921
1772882907889817600,5.014817626953125,11.397793402528762,-5.855414127665758,0.5288805203549564
1772882907899750700,5.024750732421875,9.22038506603837,-5.4894052250444885,0.4130478633023798
1772882907909682700,5.0346826171875,7.35172236072421,-5.593585730487108,0.027716128312796354
1772882907919615700,5.04461572265625,5.7513715693891045,-5.906900569275021,-0.2283595505580306
1772882907929547800,5.0545478515625,4.456173937696218,-6.135071611523628,-0.6095579851351678
1772882907939480800,5.064480712890625,3.726217156636715,-6.2491585939526555,-1.1581024063810705
1772882907949412900,5.074412841796875,3.773348910167813,-6.247194600403309,-1.8536030833482742
1772882907959346000,5.084345947265625,4.056344598537684,-6.131751527190208,-2.7665730835467577
1772882907969278000,5.09427783203125,4.332704209893942,-6.014208851349354,-3.4595015719383952
1772882907979210800,5.104210693359375,4.489856427067518,-6.019297698920965,-3.6801568317294118
1772882907989142800,5.114142822265625,4.38856404428184,-6.202360017898679,-3.571667230916023
1772882907999075800,5.124075927734375,4.144157906547188,-6.526115002158284,-3.38120018863976
1772882908009007600,5.134007568359375,4.109327416184544,-6.807567552739381,-2.9577175866931675
1772882908018940700,5.143940673828125,4.17039534060955,-6.904210648414492,-2.5565128675282
1772882908028872700,5.153872802734375,4.315339818117022,-6.884649038854241,-2.593221718983352
1772882908038805800,5.1638056640625,4.624523840710521,-6.798584620338678,-2.884651765960455
1772882908048737800,5.17373779296875,5.10804502403438,-6.614425153774023,-3.131953040614724
1772882908058670800,5.1836708984375,5.490091453742981,-6.399079690828919,-3.082909315982461
1772882908068603000,5.193602783203125,5.589737238365411,-6.1142731536448,-2.6403864980012175
1772882908078535700,5.20353564453125,5.545896927595138,-5.908241462489962,-2.118388430636376
1772882908088467700,5.2134677734375,4.874432667514681,-5.897256542617082,-1.2417134403951466
1772882908098400800,5.22340087890625,3.2120202645421028,-5.578339061516523,0.04625497069656849
1772882908108332800,5.233332763671875,1.8552397446393964,-4.3251317288130515,0.4036128032200038
1772882908118265900,5.243265869140625,2.0334610533267257,-2.770793916112184,0.7088561253637075
1772882908128198000,5.253197998046875,1.1866121692895888,0.0002951835542917251,0.7258132515139878
1772882908138130000,5.2631298828125,0.3438286349952221,3.6356326303482054,-0.7605063792325556
1772882908148063000,5.27306298828125,0.3435872274547815,6.978801486757397,-1.3318624978758393
1772882908157995000,5.2829951171875,-0.9416156644463538,9.45693932122886,-0.12209610136151314
1772882908167928000,5.292927978515625,-6.265960091149807,11.427547904801369,2.371682808225602
1772882908177860000,5.302860107421875,-14.32315127288699,11.772431017285585,5.296885341891646
1772882908187793000,5.31279296875,-21.961481082737446,9.895074133384227,9.516533081448078
1772882908197725200,5.32272509765625,-26.473824066901205,9.636257777503133,11.723428209185599
1772882908207658000,5.332657958984375,-25.120964519834516,11.413124242651461,9.06980521299243
1772882908217590000,5.342590087890625,-21.144534585011005,11.747037048310041,4.549349941782653
1772882908227523000,5.352523193359375,-15.938723014229534,11.911399927514791,0.5180867391400039
1772882908237454800,5.362454833984375,-10.52335099364519,11.898368596506119,-2.5265222184121607
1772882908247388200,5.37238818359375,-7.479051102042198,11.171028135424852,-4.2600837948411705
1772882908257320000,5.38231982421875,-7.220264556777477,9.890400296354294,-3.5894080547899008
1772882908267253000,5.3922529296875,-8.183682887709141,8.448320497089624,-0.471113537171483
1772882908277185000,5.40218505859375,-9.666900753048061,7.249336922004819,3.381000282153487
1772882908287118000,5.4121181640625,-11.160154859232902,6.813738350328802,6.1090983813554045
1772882908297050000,5.422050048828125,-11.931141569817065,7.237688569787144,6.713377695435285
1772882908306983000,5.43198291015625,-11.579228997087478,7.673141010990738,5.453887921461463
1772882908316915000,5.4419150390625,-9.572449614459275,7.491697817647457,3.6689877874612806
1772882908326848000,5.451847900390625,-6.656237758108973,6.590982903388142,2.154246510481089
1772882908336780000,5.461780029296875,-3.6724984259307383,5.29385693398118,0.7575387615986168
1772882908346713000,5.471713134765625,-1.0837491761863232,3.8122932655900716,-0.33605551677569745
1772882908356645000,5.48164501953125,0.4277262308657169,2.6342946108669043,-1.0471829480722545
1772882908366578200,5.491578125,1.367431677776575,1.5580518647879362,-1.4292581654839216
1772882908376510000,5.501510009765625,2.268674999824166,0.661396455052495,-2.040740104418993
1772882908386443000,5.511443115234375,3.377667922860384,-0.7573889778643846,-2.8865859488934276
1772882908396375000,5.521375,5.178612013688683,-2.8167525342106816,-3.3590260584935545
1772882908406307800,5.531307861328125,8.044752555924653,-5.042786662182212,-3.0761878987729547
1772882908416239900,5.541239990234375,11.394043110084533,-7.018347315204143,-2.1521303951099515
1772882908426173000,5.5511728515625,13.676559003734587,-8.110942061147094,-1.549135275621712
1772882908436105000,5.56110498046875,15.424375315487383,-8.408365503320097,-1.2020556760065257
1772882908446038000,5.5710380859375,15.971625751399992,-8.120219008058308,-0.7155722818762064
1772882908455970000,5.580969970703125,15.032783058798312,-7.78912301338613,0.22160846886262298
1772882908465903000,5.590903076171875,12.80703593107462,-7.560858447635173,1.7028836757011712
1772882908475835100,5.600835205078125,9.929952554541826,-6.927059609082341,2.810270770975947
1772882908485768200,5.610768310546875,7.192521394327282,-5.776097429844737,3.7621915563374757
1772882908495700200,5.6207001953125,4.6778456810534,-4.733977902641892,3.685247432866692
1772882908505633000,5.630633056640625,3.0046079326838253,-4.31760133330822,2.9834038166135546
1772882908515564800,5.640564697265625,2.956689412689209,-4.123559355154633,1.6053635049305854
1772882908525497900,5.650497802734375,3.65679173823297,-4.372082280558347,-0.1561675900503993
1772882908535430000,5.660429931640625,4.590355613648891,-5.001325940024852,-1.7134017087146638
1772882908545363000,5.670363037109375,5.794776995873451,-5.617646989554166,-2.498313776537776
1772882908555295000,5.680294921875,6.976702468651533,-6.503709693604708,-2.917393175089359
1772882908565228000,5.69022802734375,7.579637382385134,-7.189304770368337,-3.07636442438364
1772882908575160000,5.70016015625,7.493526202118396,-7.377015791934729,-3.1297403330013154
1772882908585093000,5.710093017578125,7.10975777092278,-7.609104299888014,-3.1631448822140693
1772882908595025200,5.720025146484375,6.677696141201257,-7.943194215679168,-3.037942047008872
1772882908604958000,5.7299580078125,5.961073473489284,-7.95223618479073,-2.779685078576207
1772882908614890000,5.739889892578125,5.305701685553789,-7.46554338569343,-2.7006822690099477
1772882908624823000,5.749822998046875,4.948407419785857,-6.983071419161558,-2.8378996593967076
1772882908634754800,5.7597548828125,4.904638420686125,-6.377901293721795,-3.153465199720859
1772882908644688000,5.76968798828125,5.014450210013985,-5.96684387358427,-3.5971219901680946
1772882908654620000,5.779619873046875,5.4344478924542665,-5.659354964470863,-3.837322492906451
1772882908664553000,5.789552978515625,5.993226853597164,-5.347409660470485,-3.9942058300107717
1772882908674485000,5.799485107421875,6.368847049650549,-4.892597854280472,-3.782071730327606
1772882908684418000,5.80941796875,5.781809962272644,-4.308104021644592,-3.3899481432408094
1772882908694350000,5.81935009765625,3.6969758645832536,-3.7246921390265224,-2.8581156412124633
1772882908704283000,5.829282958984375,2.1706647074490784,-2.056764187502861,-2.557969203816354
1772882908714215200,5.839215087890625,1.0693477258682251,-1.1473445732623337,-1.1773073114581405
1772882908724147200,5.849147216796875,-0.46004912232160566,0.9407160852581262,0.8644684196189045
1772882908734080000,5.859080078125,-1.2440291699916124,4.612254726245999,1.7336825724601745
1772882908744012000,5.869011962890625,-1.9221786069244144,7.275494861090182,2.444072191001475
1772882908753945000,5.878945068359375,-5.285198411229253,9.301793767702579,3.5577865896016356
1772882908763876900,5.888876953125,-12.536984479951858,11.155754578447342,4.879803254637122
1772882908773810000,5.898809814453125,-20.74744782255888,12.896940073883533,6.986848015090823
1772882908783742000,5.908741943359375,-26.831348049771783,14.43649006729722,9.669270989310741
1772882908793675000,5.918675048828125,-28.860029467606545,15.073715957689284,10.329661482191085
1772882908803607000,5.92860693359375,-25.777508858680722,14.699168359303474,8.200352867481111
1772882908813540000,5.9385400390625,-20.731869145154953,13.666151006966828,5.451286799052357
1772882908823472000,5.94847216796875,-15.43029652222991,12.783690126800536,2.5311887489184737
1772882908833405000,5.958405029296875,-12.017741994905471,12.292640301537514,0.32338235155493017
1772882908843337000,5.9683369140625,-10.926702661710976,11.627987475037575,-0.3129204326428473
1772882908853270000,5.97827001953125,-10.753197860151529,10.608066920161246,0.3368928443826735
1772882908863202000,5.9882021484375,-10.894008014333247,9.446351291719079,1.8468425031721591
1772882908873135000,5.998135009765625,-12.657265056324004,8.845477986690401,3.8627462724983688
1772882908883067000,6.00806689453125,-14.830727870059013,8.37863204383552,4.8581359049692745
1772882908893000200,6.018000244140625,-15.031652593463658,7.966486243939399,4.446173644946516
1772882908902932000,6.027931884765625,-12.376467754781245,7.0576154957532875,3.2664109031602737
1772882908912865000,6.037864990234375,-8.288747190248966,6.129374861186743,1.9371157715544103
1772882908922797000,6.047797119140625,-3.958667483639717,4.631855498772859,0.48122854234203694
1772882908932729900,6.057729736328125,0.2696586524128914,2.32111128950417,-1.1971562135271727
1772882908942662000,6.067661865234375,4.35820222376585,-0.17650632146298884,-2.699187646538019
1772882908952595000,6.077594970703125,8.029526929742097,-2.1617150927960873,-3.678364103093743
1772882908962527000,6.08752685546875,11.337049887752531,-4.269005352443457,-4.363268567244709
1772882908972460000,6.0974599609375,13.819607876753807,-5.780247535261512,-4.852414312452078
1772882908982392000,6.10739208984375,15.27973420484066,-7.011940955293178,-4.94884931833446
1772882908992325000,6.1173251953125,16.124048017442224,-8.593914962938427,-3.8253514846056698
1772882909002257200,6.127257080078125,16.2219741386652,-9.587301146632432,-2.396594108250737
1772882909012190200,6.137190185546875,15.048649320971965,-8.188936570453643,-1.6211065791159867
1772882909022122000,6.1471220703125,12.946074983930586,-7.170531096315384,-1.5021657269150017
1772882909032054800,6.1570546875,10.951192959845065,-6.2571162749588485,-1.2010308630034328
1772882909041986800,6.16698681640625,8.956652881065011,-5.191258729293942,-0.7519295434147119
1772882909051920000,6.176919921875,7.413208218300342,-4.4510967805624,-0.22940642926245927
1772882909061852000,6.186851806640625,6.327040290534496,-3.8506267956376075,0.14619535435140132
1772882909071785000,6.196784912109375,5.218609093034267,-3.747925715097785,0.25540800874233244
1772882909081717000,6.206717041015625,4.502579130518436,-4.115177311256527,0.2798047833740711
1772882909091650000,6.216650146484375,4.73179938955903,-4.653046755361557,0.0018608254358172416
1772882909101582000,6.22658203125,6.01098813573718,-5.472534169742465,-0.7013420964717865
1772882909111515100,6.23651513671875,7.592634226602315,-6.620800534024834,-1.4975620325118302
1772882909121447200,6.246447265625,8.258779922008515,-7.298889180681109,-2.0062530206665397
1772882909131380000,6.2563798828125,7.728964020499586,-7.508194778940081,-2.4643679600551724
1772882909141312000,6.26631201171875,6.425484298151731,-7.542108738979697,-2.9724373091802
1772882909151244800,6.276244873046875,5.10308594032228,-7.4579510308682915,-3.322638401816785
1772882909161176600,6.286176513671875,4.043048479112983,-7.668657143574952,-3.5258433451130986
1772882909171110000,6.29610986328125,3.3734459212511774,-7.923857647046447,-3.910266440825164
1772882909181041700,6.306041748046875,3.428849244043231,-7.711609565594792,-4.509896467794477
1772882909190974700,6.315974609375,3.988431338262558,-7.288744218763709,-5.079062675178051
1772882909200906800,6.32590673828125,4.387591984379291,-6.998539621928334,-5.430398909324407
1772882909210839800,6.33583984375,4.71990203101635,-6.709086720243096,-5.6707829519361255
1772882909220771800,6.345771728515625,4.996175717654824,-6.338411579376459,-5.77747280985117
1772882909230703900,6.355703857421875,5.020320563352108,-5.944470129212736,-5.770372622457146
1772882909240637000,6.365636962890625,4.884192429506778,-5.556587832957506,-5.7113096081137655
1772882909250569700,6.37556982421875,4.853604983541369,-5.363074262592196,-5.142376917225122
1772882909260501800,6.385501708984375,4.738106380748748,-5.260153401821851,-4.16189230068028
1772882909270433800,6.395433837890625,3.341180897462368,-5.202729971379042,-3.01431567222774
1772882909280366800,6.405366943359375,1.7308768673896788,-4.500415230482816,-1.8501991201236843
1772882909290298600,6.415298583984375,1.3329191673219203,-2.4247189634948967,-0.7549240490555763
1772882909300231700,6.425231689453125,0.038105566510558124,0.28248014006316663,-0.35601240926384925
1772882909310163700,6.435163818359375,-0.39508185237050053,3.856364462506771,-0.1688829869776964
1772882909320096800,6.4450966796875,-1.3945780433773993,7.198781039243936,1.6987565127685664
1772882909330028800,6.45502880859375,-4.539049789303541,10.203603491461276,3.941995458041131
1772882909339961900,6.4649619140625,-8.598323427030444,12.455697358840704,4.728493041490018
1772882909349894000,6.474893798828125,-12.443816366910934,14.379939912557601,5.803140335071086
1772882909359826700,6.48482666015625,-17.499382431167362,14.941492430067061,7.973153885135054
1772882909369758700,6.4947587890625,-23.16115380913019,13.471024740707874,12.56737961821556
1772882909379691800,6.50469189453125,-26.33442261047363,11.990528993809223,16.80795499498844
1772882909389623800,6.514623779296875,-24.41758828718662,10.756636017906665,16.76839689158201
1772882909399556900,6.524556884765625,-18.800531664741037,9.895429522693156,13.265007662600278
1772882909409489000,6.534489013671875,-12.218784791731833,9.481274136540293,8.972494593319297
1772882909419422000,6.544421875,-6.376424206906557,9.06771379367113,5.010737911492586
1772882909429353700,6.554353759765625,-2.444793198752403,8.923016568922996,1.101253122564405
1772882909439286800,6.564286865234375,-1.3039514315128327,8.468281335100531,-1.7591944687269627
1772882909449218800,6.57421875,-2.8299814336180686,8.238076741197705,-2.643770879742503
1772882909459152000,6.58415185546875,-6.572316781362891,9.23584508549869,-1.538366921108961
1772882909469084000,6.594083984375,-12.353542806267738,10.192717355787753,-0.059687283721566196
1772882909479016700,6.6040166015625,-16.883834119576214,10.72372626647353,1.9007906587198375
1772882909488948700,6.61394873046875,-17.976020284718274,10.680192245173453,4.006917427545786
1772882909498881800,6.6238818359375,-16.77308241904974,9.856374108111858,5.024589326712489
1772882909508813800,6.633813720703125,-13.623893581473826,8.975479746609926,4.850448565337062
1772882909518747000,6.643746826171875,-8.843804500520228,7.572326767110824,3.2404242289885876
1772882909528679000,6.653678955078125,-3.046148149818182,5.428913054680824,0.7950719350486993
1772882909538612000,6.663612060546875,2.603434777700901,2.6298902384281155,-1.4348466331407428
1772882909548543700,6.673543701171875,7.100372102940082,-0.12840659968256948,-2.8445710999846456
1772882909558476800,6.683476806640625,9.687376554843782,-2.4950562360465525,-3.7199960901647806
1772882909568408800,6.693408935546875,10.832055708289145,-4.487196852469444,-4.297864659442007
1772882909578341600,6.703341552734375,11.69437279509306,-5.922597904622554,-4.255345075881481
1772882909588273700,6.713273681640625,13.015032200300693,-8.110177506515383,-3.1984844911426302
1772882909598206700,6.723206787109375,14.907667317354678,-9.282575272491574,-1.9154880232445894
1772882909608138800,6.733138671875,16.47850092230439,-9.004884704792499,-0.8674695011310278
1772882909618071800,6.74307177734375,17.157931631219387,-8.184639750042557,0.2765169938750565
1772882909628003800,6.75300390625,16.535743150961398,-7.5741867157638065,0.8834287022851407
1772882909637937000,6.76293701171875,14.684080680286883,-6.505828000932931,1.394649647308886
1772882909647869000,6.772868896484375,12.202537421286106,-5.136837403276562,1.8802173878990112
1772882909657802000,6.782802001953125,9.23718656323552,-4.26083081381619,1.9062812189601361
1772882909667734000,6.792734130859375,6.071691903024911,-4.211820406931638,1.298172848111391
1772882909677666800,6.802666748046875,3.825131119853258,-4.335639094302058,1.3564670700393617
1772882909687598600,6.8125986328125,2.070895004186034,-5.408379969739913,1.7801501629941165
1772882909697531600,6.82253173828125,0.9481173014253378,-6.6603475315153595,2.304626164779812
1772882909707463700,6.832463623046875,1.5435387707889079,-7.062413835945725,1.6921487850666046
1772882909717396700,6.842396728515625,3.5728988185375927,-6.8891463502734895,-0.19956468709781766
1772882909727328800,6.852328857421875,6.115790572470426,-6.699879915958642,-2.8407290376037357
1772882909737261800,6.86226171875,7.725808771339058,-6.075889354714751,-4.899576461121439
1772882909747193900,6.87219384765625,8.285878356814385,-5.871347025334835,-6.113136843091249
1772882909757126000,6.8821259765625,8.482631932014227,-5.567592626574635,-7.0050102792471645
1772882909767059000,6.892058837890625,8.442223933780193,-5.362834024095535,-7.333422149401903
1772882909776991000,6.901990966796875,8.092885595452785,-5.269730208462477,-7.303810270470381
1772882909786923800,6.911923828125,7.215300796890259,-5.163191741716862,-6.483477637436986
1772882909796855800,6.921855712890625,5.950007889595628,-5.46122191761136,-5.306933273175359
1772882909806788600,6.93178857421875,5.168817180383205,-5.577924635496736,-3.7319393336758013
1772882909816720600,6.941720703125,5.026323018637299,-5.648881501251458,-2.3956748014487323
1772882909826653700,6.95165380859375,5.267129086053371,-5.693538389101624,-1.87392047971189
1772882909836585700,6.961585693359375,6.134747201874852,-5.514270201709866,-1.5937429175026714
1772882909846518800,6.971518798828125,7.326386843937635,-5.125436303818225,-1.3994463800661265
1772882909856450800,6.981450927734375,8.001720054405927,-5.200130602535605,-1.540701793797314
1772882909866384000,6.9913837890625,8.380165829274057,-5.515115420362353,-1.316268769033253
1772882909876316000,7.00131591796875,8.545224289527535,-5.793095326396823,-0.30909312943965195
1772882909886248700,7.011248779296875,7.628634929788112,-5.493761666688322,0.799461840570718
1772882909896181000,7.021180908203125,5.704238062292337,-4.3052433715164655,0.2748714186251163
1772882909906113800,7.03111376953125,4.12929059228301,-2.060319249635935,-0.20909166324734688
1772882909916045800,7.0410458984375,2.3665689723432064,0.9968459687590598,0.673927435323596
1772882909925979000,7.050978759765625,0.40016485472321506,4.528126828750968,1.0351374132305382
1772882909935910700,7.06091064453125,-1.7321026097923515,7.806378684091568,1.7307383357018231
1772882909945843700,7.07084375,-4.927291566520929,11.170297483062743,2.494316231334209
1772882909955775700,7.080775634765625,-9.900358211266994,12.484615994811056,3.023852731379866
1772882909965708800,7.090708740234375,-15.819816064298152,11.81496199902296,4.7455695562362665
1772882909975640800,7.100640869140625,-21.70063468233347,10.734753856444359,7.534708107334375
1772882909985574000,7.110573974609375,-24.55819619679451,10.261501553678512,9.843479555225372
1772882909995506000,7.120505859375,-22.902411687529085,9.196994253578781,9.84003321416378
1772882910005438700,7.130438720703125,-18.254292451697587,7.103472991564869,8.329614038166403
1772882910015370800,7.140370849609375,-12.379557537490129,5.684937734016776,6.286737506240606
1772882910025303800,7.1503037109375,-7.597202265170216,5.060169758659601,4.001004988631606
1772882910035235800,7.16023583984375,-5.575723910582065,5.421883594435453,2.2505070365794
1772882910045169000,7.1701689453125,-6.6375774813026185,6.944343336838483,0.540150540779531
1772882910055101000,7.180100830078125,-9.84687679644823,9.01141147621274,-0.1546688759252429
1772882910065034000,7.190033935546875,-14.114604384040831,10.183290186750888,0.0011155600264668463
1772882910074965800,7.1999658203125,-17.986966041624544,10.337477708899975,1.4372712299391626
1772882910084898800,7.20989892578125,-19.313247378367183,9.1851933411479,3.7013679620623585
1772882910094830800,7.219830810546875,-17.98326484901905,7.8481322517156595,5.485004944258928
1772882910104763600,7.229763671875,-15.068385118055343,7.331121471244097,5.766304934626818
1772882910114695700,7.23969580078125,-11.478344026058911,7.128432660776376,4.555692881068587
1772882910124628700,7.249628662109375,-7.898664753600954,6.745206081372499,2.6669091787457466
1772882910134560800,7.259560791015625,-4.614065575060248,6.570784749490023,1.202329962903261
1772882910144494600,7.26949462890625,-2.510613870662451,5.987948036411404,0.24276246218085287
1772882910154426400,7.27942626953125,-1.1555910080820322,5.073180046880245,0.011323358047008514
1772882910164359400,7.289359375,-0.01134790796637535,3.8184383442163465,0.04907821142375469
1772882910174291500,7.29929150390625,1.1318617574483156,2.4720646520376204,0.1595445191375911
1772882910184224300,7.309224365234375,2.1690607793837784,1.1330904224604368,0.21143676506876943
1772882910194156300,7.31915625,3.264794992396235,-0.49938569193184373,-0.24638839759305117
1772882910204088600,7.329088623046875,4.64587876342833,-2.61354466830492,-0.7098730473212898
1772882910214021400,7.339021484375,6.083225688952207,-5.215761886909604,-1.0388283767029642
1772882910223953400,7.348953369140625,7.735847350272536,-7.296414315000176,-1.305993604864925
1772882910233886500,7.358886474609375,9.497260225701332,-8.806464073163271,-1.6003851319961249
1772882910243818500,7.368818603515625,11.090597923403978,-9.422575863856077,-1.9522493355393409
1772882910253751600,7.37875146484375,12.2919552418828,-9.351479297369718,-2.2687274606637655
1772882910263683300,7.388683349609375,13.430363059973716,-8.470227208471298,-2.590480019059777
1772882910273616400,7.398616455078125,14.035006531190872,-6.998346729704737,-2.8706653261840342
1772882910283548400,7.40854833984375,13.656044623494147,-5.701335911110043,-2.6864894930064676
1772882910293481500,7.4184814453125,12.376210565149783,-5.016005038240552,-2.263665939490497
1772882910303413500,7.42841357421875,10.171491027885676,-4.442235428714752,-1.1657996828854083
1772882910313346300,7.43834619140625,7.82364370714724,-4.014312213972211,-0.08748013053238392
1772882910323278300,7.4482783203125,5.539648973116278,-3.850198925614357,0.35546909616738553
1772882910333211400,7.45821142578125,3.9448318505108353,-3.97216409407258,0.15301204862892626
1772882910343143400,7.468143310546875,3.2154595913410184,-4.733949845591187,-0.1710831273704767
1772882910353076500,7.478076416015625,3.3915164154708384,-5.836999934574961,-0.39747210850790143
1772882910363008500,7.488008544921875,4.219264877718687,-6.584506985372305,-0.8380671732969581
1772882910372941600,7.497941650390625,5.511716425573826,-7.001555754879116,-1.7003087106466293
1772882910382873600,7.50787353515625,6.708748866590857,-7.113050967249274,-2.8308278213143345
1772882910392806700,7.517806640625,7.660442857459187,-6.924349765601754,-3.756748488500714
1772882910402738400,7.527738525390625,8.01145000578165,-6.713281249323487,-4.1938244392529125
1772882910412671200,7.537671142578125,8.064408858031033,-6.785089178949594,-4.214846184493601
1772882910422603300,7.547603271484375,7.9693024704039095,-7.00304044047892,-3.9443800150901076
1772882910432536300,7.557536376953125,7.5666569047808645,-7.036645772960782,-3.7257670747816563
1772882910442468400,7.56746826171875,6.902672186800837,-6.885417100617289,-3.7137849605649706
1772882910452401400,7.5774013671875,6.243928876605629,-6.626556321072578,-3.565000174242258
1772882910462333400,7.58733349609375,5.648470582363009,-6.135052906823158,-3.2142268346756695
1772882910472266500,7.5972666015625,4.879405779752135,-5.724885129001736,-2.781247505587339
1772882910482198500,7.607198486328125,4.4608354997664685,-5.507995359224081,-2.292730121411383
1772882910492131600,7.617131591796875,4.135768263864517,-5.385978168317675,-1.9018667635187505
1772882910502063600,7.627063720703125,3.631716918209195,-5.364758854678273,-1.421843359182775
1772882910511996400,7.636996337890625,2.8471266296863553,-5.339875757834315,-0.5247437128111719
1772882910521928200,7.64692822265625,1.894422584992647,-4.218776801940798,-0.0735623720780015
1772882910531861500,7.656861572265625,2.710890943813324,-2.234261858090758,-0.9161553522363305
1772882910541793300,7.666793212890625,3.656353931337595,-1.01346275703907,-1.3466405264213681
1772882910551726300,7.676726318359375,4.501268632441759,0.7298603349477052,-0.8916364125296473
1772882910561658400,7.686658447265625,4.017925728294253,3.110129915863275,0.591770253379643
1772882910571590400,7.69659033203125,1.0586644192904233,5.149183090108632,2.7752599556103346
1772882910581523500,7.7065234375,-4.237376288470625,7.309840782806277,5.44621022644043
1772882910591455500,7.71645556640625,-11.007164437913895,9.19574980647564,8.899555029314756
1772882910601388500,7.726388427734375,-17.4137488052845,10.168433978402614,10.794323651266097
1772882910611320600,7.736320556640625,-20.67956378837824,10.784742168450355,10.802854163724183
1772882910621253400,7.74625341796875,-19.71852095440626,11.281936487817763,9.37657749826908
1772882910631185400,7.756185302734375,-16.100319935852287,11.392675328862666,6.3915504643678664
1772882910641118500,7.766118408203125,-12.370441334098576,11.075502061080932,3.2039880569949744
1772882910651050200,7.77605029296875,-9.545719428443908,10.138445667374134,0.6762739984497428
1772882910660983300,7.7859833984375,-7.744693504551052,9.292174290964008,-1.1527347418680787
1772882910670915300,7.795915283203125,-7.241237202179431,8.267313941597939,-1.7655536284953355
1772882910680848400,7.805848388671875,-8.870189234098792,6.962209832918644,-0.7462044437661767
1772882910690780400,7.815780517578125,-12.101439684289693,6.966724679994583,0.4617956737279892
1772882910700713500,7.82571337890625,-14.703844534420966,7.799414105775952,1.2204065946027636
1772882910710645500,7.8356455078125,-15.001108986639975,7.638127565276623,2.250614734737575
1772882910720578600,7.84557861328125,-13.558323084932566,7.541610141807794,2.7487416587799784
1772882910730510600,7.855510498046875,-12.159682614421843,8.070705912348627,2.4873636357173323
1772882910740443400,7.865443359375,-10.996805540984868,8.347666412207484,2.050480869449675
1772882910750375400,7.87537548828125,-9.244211931827664,8.296725914043188,2.0852695664972067
1772882910760308500,7.88530859375,-7.594408250537514,7.987907802152633,2.2268051123440262
1772882910770240300,7.895240234375,-6.305367972430586,7.341798932603001,2.677209038963914
1772882910780173600,7.905173583984375,-5.2335231690496204,6.39653994321823,3.383146938793361
1772882910790105300,7.915105224609375,-4.686077502825856,5.24885400917232,3.83146792165935
1772882910800038400,7.925038330078125,-3.816994575148821,4.323312696692347,3.9652494923785326
1772882910809970400,7.934970458984375,-2.271549093955755,3.5986645434349773,3.252956086042523
1772882910819903500,7.944903564453125,-0.10951309864223002,2.641607564228773,1.6683147588841616
1772882910829835500,7.95483544921875,2.1679390818774698,1.0641326215684412,-0.5256453378260135
1772882910839768300,7.964768310546875,4.409566500300169,-1.3630711444795132,-2.573471016591787
1772882910849700400,7.974700439453125,6.2131906239926815,-4.283159550002217,-3.49453547591865
1772882910859633400,7.98463330078125,7.496499080449342,-6.83990856437385,-4.063602606841922
1772882910869565400,7.9945654296875,9.019640375375747,-8.394477263221145,-4.504023484107852
1772882910879497500,8.00449755859375,10.44970357363224,-9.074695323121547,-3.5401012953072786
1772882910889430500,8.014430419921876,11.937276711571215,-8.890916964828968,-2.6257696513667703
1772882910899362300,8.0243623046875,13.50667356171608,-8.306021565654873,-2.3287927839174865
1772882910909295400,8.03429541015625,14.230711474120616,-7.913019442167878,-2.237694609018415
1772882910919227400,8.044227294921875,14.079361221224069,-6.904197788932919,-1.949028035405278
1772882910929159400,8.054159423828125,12.743337073624133,-5.975246960270405,-1.284930358570069
1772882910939092500,8.064092529296875,10.340313809108734,-5.411640432840586,-0.6816714735791086
1772882910949024500,8.0740244140625,7.56972447565794,-5.0188668574124575,-0.16262874888852238
1772882910958957300,8.083957275390626,5.073434313902259,-5.053574013656378,0.3452611520163715
1772882910968889600,8.0938896484375,2.9049247386604544,-5.865215975233912,1.1135936948299408
1772882910978822400,8.103822509765624,1.8488205252468586,-6.821963157838582,2.069027895139903
1772882910988754400,8.11375439453125,1.8949825569629668,-7.284874099332094,2.2595918219193813
1772882910998687500,8.1236875,2.8834102414667604,-7.368767603549361,1.1291000376500189
1772882911008619300,8.133619384765625,4.6018736174851655,-7.062433709689975,-0.9635716217972338
1772882911018552600,8.143552490234375,6.382323786339163,-6.688360743078589,-3.0699118872433897
1772882911028484400,8.153484375,7.757031008076667,-6.501311984813213,-4.503945158174634
1772882911038417400,8.16341748046875,8.44590116098821,-6.609212387561798,-5.3183752891659735
1772882911048349400,8.173349365234374,8.49267810973227,-6.5714014200836415,-5.322088172209263
1772882911058282500,8.183282470703125,7.730568533086776,-6.557763939875364,-4.681944056282937
1772882911068214500,8.193214599609375,6.778003604602813,-6.862763954782485,-3.9264819548279046
1772882911078147300,8.203147216796875,6.05796791357696,-7.081351760649681,-3.4345208599388597
1772882911088079400,8.213079345703125,5.6488341549783945,-7.288359603360295,-3.0416794799715277
1772882911098012400,8.223012451171876,5.28199523127377,-7.379097858905792,-2.5353531751215455
1772882911107944400,8.2329443359375,4.8494198068112135,-7.224404725322127,-2.2850623632624742
1772882911117877500,8.24287744140625,4.522828137820959,-6.821284527924656,-2.1067104139328
1772882911127809500,8.2528095703125,4.4265065291851755,-6.426128441274166,-1.8158374163165687
1772882911137742000,8.2627421875,4.101825077730417,-5.972325519865751,-1.5081059306189417
1772882911147674000,8.272674072265625,2.9647733504235743,-5.8629643969148395,-0.8976686784312129
1772882911157607200,8.282607177734375,1.4199556457400322,-4.830976387625933,-0.2974137975618243
1772882911167539200,8.292539306640625,1.9799252779722212,-2.930478282111883,-1.2143801739200948
1772882911177472000,8.302471923828126,2.906588872480392,-1.9597920060038565,-0.18976999992281196
1772882911187404000,8.312404052734376,1.8233371244221925,0.17093875046372412,1.5969327995851634
1772882911197337000,8.322337158203124,0.7549065133988857,3.9039229170173404,2.0218746604293583
1772882911207269000,8.33226904296875,-0.020591537129878996,7.1002663044780485,1.994700530038774
1772882911217202200,8.3422021484375,-1.3998083452463148,9.457729010301827,1.7564862326815722
1772882911227134200,8.35213427734375,-4.031022525754571,11.373955430823564,0.9786895498216152
1772882911237067300,8.3620673828125,-7.900697136211395,12.245689165270328,0.8352320960015058
1772882911246999000,8.3719990234375,-12.410636566364765,11.269956127166747,3.512908167955279
1772882911256932000,8.38193212890625,-15.58261006720066,8.359831481775641,7.6104907858103505
1772882911266864000,8.391864013671874,-16.054723721325395,6.429803914916515,10.3147152574718
1772882911276796200,8.401796142578124,-14.465046299695969,5.805631567364931,10.129875407427548
1772882911286729200,8.411729248046875,-11.836839484310149,6.055540978690981,6.8515434725880615
1772882911296661200,8.4216611328125,-8.971402121907472,7.3493036091446875,2.962203792196512
1772882911306594000,8.431593994140625,-6.975318320816755,8.390683716157078,-0.23339959055185316
1772882911316526000,8.441526123046875,-5.643665227907896,9.251293999043106,-2.3001874516800043
1772882911326459100,8.451459228515626,-5.307026212155819,9.623581835803389,-3.2838562512189147
1772882911336391200,8.46139111328125,-6.951253554618358,9.077202337506414,-2.631073895254731
1772882911346324200,8.47132421875,-9.055736940151453,8.27448953231573,-0.15936258669942616
1772882911356256300,8.48125634765625,-10.966620830601453,7.353372466018795,3.1051386834472416
1772882911366189300,8.491189208984375,-12.057634444832802,6.8719742661982774,5.90777969019711
1772882911376121000,8.50112109375,-11.95371814328432,7.131433011636138,7.012696157574653
1772882911386054100,8.51105419921875,-10.377697491085529,7.754866523519158,6.532732374471426
1772882911395986200,8.520986083984376,-7.809178543943166,8.242250812011957,5.0715357868045565
1772882911405919000,8.5309189453125,-4.998451845893263,8.212700892400742,3.3219010274529457
1772882911415851000,8.54085107421875,-2.547443425887823,7.407894914323091,1.9698513354644178
1772882911425784000,8.5507841796875,-1.0774994681417942,6.250787656459212,1.3029054295912383
1772882911435716000,8.560716064453125,-1.0803764848828314,5.222671520167589,1.363157069197297
1772882911445649200,8.570649169921875,-2.3431220457822084,4.417288034462929,1.9779604076400399
1772882911455581200,8.580581298828125,-3.7973335968673227,3.9571763682991263,2.625913151490688
1772882911465514200,8.59051416015625,-4.794394085159897,3.7684728285640476,2.7471546818494796
1772882911475446300,8.6004462890625,-4.7476937087833875,3.639285307636857,2.3469842741683125
1772882911485379300,8.61037939453125,-3.408427218261361,3.2060487889170646,1.2287974063292144
1772882911495311000,8.62031103515625,-1.2828572055578231,2.2463725671231747,-0.23081688058227298
1772882911505244000,8.630243896484375,1.0413491273522377,1.0831669923841953,-1.6159385288283228
1772882911515176000,8.640176025390625,3.104834147542715,-0.4756196164190769,-3.1193986794680355
1772882911525109000,8.65010888671875,4.88256687413156,-2.472460373356938,-4.331370915463567
1772882911535041000,8.660041015625,6.4180339821457855,-4.5708249837487935,-4.705020103704929
1772882911544974000,8.66997412109375,7.956313224971294,-6.460780067938566,-4.109490790052711
1772882911554906000,8.679906005859374,8.83639802365601,-8.384953063550592,-3.0719863554298876
1772882911564839200,8.689839111328125,9.207586374741792,-9.984933852529526,-1.8155054078832267
1772882911574771200,8.699771240234375,9.515683771142363,-10.570995372873544,-0.9648182608574628
1772882911584704300,8.709704345703125,9.975850382363795,-10.255466949689387,-1.0532537924185394
1772882911594636300,8.71963623046875,10.666222172009943,-9.146091749337314,-1.9148621464312074
1772882911604569000,8.729569091796876,11.065897197389601,-7.917108757308125,-2.9415090869531033
1772882911614501000,8.739501220703126,10.88954694327116,-6.778729580789804,-3.655418988575041
1772882911624434200,8.74943408203125,9.624657940602303,-6.044611003875732,-3.7082539221838116
1772882911634366000,8.759365966796874,7.773044569766521,-5.6685097463071346,-3.3424113160401583
1772882911644298000,8.769298095703125,5.7911412697196,-5.696458075940608,-2.657944366523623
1772882911654231000,8.77923095703125,3.994251422718167,-5.997092296853661,-1.9683874003916977
1772882911664163000,8.7891630859375,2.837702967780828,-6.494944787868857,-1.4267609418407081
1772882911674096000,8.79909619140625,2.441147535726428,-6.8893591162413355,-1.1181760541841388
1772882911684028200,8.809028076171876,2.9344518619179722,-6.972634196299314,-1.2250427299708126
1772882911693961200,8.818961181640624,3.698577454560995,-7.153779283478856,-1.6844401103854179
1772882911703893200,8.828893310546874,4.601061716580391,-7.395155259737372,-2.2657520981147883
1772882911713826300,8.838826416015625,5.23712265484631,-7.493675839722156,-2.880039303728938
1772882911723758300,8.84875830078125,5.642498522216082,-7.556479209637642,-3.3102944685503837
1772882911733691100,8.858691162109375,5.541608875012398,-7.387155493155121,-3.6698590173378585
1772882911743623000,8.868622802734375,5.477738168126344,-7.385920398402214,-3.6311373647555705
1772882911753556200,8.87855615234375,5.373642418357729,-7.447709038317203,-3.71604296862483
1772882911763488000,8.888488037109376,5.576160548433661,-7.226743981924653,-3.8506525146007538
1772882911773421000,8.898421142578124,5.372966126531362,-7.116878416582941,-3.875071793325245
1772882911783353000,8.90835302734375,4.7309582625597715,-6.85121146415472,-3.70974854465574
1772882911793286100,8.9182861328125,3.785180217736959,-6.634709232389927,-3.3033754829421635
1772882911803218200,8.92821826171875,2.793588516244292,-6.381891240140796,-2.5917399559929963
1772882911813151200,8.938151123046875,1.9324673612266778,-5.423552988952398,-2.367631925399601
1772882911823083300,8.948083251953125,2.8460686450660226,-3.601398936834931,-3.694414197401702
1772882911833016000,8.95801611328125,4.572126713997125,-2.3746534945994613,-3.4955130887791515
1772882911842948000,8.967947998046874,4.945384857094288,-0.7058306400626897,-2.06485075558573
1772882911852881200,8.977881103515625,5.0429906603217125,1.9752403350263832,-0.37748978931754823
1772882911862813200,8.987813232421875,4.194787439066172,3.8507156429648397,2.5002108423307536
1772882911872746200,8.997746337890625,0.9591343700021505,5.505644412183761,5.121505394110083
1772882911882678000,9.007677978515625,-4.066779483312368,8.502159639304876,6.221177531093359
1772882911892611000,9.017611083984375,-10.53163249977827,11.542378399074076,5.945244036194682
1772882911902543000,9.027543212890626,-16.261162824237346,14.245879817157983,6.253827170285582
1772882911912476200,9.03747607421875,-19.89485717999935,14.904211623942851,7.689225884351134
1772882911922408200,9.047408203125,-18.94326021976471,13.56144793895483,8.179178562027216
1772882911932341000,9.057341064453125,-14.68136732967496,11.970571078407763,6.535368568193912
1772882911942273000,9.06727294921875,-10.93889461928606,10.763877075076103,3.840405553613603
1772882911952206000,9.0772060546875,-9.301969124269485,9.432504552674294,1.1806138056576252
1772882911962138000,9.08713818359375,-8.745416607004403,8.38598123755455,0.19875702397674322
1772882911972071200,9.0970712890625,-9.035454030579327,7.659440402418374,0.09163374308049678
1772882911982003200,9.107003173828126,-9.770192785218358,7.243522098246216,0.28215573041439057
1772882911991935000,9.11693505859375,-10.46232924644947,7.414888718733191,0.7234729719981551
1772882912001868300,9.126868408203125,-10.595134957873821,7.728710337999463,0.7012488652303814
1772882912011800000,9.136800048828125,-10.000631772398949,8.048076147389411,0.8739861895486712
1772882912021733000,9.146733154296875,-9.35982977708578,8.236399163374305,0.9092597475036979
1772882912031665200,9.1566650390625,-8.749089742559194,8.262600941601395,0.5885460306361318
1772882912041598200,9.16659814453125,-7.9346245402544735,8.322371811953186,0.39274201124608515
1772882912051530200,9.1765302734375,-6.709223498365283,8.38448836864829,0.39219577554017304
1772882912061463000,9.186463134765624,-5.277380430954694,7.84774120657146,0.5395832622855902
1772882912071395000,9.19639501953125,-3.8942888272315264,6.976644016462564,1.2108318337887525
1772882912081328000,9.206328125,-3.0123773976415396,6.0180637732118365,2.0723907957017422
1772882912091260200,9.21626025390625,-2.441242228272557,4.915967623952031,2.917404865527153
1772882912101193200,9.226193115234375,-1.7786819901376962,3.744734225580096,3.5309292700752613
1772882912111125200,9.236125244140625,-0.7293705056041478,2.633274620169401,3.3565096917584536
1772882912121058300,9.246058349609376,0.7758616231441497,1.6724357843369244,2.294213053445518
1772882912130990000,9.255989990234376,2.0257237370729446,0.36851065630912777,0.751218764796853
1772882912140923400,9.26592333984375,3.2253473636269567,-1.2860305748969316,-0.3555219953984022
1772882912150855400,9.27585546875,4.513969708582759,-3.3599019645452497,-1.0554320132404564
1772882912160788500,9.28578857421875,5.979916121125221,-5.614279558947682,-1.2896996187984944
1772882912170720500,9.295720458984375,7.601549354463815,-7.499103709989786,-1.3111685232847927
1772882912180653600,9.305653564453126,9.032842386776208,-8.911692041832207,-1.5783774444580077
1772882912190585600,9.315585693359376,9.985312622714043,-9.90210008649826,-1.74460085683763
1772882912200518700,9.3255185546875,10.124592498588562,-10.08451533974409,-1.833395869360864
1772882912210450700,9.33545068359375,9.572996726948022,-9.828875860333442,-1.9669433390632272
1772882912220383700,9.3453837890625,8.969017857119441,-8.980468640938401,-2.196453520961106
1772882912230315500,9.3553154296875,7.87649792997837,-7.687663457340002,-2.5106819674625993
1772882912240248300,9.365248291015625,6.473780419287086,-7.084667753329873,-2.7532684885546566
1772882912250180600,9.3751806640625,5.685896349915862,-6.537511425441503,-2.9062618324831124
1772882912260113400,9.385113525390626,5.438614949005842,-6.23581512825489,-3.038303573797643
1772882912270045400,9.39504541015625,5.510563748407364,-6.236403741797805,-3.196219468820095
1772882912279978500,9.404978515625,5.67989331010878,-6.2488172331690786,-3.1693732552096248
1772882912289910500,9.41491064453125,5.838985555434227,-6.237491537034511,-2.9507272894144054
1772882912299843600,9.424843505859375,5.857168277856707,-6.2263324296385045,-2.7651600018784404
1772882912309775600,9.434775634765625,5.750767758277059,-6.402905386596918,-2.5453087519466875
1772882912319707600,9.444707763671875,5.932691428613662,-6.5665598252713675,-2.3448747346684335
1772882912329640700,9.454640625,6.0798833927869795,-6.904110695171356,-2.3545684456869957
1772882912339572700,9.46457275390625,6.147727679479122,-7.358115276631713,-2.3921903203338384
1772882912349505500,9.474505615234374,6.416817592093349,-7.717512067636847,-2.3332222907975315
1772882912359437600,9.4844375,6.789847187131643,-7.8334560761094085,-2.3310811871156094
1772882912369370400,9.494370361328125,6.933916635370254,-7.756194557252526,-2.5697213086694477
1772882912379302400,9.504302490234375,6.502105181017518,-7.609226464962958,-2.745997620768845
1772882912389235500,9.5142353515625,5.542487995934486,-7.413533796992898,-2.6908225537747144
1772882912399167500,9.52416748046875,4.201469693309068,-7.06516459595859,-2.513254156038165
1772882912409100500,9.5341005859375,2.7712393217921254,-6.664176149892807,-1.9623425672695038
1772882912419032600,9.544032470703126,0.9946592723697424,-6.000206629481911,-1.2511086068585515
1772882912428965600,9.553965576171874,-0.2466127078682184,-4.763106381970644,-1.2372507618978619
1772882912438897700,9.563897705078125,0.5721323637127876,-3.388449429115653,-1.7888295824036
1772882912448830700,9.573830810546875,0.862401257956028,-1.330002987614274,-1.796068009224534
1772882912458762800,9.5837626953125,0.648199704349041,1.0522095440626145,-1.3272887602195143
1772882912468695600,9.593695556640625,0.3772901750922203,4.1259272533297535,-0.3469035123959183
1772882912478627300,9.60362744140625,-0.9215437672764062,7.342786774596571,0.734769442038238
1772882912488560400,9.613560302734374,-3.1389737330317495,10.17666638469696,2.038826964274049
1772882912498492400,9.623492431640624,-6.4804457223951815,11.847939554995298,2.964190582099557
1772882912508425500,9.633425537109375,-9.560418400403856,12.219945652204752,3.775331900678575
1772882912518357500,9.643357421875,-11.497853028649091,10.06127825654149,6.005750819605589
1772882912528290600,9.65329052734375,-11.740021616590022,6.9109665524154895,8.44323632569313
1772882912538222600,9.66322265625,-8.931359449854492,4.9772132430315015,8.315107958430051
1772882912548155600,9.67315576171875,-4.944992058384418,3.2083617420345543,6.340669002914428
1772882912558087700,9.683087646484376,-2.6990245649307965,2.3432412882477043,3.9819320393711326
1772882912568020500,9.6930205078125,-2.420892098683119,2.904733600002527,1.4100485842317343
1772882912577952500,9.702952392578124,-2.752829220354557,4.124440229642391,-1.2395756977140904
1772882912587885600,9.712885498046875,-3.265854730582237,5.338372367534041,-3.3744074597597122
1772882912597817600,9.722817626953125,-4.640170322653651,6.318598625403642,-4.895798403887451
1772882912607750700,9.732750732421875,-6.840548031321168,6.845797037890553,-5.191261067381501
1772882912617682400,9.742682373046875,-8.72323283224702,6.567996580076217,-3.5967750764265656
1772882912627615500,9.752615478515626,-9.60379284722805,5.85320989561975,-1.0795540625840425
1772882912637547500,9.762547607421874,-9.044175097173452,5.222907082489132,1.3325342596575618
1772882912647479600,9.7724794921875,-7.539247504329681,4.674678156933188,2.9533316266939043
1772882912657412600,9.78241259765625,-5.483137981343269,4.3034962355881925,3.720009826429188
1772882912667344600,9.7923447265625,-3.387091000244021,4.195939531710744,3.8900826077133415
1772882912677277400,9.80227734375,-1.4289566983193158,4.112410184630751,3.7307235281452535
1772882912687209700,9.812209716796875,-0.0847270324319601,3.8521711024701593,3.24827143535763
1772882912697142500,9.822142578125,0.8148316975295543,3.399489878568053,2.3647011326447127
1772882912707074600,9.832074462890626,1.417853705024719,2.8521745607256888,1.4415183659896253
1772882912717007600,9.842007568359374,1.591090795558691,2.2412661838948726,0.9550941547006369
1772882912726939400,9.851939453125,1.1942290740340948,1.5336346318900584,1.178625846710801
1772882912736872400,9.86187255859375,0.43754502956867214,0.9599012627214193,1.879054919990897
1772882912746804500,9.871804443359375,-0.39366847844123837,0.44562136851847167,2.4259742242529985
1772882912756737500,9.881737548828125,-0.9055991791695356,0.1490682794392109,2.6149767469346523
1772882912766669600,9.891669677734376,-1.1795412079900502,0.076575290158391,2.219581298570335
1772882912776602600,9.9016025390625,-1.0954179866701363,0.03629121056497097,1.5522069381520152
1772882912786534700,9.91153466796875,-1.0362708011746407,-0.034462241572141644,0.96311700989753
1772882912796467500,9.921467529296875,-0.8311994794845581,-0.19731179360449314,0.31775778967142104
1772882912806399500,9.9313994140625,-0.3350689899563789,-0.33978725064992904,-0.4429775760114193
1772882912816332500,9.94133251953125,0.16203180590867997,-0.5900199025809765,-0.8983008388549089
1772882912826264600,9.9512646484375,0.609953852584958,-0.9346744670063256,-1.3761419307157396
1772882912836197600,9.96119775390625,1.2296622064650058,-1.3858482089549302,-1.9384590028569102
1772882912846129700,9.971129638671876,1.6233809537887571,-1.8456202679008245,-2.1253750746533275
1772882912856062700,9.981062744140624,1.5514917756199835,-2.303162960359454,-1.984740861560404
1772882912865994500,9.990994384765624,1.4538684367358683,-2.9871979481995106,-1.7380144641846418
1772882912875927600,10.000927490234375,1.3224725921094416,-3.556484274831414,-1.090842057056725
1772882912885859600,10.010859619140625,0.9789958392918109,-4.001024862375855,-0.5804246835008263
1772882912895792400,10.02079248046875,0.8161217373400926,-4.258929948630929,-0.20950871961563824
1772882912905724400,10.030724365234375,0.8614327051848173,-4.208194617649912,-0.016842413729429243
1772882912915657500,10.040657470703126,1.1126602133721113,-3.680201839914918,-0.23167612776011226
1772882912925589500,10.050589599609374,1.4223667985349893,-2.9617595555603504,-0.7207324411183595
1772882912935521500,10.060521484375,1.5072773708403109,-2.4359973133563995,-1.0064864882856608
1772882912945454600,10.07045458984375,1.243185120382905,-2.092732157462835,-1.0606573466733098
1772882912955386600,10.08038671875,1.0236796151489018,-2.0087088893860576,-1.1644473914936184
1772882912965319700,10.090319580078125,0.993259342443943,-1.851867053335905,-1.2268538710460066
1772882912975251500,10.10025146484375,0.7597510308206081,-1.9022049094319342,-1.1924687863633037
1772882912985184500,10.1101845703125,0.9753560214847325,-1.940883891916275,-0.8894473780527711
1772882912995116500,10.120116455078126,1.1228045907676218,-1.9674989271193741,-0.5794526235982775
1772882913005049300,10.13004931640625,1.0903612878024578,-1.9113287116080522,-0.3050932461485267
1772882913014981600,10.139981689453125,1.0617881042689084,-1.7448592155128717,-0.06959814462214708
1772882913024914400,10.14991455078125,0.6749287213206291,-1.298163495761156,-0.07739508210867643
1772882913034846500,10.159846435546875,0.30622341922223567,-0.7385118434369564,-0.3814879190430045
1772882913044779500,10.169779541015625,0.24545477000474927,-0.41314708589315413,-0.5419786329895258
1772882913054711600,10.179711669921875,0.35302024171054364,0.021596914780139923,-0.4264972735926509
1772882913064644600,10.18964453125,0.39807869609892366,0.4630611636191606,-0.31219314128160475
