time,seconds_elapsed,z,y,x
1772882902935985000,0.06098486328125,-1.02777099609375,0.1580963134765625,0.096832275390625
1772882902945918000,0.07091796875,-0.999786376953125,0.1610870361328125,0.1010589599609375
1772882902955850000,0.08085009765625,-0.9760589599609375,0.16461181640625,0.081085205078125
1772882902965782800,0.09078271484375,-0.9658050537109375,0.1693267822265625,0.052459716796875
1772882902975714600,0.100714599609375,-0.951904296875,0.166168212890625,0.0294189453125
1772882902985647900,0.11064794921875,-0.9632415771484375,0.141876220703125,0.0579071044921875
1772882902995579600,0.12057958984375,-0.956634521484375,0.1414947509765625,0.0548858642578125
1772882903005512700,0.1305126953125,-0.9597930908203125,0.123016357421875,0.06561279296875
1772882903015444700,0.14044482421875,-0.95697021484375,0.11572265625,0.09814453125
1772882903025377800,0.150377685546875,-0.9485626220703125,0.1102447509765625,0.1251373291015625
1772882903035309800,0.160309814453125,-0.9505767822265625,0.106109619140625,0.1471099853515625
1772882903045243000,0.170242919921875,-0.9403839111328125,0.1156158447265625,0.1432952880859375
1772882903055175000,0.1801748046875,-0.9330596923828125,0.132110595703125,0.1381378173828125
1772882903065107700,0.190107666015625,-0.9234771728515625,0.1437835693359375,0.130950927734375
1772882903075039700,0.200039794921875,-0.909515380859375,0.159698486328125,0.109466552734375
1772882903084972800,0.209972900390625,-0.8992919921875,0.1616973876953125,0.0953369140625
1772882903094904800,0.21990478515625,-0.8920135498046875,0.1567535400390625,0.09710693359375
1772882903104838000,0.229837890625,-0.896575927734375,0.162200927734375,0.094970703125
1772882903114769700,0.239769775390625,-0.908355712890625,0.1773223876953125,0.0761260986328125
1772882903124702700,0.24970263671875,-0.8978424072265625,0.209197998046875,0.038848876953125
1772882903134634500,0.259634521484375,-0.927642822265625,0.2272796630859375,-0.00347900390625
1772882903144567600,0.269567626953125,-0.9471893310546875,0.229522705078125,-0.00946044921875
1772882903154499600,0.27949951171875,-0.9541778564453125,0.2474517822265625,-0.006317138671875
1772882903164432600,0.2894326171875,-0.9512786865234375,0.245513916015625,0.0108489990234375
1772882903174364700,0.29936474609375,-0.9264068603515625,0.2346954345703125,0.030914306640625
1772882903184297500,0.30929736328125,-0.8943023681640625,0.233001708984375,0.063690185546875
1772882903194229500,0.3192294921875,-0.861572265625,0.2035064697265625,0.056243896484375
1772882903204162600,0.32916259765625,-0.7833404541015625,0.2296295166015625,0.0218353271484375
1772882903214094300,0.33909423828125,-0.7066650390625,0.2215576171875,0.0438385009765625
1772882903224027400,0.34902734375,-0.6571197509765625,0.156524658203125,0.08233642578125
1772882903233959400,0.35895947265625,-0.6155853271484375,0.12518310546875,0.0686798095703125
1772882903243892500,0.368892578125,-0.57177734375,0.1456298828125,0.0628509521484375
1772882903253824500,0.378824462890625,-0.55487060546875,0.1783905029296875,0.091339111328125
1772882903263757600,0.388757568359375,-0.55413818359375,0.1556549072265625,0.126129150390625
1772882903273689600,0.398689697265625,-0.5319671630859375,0.1654205322265625,0.1433868408203125
1772882903283622400,0.408622314453125,-0.50396728515625,0.1588897705078125,0.1540069580078125
1772882903293554400,0.418554443359375,-0.4735870361328125,0.1616363525390625,0.1467742919921875
1772882903303487500,0.428487548828125,-0.4241943359375,0.1873016357421875,0.122711181640625
1772882903313419500,0.43841943359375,-0.3983917236328125,0.206512451171875,0.0882415771484375
1772882903323352600,0.4483525390625,-0.4312744140625,0.234375,0.063140869140625
1772882903333284600,0.45828466796875,-0.473358154296875,0.2716064453125,0.0992889404296875
1772882903343217700,0.4682177734375,-0.50531005859375,0.3048858642578125,0.131378173828125
1772882903353149400,0.4781494140625,-0.52557373046875,0.339813232421875,0.1053924560546875
1772882903363082500,0.48808251953125,-0.5524444580078125,0.3535308837890625,0.1051788330078125
1772882903373014500,0.4980146484375,-0.61077880859375,0.3739776611328125,0.148193359375
1772882903382947300,0.507947265625,-0.736907958984375,0.397613525390625,0.1744384765625
1772882903392879400,0.51787939453125,-0.889984130859375,0.4121856689453125,0.17779541015625
1772882903402812400,0.5278125,-1.080474853515625,0.444610595703125,0.22222900390625
1772882903412744400,0.537744384765625,-1.32635498046875,0.48101806640625,0.2339630126953125
1772882903422677500,0.547677490234375,-1.6138916015625,0.555877685546875,0.206451416015625
1772882903432609500,0.557609619140625,-1.947418212890625,0.6627960205078125,0.20941162109375
1772882903442542600,0.56754248046875,-2.354339599609375,0.7578582763671875,0.2583160400390625
1772882903452474600,0.577474609375,-2.715087890625,0.8386688232421875,0.32147216796875
1772882903462407700,0.58740771484375,-3.0871429443359375,0.92626953125,0.273712158203125
1772882903472340500,0.597340576171875,-3.261474609375,0.998626708984375,0.1549835205078125
1772882903482272500,0.6072724609375,-3.128936767578125,0.9892425537109375,0.1753082275390625
1772882903492204500,0.61720458984375,-2.778717041015625,0.85565185546875,0.171539306640625
1772882903502137300,0.627137451171875,-2.372314453125,0.6580352783203125,0.1224822998046875
1772882903512070400,0.6370703125,-2.1607818603515625,0.404754638671875,0.10302734375
1772882903522002400,0.64700244140625,-1.93878173828125,0.2976837158203125,0.0208282470703125
1772882903531935500,0.656935546875,-1.793212890625,0.2870330810546875,-0.029754638671875
1772882903541867500,0.666867431640625,-1.7030792236328125,0.2724151611328125,-0.104400634765625
1772882903551800600,0.676800537109375,-1.62725830078125,0.3282928466796875,-0.1383514404296875
1772882903561732600,0.686732666015625,-1.5488128662109375,0.388092041015625,-0.1373748779296875
1772882903571665400,0.69666552734375,-1.4654693603515625,0.40966796875,-0.101898193359375
1772882903581597400,0.706597412109375,-1.3631744384765625,0.396392822265625,-0.076629638671875
1772882903591530500,0.716530517578125,-1.2549591064453125,0.346405029296875,-0.0362548828125
1772882903601462500,0.726462646484375,-1.07794189453125,0.307952880859375,-0.015869140625
1772882903611395600,0.7363955078125,-0.8529052734375,0.28814697265625,-0.0221099853515625
1772882903621327400,0.746327392578125,-0.6901397705078125,0.27764892578125,0.0023651123046875
1772882903631260400,0.756260498046875,-0.5781707763671875,0.30389404296875,0.016387939453125
1772882903641192400,0.7661923828125,-0.51275634765625,0.3212432861328125,0.0317840576171875
1772882903651125500,0.77612548828125,-0.5309600830078125,0.347808837890625,0.0107574462890625
1772882903661057500,0.7860576171875,-0.6297454833984375,0.378936767578125,-0.034088134765625
1772882903670990600,0.795990478515625,-0.7155609130859375,0.4049224853515625,-0.0910797119140625
1772882903680922600,0.805922607421875,-0.708160400390625,0.4250946044921875,-0.1575164794921875
1772882903690855400,0.81585546875,-0.636199951171875,0.3968505859375,-0.2298736572265625
1772882903700787500,0.825787353515625,-0.499481201171875,0.33154296875,-0.2724609375
1772882903710720500,0.835720458984375,-0.316436767578125,0.2491455078125,-0.2810821533203125
1772882903720652500,0.845652587890625,-0.1181640625,0.138336181640625,-0.237060546875
1772882903730585600,0.855585693359375,0.0289154052734375,0.0126800537109375,-0.1737060546875
1772882903740517600,0.865517578125,0.1482086181640625,-0.111907958984375,-0.0868988037109375
1772882903750450700,0.87545068359375,0.242340087890625,-0.23089599609375,-0.0394439697265625
1772882903760382500,0.885382568359375,0.3339385986328125,-0.25994873046875,-0.0313873291015625
1772882903770315500,0.8953154296875,0.387298583984375,-0.2273406982421875,-0.07342529296875
1772882903780247600,0.90524755859375,0.3746185302734375,-0.168426513671875,-0.1028594970703125
1772882903790180400,0.915180419921875,0.2970733642578125,-0.10406494140625,-0.127532958984375
1772882903800112400,0.9251123046875,0.194061279296875,-0.03973388671875,-0.1417694091796875
1772882903810045400,0.93504541015625,0.0817413330078125,-0.0048828125,-0.1346893310546875
1772882903819977500,0.9449775390625,-0.0046539306640625,0.00494384765625,-0.113372802734375
1772882903829910500,0.95491064453125,-0.0406036376953125,0.006439208984375,-0.103759765625
1772882903839842600,0.964842529296875,-0.0330657958984375,-0.0022735595703125,-0.1000823974609375
1772882903849775600,0.974775634765625,-0.015716552734375,-0.015289306640625,-0.10003662109375
1772882903859707600,0.984707763671875,-0.018310546875,-0.022918701171875,-0.0677490234375
1772882903869640700,0.994640625,-0.0533294677734375,-0.0334014892578125,-0.0249786376953125
1772882903879572500,1.004572509765625,-0.133087158203125,-0.0298919677734375,0.025909423828125
1772882903889505500,1.014505615234375,-0.225860595703125,-0.0070343017578125,0.057464599609375
1772882903899437300,1.024437255859375,-0.3075714111328125,0.016876220703125,0.0782012939453125
1772882903909370400,1.034370361328125,-0.3669586181640625,0.0272674560546875,0.072601318359375
1772882903919302400,1.044302490234375,-0.38250732421875,0.04022216796875,0.0517425537109375
1772882903929235500,1.0542353515625,-0.390106201171875,0.0534210205078125,0.016448974609375
1772882903939167500,1.06416748046875,-0.3989105224609375,0.0699615478515625,-0.0208282470703125
1772882903949100500,1.0741005859375,-0.414642333984375,0.0985260009765625,-0.0386810302734375
1772882903959032600,1.084032470703125,-0.4291534423828125,0.125335693359375,-0.0668792724609375
1772882903968965600,1.093965576171875,-0.4490203857421875,0.1510009765625,-0.0922393798828125
1772882903978897700,1.103897705078125,-0.4664764404296875,0.1823883056640625,-0.1007843017578125
1772882903988830500,1.11383056640625,-0.496490478515625,0.2177276611328125,-0.1151580810546875
1772882903998762500,1.123762451171875,-0.5279693603515625,0.2429351806640625,-0.1118011474609375
1772882904008695600,1.133695556640625,-0.584442138671875,0.2662506103515625,-0.071929931640625
1772882904018627300,1.14362744140625,-0.6914215087890625,0.3363494873046875,-0.0567169189453125
1772882904028560400,1.153560302734375,-0.84222412109375,0.4630584716796875,-0.016082763671875
1772882904038492400,1.163492431640625,-1.111663818359375,0.6491546630859375,0.047821044921875
1772882904048425500,1.173425537109375,-1.4646453857421875,0.834869384765625,0.120758056640625
1772882904058357500,1.183357421875,-1.9116668701171875,0.9889373779296875,0.3270721435546875
1772882904068290600,1.19329052734375,-2.44049072265625,1.085052490234375,0.6483612060546875
1772882904078222600,1.20322265625,-2.90606689453125,1.145843505859375,0.9356842041015625
1772882904088155400,1.2131552734375,-3.20745849609375,1.262603759765625,1.1054229736328125
1772882904098087400,1.22308740234375,-3.371826171875,1.43280029296875,1.0345458984375
1772882904108020500,1.2330205078125,-3.3975830078125,1.61993408203125,0.7705841064453125
1772882904117952500,1.242952392578125,-3.3311614990234375,1.8220672607421875,0.49951171875
1772882904127885600,1.252885498046875,-3.2522125244140625,1.87225341796875,0.201019287109375
1772882904137817600,1.262817626953125,-3.0460205078125,1.7942962646484375,-0.059234619140625
1772882904147750700,1.272750732421875,-2.7149810791015625,1.6596832275390625,-0.26995849609375
1772882904157682400,1.282682373046875,-2.4084014892578125,1.4396514892578125,-0.426483154296875
1772882904167615500,1.292615478515625,-2.169403076171875,1.2034149169921875,-0.4700164794921875
1772882904177547500,1.302547607421875,-1.98455810546875,0.9727325439453125,-0.399261474609375
1772882904187480600,1.31248046875,-1.802734375,0.8007965087890625,-0.278778076171875
1772882904197412600,1.32241259765625,-1.63568115234375,0.6797027587890625,-0.1217041015625
1772882904207345400,1.332345458984375,-1.47344970703125,0.570037841796875,0.0719146728515625
1772882904217277400,1.34227734375,-1.280242919921875,0.4702301025390625,0.2758026123046875
1772882904227210500,1.35221044921875,-1.02764892578125,0.363525390625,0.4013519287109375
1772882904237142500,1.362142578125,-0.8017425537109375,0.23907470703125,0.4493408203125
1772882904247075600,1.37207568359375,-0.6433868408203125,0.13739013671875,0.424835205078125
1772882904257007600,1.382007568359375,-0.533294677734375,0.0912017822265625,0.277923583984375
1772882904266940700,1.391940673828125,-0.421417236328125,0.093719482421875,0.1312408447265625
1772882904276872400,1.40187255859375,-0.308197021484375,0.0802764892578125,0.0074920654296875
1772882904286805500,1.411805419921875,-0.19659423828125,0.0551605224609375,-0.0612335205078125
1772882904296737500,1.421737548828125,-0.033538818359375,0.0290069580078125,-0.0827484130859375
1772882904306670300,1.43167041015625,0.09466552734375,-0.093841552734375,-0.11785888671875
1772882904316602400,1.441602294921875,0.187042236328125,-0.179229736328125,-0.111236572265625
1772882904326535400,1.451535400390625,0.2295379638671875,-0.2156219482421875,-0.0964813232421875
1772882904336467500,1.461467529296875,0.2336883544921875,-0.255157470703125,-0.000335693359375
1772882904346400500,1.471400390625,0.1820068359375,-0.26556396484375,0.0261383056640625
1772882904356332500,1.48133251953125,0.0634613037109375,-0.2420501708984375,0.0229034423828125
1772882904366265600,1.491265625,-0.06475830078125,-0.209197998046875,0.002685546875
1772882904376197600,1.50119775390625,-0.19598388671875,-0.12738037109375,-0.029449462890625
1772882904386130700,1.511130615234375,-0.2671356201171875,-0.0415496826171875,-0.0467376708984375
1772882904396062700,1.521062744140625,-0.3403167724609375,-0.013702392578125,-0.059844970703125
1772882904405995500,1.53099560546875,-0.364166259765625,0.017059326171875,-0.0318756103515625
1772882904415927300,1.54092724609375,-0.3481597900390625,0.0162811279296875,-0.011627197265625
1772882904425860400,1.5508603515625,-0.3350372314453125,0.02593994140625,-0.0368499755859375
1772882904435792400,1.56079248046875,-0.310272216796875,0.06103515625,-0.07659912109375
1772882904445725400,1.570725341796875,-0.2707977294921875,0.0985260009765625,-0.1035919189453125
1772882904455657500,1.580657470703125,-0.283935546875,0.1064910888671875,-0.1263885498046875
1772882904465590500,1.590590576171875,-0.3128814697265625,0.1213226318359375,-0.1390380859375
1772882904475522600,1.6005224609375,-0.300079345703125,0.1436614990234375,-0.1316375732421875
1772882904485455600,1.61045556640625,-0.2769012451171875,0.1355743408203125,-0.1349029541015625
1772882904495387600,1.6203876953125,-0.2620086669921875,0.157196044921875,-0.0980072021484375
1772882904505320400,1.630320556640625,-0.206298828125,0.163818359375,-0.0288543701171875
1772882904515252500,1.64025244140625,-0.220855712890625,0.0457305908203125,-0.0017242431640625
1772882904525185500,1.650185546875,-0.196197509765625,0.0416717529296875,0.0990142822265625
1772882904535117600,1.66011767578125,-0.1170654296875,0.0518341064453125,0.1363067626953125
1772882904545050600,1.670050537109375,-0.0706634521484375,0.002655029296875,0.09228515625
1772882904554982400,1.679982421875,-0.04486083984375,0.0112152099609375,0.0341339111328125
1772882904564915500,1.68991552734375,-0.0985870361328125,0.0928802490234375,-0.0139923095703125
1772882904574847500,1.699847412109375,-0.269500732421875,0.1745452880859375,-0.0678558349609375
1772882904584780500,1.709780517578125,-0.4923858642578125,0.2498016357421875,-0.1185302734375
1772882904594712600,1.719712646484375,-0.6859283447265625,0.3458099365234375,-0.1635589599609375
1772882904604645400,1.729645263671875,-0.8804168701171875,0.4418487548828125,-0.17083740234375
1772882904614577400,1.739577392578125,-1.118865966796875,0.5478515625,-0.1395721435546875
1772882904624510500,1.749510498046875,-1.3054351806640625,0.614593505859375,-0.133544921875
1772882904634442500,1.7594423828125,-1.4419097900390625,0.5997772216796875,-0.0786285400390625
1772882904644375600,1.76937548828125,-1.63348388671875,0.598388671875,0.040130615234375
1772882904654307600,1.7793076171875,-1.9360504150390625,0.6508941650390625,0.1420745849609375
1772882904664240600,1.78924072265625,-2.3137359619140625,0.849578857421875,0.3087615966796875
1772882904674172400,1.79917236328125,-2.696258544921875,1.1908416748046875,0.490753173828125
1772882904684105500,1.80910546875,-3.05889892578125,1.6248626708984375,0.5473785400390625
1772882904694037500,1.81903759765625,-3.132049560546875,2.0691680908203125,0.4460296630859375
1772882904703970600,1.828970458984375,-2.8926239013671875,2.1891326904296875,0.1817169189453125
1772882904713902600,1.838902587890625,-2.6584930419921875,2.19775390625,0.0895233154296875
1772882904723835400,1.84883544921875,-2.4393157958984375,2.0609130859375,0.05230712890625
1772882904733768400,1.8587685546875,-2.22650146484375,1.8952484130859375,0.01800537109375
1772882904743700500,1.868700439453125,-2.0511322021484375,1.687774658203125,-0.0355682373046875
1772882904753632500,1.878632568359375,-1.9063873291015625,1.4668731689453125,-0.0629425048828125
1772882904763565600,1.888565673828125,-1.7549285888671875,1.234619140625,-0.0602569580078125
1772882904773498600,1.89849853515625,-1.580230712890625,1.0366668701171875,0.0081024169921875
1772882904783430700,1.9084306640625,-1.428985595703125,0.8822479248046875,0.1030120849609375
1772882904793363500,1.918363525390625,-1.3447418212890625,0.751068115234375,0.211883544921875
1772882904803295500,1.92829541015625,-1.238128662109375,0.630096435546875,0.3282012939453125
1772882904813228500,1.938228515625,-1.116790771484375,0.502197265625,0.4219818115234375
1772882904823160300,1.948160400390625,-0.9925079345703125,0.36810302734375,0.486053466796875
1772882904833093400,1.95809326171875,-0.8547515869140625,0.270416259765625,0.480560302734375
1772882904843025400,1.968025390625,-0.725372314453125,0.2118377685546875,0.4038238525390625
1772882904852957400,1.97795751953125,-0.6365509033203125,0.14190673828125,0.2491455078125
1772882904862890500,1.987890380859375,-0.481964111328125,0.09588623046875,0.0486602783203125
1772882904872823600,1.997823486328125,-0.2928924560546875,0.07135009765625,-0.1256103515625
1772882904882755600,2.007755615234375,-0.124908447265625,0.0507659912109375,-0.2318878173828125
1772882904892688600,2.017688720703125,0.0146484375,0.0188751220703125,-0.2545623779296875
1772882904902620700,2.02762060546875,0.146453857421875,-0.0287933349609375,-0.15960693359375
1772882904912553500,2.037553466796875,0.2402801513671875,-0.074554443359375,-0.0321197509765625
1772882904922485500,2.047485595703125,0.3280487060546875,-0.0972442626953125,0.048431396484375
1772882904932418600,2.05741845703125,0.390228271484375,-0.101043701171875,0.0999298095703125
1772882904942350600,2.0673505859375,0.4046478271484375,-0.085540771484375,0.1060638427734375
1772882904952282400,2.077282470703125,0.355255126953125,-0.050323486328125,0.070587158203125
1772882904962215400,2.08721533203125,0.2767181396484375,-0.0189971923828125,0.0595245361328125
1772882904972147500,2.0971474609375,0.172576904296875,0.0100860595703125,0.0279998779296875
1772882904982080500,2.10708056640625,0.0557708740234375,0.0415191650390625,-0.0117645263671875
1772882904992013600,2.117013671875,-0.0331268310546875,0.07550048828125,-0.06536865234375
1772882905001945600,2.126945556640625,-0.118743896484375,0.0922393798828125,-0.109466552734375
1772882905011877600,2.136877685546875,-0.1674957275390625,0.088897705078125,-0.09735107421875
1772882905021810400,2.146810546875,-0.1522064208984375,0.0592193603515625,-0.0547637939453125
1772882905031742500,2.156742431640625,-0.1474151611328125,0.014434814453125,-0.029815673828125
1772882905041675500,2.166675537109375,-0.157684326171875,-0.01239013671875,0.0248870849609375
1772882905051608600,2.176608642578125,-0.1685028076171875,-0.0384979248046875,0.0776214599609375
1772882905061540600,2.18654052734375,-0.121002197265625,-0.094207763671875,0.1558837890625
1772882905071472400,2.196472412109375,-0.085540771484375,-0.1667327880859375,0.2433319091796875
1772882905081405400,2.206405517578125,-0.1374359130859375,-0.1692352294921875,0.2834625244140625
1772882905091337500,2.21633740234375,-0.2542266845703125,-0.066741943359375,0.2248992919921875
1772882905101270500,2.2262705078125,-0.2371978759765625,0.0105133056640625,0.1188812255859375
1772882905111202600,2.23620263671875,-0.1267547607421875,0.0498504638671875,-0.01885986328125
1772882905121135400,2.24613525390625,-0.0199432373046875,0.1065216064453125,-0.12945556640625
1772882905131068700,2.256068603515625,0.02337646484375,0.201141357421875,-0.197784423828125
1772882905141001700,2.266001708984375,-0.0386962890625,0.3084869384765625,-0.235321044921875
1772882905150933800,2.275933837890625,-0.2123260498046875,0.4609832763671875,-0.299713134765625
1772882905160866800,2.28586669921875,-0.4432220458984375,0.6604156494140625,-0.3022003173828125
1772882905170798600,2.295798583984375,-0.69659423828125,0.8510589599609375,-0.3006744384765625
1772882905180731600,2.305731689453125,-0.967132568359375,1.0885162353515625,-0.2564697265625
1772882905190663700,2.31566357421875,-1.2161102294921875,1.2985992431640625,-0.182708740234375
1772882905200596500,2.325596435546875,-1.4313201904296875,1.46893310546875,-0.016143798828125
1772882905210528500,2.335528564453125,-1.7602691650390625,1.635986328125,0.1078338623046875
1772882905220461600,2.345461669921875,-2.254425048828125,1.840118408203125,0.1149139404296875
1772882905230393600,2.3553935546875,-2.6053466796875,2.1822509765625,0.071563720703125
1772882905240326700,2.36532666015625,-2.835601806640625,2.3552703857421875,0.0456085205078125
1772882905250259700,2.375259765625,-2.9498748779296875,2.192352294921875,0.2635955810546875
1772882905260191700,2.385191650390625,-2.994384765625,1.79412841796875,0.836578369140625
1772882905270123800,2.395123779296875,-2.802459716796875,1.4177093505859375,1.290130615234375
1772882905280056800,2.405056884765625,-2.326446533203125,1.2406158447265625,1.3349151611328125
1772882905289988600,2.414988525390625,-1.8706817626953125,1.2565460205078125,1.0929412841796875
1772882905299921700,2.424921630859375,-1.6085662841796875,1.383392333984375,0.7559814453125
1772882905309854700,2.434854736328125,-1.4300689697265625,1.5256805419921875,0.4749603271484375
1772882905319786500,2.444786376953125,-1.2458038330078125,1.5730743408203125,0.244110107421875
1772882905329718500,2.454718505859375,-1.0540618896484375,1.574066162109375,0.0564117431640625
1772882905339651600,2.464651611328125,-0.8799285888671875,1.578704833984375,-0.072662353515625
1772882905349584600,2.474584716796875,-0.848876953125,1.64093017578125,-0.17535400390625
1772882905359516700,2.4845166015625,-1.0277557373046875,1.69403076171875,-0.1696014404296875
1772882905369448700,2.49444873046875,-1.3614044189453125,1.67059326171875,-0.0711517333984375
1772882905379381800,2.5043818359375,-1.6549224853515625,1.609375,0.0339508056640625
1772882905389313800,2.514313720703125,-1.8058624267578125,1.5231781005859375,0.0959014892578125
1772882905399246600,2.52424658203125,-1.7739105224609375,1.3343048095703125,0.0599822998046875
1772882905409179600,2.5341796875,-1.4856719970703125,1.1174468994140625,0.0246734619140625
1772882905419111700,2.544111572265625,-1.042449951171875,0.8634033203125,-0.017333984375
1772882905429043500,2.55404345703125,-0.58563232421875,0.596343994140625,-0.0908966064453125
1772882905438976500,2.5639765625,-0.1683197021484375,0.3386993408203125,-0.138397216796875
1772882905448909600,2.57390966796875,0.24884033203125,0.0928955078125,-0.125152587890625
1772882905458841600,2.583841552734375,0.522003173828125,-0.0612335205078125,-0.2563323974609375
1772882905468773600,2.593773681640625,0.7885589599609375,-0.2529449462890625,-0.2313690185546875
1772882905478706700,2.603706787109375,1.0620269775390625,-0.422821044921875,-0.10504150390625
1772882905488638700,2.613638671875,1.2337188720703125,-0.418426513671875,0.0484466552734375
1772882905498571500,2.623571533203125,1.137481689453125,-0.400146484375,0.17071533203125
1772882905508503600,2.633503662109375,0.9160308837890625,-0.3432159423828125,0.1721954345703125
1772882905518436600,2.6434365234375,0.729461669921875,-0.1832733154296875,0.1707305908203125
1772882905528368600,2.65336865234375,0.3689117431640625,-0.0847015380859375,0.19879150390625
1772882905538301700,2.6633017578125,0.098052978515625,0.015625,0.245391845703125
1772882905548233700,2.673233642578125,-0.203643798828125,0.0517730712890625,0.2789306640625
1772882905558166800,2.683166748046875,-0.44525146484375,0.09552001953125,0.30572509765625
1772882905568098600,2.6930986328125,-0.5839691162109375,0.134735107421875,0.3013458251953125
1772882905578031600,2.703031494140625,-0.618560791015625,0.1705169677734375,0.2211456298828125
1772882905587963600,2.712963623046875,-0.54168701171875,0.2173614501953125,0.0458984375
1772882905597896400,2.722896484375,-0.3824615478515625,0.2335662841796875,-0.1477813720703125
1772882905607828700,2.732828857421875,-0.2007598876953125,0.208404541015625,-0.2745819091796875
1772882905617761500,2.742761474609375,-0.0666046142578125,0.15484619140625,-0.3236541748046875
1772882905627693600,2.752693603515625,-0.005218505859375,0.0894012451171875,-0.3014678955078125
1772882905637626600,2.762626708984375,0.0028228759765625,0.0518341064453125,-0.2539215087890625
1772882905647558700,2.77255859375,-0.0195465087890625,0.0097808837890625,-0.185516357421875
1772882905657491700,2.78249169921875,-0.063140869140625,-0.0127716064453125,-0.10784912109375
1772882905667423700,2.792423828125,-0.132568359375,-0.0137481689453125,-0.0354461669921875
1772882905677356800,2.802356689453125,-0.1844482421875,-0.0067138671875,0.0037994384765625
1772882905687288600,2.81228857421875,-0.215087890625,0.0298614501953125,0.0021209716796875
1772882905697221600,2.8222216796875,-0.214569091796875,0.1060333251953125,-0.0334625244140625
1772882905707153700,2.832153564453125,-0.209503173828125,0.1937713623046875,-0.07708740234375
1772882905717086500,2.84208642578125,-0.2354278564453125,0.23760986328125,-0.102874755859375
1772882905727018500,2.8520185546875,-0.2769622802734375,0.2701416015625,-0.046234130859375
1772882905736951600,2.86195166015625,-0.3710479736328125,0.3419189453125,0.006683349609375
1772882905746883600,2.871883544921875,-0.4141693115234375,0.4658966064453125,0.006866455078125
1772882905756816600,2.881816650390625,-0.4616546630859375,0.56744384765625,0.1293487548828125
1772882905766748700,2.891748779296875,-0.4403533935546875,0.789825439453125,0.171875
1772882905776681700,2.901681640625,-0.3113861083984375,0.993988037109375,0.230133056640625
1772882905786613800,2.91161376953125,-0.328369140625,1.1946563720703125,0.2061920166015625
1772882905796546800,2.921546875,-0.4742279052734375,1.5414886474609375,0.1166534423828125
1772882905806478800,2.931478759765625,-0.8236846923828125,2.139923095703125,0.0039520263671875
1772882905816411600,2.94141162109375,-1.5698394775390625,2.8659210205078125,-0.089508056640625
1772882905826343400,2.951343505859375,-2.5839996337890625,3.3791656494140625,0.004302978515625
1772882905836276500,2.9612763671875,-3.114776611328125,3.6144256591796875,-0.0754852294921875
1772882905846208500,2.97120849609375,-3.0371551513671875,3.620269775390625,0.118133544921875
1772882905856141600,2.9811416015625,-2.7746124267578125,3.0230255126953125,0.5827789306640625
1772882905866073600,2.991073486328125,-2.2863616943359375,2.4493408203125,1.1115264892578125
1772882905876006700,3.001006591796875,-1.7485198974609375,2.02301025390625,1.1821136474609375
1772882905885938700,3.010938720703125,-1.4171295166015625,1.8186187744140625,0.941864013671875
1772882905895871700,3.020871826171875,-1.2132110595703125,1.793304443359375,0.6051025390625
1772882905905803800,3.0308037109375,-1.0554962158203125,1.7874755859375,0.378326416015625
1772882905915736600,3.040736572265625,-0.954345703125,1.7038421630859375,0.2726898193359375
1772882905925668600,3.050668701171875,-0.9524383544921875,1.6002655029296875,0.20208740234375
1772882905935601700,3.0606015625,-1.10089111328125,1.5452117919921875,0.210723876953125
1772882905945533400,3.070533447265625,-1.266448974609375,1.544647216796875,0.3089752197265625
1772882905955466800,3.080466796875,-1.3612060546875,1.56182861328125,0.3877410888671875
1772882905965398500,3.0903984375,-1.3722381591796875,1.573455810546875,0.37591552734375
1772882905975331600,3.10033154296875,-1.2419891357421875,1.51849365234375,0.27081298828125
1772882905985263600,3.110263671875,-0.970947265625,1.4273834228515625,0.140045166015625
1772882905995196700,3.12019677734375,-0.7106475830078125,1.2567901611328125,-0.043243408203125
1772882906005128700,3.130128662109375,-0.485382080078125,0.9716796875,-0.179412841796875
1772882906015061500,3.1400615234375,-0.14471435546875,0.6071014404296875,-0.21881103515625
1772882906024993500,3.14999365234375,0.2746429443359375,0.1171112060546875,-0.1606597900390625
1772882906034926600,3.159926513671875,0.496307373046875,-0.2242584228515625,-0.163848876953125
1772882906044858600,3.169858642578125,0.5741424560546875,-0.39532470703125,-0.2032012939453125
1772882906054791700,3.179791748046875,0.6553955078125,-0.5673980712890625,-0.0976409912109375
1772882906064723700,3.1897236328125,0.7235565185546875,-0.652374267578125,0.0961151123046875
1772882906074656800,3.19965673828125,0.7583770751953125,-0.45147705078125,0.0992584228515625
1772882906084588500,3.209588623046875,0.6158447265625,-0.16485595703125,-0.039794921875
1772882906094521600,3.219521484375,0.3940277099609375,-0.00799560546875,-0.098876953125
1772882906104453600,3.22945361328125,0.205291748046875,0.14385986328125,-0.03582763671875
1772882906114386400,3.239386474609375,0.02349853515625,0.2599639892578125,0.084747314453125
1772882906124318700,3.249318603515625,-0.1861572265625,0.349334716796875,0.151458740234375
1772882906134251300,3.259251220703125,-0.405120849609375,0.3608245849609375,0.1647186279296875
1772882906144183000,3.26918310546875,-0.560211181640625,0.3636932373046875,0.1696319580078125
1772882906154116000,3.2791162109375,-0.6159210205078125,0.3513641357421875,0.148162841796875
1772882906164048100,3.289048095703125,-0.54547119140625,0.2727508544921875,0.1120147705078125
1772882906173981200,3.298981201171875,-0.3078460693359375,0.1437225341796875,0.1020355224609375
1772882906183913200,3.308913330078125,-0.075347900390625,-0.004241943359375,0.08941650390625
1772882906193846300,3.31884619140625,0.0652008056640625,-0.129180908203125,0.0686492919921875
1772882906203778300,3.3287783203125,0.1518402099609375,-0.198150634765625,0.0576934814453125
1772882906213711400,3.33871142578125,0.2252044677734375,-0.2512664794921875,0.0608978271484375
1772882906223643400,3.348643310546875,0.2713165283203125,-0.2754058837890625,0.06103515625
1772882906233576200,3.358576171875,0.2918548583984375,-0.1979522705078125,-0.0098724365234375
1772882906243508200,3.36850830078125,0.251007080078125,-0.071990966796875,-0.1313934326171875
1772882906253441300,3.378441162109375,0.1792449951171875,0.017486572265625,-0.21966552734375
1772882906263373300,3.388373291015625,0.099151611328125,0.0844268798828125,-0.2608489990234375
1772882906273306400,3.398306396484375,0.0047607421875,0.1337432861328125,-0.2510986328125
1772882906283238100,3.408238037109375,-0.1010284423828125,0.1746063232421875,-0.17144775390625
1772882906293171200,3.418171142578125,-0.2233734130859375,0.1740570068359375,-0.0622406005859375
1772882906303103200,3.428103271484375,-0.316619873046875,0.168182373046875,0.0194091796875
1772882906313036300,3.438036376953125,-0.35809326171875,0.19171142578125,0.08697509765625
1772882906322968300,3.44796826171875,-0.424957275390625,0.2394256591796875,0.1058807373046875
1772882906332901000,3.457901123046875,-0.4981689453125,0.3376007080078125,0.0120086669921875
1772882906342833400,3.46783349609375,-0.4998626708984375,0.4346160888671875,-0.1302642822265625
1772882906352766200,3.47776611328125,-0.477447509765625,0.495513916015625,-0.052642822265625
1772882906362698200,3.4876982421875,-0.491546630859375,0.6849212646484375,0.0513153076171875
1772882906372631300,3.49763134765625,-0.4347991943359375,0.9609527587890625,0.254241943359375
1772882906382563300,3.507563232421875,-0.52032470703125,1.2095489501953125,0.4657745361328125
1772882906392496400,3.517496337890625,-0.8472137451171875,1.494140625,0.5922088623046875
1772882906402428200,3.52742822265625,-1.4222412109375,1.9950714111328125,0.67230224609375
1772882906412361200,3.537361328125,-2.1849365234375,2.6220245361328125,0.7110443115234375
1772882906422293200,3.547293212890625,-2.881988525390625,3.248809814453125,0.607666015625
1772882906432226300,3.557226318359375,-3.082366943359375,3.4866485595703125,0.28271484375
1772882906442158300,3.567158447265625,-2.85052490234375,3.1739501953125,0.2064971923828125
1772882906452091100,3.577091064453125,-2.405181884765625,2.6222686767578125,0.4837188720703125
1772882906462023200,3.587023193359375,-2.0325469970703125,2.1871337890625,0.73004150390625
1772882906471956200,3.596956298828125,-1.8459930419921875,1.8448333740234375,0.79913330078125
1772882906481888300,3.60688818359375,-1.6919708251953125,1.6393280029296875,0.74188232421875
1772882906491821300,3.6168212890625,-1.543853759765625,1.54925537109375,0.55889892578125
1772882906501753300,3.62675341796875,-1.41680908203125,1.511871337890625,0.352325439453125
1772882906511686400,3.636686279296875,-1.2997283935546875,1.497802734375,0.2409210205078125
1772882906521618400,3.646618408203125,-1.2801513671875,1.557525634765625,0.186431884765625
1772882906531551500,3.656551513671875,-1.4149322509765625,1.628082275390625,0.157440185546875
1772882906541483300,3.666483154296875,-1.535064697265625,1.682159423828125,0.1283721923828125
1772882906551416000,3.676416015625,-1.5110626220703125,1.6915740966796875,0.1649169921875
1772882906561348000,3.68634814453125,-1.3516693115234375,1.586517333984375,0.25531005859375
1772882906571281200,3.69628125,-1.10675048828125,1.357696533203125,0.3131561279296875
1772882906581213200,3.706213134765625,-0.7781219482421875,1.0855560302734375,0.313720703125
1772882906591146200,3.716146240234375,-0.41729736328125,0.779510498046875,0.29486083984375
1772882906601078300,3.726078369140625,-0.0977783203125,0.5156707763671875,0.218994140625
1772882906611011300,3.73601123046875,0.15118408203125,0.330596923828125,0.1004638671875
1772882906620943400,3.745943359375,0.320526123046875,0.1710968017578125,0.0133056640625
1772882906630876400,3.75587646484375,0.4226226806640625,-0.0176849365234375,-0.0384979248046875
1772882906640808400,3.765808349609375,0.46038818359375,-0.1579132080078125,-0.042083740234375
1772882906650741200,3.7757412109375,0.422271728515625,-0.2050933837890625,-0.00146484375
1772882906660673000,3.785673095703125,0.3903961181640625,-0.19677734375,0.0280609130859375
1772882906670606300,3.7956064453125,0.353485107421875,-0.070465087890625,0.018524169921875
1772882906680538000,3.8055380859375,0.265594482421875,-0.0171051025390625,0.053558349609375
1772882906690471200,3.81547119140625,0.246185302734375,0.0681915283203125,0.1150360107421875
1772882906700403200,3.8254033203125,0.326385498046875,0.1256561279296875,0.106109619140625
1772882906710336300,3.835336181640625,0.45135498046875,0.14208984375,0.1073150634765625
1772882906720268300,3.845268310546875,0.392669677734375,0.116943359375,0.121307373046875
1772882906730201300,3.855201416015625,0.192474365234375,0.1038055419921875,0.153533935546875
1772882906740133400,3.86513330078125,-0.042755126953125,0.102020263671875,0.1942138671875
1772882906750066200,3.875066162109375,-0.28515625,0.067718505859375,0.232177734375
1772882906759998200,3.884998291015625,-0.445068359375,0.0051422119140625,0.2641143798828125
1772882906769931300,3.89493115234375,-0.4737091064453125,-0.085174560546875,0.2754669189453125
1772882906779863300,3.90486328125,-0.379791259765625,-0.167633056640625,0.2290802001953125
1772882906789796400,3.91479638671875,-0.244964599609375,-0.1719512939453125,0.1056060791015625
1772882906799728000,3.92472802734375,-0.1772003173828125,-0.141845703125,-0.0494232177734375
1772882906809661200,3.9346611328125,-0.1384735107421875,-0.111907958984375,-0.152191162109375
1772882906819593200,3.94459326171875,-0.10906982421875,-0.041534423828125,-0.238250732421875
1772882906829526300,3.9545263671875,-0.097564697265625,0.0161285400390625,-0.311248779296875
1772882906839458300,3.964458251953125,-0.133209228515625,0.0556182861328125,-0.3490142822265625
1772882906849390300,3.974390380859375,-0.1876373291015625,0.11376953125,-0.37841796875
1772882906859323100,3.9843232421875,-0.2303619384765625,0.1172332763671875,-0.3344879150390625
1772882906869254400,3.99425439453125,-0.2061920166015625,0.137664794921875,-0.2663726806640625
1772882906879186200,4.004186279296875,-0.1623992919921875,0.1598052978515625,-0.22808837890625
1772882906889119200,4.014119140625,-0.1466217041015625,0.130340576171875,-0.1900634765625
1772882906899051300,4.02405126953125,-0.1352081298828125,0.1175079345703125,-0.121307373046875
1772882906908984000,4.033984130859375,-0.176544189453125,0.1238555908203125,-0.0367584228515625
1772882906918916400,4.043916259765625,-0.30303955078125,0.1537628173828125,0.0298309326171875
1772882906928849200,4.05384912109375,-0.342315673828125,0.280364990234375,0.01116943359375
1772882906938781200,4.06378125,-0.35821533203125,0.5145416259765625,0.0650634765625
1772882906948714200,4.07371435546875,-0.4067230224609375,0.77276611328125,0.0875701904296875
1772882906958646300,4.083646240234375,-0.3896484375,1.0151519775390625,0.2841796875
1772882906968579300,4.093579345703125,-0.568756103515625,1.257781982421875,0.593231201171875
1772882906978511400,4.103511474609375,-0.9395904541015625,1.5895843505859375,0.9234466552734375
1772882906988444400,4.1134443359375,-1.599578857421875,1.9112396240234375,1.133819580078125
1772882906998376400,4.12337646484375,-2.498016357421875,2.3766937255859375,1.2055816650390625
1772882907008309200,4.133309326171875,-3.3324432373046875,3.091796875,1.1263427734375
1772882907018241300,4.1432412109375,-3.7180633544921875,3.401397705078125,0.813232421875
1772882907028174000,4.153174072265625,-3.5103912353515625,3.1993255615234375,0.4671630859375
1772882907038106000,4.163106201171875,-2.8160247802734375,2.715667724609375,0.2693328857421875
1772882907048039200,4.1730390625,-2.0212249755859375,2.221038818359375,0.1298370361328125
1772882907057971200,4.18297119140625,-1.437713623046875,1.7990875244140625,0.0565338134765625
1772882907067904300,4.192904296875,-1.1181640625,1.4335784912109375,0.071197509765625
1772882907077836300,4.202836181640625,-0.984130859375,1.137451171875,0.2035064697265625
1772882907087769300,4.212769287109375,-0.993072509765625,0.8989105224609375,0.3538818359375
1772882907097701400,4.222701416015625,-1.0987091064453125,0.8016510009765625,0.464813232421875
1772882907107634400,4.232634521484375,-1.265777587890625,0.980682373046875,0.4355010986328125
1772882907117566500,4.24256640625,-1.49871826171875,1.255615234375,0.2951507568359375
1772882907127499300,4.252499267578125,-1.6418304443359375,1.4310760498046875,0.1792449951171875
1772882907137430800,4.2624306640625,-1.659820556640625,1.4975128173828125,0.12139892578125
1772882907147363800,4.27236376953125,-1.5636444091796875,1.5015716552734375,0.1668853759765625
1772882907157295600,4.282295654296875,-1.3551025390625,1.5335540771484375,0.173370361328125
1772882907167228700,4.292228759765625,-1.1219024658203125,1.47662353515625,0.0559234619140625
1772882907177160700,4.30216064453125,-0.8816680908203125,1.2975921630859375,-0.0254669189453125
1772882907187093800,4.31209375,-0.648406982421875,1.03778076171875,0.0008087158203125
1772882907197025800,4.32202587890625,-0.43817138671875,0.7540740966796875,0.0068511962890625
1772882907206958800,4.331958740234375,-0.2035980224609375,0.4806976318359375,-0.0285797119140625
1772882907216891000,4.341890869140625,0.073150634765625,0.2779541015625,-0.06396484375
1772882907226823700,4.35182373046875,0.3612823486328125,0.0579681396484375,-0.067413330078125
1772882907236756000,4.361755859375,0.59979248046875,-0.1815643310546875,0.0486602783203125
1772882907246689800,4.371689697265625,0.727020263671875,-0.3605804443359375,0.2095794677734375
1772882907256622800,4.381622802734375,0.7738494873046875,-0.4296112060546875,0.303314208984375
1772882907266555000,4.391554931640625,0.7246246337890625,-0.3834991455078125,0.3330078125
1772882907276488000,4.401488037109375,0.6151123046875,-0.2396240234375,0.292449951171875
1772882907286420000,4.411419921875,0.4689483642578125,-0.1769561767578125,0.252288818359375
1772882907296352800,4.421352783203125,0.3388519287109375,-0.1265106201171875,0.2845306396484375
1772882907306284800,4.431284912109375,0.239471435546875,-0.086395263671875,0.3000335693359375
1772882907316217900,4.4412177734375,0.13262939453125,-0.080352783203125,0.23223876953125
1772882907326149600,4.451149658203125,-0.03076171875,-0.0248870849609375,0.1726531982421875
1772882907336082700,4.461082763671875,-0.170806884765625,0.082275390625,0.1134796142578125
1772882907346014700,4.4710146484375,-0.2745513916015625,0.1610260009765625,0.0333709716796875
1772882907355947800,4.48094775390625,-0.277740478515625,0.2136077880859375,-0.097808837890625
1772882907365879800,4.4908798828125,-0.25567626953125,0.2067718505859375,-0.1879119873046875
1772882907375812900,4.500812744140625,-0.26849365234375,0.1576995849609375,-0.2370147705078125
1772882907385745000,4.510744873046875,-0.27874755859375,0.1262359619140625,-0.2257843017578125
1772882907395677700,4.520677734375,-0.3177947998046875,0.086395263671875,-0.172149658203125
1772882907405609700,4.530609619140625,-0.3563995361328125,0.0432281494140625,-0.1207275390625
1772882907415542800,4.540542724609375,-0.3827667236328125,-0.013885498046875,-0.090576171875
1772882907425474800,4.550474853515625,-0.3564453125,-0.0485076904296875,-0.0595245361328125
1772882907435408000,4.560407958984375,-0.29132080078125,-0.0567626953125,-0.0269927978515625
1772882907445340000,4.57033984375,-0.2239227294921875,-0.04058837890625,-0.0406036376953125
1772882907455273000,4.58027294921875,-0.1664581298828125,-0.003143310546875,-0.070098876953125
1772882907465204700,4.590204833984375,-0.136993408203125,0.0393829345703125,-0.11566162109375
1772882907475137800,4.6001376953125,-0.1182708740234375,0.06781005859375,-0.1130523681640625
1772882907485069800,4.61006982421875,-0.1390838623046875,0.058868408203125,-0.0299072265625
1772882907495002600,4.620002685546875,-0.252838134765625,0.1943359375,0.04931640625
1772882907504935000,4.629934814453125,-0.2715606689453125,0.3480072021484375,0.0225830078125
1772882907514867700,4.63986767578125,-0.3148193359375,0.3880767822265625,0.1406707763671875
1772882907524799700,4.6497998046875,-0.529510498046875,0.70751953125,0.209442138671875
1772882907534732800,4.65973291015625,-0.771331787109375,1.1445465087890625,0.1935882568359375
1772882907544664800,4.669664794921875,-1.0091400146484375,1.41314697265625,0.2525177001953125
1772882907554598000,4.679597900390625,-1.311309814453125,1.5751800537109375,0.405853271484375
1772882907564530000,4.689530029296875,-1.758270263671875,1.6037139892578125,0.649749755859375
1772882907574463000,4.699462890625,-2.2486572265625,1.655181884765625,0.85211181640625
1772882907584394800,4.709394775390625,-2.4833526611328125,1.7900390625,0.889739990234375
1772882907594327800,4.719327880859375,-2.5050811767578125,1.7845916748046875,0.88140869140625
1772882907604259800,4.729259765625,-2.4768524169921875,1.5991363525390625,0.862884521484375
1772882907614192600,4.739192626953125,-2.3515625,1.4459381103515625,0.778167724609375
1772882907624124700,4.749124755859375,-2.164306640625,1.3772125244140625,0.5771331787109375
1772882907634057700,4.7590576171875,-1.980865478515625,1.31317138671875,0.32965087890625
1772882907643989800,4.76898974609375,-1.884002685546875,1.2671661376953125,0.1301116943359375
1772882907653922800,4.7789228515625,-1.867218017578125,1.271453857421875,0.04998779296875
1772882907663854800,4.788854736328125,-1.90966796875,1.2913055419921875,0.0106964111328125
1772882907673788000,4.798787841796875,-1.93878173828125,1.3006134033203125,-0.0087738037109375
1772882907683720000,4.808719970703125,-1.97540283203125,1.349945068359375,-0.01171875
1772882907693653000,4.818653076171875,-2.03582763671875,1.433319091796875,-0.02001953125
1772882907703585000,4.8285849609375,-2.0522308349609375,1.482330322265625,-0.033782958984375
1772882907713517800,4.838517822265625,-1.9752349853515625,1.4630279541015625,-0.01873779296875
1772882907723449600,4.84844970703125,-1.8293609619140625,1.353759765625,0.04119873046875
1772882907733382700,4.858382568359375,-1.6453704833984375,1.2655487060546875,0.1428985595703125
1772882907743314700,4.868314697265625,-1.460205078125,1.2030792236328125,0.2290191650390625
1772882907753247700,4.878247802734375,-1.2694854736328125,1.1053009033203125,0.2965850830078125
1772882907763179800,4.8881796875,-1.0181884765625,0.9738922119140625,0.310882568359375
1772882907773112800,4.89811279296875,-0.732635498046875,0.860382080078125,0.2790374755859375
1772882907783044900,4.908044921875,-0.469482421875,0.735565185546875,0.209564208984375
1772882907792977000,4.917976806640625,-0.19183349609375,0.5279998779296875,0.1425933837890625
1772882907802910000,4.927909912109375,0.1162872314453125,0.277252197265625,0.1389923095703125
1772882907812842000,4.937842041015625,0.3974761962890625,0.06475830078125,0.151275634765625
1772882907822774800,4.94777490234375,0.6182708740234375,-0.0720367431640625,0.146759033203125
1772882907832706800,4.957706787109375,0.77783203125,-0.1598358154296875,0.1117401123046875
1772882907842639600,4.9676396484375,0.863494873046875,-0.179534912109375,0.096710205078125
1772882907852571600,4.977571533203125,0.8644256591796875,-0.1533966064453125,0.112884521484375
1772882907862504700,4.987504638671875,0.775665283203125,-0.1164703369140625,0.1479034423828125
1772882907872436700,4.997436767578125,0.616943359375,-0.0598297119140625,0.195404052734375
1772882907882369800,5.007369873046875,0.417510986328125,0.0089874267578125,0.2181243896484375
1772882907892301800,5.0173017578125,0.2033233642578125,0.061981201171875,0.210968017578125
1772882907902235000,5.02723486328125,0.018585205078125,0.0691680908203125,0.1734619140625
1772882907912167000,5.0371669921875,-0.14117431640625,0.047332763671875,0.147064208984375
1772882907922099700,5.047099609375,-0.2693939208984375,0.029815673828125,0.1114501953125
1772882907932031700,5.05703173828125,-0.3485870361328125,0.0232086181640625,0.058441162109375
1772882907941964800,5.06696484375,-0.3453369140625,0.026275634765625,-0.008697509765625
1772882907951896800,5.076896728515625,-0.3134613037109375,0.0422821044921875,-0.0990447998046875
1772882907961830000,5.086829833984375,-0.280548095703125,0.058807373046875,-0.176300048828125
1772882907971761700,5.09676171875,-0.259368896484375,0.06439208984375,-0.204559326171875
1772882907981694700,5.10669482421875,-0.2625579833984375,0.0517730712890625,-0.197784423828125
1772882907991626800,5.116626708984375,-0.286590576171875,0.0209808349609375,-0.179962158203125
1772882908001559800,5.126559814453125,-0.2925872802734375,-0.008880615234375,-0.1420135498046875
1772882908011491800,5.136491943359375,-0.2878875732421875,-0.021881103515625,-0.09637451171875
1772882908021425000,5.1464248046875,-0.277679443359375,-0.024139404296875,-0.0927734375
1772882908031357000,5.15635693359375,-0.2514495849609375,-0.0199127197265625,-0.1190643310546875
1772882908041289700,5.166289794921875,-0.20672607421875,-0.006927490234375,-0.141815185546875
1772882908051221800,5.1762216796875,-0.1681671142578125,0.0103759765625,-0.1383056640625
1772882908061154800,5.18615478515625,-0.1579132080078125,0.033416748046875,-0.092193603515625
1772882908071086800,5.1960869140625,-0.1640777587890625,0.05169677734375,-0.0348358154296875
1772882908081020000,5.20602001953125,-0.2225494384765625,0.04962158203125,0.0538177490234375
1772882908090951700,5.21595166015625,-0.3860321044921875,0.0637054443359375,0.1915283203125
1772882908100885000,5.225885009765625,-0.5510101318359375,0.1763763427734375,0.249969482421875
1772882908110816800,5.235816650390625,-0.54156494140625,0.319488525390625,0.2787628173828125
1772882908120749800,5.245749755859375,-0.6205596923828125,0.5735626220703125,0.3026123046875
1772882908130681900,5.255681884765625,-0.718536376953125,0.9373626708984375,0.1596832275390625
1772882908140615000,5.265614990234375,-0.720703125,1.2919158935546875,0.078155517578125
1772882908150547000,5.275546875,-0.809967041015625,1.5658416748046875,0.16827392578125
1772882908160480000,5.28547998046875,-1.286529541015625,1.7892303466796875,0.4079742431640625
1772882908170412000,5.295412109375,-2.0872955322265625,1.8660430908203125,0.6891937255859375
1772882908180345000,5.305344970703125,-2.87847900390625,1.6935272216796875,1.1002960205078125
1772882908190277000,5.315277099609375,-3.4076080322265625,1.6212005615234375,1.381195068359375
1772882908200210200,5.325210205078125,-3.3468780517578125,1.7895050048828125,1.16046142578125
1772882908210142000,5.335141845703125,-2.969451904296875,1.8248443603515625,0.707855224609375
1772882908220075000,5.345074951171875,-2.466888427734375,1.8229217529296875,0.2875213623046875
1772882908230007000,5.355007080078125,-1.9074859619140625,1.8202056884765625,-0.0316925048828125
1772882908239939800,5.36493994140625,-1.5603179931640625,1.7510528564453125,-0.22747802734375
1772882908249872000,5.374871826171875,-1.502777099609375,1.626007080078125,-0.1920928955078125
1772882908259805000,5.384804931640625,-1.5880584716796875,1.4878692626953125,0.10638427734375
1772882908269737000,5.394737060546875,-1.7272491455078125,1.3646392822265625,0.50164794921875
1772882908279670000,5.404669921875,-1.8776092529296875,1.31689453125,0.804656982421875
1772882908289602000,5.41460205078125,-1.9640045166015625,1.3564300537109375,0.8936309814453125
1772882908299535000,5.42453515625,-1.9434356689453125,1.4100799560546875,0.78399658203125
1772882908309467100,5.434467041015625,-1.7563934326171875,1.40191650390625,0.597686767578125
1772882908319400200,5.444400146484375,-1.4652252197265625,1.3204193115234375,0.434539794921875
1772882908329332200,5.454332275390625,-1.158935546875,1.193572998046875,0.285247802734375
1772882908339265000,5.46426513671875,-0.8846893310546875,1.04449462890625,0.1634368896484375
1772882908349196800,5.47419677734375,-0.71661376953125,0.92364501953125,0.0820159912109375
1772882908359129900,5.4841298828125,-0.6184539794921875,0.810760498046875,0.04071044921875
1772882908369062000,5.494061767578125,-0.5299072265625,0.718109130859375,-0.018646240234375
1772882908378995000,5.503994873046875,-0.4266510009765625,0.57855224609375,-0.107391357421875
1772882908388927000,5.513927001953125,-0.26153564453125,0.3648834228515625,-0.165008544921875
1772882908398860000,5.523860107421875,0.0095062255859375,0.1313323974609375,-0.15362548828125
1772882908408792000,5.5337919921875,0.3487548828125,-0.0838623046875,-0.07049560546875
1772882908418725000,5.54372509765625,0.5902557373046875,-0.210968017578125,-0.0085296630859375
1772882908428657200,5.5536572265625,0.772735595703125,-0.249786376953125,0.0183868408203125
1772882908438590000,5.56358984375,0.85247802734375,-0.2225341796875,0.058441162109375
1772882908448522000,5.57352197265625,0.7791290283203125,-0.1773834228515625,0.1414031982421875
1772882908458455000,5.583455078125,0.575897216796875,-0.144744873046875,0.289703369140625
1772882908468387000,5.593386962890625,0.2923583984375,-0.07891845703125,0.409881591796875
1772882908478318800,5.60331884765625,0.02001953125,0.044464111328125,0.518768310546875
1772882908488252000,5.613251953125,-0.233856201171875,0.1625213623046875,0.529571533203125
1772882908498184000,5.623183837890625,-0.4176483154296875,0.2156982421875,0.471954345703125
1772882908508117000,5.633116943359375,-0.4387969970703125,0.2374267578125,0.34564208984375
1772882908518049000,5.643049072265625,-0.3684234619140625,0.221954345703125,0.17059326171875
1772882908527982000,5.652982177734375,-0.277557373046875,0.1582489013671875,0.0076751708984375
1772882908537914000,5.6629140625,-0.155731201171875,0.099151611328125,-0.07806396484375
1772882908547847000,5.672846923828125,-0.028076171875,0.0126800537109375,-0.1224212646484375
1772882908557779200,5.682779296875,0.046417236328125,-0.0585784912109375,-0.137115478515625
1772882908567712000,5.6927119140625,0.0485992431640625,-0.07952880859375,-0.1400909423828125
1772882908577644000,5.70264404296875,0.016571044921875,-0.0955352783203125,-0.1403045654296875
1772882908587577000,5.7125771484375,-0.0220184326171875,-0.1270599365234375,-0.1255645751953125
1772882908597508900,5.7225087890625,-0.0876922607421875,-0.132965087890625,-0.093658447265625
1772882908607442000,5.73244189453125,-0.15704345703125,-0.0864715576171875,-0.077789306640625
1772882908617374000,5.7423740234375,-0.197479248046875,-0.03759765625,-0.084564208984375
1772882908627307000,5.75230712890625,-0.204925537109375,0.0207977294921875,-0.1098785400390625
1772882908637239000,5.762239013671875,-0.198089599609375,0.0631103515625,-0.1516876220703125
1772882908647172000,5.772172119140625,-0.16162109375,0.0909423828125,-0.175628662109375
1772882908657104100,5.782104248046875,-0.1050262451171875,0.1214141845703125,-0.1879425048828125
1772882908667037000,5.792036865234375,-0.0633697509765625,0.160552978515625,-0.16748046875
1772882908676969000,5.801968994140625,-0.102935791015625,0.2225189208984375,-0.1218414306640625
1772882908686902000,5.811902099609375,-0.3042755126953125,0.2689208984375,-0.06292724609375
1772882908696834000,5.821833984375,-0.4788970947265625,0.4314117431640625,-0.0301971435546875
1772882908706767000,5.83176708984375,-0.5854949951171875,0.5336761474609375,0.088409423828125
1772882908716699100,5.84169921875,-0.746673583984375,0.710845947265625,0.2990875244140625
1772882908726632200,5.851632080078125,-0.8384857177734375,1.089111328125,0.392181396484375
1772882908736564000,5.86156396484375,-0.8884735107421875,1.38226318359375,0.45892333984375
1772882908746497000,5.8714970703125,-1.17144775390625,1.605712890625,0.56842041015625
1772882908756429000,5.881428955078125,-1.8559112548828125,1.8083953857421875,0.7010498046875
1772882908766361900,5.89136181640625,-2.6970062255859375,1.9948883056640625,0.905731201171875
1772882908776294000,5.9012939453125,-3.3511199951171875,2.156158447265625,1.1840362548828125
1772882908786227000,5.91122705078125,-3.63372802734375,2.230194091796875,1.2908935546875
1772882908796159000,5.921158935546875,-3.3784027099609375,2.192840576171875,1.0925750732421875
1772882908806092000,5.931092041015625,-2.8866424560546875,2.0863037109375,0.810150146484375
1772882908816024000,5.941024169921875,-2.3459014892578125,1.983001708984375,0.50299072265625
1772882908825957000,5.95095703125,-1.966644287109375,1.930694580078125,0.257720947265625
1772882908835889200,5.96088916015625,-1.83062744140625,1.8686676025390625,0.1681976318359375
1772882908845822200,5.970822265625,-1.8040313720703125,1.7758331298828125,0.22589111328125
1772882908855754000,5.98075390625,-1.8017730712890625,1.658721923828125,0.371826171875
1772882908865686800,5.990686767578125,-1.9527435302734375,1.5994415283203125,0.58135986328125
1772882908875618800,6.000618896484375,-2.181671142578125,1.55029296875,0.7035369873046875
1772882908885551900,6.0105517578125,-2.2398529052734375,1.50970458984375,0.6762542724609375
1772882908895484000,6.02048388671875,-2.007354736328125,1.4145050048828125,0.5607147216796875
1772882908905417000,6.0304169921875,-1.6074676513671875,1.3119964599609375,0.42889404296875
1772882908915349000,6.040348876953125,-1.1764984130859375,1.15655517578125,0.287506103515625
1772882908925282000,6.050281982421875,-0.7514801025390625,0.9178314208984375,0.131591796875
1772882908935214000,6.060214111328125,-0.339569091796875,0.6440887451171875,-0.016754150390625
1772882908945147100,6.070147216796875,0.03460693359375,0.4309234619140625,-0.115478515625
1772882908955079200,6.0800791015625,0.371337890625,0.2086334228515625,-0.1876678466796875
1772882908965012000,6.090011962890625,0.634979248046875,0.0388641357421875,-0.2393951416015625
1772882908974944000,6.099944091796875,0.792205810546875,-0.085601806640625,-0.2631378173828125
1772882908984877000,6.109876953125,0.885223388671875,-0.2447509765625,-0.160064697265625
1772882908994808800,6.119808837890625,0.9097442626953125,-0.364471435546875,-0.0092620849609375
1772882909004742000,6.129741943359375,0.81329345703125,-0.239776611328125,0.0836181640625
1772882909014674000,6.139673828125,0.608245849609375,-0.1163330078125,0.1030731201171875
1772882909024606000,6.14960595703125,0.410858154296875,-0.0228271484375,0.1352691650390625
1772882909034539000,6.1595390625,0.2131500244140625,0.0942840576171875,0.1851043701171875
1772882909044471000,6.169470947265625,0.05517578125,0.17822265625,0.2435302734375
1772882909054404000,6.179404052734375,-0.0514984130859375,0.248291015625,0.287445068359375
1772882909064336100,6.189336181640625,-0.1608734130859375,0.273162841796875,0.3001861572265625
1772882909074269200,6.199269287109375,-0.239532470703125,0.2432708740234375,0.29705810546875
1772882909084201200,6.209201171875,-0.22857666015625,0.194732666015625,0.270782470703125
1772882909094134000,6.219134033203125,-0.10870361328125,0.1204071044921875,0.197113037109375
1772882909104065800,6.229065673828125,0.0609283447265625,0.008544921875,0.1133880615234375
1772882909113998800,6.238998779296875,0.1499786376953125,-0.0644073486328125,0.0581207275390625
1772882909123931000,6.248930908203125,0.1159210205078125,-0.0828399658203125,0.0175628662109375
1772882909133863700,6.25886376953125,-0.0023193359375,-0.0841522216796875,-0.0294342041015625
1772882909143795700,6.268795654296875,-0.135711669921875,-0.0704498291015625,-0.06243896484375
1772882909153728800,6.278728759765625,-0.2414703369140625,-0.0848236083984375,-0.0818634033203125
1772882909163660800,6.288660888671875,-0.31610107421875,-0.1131134033203125,-0.1151123046875
1772882909173593900,6.29859375,-0.319915771484375,-0.09735107421875,-0.1728973388671875
1772882909183526000,6.30852587890625,-0.2639923095703125,-0.055145263671875,-0.2308502197265625
1772882909193458700,6.318458740234375,-0.2213134765625,-0.025299072265625,-0.267486572265625
1772882909203390700,6.328390625,-0.18975830078125,0.0010223388671875,-0.29296875
1772882909213323800,6.33832373046875,-0.15911865234375,0.0383148193359375,-0.304290771484375
1772882909223255800,6.348255859375,-0.157073974609375,0.07550048828125,-0.304595947265625
1772882909233188900,6.35818896484375,-0.170867919921875,0.11517333984375,-0.3010406494140625
1772882909243121000,6.368120849609375,-0.177703857421875,0.1361541748046875,-0.2540740966796875
1772882909253054000,6.378053955078125,-0.18646240234375,0.1447296142578125,-0.1580352783203125
1772882909262985700,6.38798583984375,-0.31011962890625,0.1504058837890625,-0.050201416015625
1772882909272918800,6.397918701171875,-0.496307373046875,0.204559326171875,0.068115234375
1772882909282850800,6.407850830078125,-0.5438995361328125,0.397430419921875,0.1724700927734375
1772882909292783600,6.41778369140625,-0.6738433837890625,0.66192626953125,0.22467041015625
1772882909302716000,6.4277158203125,-0.732757568359375,1.0170745849609375,0.2336578369140625
1772882909312648700,6.437648681640625,-0.807098388671875,1.3673858642578125,0.407379150390625
1772882909322580700,6.447580810546875,-1.0951385498046875,1.6824951171875,0.6570587158203125
1772882909332513800,6.457513671875,-1.4998931884765625,1.9286041259765625,0.7587127685546875
1772882909342445800,6.46744580078125,-1.8793487548828125,2.132659912109375,0.8695068359375
1772882909352379000,6.47737890625,-2.366790771484375,2.2247772216796875,1.0714263916015625
1772882909362311000,6.487310791015625,-2.9531402587890625,2.0913848876953125,1.5080718994140625
1772882909372244000,6.497243896484375,-3.337799072265625,1.930816650390625,1.9550628662109375
1772882909382175700,6.50717578125,-3.2284698486328125,1.7912445068359375,1.9951934814453125
1772882909392108800,6.51710888671875,-2.7047882080078125,1.679931640625,1.6481170654296875
1772882909402040800,6.527040771484375,-2.055572509765625,1.6197967529296875,1.197723388671875
1772882909411973600,6.5369736328125,-1.4544677734375,1.56341552734375,0.7884368896484375
1772882909421905700,6.54690576171875,-1.0290679931640625,1.5410308837890625,0.38690185546875
1772882909431838700,6.556838623046875,-0.86822509765625,1.502685546875,0.085205078125
1772882909441770800,6.566770751953125,-0.9852142333984375,1.4784698486328125,-0.0290374755859375
1772882909451703800,6.576703857421875,-1.3197784423828125,1.5821075439453125,0.0729522705078125
1772882909461635800,6.5866357421875,-1.881256103515625,1.703155517578125,0.225860595703125
1772882909471569000,6.59656884765625,-2.3707122802734375,1.76934814453125,0.416046142578125
1772882909481501000,6.6065009765625,-2.5172119140625,1.78472900390625,0.6345977783203125
1772882909491434000,6.61643408203125,-2.4203948974609375,1.7035064697265625,0.74957275390625
1772882909501366000,6.626365966796875,-2.1313018798828125,1.60955810546875,0.742645263671875
1772882909511297800,6.6362978515625,-1.6745758056640625,1.46514892578125,0.58935546875
1772882909521230600,6.646230712890625,-1.10357666015625,1.2445068359375,0.34002685546875
1772882909531163600,6.65616357421875,-0.531158447265625,0.95184326171875,0.10137939453125
1772882909541095700,6.666095703125,-0.061431884765625,0.6554718017578125,-0.053680419921875
1772882909551027700,6.67602783203125,0.2207183837890625,0.4026031494140625,-0.147857666015625
1772882909560960800,6.685960693359375,0.339141845703125,0.180419921875,-0.2117919921875
1772882909570892800,6.695892822265625,0.4196624755859375,0.029632568359375,-0.223114013671875
1772882909580825900,6.705825927734375,0.5357513427734375,-0.19781494140625,-0.1316375732421875
1772882909590758000,6.7157578125,0.72186279296875,-0.343292236328125,-0.00311279296875
1772882909600691000,6.72569091796875,0.8850250244140625,-0.3334808349609375,0.0956878662109375
1772882909610623000,6.735623046875,0.9699249267578125,-0.2453155517578125,0.2096710205078125
1772882909620555800,6.7455556640625,0.9276885986328125,-0.1778717041015625,0.27569580078125
1772882909630487800,6.75548779296875,0.759124755859375,-0.06610107421875,0.3284912109375
1772882909640420900,6.7654208984375,0.521270751953125,0.0819549560546875,0.38250732421875
1772882909650352600,6.7753525390625,0.2373504638671875,0.1967926025390625,0.4027862548828125
1772882909660285700,6.78528564453125,-0.0805206298828125,0.2138824462890625,0.34649658203125
1772882909670217700,6.7952177734375,-0.31353759765625,0.2171783447265625,0.3438262939453125
1772882909680150800,6.80515087890625,-0.490509033203125,0.1246337890625,0.38037109375
1772882909690082800,6.815082763671875,-0.621124267578125,-0.00537109375,0.4351959228515625
1772882909700015900,6.825015869140625,-0.584747314453125,-0.062530517578125,0.3887786865234375
1772882909709948000,6.834947998046875,-0.3960723876953125,-0.0494384765625,0.213775634765625
1772882909719880700,6.844880615234375,-0.136566162109375,-0.0375823974609375,-0.0525054931640625
1772882909729812700,6.854812744140625,0.04278564453125,0.02337646484375,-0.270904541015625
1772882909739745800,6.864745849609375,0.108795166015625,0.04595947265625,-0.3969268798828125
1772882909749677800,6.874677734375,0.131683349609375,0.0736541748046875,-0.4884490966796875
1772882909759611000,6.88461083984375,0.134124755859375,0.0991668701171875,-0.5233612060546875
1772882909769542700,6.894542724609375,0.10479736328125,0.107635498046875,-0.524688720703125
1772882909779475700,6.904475830078125,0.0252227783203125,0.12493896484375,-0.448333740234375
1772882909789407700,6.91440771484375,-0.1036529541015625,0.0969085693359375,-0.331390380859375
1772882909799340800,6.9243408203125,-0.1931915283203125,0.0805206298828125,-0.1744537353515625
1772882909809272800,6.93427294921875,-0.217132568359375,0.0706939697265625,-0.0301055908203125
1772882909819206000,6.944205810546875,-0.2020111083984375,0.0604705810546875,0.0318603515625
1772882909829138000,6.954137939453125,-0.127166748046875,0.0691680908203125,0.0622100830078125
1772882909839070700,6.96407080078125,-0.0079498291015625,0.10400390625,0.088775634765625
1772882909849002800,6.974002685546875,0.0653839111328125,0.0984039306640625,0.078155517578125
1772882909858935800,6.983935791015625,0.1027679443359375,0.06304931640625,0.094635009765625
1772882909868867800,6.993867919921875,0.126220703125,0.0341339111328125,0.1918792724609375
1772882909878801000,7.00380078125,0.050750732421875,0.047210693359375,0.3117523193359375
1772882909888733000,7.01373291015625,-0.1417083740234375,0.16253662109375,0.2844085693359375
1772882909898666000,7.023666015625,-0.3046875,0.3764801025390625,0.218780517578125
1772882909908597800,7.03359765625,-0.478057861328125,0.6779632568359375,0.3067169189453125
1772882909918530800,7.04353076171875,-0.672149658203125,1.0468292236328125,0.35601806640625
1772882909928462800,7.053462890625,-0.8773345947265625,1.378814697265625,0.4258575439453125
1772882909938395000,7.063394775390625,-1.1722259521484375,1.7446441650390625,0.51739501953125
1772882909948327700,7.07332763671875,-1.648590087890625,1.9187164306640625,0.5701904296875
1772882909958259700,7.083259765625,-2.2371063232421875,1.877166748046875,0.725616455078125
1772882909968192800,7.09319287109375,-2.8488311767578125,1.76837158203125,0.9947967529296875
1772882909978124800,7.103124755859375,-3.2038726806640625,1.7081298828125,1.2370758056640625
1772882909988057900,7.113057861328125,-3.098541259765625,1.6103363037109375,1.2580413818359375
1772882909997990000,7.122989990234375,-2.6677398681640625,1.3849334716796875,1.1029052734375
1772882910007923000,7.1329228515625,-2.0807647705078125,1.21942138671875,0.9008636474609375
1772882910017854700,7.142854736328125,-1.57354736328125,1.1372833251953125,0.66705322265625
1772882910027787800,7.152787841796875,-1.3216400146484375,1.162689208984375,0.4949798583984375
1772882910037719800,7.1627197265625,-1.3875885009765625,1.307037353515625,0.3262481689453125
1772882910047652600,7.172652587890625,-1.6807708740234375,1.531036376953125,0.2509613037109375
1772882910057584600,7.182584716796875,-2.101531982421875,1.6729583740234375,0.258819580078125
1772882910067517700,7.192517578125,-2.507659912109375,1.709442138671875,0.3845062255859375
1772882910077449700,7.20244970703125,-2.682525634765625,1.6083831787109375,0.6054840087890625
1772882910087382800,7.2123828125,-2.5810546875,1.46160888671875,0.7938385009765625
1772882910097314800,7.222314697265625,-2.30419921875,1.3929595947265625,0.8370513916015625
1772882910107247900,7.232247802734375,-1.951019287109375,1.3675079345703125,0.7270050048828125
1772882910117180000,7.242179931640625,-1.58941650390625,1.322296142578125,0.5308074951171875
1772882910127113000,7.252113037109375,-1.24810791015625,1.3030853271484375,0.375885009765625
1772882910137045500,7.26204541015625,-1.019378662109375,1.2478790283203125,0.265380859375
1772882910146978300,7.271978271484375,-0.8732757568359375,1.16265869140625,0.2346343994140625
1772882910156910300,7.281910400390625,-0.7559967041015625,1.038330078125,0.232879638671875
1772882910166843400,7.291843505859375,-0.6373291015625,0.9034881591796875,0.2370147705078125
1772882910176775400,7.301775390625,-0.5314788818359375,0.77069091796875,0.24365234375
1772882910186708500,7.31170849609375,-0.4242401123046875,0.6053924560546875,0.1979217529296875
1772882910196640500,7.321640625,-0.2881011962890625,0.39825439453125,0.1468658447265625
1772882910206573600,7.331573486328125,-0.1466064453125,0.1269989013671875,0.109466552734375
1772882910216505600,7.341505615234375,0.0146331787109375,-0.0955047607421875,0.0806884765625
1772882910226438400,7.3514384765625,0.1897125244140625,-0.262786865234375,0.0490875244140625
1772882910236370400,7.361370361328125,0.3542938232421875,-0.3402557373046875,0.0146331787109375
1772882910246303200,7.37130322265625,0.47857666015625,-0.34405517578125,-0.016265869140625
1772882910256235300,7.3812353515625,0.5966339111328125,-0.2641754150390625,-0.045623779296875
1772882910266168300,7.391168212890625,0.6732177734375,-0.1144866943359375,-0.0744476318359375
1772882910276100400,7.401100341796875,0.651092529296875,0.0281982421875,-0.0568084716796875
1772882910286033400,7.411033447265625,0.544647216796875,0.11492919921875,-0.01220703125
1772882910295965400,7.42096533203125,0.33642578125,0.18280029296875,0.095611572265625
1772882910305898500,7.4308984375,0.1072540283203125,0.23907470703125,0.215118408203125
1772882910315830500,7.44083056640625,-0.121490478515625,0.2674713134765625,0.2698211669921875
1772882910325763600,7.450763671875,-0.2903289794921875,0.2660369873046875,0.25311279296875
1772882910335695600,7.460695556640625,-0.37237548828125,0.201141357421875,0.21771240234375
1772882910345628400,7.47062841796875,-0.365386962890625,0.089324951171875,0.1905059814453125
1772882910355560400,7.480560546875,-0.2879180908203125,0.0076141357421875,0.1517181396484375
1772882910365493500,7.490493408203125,-0.1601409912109375,-0.0395050048828125,0.068572998046875
1772882910375425300,7.50042529296875,-0.034515380859375,-0.054656982421875,-0.04107666015625
1772882910385357300,7.510357421875,0.0695648193359375,-0.038604736328125,-0.1385650634765625
1772882910395290400,7.520290283203125,0.1146392822265625,-0.0137939453125,-0.18499755859375
1772882910405222400,7.530222412109375,0.125457763671875,-0.0140838623046875,-0.190277099609375
1772882910415155500,7.540155517578125,0.12164306640625,-0.0336761474609375,-0.163787841796875
1772882910425087500,7.55008740234375,0.0883941650390625,-0.0363311767578125,-0.1390838623046875
1772882910435020500,7.5600205078125,0.0259857177734375,-0.0192413330078125,-0.1378326416015625
1772882910444952600,7.56995263671875,-0.040740966796875,0.006805419921875,-0.125762939453125
1772882910454885400,7.579885498046875,-0.09710693359375,0.057159423828125,-0.0896759033203125
1772882910464817400,7.5898173828125,-0.17608642578125,0.1025543212890625,-0.04595947265625
1772882910474750500,7.59975048828125,-0.221649169921875,0.1261138916015625,0.0078582763671875
1772882910484682200,7.60968212890625,-0.25390625,0.1377410888671875,0.0521392822265625
1772882910494615300,7.619615234375,-0.3040313720703125,0.1395263671875,0.1018524169921875
1772882910504547300,7.62954736328125,-0.3805999755859375,0.1344146728515625,0.19134521484375
1772882910514480400,7.63948046875,-0.49188232421875,0.2231597900390625,0.257904052734375
1772882910524412400,7.649412353515625,-0.4346160888671875,0.419036865234375,0.1804656982421875
1772882910534345500,7.659345458984375,-0.3353118896484375,0.54962158203125,0.12774658203125
1772882910544277500,7.669277587890625,-0.2465972900390625,0.70953369140625,0.1644744873046875
1772882910554210300,7.679210205078125,-0.2603607177734375,0.9638214111328125,0.3016204833984375
1772882910564142600,7.689142578125,-0.5193939208984375,1.18017578125,0.5265350341796875
1772882910574075400,7.699075439453125,-1.019195556640625,1.41265869140625,0.785186767578125
1772882910584007400,7.70900732421875,-1.6888427734375,1.6222381591796875,1.140533447265625
1772882910593940500,7.7189404296875,-2.357635498046875,1.737548828125,1.3545379638671875
1772882910603872500,7.72887255859375,-2.7483673095703125,1.7992095947265625,1.3664703369140625
1772882910613805600,7.7388056640625,-2.7107391357421875,1.8500213623046875,1.231658935546875
1772882910623737300,7.7487373046875,-2.3701934814453125,1.8539581298828125,0.942718505859375
1772882910633670400,7.75867041015625,-1.989288330078125,1.82098388671875,0.614990234375
1772882910643602400,7.7686025390625,-1.69500732421875,1.71923828125,0.360443115234375
1772882910653535500,7.778535400390625,-1.4979248046875,1.6275787353515625,0.1739959716796875
1772882910663467500,7.788467529296875,-1.4200439453125,1.531982421875,0.097747802734375
1772882910673400300,7.798400390625,-1.549072265625,1.40283203125,0.18548583984375
1772882910683332400,7.808332275390625,-1.8617095947265625,1.38824462890625,0.3159942626953125
1772882910693265400,7.818265380859375,-2.143707275390625,1.48028564453125,0.393035888671875
1772882910703197400,7.828197509765625,-2.2034454345703125,1.477447509765625,0.4993896484375
1772882910713130500,7.838130615234375,-2.0670318603515625,1.458953857421875,0.5621490478515625
1772882910723062500,7.8480625,-1.91839599609375,1.5082550048828125,0.5435791015625
1772882910732995600,7.85799560546875,-1.803131103515625,1.5424957275390625,0.4944610595703125
1772882910742927400,7.86792724609375,-1.63104248046875,1.54193115234375,0.4906463623046875
1772882910752860400,7.8778603515625,-1.4555206298828125,1.51702880859375,0.4996185302734375
1772882910762792400,7.88779248046875,-1.3180694580078125,1.4610137939453125,0.53436279296875
1772882910772724500,7.897724365234375,-1.2024688720703125,1.3720550537109375,0.5989532470703125
1772882910782657300,7.9076572265625,-1.138885498046875,1.2611541748046875,0.6417236328125
1772882910792589300,7.91758935546875,-1.0606689453125,1.1628570556640625,0.6553955078125
1772882910802522400,7.9275224609375,-0.912628173828125,1.08929443359375,0.5911102294921875
1772882910812454400,7.937454345703125,-0.70263671875,0.994140625,0.4349365234375
1772882910822387500,7.947387451171875,-0.4759674072265625,0.8376922607421875,0.214111328125
1772882910832319500,7.957319580078125,-0.250823974609375,0.598388671875,-0.008026123046875
1772882910842252500,7.96725244140625,-0.06414794921875,0.297576904296875,-0.1192474365234375
1772882910852184600,7.9771845703125,0.062286376953125,0.0230712890625,-0.1776580810546875
1772882910862117600,7.98711767578125,0.20941162109375,-0.1544189453125,-0.236053466796875
1772882910872048400,7.99704833984375,0.3544921875,-0.23651123046875,-0.1541900634765625
1772882910881980400,8.00698046875,0.4961395263671875,-0.2353973388671875,-0.0499725341796875
1772882910891913500,8.01691357421875,0.661651611328125,-0.1737213134765625,-0.0150604248046875
1772882910901845500,8.026845458984376,0.7492828369140625,-0.135894775390625,-0.002166748046875
1772882910911778600,8.036778564453124,0.751739501953125,-0.0339813232421875,0.023590087890625
1772882910921710600,8.046710693359374,0.638214111328125,0.072296142578125,0.093109130859375
1772882910931643400,8.056643310546875,0.41497802734375,0.1417236328125,0.16015625
1772882910941575400,8.066575439453125,0.1403350830078125,0.1920623779296875,0.215118408203125
1772882910951508500,8.076508544921875,-0.1083984375,0.205596923828125,0.264434814453125
1772882910961440300,8.086440185546875,-0.3317108154296875,0.137237548828125,0.335723876953125
1772882910971373300,8.096373291015626,-0.453887939453125,0.0392303466796875,0.4333343505859375
1772882910981305300,8.106305419921876,-0.46136474609375,-0.01434326171875,0.467681884765625
1772882910991238400,8.11623828125,-0.373779296875,-0.0297088623046875,0.369659423828125
1772882911001170400,8.12617041015625,-0.20623779296875,-0.0052947998046875,0.168701171875
1772882911011102500,8.1361025390625,-0.022369384765625,0.03143310546875,-0.0472869873046875
1772882911021035500,8.146035400390625,0.125518798828125,0.05419921875,-0.197723388671875
1772882911030967600,8.155967529296875,0.2060394287109375,0.0459747314453125,-0.2842254638671875
1772882911040900400,8.165900390625,0.225067138671875,0.0495452880859375,-0.293731689453125
1772882911050832400,8.175832275390626,0.159576416015625,0.0584716796875,-0.2320556640625
1772882911060765400,8.185765380859374,0.0658111572265625,0.0318603515625,-0.154327392578125
1772882911070697200,8.195697265625,-0.00830078125,0.0111541748046875,-0.1006317138671875
1772882911080630500,8.205630615234375,-0.049957275390625,-0.0084991455078125,-0.0610809326171875
1772882911090562300,8.215562255859375,-0.0855560302734375,-0.01806640625,-0.0084991455078125
1772882911100495400,8.225495361328125,-0.1291961669921875,-0.006927490234375,0.02215576171875
1772882911110427400,8.235427490234375,-0.1658935546875,0.0328216552734375,0.0411224365234375
1772882911120360400,8.2453603515625,-0.1766510009765625,0.07122802734375,0.0728759765625
1772882911130292500,8.25529248046875,-0.20184326171875,0.1175537109375,0.1062774658203125
1772882911140225300,8.265225341796874,-0.3085784912109375,0.1269683837890625,0.1664276123046875
1772882911150157300,8.2751572265625,-0.4748992919921875,0.20831298828125,0.24578857421875
1772882911160090000,8.285090087890625,-0.4528045654296875,0.4021453857421875,0.164337158203125
1772882911170022100,8.295022216796875,-0.340545654296875,0.50616455078125,0.2325439453125
1772882911179955200,8.304955078125,-0.4312591552734375,0.6951751708984375,0.4349822998046875
1772882911189887000,8.314886962890625,-0.547332763671875,1.067840576171875,0.4910125732421875
1772882911199820000,8.324820068359376,-0.620147705078125,1.408203125,0.5003814697265625
1772882911209752000,8.334751953125,-0.7414703369140625,1.6598358154296875,0.482147216796875
1772882911219685000,8.34468505859375,-0.98590087890625,1.869354248046875,0.4132080078125
1772882911229617200,8.3546171875,-1.360321044921875,1.9793548583984375,0.3657379150390625
1772882911239550200,8.36455029296875,-1.8193206787109375,1.9183807373046875,0.5951995849609375
1772882911249483000,8.37448291015625,-2.17401123046875,1.633697509765625,0.9961395263671875
1772882911259416000,8.384416015625,-2.263153076171875,1.4128570556640625,1.29498291015625
1772882911269348000,8.39434814453125,-2.1264801025390625,1.33099365234375,1.3176422119140625
1772882911279281200,8.40428125,-1.875701904296875,1.333404541015625,1.0211639404296875
1772882911289213200,8.414213134765625,-1.584075927734375,1.4493255615234375,0.63372802734375
1772882911299146200,8.424146240234375,-1.36932373046875,1.555206298828125,0.311798095703125
1772882911309078300,8.434078369140625,-1.2256011962890625,1.6383209228515625,0.096710205078125
1772882911319011300,8.44401123046875,-1.16595458984375,1.6882171630859375,-0.0089569091796875
1772882911328943000,8.453943115234376,-1.30914306640625,1.642852783203125,0.0362548828125
1772882911338876200,8.463876220703124,-1.5202178955078125,1.5666961669921875,0.2711944580078125
1772882911348808000,8.473807861328124,-1.71649169921875,1.4736785888671875,0.6020660400390625
1772882911358741000,8.483740966796875,-1.842620849609375,1.4146728515625,0.9021148681640625
1772882911368673000,8.493673095703125,-1.8526153564453125,1.429779052734375,1.0390167236328125
1772882911378606000,8.503606201171875,-1.7145233154296875,1.4874420166015625,1.0068817138671875
1772882911388538000,8.5135380859375,-1.46575927734375,1.5365142822265625,0.8687591552734375
1772882911398471200,8.52347119140625,-1.1842041015625,1.53729248046875,0.6906585693359375
1772882911408403200,8.5334033203125,-0.926605224609375,1.4640350341796875,0.5426025390625
1772882911418336300,8.543336181640624,-0.7603607177734375,1.3487396240234375,0.4615478515625
1772882911428268300,8.553268310546875,-0.7357177734375,1.2471466064453125,0.456085205078125
1772882911438201000,8.563201171875,-0.8493194580078125,1.16754150390625,0.5100860595703125
1772882911448133000,8.573133056640625,-0.9942626953125,1.1229400634765625,0.5759429931640625
1772882911458066200,8.583066162109375,-1.1012115478515625,1.1048736572265625,0.5924224853515625
1772882911467998000,8.592998046875,-1.112762451171875,1.095458984375,0.55633544921875
1772882911477930000,8.602929931640626,-0.991241455078125,1.0560302734375,0.451141357421875
1772882911487863000,8.612863037109374,-0.7857666015625,0.960540771484375,0.300628662109375
1772882911497795000,8.622795166015624,-0.5517578125,0.840667724609375,0.1591796875
1772882911507728100,8.63272802734375,-0.3417205810546875,0.6846771240234375,0.004669189453125
1772882911517660200,8.64266015625,-0.1608428955078125,0.482421875,-0.1270904541015625
1772882911527593200,8.65259326171875,-0.0071563720703125,0.2642059326171875,-0.1795196533203125
1772882911537525200,8.662525146484375,0.1495513916015625,0.0690155029296875,-0.1305084228515625
1772882911547458000,8.6724580078125,0.24859619140625,-0.1277313232421875,-0.030364990234375
1772882911557390300,8.682390380859376,0.2888946533203125,-0.3005828857421875,0.0941009521484375
1772882911567323100,8.6923232421875,0.3176422119140625,-0.3733062744140625,0.1915283203125
1772882911577255200,8.702255126953125,0.3625335693359375,-0.352508544921875,0.1945953369140625
1772882911587188200,8.712188232421875,0.433135986328125,-0.2490234375,0.116485595703125
1772882911597120000,8.7221201171875,0.4831695556640625,-0.1190185546875,0.0169525146484375
1772882911607053000,8.732052978515625,0.4802703857421875,0.0016326904296875,-0.0630035400390625
1772882911616985000,8.741985107421876,0.370941162109375,0.0894622802734375,-0.0735626220703125
1772882911626918100,8.751918212890626,0.1928558349609375,0.1384124755859375,-0.041900634765625
1772882911636850200,8.76185009765625,-0.00225830078125,0.1480255126953125,0.021759033203125
1772882911646783200,8.771783203125,-0.1854705810546875,0.12493896484375,0.09039306640625
1772882911656715300,8.78171533203125,-0.3093719482421875,0.0790557861328125,0.1441650390625
1772882911666648000,8.79164794921875,-0.3609161376953125,0.0388031005859375,0.176605224609375
1772882911676580000,8.801580078125,-0.319366455078125,0.0272369384765625,0.1685943603515625
1772882911686513200,8.81151318359375,-0.245086669921875,0.010772705078125,0.1234130859375
1772882911696445200,8.821445068359376,-0.1527862548828125,-0.0142974853515625,0.0654449462890625
1772882911706378200,8.831378173828124,-0.084259033203125,-0.0270843505859375,0.0025177001953125
1772882911716310000,8.84131005859375,-0.0392913818359375,-0.0343780517578125,-0.041595458984375
1772882911726243000,8.8512431640625,-0.0433349609375,-0.022430419921875,-0.0801239013671875
1772882911736175000,8.861175048828125,-0.0515899658203125,-0.0133514404296875,-0.0763397216796875
1772882911746108200,8.871108154296875,-0.0622406005859375,-0.027984619140625,-0.08154296875
1772882911756040200,8.881040283203125,-0.0427703857421875,-0.003082275390625,-0.092926025390625
1772882911765973000,8.890972900390626,-0.055023193359375,0.0048828125,-0.0958251953125
1772882911775905000,8.900905029296876,-0.1169281005859375,0.0328369140625,-0.0794219970703125
1772882911785838000,8.910838134765624,-0.21124267578125,0.052947998046875,-0.0413665771484375
1772882911795770000,8.92077001953125,-0.314788818359375,0.0741119384765625,0.0317535400390625
1772882911805702100,8.9307021484375,-0.4133758544921875,0.1515045166015625,0.073822021484375
1772882911815635200,8.94063525390625,-0.3559112548828125,0.330902099609375,-0.0519866943359375
1772882911825567200,8.950567138671875,-0.1739349365234375,0.459991455078125,-0.061187744140625
1772882911835500300,8.960500244140626,-0.122314453125,0.6135406494140625,0.0825347900390625
1772882911845432000,8.97043212890625,-0.1081085205078125,0.8867340087890625,0.24334716796875
1772882911855365000,8.980365234375,-0.1593170166015625,1.1024169921875,0.528472900390625
1772882911865297200,8.990297119140624,-0.4461212158203125,1.2705230712890625,0.807098388671875
1772882911875230000,9.00022998046875,-0.924468994140625,1.576263427734375,0.943389892578125
1772882911885162200,9.010162353515625,-1.56195068359375,1.899169921875,0.9217987060546875
1772882911895095000,9.020094970703125,-2.1646575927734375,2.19085693359375,0.927734375
1772882911905027000,9.030027099609375,-2.5755462646484375,2.2899932861328125,1.0570831298828125
1772882911914960100,9.039960205078126,-2.553466796875,2.1674041748046875,1.125457763671875
1772882911924892200,9.04989208984375,-2.1448822021484375,1.9927215576171875,0.978179931640625
1772882911934825200,9.0598251953125,-1.7465362548828125,1.8646240234375,0.7156982421875
1772882911944757200,9.06975732421875,-1.5589599609375,1.7253265380859375,0.4366455078125
1772882911954690300,9.079690185546875,-1.4927520751953125,1.61224365234375,0.3171844482421875
1772882911964622000,9.0896220703125,-1.511260986328125,1.536163330078125,0.3011474609375
1772882911974555100,9.09955517578125,-1.582763671875,1.48846435546875,0.3144073486328125
1772882911984487200,9.109487060546876,-1.6568145751953125,1.499755859375,0.361480712890625
1772882911994420000,9.119419921875,-1.680938720703125,1.5310516357421875,0.3667144775390625
1772882912004352000,9.12935205078125,-1.6263275146484375,1.560089111328125,0.385833740234375
1772882912014285000,9.13928515625,-1.5607452392578125,1.57989501953125,0.398834228515625
1772882912024217000,9.149217041015625,-1.5014495849609375,1.5809326171875,0.369903564453125
1772882912034150100,9.159150146484375,-1.42462158203125,1.5831451416015625,0.348297119140625
1772882912044082200,9.169082275390625,-1.3090057373046875,1.591033935546875,0.34320068359375
1772882912054015200,9.17901513671875,-1.1662750244140625,1.54327392578125,0.3515625
1772882912063947300,9.188947265625,-1.0253143310546875,1.4557037353515625,0.4090423583984375
1772882912073880300,9.19888037109375,-0.9287109375,1.3605804443359375,0.4924163818359375
1772882912083812400,9.208812255859375,-0.871185302734375,1.250762939453125,0.5750579833984375
1772882912093745200,9.2187451171875,-0.808013916015625,1.1305694580078125,0.64013671875
1772882912103677000,9.228677001953125,-0.7093505859375,1.0153961181640625,0.6312103271484375
1772882912113610000,9.23860986328125,-0.560394287109375,0.9154510498046875,0.5324249267578125
1772882912123542000,9.2485419921875,-0.4305572509765625,0.78668212890625,0.3762359619140625
1772882912133475000,9.25847509765625,-0.3130950927734375,0.6184539794921875,0.2564544677734375
1772882912143407600,9.26840771484375,-0.187774658203125,0.4092254638671875,0.179595947265625
1772882912153340700,9.278340576171875,-0.0449371337890625,0.1756744384765625,0.1472930908203125
1772882912163272700,9.288272705078125,0.1162872314453125,-0.0258636474609375,0.1431121826171875
1772882912173204700,9.298204833984375,0.2639923095703125,-0.1735687255859375,0.1149749755859375
1772882912183137500,9.308137451171875,0.3695220947265625,-0.28375244140625,0.094146728515625
1772882912193069600,9.318069580078125,0.396881103515625,-0.3097686767578125,0.0885467529296875
1772882912203002400,9.32800244140625,0.3489837646484375,-0.2875823974609375,0.0793609619140625
1772882912212934400,9.337934326171874,0.2921295166015625,-0.2119598388671875,0.067901611328125
1772882912222867500,9.347867431640625,0.194793701171875,-0.0741729736328125,0.0394134521484375
1772882912232799500,9.357799560546875,0.051116943359375,-0.005126953125,0.0187530517578125
1772882912242732500,9.367732666015625,-0.0352935791015625,0.0519561767578125,0.000518798828125
1772882912252664600,9.37766455078125,-0.06610107421875,0.0890960693359375,-0.0125579833984375
1772882912262597600,9.38759765625,-0.0595703125,0.093353271484375,-0.03350830078125
1772882912272529700,9.39752978515625,-0.0434417724609375,0.0929718017578125,-0.034912109375
1772882912282462700,9.407462646484374,-0.0242767333984375,0.0955657958984375,-0.0167388916015625
1772882912292394800,9.417394775390624,-0.01934814453125,0.0988006591796875,0.0027923583984375
1772882912302327600,9.42732763671875,-0.030517578125,0.082763671875,0.0247802734375
1772882912312259300,9.43725927734375,-0.015472412109375,0.0652008056640625,0.0458526611328125
1772882912322192600,9.447192626953125,0.0019378662109375,0.03369140625,0.0475311279296875
1772882912332124400,9.45712451171875,0.0068359375,-0.013458251953125,0.04302978515625
1772882912342057500,9.467057373046876,0.0305938720703125,-0.052276611328125,0.0493316650390625
1772882912351989500,9.476989501953126,0.07073974609375,-0.0679779052734375,0.0523223876953125
1772882912361922600,9.486922607421874,0.0903167724609375,-0.062469482421875,0.033294677734375
1772882912371854600,9.4968544921875,0.0570831298828125,-0.0450592041015625,0.0124664306640625
1772882912381787600,9.50678759765625,-0.031219482421875,-0.0254669189453125,0.0179595947265625
1772882912391719700,9.5167197265625,-0.16259765625,0.0121307373046875,0.03564453125
1772882912401652500,9.526652587890625,-0.30560302734375,0.0517578125,0.085052490234375
1772882912411584500,9.53658447265625,-0.4818878173828125,0.1134490966796875,0.1587982177734375
1772882912421517600,9.546517578125,-0.634307861328125,0.232818603515625,0.17437744140625
1772882912431449600,9.55644970703125,-0.57080078125,0.36505126953125,0.1135406494140625
1772882912441382700,9.566382568359375,-0.5275421142578125,0.566436767578125,0.108001708984375
1772882912451314400,9.576314453125,-0.5518035888671875,0.8011016845703125,0.149932861328125
1772882912461246500,9.58624658203125,-0.5685272216796875,1.109100341796875,0.2468109130859375
1772882912471179500,9.596179443359375,-0.684295654296875,1.44049072265625,0.3610076904296875
1772882912481111600,9.606111572265625,-0.891815185546875,1.7435302734375,0.4918975830078125
1772882912491044600,9.616044677734376,-1.21734619140625,1.9305419921875,0.5978851318359375
1772882912500976600,9.6259765625,-1.545257568359375,1.995452880859375,0.6647186279296875
1772882912510909400,9.635909423828124,-1.7605133056640625,1.8078765869140625,0.860687255859375
1772882912520841500,9.645841552734375,-1.82452392578125,1.478546142578125,1.116729736328125
1772882912530774500,9.6557744140625,-1.5818328857421875,1.2656097412109375,1.1300048828125
1772882912540706600,9.66570654296875,-1.1754150390625,1.08123779296875,0.94024658203125
1772882912550639600,9.6756396484375,-0.9173583984375,0.9741058349609375,0.70135498046875
1772882912560571400,9.6855712890625,-0.86920166015625,1.0164794921875,0.44415283203125
1772882912570504700,9.695504638671874,-0.8988494873046875,1.139862060546875,0.172760009765625
1772882912580436500,9.7054365234375,-0.9421844482421875,1.2680206298828125,-0.050994873046875
1772882912590369500,9.71536962890625,-1.06256103515625,1.375213623046875,-0.2149810791015625
1772882912600301600,9.725301513671875,-1.28021240234375,1.440521240234375,-0.269012451171875
1772882912610234600,9.735234619140625,-1.4794769287109375,1.4249114990234375,-0.131927490234375
1772882912620166700,9.745166748046875,-1.58819580078125,1.353515625,0.1143341064453125
1772882912630099500,9.755099365234376,-1.5501708984375,1.285369873046875,0.3629608154296875
1772882912640031500,9.765031494140626,-1.41217041015625,1.225494384765625,0.541046142578125
1772882912649964500,9.774964599609374,-1.211151123046875,1.178314208984375,0.6314849853515625
1772882912659896600,9.784896484375,-1.0022430419921875,1.1595001220703125,0.660491943359375
1772882912669829600,9.79482958984375,-0.800079345703125,1.1474151611328125,0.6544952392578125
1772882912679761700,9.80476171875,-0.6566009521484375,1.11968994140625,0.6158294677734375
1772882912689694700,9.81469482421875,-0.562103271484375,1.0730743408203125,0.532806396484375
1772882912699626500,9.82462646484375,-0.495361328125,1.0191497802734375,0.436767578125
1772882912709559600,9.8345595703125,-0.4694061279296875,0.9599761962890625,0.3782501220703125
1772882912719491600,9.84449169921875,-0.4999237060546875,0.89227294921875,0.3885955810546875
1772882912729424400,9.85442431640625,-0.5689849853515625,0.8353729248046875,0.456695556640625
1772882912739356400,9.8643564453125,-0.65130615234375,0.7855682373046875,0.5154266357421875
1772882912749289500,9.87428955078125,-0.7042694091796875,0.7556304931640625,0.541046142578125
1772882912759221500,9.884221435546875,-0.731536865234375,0.7485198974609375,0.5092620849609375
1772882912769154600,9.894154541015626,-0.7222747802734375,0.7464447021484375,0.443450927734375
1772882912779086600,9.904086669921876,-0.712432861328125,0.7420501708984375,0.3852081298828125
1772882912789019600,9.91401953125,-0.6933441162109375,0.727447509765625,0.32513427734375
1772882912798951700,9.92395166015625,-0.64306640625,0.7128448486328125,0.249420166015625
1772882912808883700,9.9338837890625,-0.5893096923828125,0.6895904541015625,0.20233154296875
1772882912818816800,9.943816650390625,-0.5425262451171875,0.6550445556640625,0.1603546142578125
1772882912828748500,9.95374853515625,-0.478546142578125,0.6112823486328125,0.102386474609375
1772882912838681300,9.963681396484375,-0.4304656982421875,0.5653228759765625,0.079254150390625
1772882912848613400,9.97361328125,-0.43072509765625,0.522308349609375,0.0923309326171875
1772882912858546400,9.98354638671875,-0.44183349609375,0.4552154541015625,0.114105224609375
1772882912868478500,9.993478515625,-0.44921875,0.3956298828125,0.176483154296875
1772882912878411500,10.00341162109375,-0.4827728271484375,0.35009765625,0.233489990234375
1772882912888343600,10.013343505859375,-0.5020751953125,0.3202667236328125,0.272491455078125
1772882912898276600,10.023276611328125,-0.49951171875,0.32110595703125,0.298095703125
1772882912908208600,10.033208740234375,-0.4754638671875,0.3684234619140625,0.28411865234375
1772882912918141700,10.0431416015625,-0.442657470703125,0.44134521484375,0.239166259765625
1772882912928073700,10.05307373046875,-0.4275054931640625,0.496429443359375,0.20782470703125
1772882912938006500,10.063006591796874,-0.450958251953125,0.53509521484375,0.2047119140625
1772882912947938600,10.0729384765625,-0.47552490234375,0.5449981689453125,0.197235107421875
1772882912957871400,10.082871337890625,-0.479736328125,0.5589447021484375,0.1915740966796875
1772882912967803400,10.092803466796875,-0.5015106201171875,0.556121826171875,0.197723388671875
1772882912977736400,10.102736328125,-0.48699951171875,0.5475921630859375,0.227691650390625
1772882912987668500,10.11266845703125,-0.466796875,0.54608154296875,0.2619476318359375
1772882912997601500,10.1226015625,-0.47064208984375,0.5491943359375,0.29095458984375
1772882913007533600,10.132533447265626,-0.4693603515625,0.5650634765625,0.3160552978515625
1772882913017466600,10.142466552734374,-0.5048828125,0.60809326171875,0.3183746337890625
1772882913027398700,10.152398681640625,-0.544464111328125,0.66796875,0.2874755859375
1772882913037331500,10.16233154296875,-0.553131103515625,0.704437255859375,0.2654266357421875
1772882913047263700,10.172263671875,-0.5418548583984375,0.7487335205078125,0.2730712890625
1772882913057196500,10.182196533203125,-0.5342864990234375,0.7955322265625,0.285736083984375
1772882913067128600,10.192128662109376,-0.5459747314453125,0.8403778076171875,0.2720947265625
