time,seconds_elapsed,z,y,x
1772882902935985000,0.06098486328125,-0.0261855311691761,-0.42039063572883606,-0.18816883862018585
1772882902945918000,0.07091796875,0.005840578582137823,-0.4012853801250458,-0.11874609440565109
1772882902955850000,0.08085009765625,0.044919803738594055,-0.35403504967689514,-0.06643202155828476
1772882902965782800,0.09078271484375,0.07421004772186279,-0.3103266954421997,-0.04108724743127823
1772882902975714600,0.100714599609375,0.04211736097931862,-0.14949467778205872,-0.017366472631692886
1772882902985647900,0.11064794921875,0.04904237762093544,0.000020240024241502397,0.04324520751833916
1772882902995579600,0.12057958984375,0.09002230316400528,0.18992333114147186,0.07958377152681351
1772882903005512700,0.1305126953125,0.17133472859859467,0.2954998314380646,0.06100502982735634
1772882903015444700,0.14044482421875,0.2485075443983078,0.2569950520992279,0.006729541812092066
1772882903025377800,0.150377685546875,0.331930547952652,0.15670359134674072,-0.0691034346818924
1772882903035309800,0.160309814453125,0.37595659494400024,0.021645907312631607,-0.17483146488666534
1772882903045243000,0.170242919921875,0.3951427936553955,-0.1400873363018036,-0.29149842262268066
1772882903055175000,0.1801748046875,0.40375038981437683,-0.3148666024208069,-0.4174816608428955
1772882903065107700,0.190107666015625,0.405270516872406,-0.5098581910133362,-0.5399316549301147
1772882903075039700,0.200039794921875,0.42702534794807434,-0.6208371520042419,-0.6476195454597473
1772882903084972800,0.209972900390625,0.4466251730918884,-0.6632403135299683,-0.6961116790771484
1772882903094904800,0.21990478515625,0.48559972643852234,-0.6570372581481934,-0.7046311497688293
1772882903104838000,0.229837890625,0.5253452658653259,-0.6108527183532715,-0.6643872857093811
1772882903114769700,0.239769775390625,0.5520700812339783,-0.49063417315483093,-0.5986812710762024
1772882903124702700,0.24970263671875,0.5043070912361145,-0.2634254992008209,-0.47328847646713257
1772882903134634500,0.259634521484375,0.43477994203567505,-0.001936384360305965,-0.2586810886859894
1772882903144567600,0.269567626953125,0.35927268862724304,0.2552453577518463,-0.025237446650862694
1772882903154499600,0.27949951171875,0.25910985469818115,0.504036009311676,0.21423186361789703
1772882903164432600,0.2894326171875,0.14781156182289124,0.6321377754211426,0.42061272263526917
1772882903174364700,0.29936474609375,0.0772915929555893,0.5709489583969116,0.578088104724884
1772882903184297500,0.30929736328125,0.011208179406821728,0.4515834450721741,0.6529021859169006
1772882903194229500,0.3192294921875,-0.07892437279224396,0.27582865953445435,0.5800476670265198
1772882903204162600,0.32916259765625,-0.1766647845506668,0.053089581429958344,0.3526020050048828
1772882903214094300,0.33909423828125,-0.2189619094133377,-0.14082156121730804,0.0877000242471695
1772882903224027400,0.34902734375,-0.182496577501297,-0.28776654601097107,-0.05420305207371712
1772882903233959400,0.35895947265625,-0.10528407990932465,-0.22447997331619263,-0.09065347164869308
1772882903243892500,0.368892578125,-0.07273785024881363,-0.163557231426239,-0.14165087044239044
1772882903253824500,0.378824462890625,-0.06911701709032059,-0.137332022190094,-0.2203454226255417
1772882903263757600,0.388757568359375,-0.03182557225227356,-0.11589730530977249,-0.19496309757232666
1772882903273689600,0.398689697265625,0.006265352945774794,-0.1848936825990677,-0.21773844957351685
1772882903283622400,0.408622314453125,0.057620421051979065,-0.323822021484375,-0.33344027400016785
1772882903293554400,0.418554443359375,0.08653143048286438,-0.5419066548347473,-0.5049670338630676
1772882903303487500,0.428487548828125,0.07370724529027939,-0.7365107536315918,-0.7373086810112
1772882903313419500,0.43841943359375,0.026274746283888817,-0.8173478245735168,-0.9339383840560913
1772882903323352600,0.4483525390625,0.00042450788896530867,-0.8100318908691406,-1.0175259113311768
1772882903333284600,0.45828466796875,0.022544989362359047,-0.7058410048484802,-0.9983780980110168
1772882903343217700,0.4682177734375,0.024567129090428352,-0.5756571888923645,-0.9254631400108337
1772882903353149400,0.4781494140625,-0.0037382792215794325,-0.41321900486946106,-0.8686181902885437
1772882903363082500,0.48808251953125,-0.024897094815969467,-0.22178752720355988,-0.8586079478263855
1772882903373014500,0.4980146484375,-0.010608435608446598,-0.020326310768723488,-0.8469757437705994
1772882903382947300,0.507947265625,0.014299310743808746,0.14408446848392487,-0.8519875407218933
1772882903392879400,0.51787939453125,0.11203865706920624,0.31719738245010376,-0.9271867275238037
1772882903402812400,0.5278125,0.3107658624649048,0.5248984098434448,-1.0108944177627563
1772882903412744400,0.537744384765625,0.5251718759536743,0.726845383644104,-1.0912363529205322
1772882903422677500,0.547677490234375,0.6510259509086609,0.8770881295204163,-1.1047303676605225
1772882903432609500,0.557609619140625,0.7536135911941528,0.9835077524185181,-0.9568362236022949
1772882903442542600,0.56754248046875,0.923281192779541,0.7937466502189636,-0.7478691339492798
1772882903452474600,0.577474609375,1.0806020498275757,0.3605493903160095,-0.44074544310569763
1772882903462407700,0.58740771484375,0.944873034954071,-0.7266573309898376,-0.059775181114673615
1772882903472340500,0.597340576171875,0.5799885392189026,-1.9351342916488647,0.3030988872051239
1772882903482272500,0.6072724609375,0.15843544900417328,-2.8845789432525635,0.4684593677520752
1772882903492204500,0.61720458984375,-0.0685577541589737,-3.412584066390991,0.3454125225543976
1772882903502137300,0.627137451171875,0.0416899211704731,-3.509070873260498,0.14103569090366364
1772882903512070400,0.6370703125,0.3665662705898285,-3.33196759223938,0.08561823517084122
1772882903522002400,0.64700244140625,0.7462528944015503,-2.844120740890503,0.08876768499612808
1772882903531935500,0.656935546875,1.0956319570541382,-2.1210241317749023,0.19748564064502716
1772882903541867500,0.666867431640625,1.372473955154419,-1.3401674032211304,0.3606410026550293
1772882903551800600,0.676800537109375,1.4718286991119385,-0.6602942943572998,0.5167999863624573
1772882903561732600,0.686732666015625,1.4672222137451172,-0.16523928940296173,0.6458029747009277
1772882903571665400,0.69666552734375,1.4299073219299316,0.1505461037158966,0.7366620302200317
1772882903581597400,0.706597412109375,1.4026613235473633,0.3776783049106598,0.7940356135368347
1772882903591530500,0.716530517578125,1.4253144264221191,0.4760746657848358,0.802386999130249
1772882903601462500,0.726462646484375,1.4013631343841553,0.3938993513584137,0.6224933862686157
1772882903611395600,0.7363955078125,1.334073781967163,0.2735567092895508,0.29047471284866333
1772882903621327400,0.746327392578125,1.2629306316375732,0.1611769050359726,-0.12473127990961075
1772882903631260400,0.756260498046875,1.1829732656478882,0.105753593146801,-0.5602635741233826
1772882903641192400,0.7661923828125,1.1131874322891235,0.021885856986045837,-0.9554457664489746
1772882903651125500,0.77612548828125,1.0092333555221558,-0.14264823496341705,-1.1745983362197876
1772882903661057500,0.7860576171875,0.8385993242263794,-0.38495567440986633,-1.1068965196609497
1772882903670990600,0.795990478515625,0.5673624873161316,-0.6323958039283752,-0.8417003154754639
1772882903680922600,0.805922607421875,0.22411832213401794,-0.7950989603996277,-0.4856306314468384
1772882903690855400,0.81585546875,-0.15516029298305511,-0.8845436573028564,-0.10500018298625946
1772882903700787500,0.825787353515625,-0.5273823142051697,-0.8933528661727905,0.22160989046096802
1772882903710720500,0.835720458984375,-0.7827674746513367,-0.7701736688613892,0.4057408571243286
1772882903720652500,0.845652587890625,-0.8649449348449707,-0.5286044478416443,0.5575404763221741
1772882903730585600,0.855585693359375,-0.7750240564346313,-0.13697436451911926,0.6970509886741638
1772882903740517600,0.865517578125,-0.516005277633667,0.3034999668598175,0.793277382850647
1772882903750450700,0.87545068359375,-0.2282124012708664,0.7073312997817993,0.7440467476844788
1772882903760382500,0.885382568359375,-0.0429685041308403,0.868588387966156,0.4748101830482483
1772882903770315500,0.8953154296875,0.038533009588718414,0.8076563477516174,0.041974615305662155
1772882903780247600,0.90524755859375,0.03846616670489311,0.629047691822052,-0.3972536027431488
1772882903790180400,0.915180419921875,-0.03653883561491966,0.4347056448459625,-0.722743034362793
1772882903800112400,0.9251123046875,-0.1336001455783844,0.38206934928894043,-0.8707228899002075
1772882903810045400,0.93504541015625,-0.1934370994567871,0.4772792160511017,-0.8186724781990051
1772882903819977500,0.9449775390625,-0.21391016244888306,0.6887627243995667,-0.6452890038490295
1772882903829910500,0.95491064453125,-0.21922263503074646,0.9701064825057983,-0.4728546440601349
1772882903839842600,0.964842529296875,-0.2375158816576004,1.2381172180175781,-0.3668272793292999
1772882903849775600,0.974775634765625,-0.24813178181648254,1.4358710050582886,-0.3444039821624756
1772882903859707600,0.984707763671875,-0.22505149245262146,1.5137929916381836,-0.376241534948349
1772882903869640700,0.994640625,-0.16836345195770264,1.494644284248352,-0.38654184341430664
1772882903879572500,1.004572509765625,-0.09294991195201874,1.3979933261871338,-0.35348138213157654
1772882903889505500,1.014505615234375,-0.000639424950350076,1.214512825012207,-0.3092862069606781
1772882903899437300,1.024437255859375,0.09443382918834686,0.9338302612304688,-0.2639469504356384
1772882903909370400,1.034370361328125,0.16765691339969635,0.5490441918373108,-0.24167414009571075
1772882903919302400,1.044302490234375,0.2065478414297104,0.15773530304431915,-0.28110411763191223
1772882903929235500,1.0542353515625,0.20160715281963348,-0.19983455538749695,-0.3456522226333618
1772882903939167500,1.06416748046875,0.16904255747795105,-0.4978252351284027,-0.40033623576164246
1772882903949100500,1.0741005859375,0.12010803073644638,-0.7060548663139343,-0.4053727984428406
1772882903959032600,1.084032470703125,0.051899950951337814,-0.7872408032417297,-0.3471795320510864
1772882903968965600,1.093965576171875,-0.02406751923263073,-0.763009786605835,-0.22246769070625305
1772882903978897700,1.103897705078125,-0.12557709217071533,-0.6950107216835022,-0.0633038729429245
1772882903988830500,1.11383056640625,-0.24278627336025238,-0.6024743914604187,0.09643466025590897
1772882903998762500,1.123762451171875,-0.28570684790611267,-0.45687752962112427,0.2208508849143982
1772882904008695600,1.133695556640625,-0.2658681571483612,-0.273355633020401,0.33728456497192383
1772882904018627300,1.14362744140625,-0.27206242084503174,-0.047507330775260925,0.4153282344341278
1772882904028560400,1.153560302734375,-0.2454015016555786,0.3765973448753357,0.5005059838294983
1772882904038492400,1.163492431640625,-0.24877093732357025,0.9524809122085571,0.626734733581543
1772882904048425500,1.173425537109375,-0.22434867918491364,1.775663137435913,0.7765649557113647
1772882904058357500,1.183357421875,0.07368380576372147,2.6826281547546387,0.9803189039230347
1772882904068290600,1.19329052734375,0.7008489370346069,3.170616865158081,1.1580532789230347
1772882904078222600,1.20322265625,1.5190238952636719,2.898554563522339,1.030437707901001
1772882904088155400,1.2131552734375,2.2263317108154297,1.602387547492981,0.4119334816932678
1772882904098087400,1.22308740234375,2.4867868423461914,-0.5846312046051025,-0.5836011171340942
1772882904108020500,1.2330205078125,2.086902379989624,-2.7530357837677,-1.712133765220642
1772882904117952500,1.242952392578125,1.456311821937561,-4.627864360809326,-2.326141119003296
1772882904127885600,1.252885498046875,0.8971537351608276,-5.592244625091553,-2.335862636566162
1772882904137817600,1.262817626953125,0.4994681477546692,-5.338984966278076,-1.9193860292434692
1772882904147750700,1.272750732421875,0.2236328274011612,-4.034623622894287,-1.2288531064987183
1772882904157682400,1.282682373046875,0.10025443136692047,-1.9794282913208008,-0.4527994394302368
1772882904167615500,1.292615478515625,0.15150217711925507,0.19664275646209717,0.2168409675359726
1772882904177547500,1.302547607421875,0.2660508453845978,1.8828964233398438,0.6197279691696167
1772882904187480600,1.31248046875,0.3230520784854889,2.7603321075439453,0.6309401392936707
1772882904197412600,1.32241259765625,0.28051474690437317,2.793558120727539,0.3617408871650696
1772882904207345400,1.332345458984375,0.22233879566192627,2.0488293170928955,-0.08264508098363876
1772882904217277400,1.34227734375,0.18746550381183624,0.8759672045707703,-0.6646941304206848
1772882904227210500,1.35221044921875,0.2842714190483093,-0.17424850165843964,-1.290581226348877
1772882904237142500,1.362142578125,0.6488722562789917,-0.9429520964622498,-1.8103638887405396
1772882904247075600,1.37207568359375,1.0475738048553467,-1.2761750221252441,-2.0850250720977783
1772882904257007600,1.382007568359375,1.2314784526824951,-1.3089662790298462,-2.0918703079223633
1772882904266940700,1.391940673828125,1.14631187915802,-1.0974920988082886,-1.890033483505249
1772882904276872400,1.40187255859375,0.9048116207122803,-0.774742603302002,-1.568533182144165
1772882904286805500,1.411805419921875,0.6332371234893799,-0.4361741244792938,-1.3108278512954712
1772882904296737500,1.421737548828125,0.3229953646659851,-0.29710811376571655,-1.130239486694336
1772882904306670300,1.43167041015625,0.04474616423249245,-0.23559068143367767,-0.9870465993881226
1772882904316602400,1.441602294921875,-0.2049558162689209,-0.2161639928817749,-0.8821412324905396
1772882904326535400,1.451535400390625,-0.32399219274520874,0.06379202753305435,-0.920901894569397
1772882904336467500,1.461467529296875,-0.19114331901073456,0.35721245408058167,-1.018923044204712
1772882904346400500,1.471400390625,0.0011997540714219213,0.8076464533805847,-1.0008764266967773
1772882904356332500,1.48133251953125,0.10995712876319885,1.16461181640625,-0.8232219815254211
1772882904366265600,1.491265625,0.18091385066509247,1.3296457529067993,-0.591230571269989
1772882904376197600,1.50119775390625,0.21128055453300476,1.4411301612854004,-0.40184250473976135
1772882904386130700,1.511130615234375,0.13756053149700165,1.4361711740493774,-0.16003280878067017
1772882904396062700,1.521062744140625,0.006846720818430185,1.4349887371063232,0.09982859343290329
1772882904405995500,1.53099560546875,-0.07395065575838089,1.469458818435669,0.31210222840309143
1772882904415927300,1.54092724609375,-0.1154421716928482,1.382123589515686,0.4197067320346832
1772882904425860400,1.5508603515625,-0.17110170423984528,1.0450446605682373,0.3588881194591522
1772882904435792400,1.56079248046875,-0.28202155232429504,0.7130864262580872,0.2113066464662552
1772882904445725400,1.570725341796875,-0.4488947093486786,0.5004684329032898,0.15650679171085358
1772882904455657500,1.580657470703125,-0.6512480974197388,0.35179373621940613,0.21886922419071198
1772882904465590500,1.590590576171875,-0.8490713834762573,0.2508564591407776,0.34273576736450195
1772882904475522600,1.6005224609375,-1.0464470386505127,0.28653082251548767,0.5325241088867188
1772882904485455600,1.61045556640625,-1.230384349822998,0.40644365549087524,0.7674931883811951
1772882904495387600,1.6203876953125,-1.3070613145828247,0.5657789707183838,0.8588452339172363
1772882904505320400,1.630320556640625,-1.3920865058898926,0.36242878437042236,1.043192982673645
1772882904515252500,1.64025244140625,-1.4033907651901245,-0.12475897371768951,1.2416930198669434
1772882904525185500,1.650185546875,-1.3530586957931519,-0.4230750799179077,1.224329948425293
1772882904535117600,1.66011767578125,-1.2358078956604004,-0.7121854424476624,1.0612236261367798
1772882904545050600,1.670050537109375,-1.0794875621795654,-0.9502806067466736,0.789384126663208
1772882904554982400,1.679982421875,-1.0642439126968384,-0.9508896470069885,0.5439730286598206
1772882904564915500,1.68991552734375,-1.1909235715866089,-0.8811859488487244,0.43995553255081177
1772882904574847500,1.699847412109375,-1.2508611679077148,-0.8540616631507874,0.4769444465637207
1772882904584780500,1.709780517578125,-1.310762882232666,-0.7339749336242676,0.6334869265556335
1772882904594712600,1.719712646484375,-1.4127200841903687,-0.5064733028411865,0.8118957877159119
1772882904604645400,1.729645263671875,-1.3972232341766357,-0.16109967231750488,0.9829003214836121
1772882904614577400,1.739577392578125,-1.3630173206329346,0.12043293565511703,1.1625622510910034
1772882904624510500,1.749510498046875,-1.2115281820297241,0.47298645973205566,1.2090972661972046
1772882904634442500,1.7594423828125,-0.7728240489959717,1.0481882095336914,1.0166915655136108
1772882904644375600,1.76937548828125,-0.00016591492749284953,1.8510596752166748,0.5901548862457275
1772882904654307600,1.7793076171875,0.8990237712860107,2.5067262649536133,0.02388083189725876
1772882904664240600,1.78924072265625,1.8643310070037842,2.733264446258545,-0.5017374157905579
1772882904674172400,1.79917236328125,2.5502512454986572,2.1808245182037354,-0.9075434803962708
1772882904684105500,1.80910546875,2.7055485248565674,0.5796369910240173,-1.1407426595687866
1772882904694037500,1.81903759765625,1.9350855350494385,-1.3661526441574097,-1.3816155195236206
1772882904703970600,1.828970458984375,0.9761518836021423,-2.817073106765747,-1.6498572826385498
1772882904713902600,1.838902587890625,0.40675896406173706,-3.6082727909088135,-1.7126754522323608
1772882904723835400,1.84883544921875,0.13557514548301697,-3.4038615226745605,-1.5621939897537231
1772882904733768400,1.8587685546875,0.09017303586006165,-2.3724656105041504,-1.2460975646972656
1772882904743700500,1.868700439453125,0.19297131896018982,-0.9163045287132263,-0.8374379277229309
1772882904753632500,1.878632568359375,0.308433473110199,0.601325511932373,-0.4317695200443268
1772882904763565600,1.888565673828125,0.37654754519462585,1.818860411643982,-0.1631481796503067
1772882904773498600,1.89849853515625,0.4166795015335083,2.5647664070129395,-0.09025346487760544
1772882904783430700,1.9084306640625,0.35969558358192444,2.757887840270996,-0.15881787240505219
1772882904793363500,1.918363525390625,0.26326119899749756,2.3973376750946045,-0.3368784189224243
1772882904803295500,1.92829541015625,0.21097882091999054,1.6010922193527222,-0.6255419254302979
1772882904813228500,1.938228515625,0.2610584795475006,0.5858951807022095,-0.9095113277435303
1772882904823160300,1.948160400390625,0.42190223932266235,-0.30980339646339417,-1.1420396566390991
1772882904833093400,1.95809326171875,0.6333314180374146,-1.0044639110565186,-1.3317909240722656
1772882904843025400,1.968025390625,0.7885411977767944,-1.445131540298462,-1.3018980026245117
1772882904852957400,1.97795751953125,0.8249439597129822,-1.615007758140564,-1.0785250663757324
1772882904862890500,1.987890380859375,0.7133274078369141,-1.4601649045944214,-0.7763849496841431
1772882904872823600,1.997823486328125,0.44266584515571594,-1.1228766441345215,-0.44370898604393005
1772882904882755600,2.007755615234375,0.08607922494411469,-0.7585814595222473,-0.14734071493148804
1772882904892688600,2.017688720703125,-0.2306278795003891,-0.4602288603782654,0.08019603788852692
1772882904902620700,2.02762060546875,-0.38460466265678406,-0.24430854618549347,0.20827411115169525
1772882904912553500,2.037553466796875,-0.40710943937301636,-0.15889057517051697,0.2073848843574524
1772882904922485500,2.047485595703125,-0.35506966710090637,-0.15363110601902008,0.061941664665937424
1772882904932418600,2.05741845703125,-0.2714110016822815,-0.16513197124004364,-0.173679381608963
1772882904942350600,2.0673505859375,-0.2181246131658554,-0.1633271425962448,-0.4241344928741455
1772882904952282400,2.077282470703125,-0.15272323787212372,-0.10791181772947311,-0.6218065619468689
1772882904962215400,2.08721533203125,-0.03899480402469635,0.03906777501106262,-0.7184447050094604
1772882904972147500,2.0971474609375,0.06278535723686218,0.30989474058151245,-0.6932517290115356
1772882904982080500,2.10708056640625,0.09776783734560013,0.5479972958564758,-0.5855878591537476
1772882904992013600,2.117013671875,0.007351922336965799,0.689940333366394,-0.42997321486473083
1772882905001945600,2.126945556640625,-0.1940312534570694,0.7355861067771912,-0.23209182918071747
1772882905011877600,2.136877685546875,-0.3965529501438141,0.5864142179489136,-0.0708422139286995
1772882905021810400,2.146810546875,-0.5497046709060669,0.379260778427124,0.02117639221251011
1772882905031742500,2.156742431640625,-0.6426860094070435,0.26638323068618774,0.1015268936753273
1772882905041675500,2.166675537109375,-0.6388212442398071,0.2241249829530716,0.20458270609378815
1772882905051608600,2.176608642578125,-0.5368056297302246,0.06220664829015732,0.12240421026945114
1772882905061540600,2.18654052734375,-0.36601367592811584,-0.27834588289260864,-0.21931637823581696
1772882905071472400,2.196472412109375,-0.19845210015773773,-0.7337637543678284,-0.6273523569107056
1772882905081405400,2.206405517578125,-0.10073300451040268,-0.944725513458252,-0.5048857927322388
1772882905091337500,2.21633740234375,0.08401527255773544,-0.8405317068099976,-0.11268127709627151
1772882905101270500,2.2262705078125,0.24141155183315277,-0.44431087374687195,0.15359196066856384
1772882905111202600,2.23620263671875,0.22199338674545288,-0.10359004139900208,0.20278772711753845
1772882905121135400,2.24613525390625,0.0873655304312706,0.17293156683444977,0.028333371505141258
1772882905131068700,2.256068603515625,-0.020120447501540184,0.46741166710853577,-0.29827189445495605
1772882905141001700,2.266001708984375,-0.1412884145975113,0.681649386882782,-0.6193849444389343
1772882905150933800,2.275933837890625,-0.2855004668235779,0.7604946494102478,-0.843639612197876
1772882905160866800,2.28586669921875,-0.41591545939445496,0.7145774960517883,-0.9925071597099304
1772882905170798600,2.295798583984375,-0.5205861926078796,0.6207170486450195,-1.0510071516036987
1772882905180731600,2.305731689453125,-0.5878163576126099,0.4863336980342865,-1.0484668016433716
1772882905190663700,2.31566357421875,-0.4716740548610687,0.4577910006046295,-1.1948479413986206
1772882905200596500,2.325596435546875,-0.019207250326871872,0.5662074685096741,-1.5834904909133911
1772882905210528500,2.335528564453125,0.678442656993866,0.9459156394004822,-1.6480207443237305
1772882905220461600,2.345461669921875,1.1122891902923584,1.4415746927261353,-1.3492155075073242
1772882905230393600,2.3553935546875,0.8624396920204163,1.5694445371627808,-0.9283859133720398
1772882905240326700,2.36532666015625,-0.15571662783622742,1.3208913803100586,-0.4235251545906067
1772882905250259700,2.375259765625,-1.0966572761535645,0.9199112057685852,0.06757744401693344
1772882905260191700,2.385191650390625,-1.0802593231201172,0.30185145139694214,0.6190627217292786
1772882905270123800,2.395123779296875,-0.3689945340156555,-0.2937844693660736,0.7502998113632202
1772882905280056800,2.405056884765625,0.40272533893585205,-0.8279738426208496,0.3923882842063904
1772882905289988600,2.414988525390625,0.8613864183425903,-1.2766610383987427,-0.1221083328127861
1772882905299921700,2.424921630859375,1.1276668310165405,-1.543818473815918,-0.5154244899749756
1772882905309854700,2.434854736328125,1.414630651473999,-1.5025302171707153,-0.8433030247688293
1772882905319786500,2.444786376953125,1.7102007865905762,-1.0307663679122925,-1.15932297706604
1772882905329718500,2.454718505859375,1.9957987070083618,-0.45443809032440186,-1.6603232622146606
1772882905339651600,2.464651611328125,2.0667331218719482,-0.14631088078022003,-2.525650978088379
1772882905349584600,2.474584716796875,1.803836703300476,-0.22142507135868073,-3.401304244995117
1772882905359516700,2.4845166015625,1.4639220237731934,-0.3755033016204834,-3.7556731700897217
1772882905369448700,2.49444873046875,1.1939762830734253,-0.2830093204975128,-3.3567464351654053
1772882905379381800,2.5043818359375,0.9615185856819153,-0.09168784320354462,-2.388230800628662
1772882905389313800,2.514313720703125,0.7363626956939697,0.05555540323257446,-1.0904467105865479
1772882905399246600,2.52424658203125,0.5681177973747253,0.19152149558067322,0.19476895034313202
1772882905409179600,2.5341796875,0.43894779682159424,0.3862701952457428,1.1790519952774048
1772882905419111700,2.544111572265625,0.2629634439945221,0.5023768544197083,1.761975646018982
1772882905429043500,2.55404345703125,0.059429239481687546,0.4095182716846466,2.021470785140991
1772882905438976500,2.5639765625,-0.07731582969427109,0.35306698083877563,1.8095026016235352
1772882905448909600,2.57390966796875,-0.38507044315338135,0.48608681559562683,1.4283363819122314
1772882905458841600,2.583841552734375,-0.6955928802490234,0.6383011341094971,1.1237096786499023
1772882905468773600,2.593773681640625,-0.8060435056686401,0.8620825409889221,0.5701093077659607
1772882905478706700,2.603706787109375,-0.7337861061096191,1.0824631452560425,-0.3241834044456482
1772882905488638700,2.613638671875,-0.5644737482070923,1.024465560913086,-1.1364094018936157
1772882905498571500,2.623571533203125,-0.25992798805236816,0.6686222553253174,-1.4822653532028198
1772882905508503600,2.633503662109375,-0.08169139921665192,-0.23037753999233246,-1.7656958103179932
1772882905518436600,2.6434365234375,0.067618727684021,-0.6379719376564026,-2.133498191833496
1772882905528368600,2.65336865234375,0.31081274151802063,-0.7327314615249634,-2.321214437484741
1772882905538301700,2.6633017578125,0.5489267706871033,-0.6749361157417297,-2.216770648956299
1772882905548233700,2.673233642578125,0.6159566640853882,-0.5724883079528809,-1.9008793830871582
1772882905558166800,2.683166748046875,0.5500271916389465,-0.5300654768943787,-1.4760823249816895
1772882905568098600,2.6930986328125,0.42211341857910156,-0.5530962347984314,-0.9424258470535278
1772882905578031600,2.703031494140625,0.25431564450263977,-0.41980499029159546,-0.3387570083141327
1772882905587963600,2.712963623046875,0.07745271176099777,-0.1595502495765686,0.17566929757595062
1772882905597896400,2.722896484375,-0.11690425127744675,0.16193723678588867,0.44806087017059326
1772882905607828700,2.732828857421875,-0.3302854895591736,0.42728474736213684,0.4563923180103302
1772882905617761500,2.742761474609375,-0.5595484972000122,0.5216871500015259,0.29910627007484436
1772882905627693600,2.752693603515625,-0.778252899646759,0.48383164405822754,0.1352694034576416
1772882905637626600,2.762626708984375,-0.9059194922447205,0.4101411998271942,0.027890220284461975
1772882905647558700,2.77255859375,-0.8919203281402588,0.31275445222854614,0.010848918929696083
1772882905657491700,2.78249169921875,-0.7710506319999695,0.3105134069919586,0.09853056818246841
1772882905667423700,2.792423828125,-0.5958964228630066,0.3309568762779236,0.2803882360458374
1772882905677356800,2.802356689453125,-0.46033191680908203,0.338692307472229,0.5006612539291382
1772882905687288600,2.81228857421875,-0.4273183047771454,0.3644746243953705,0.667755663394928
1772882905697221600,2.8222216796875,-0.46592721343040466,0.35558581352233887,0.735813558101654
1772882905707153700,2.832153564453125,-0.5818601846694946,0.33026260137557983,0.761440098285675
1772882905717086500,2.84208642578125,-0.6799865365028381,0.3149941563606262,0.7424211502075195
1772882905727018500,2.8520185546875,-0.7290845513343811,0.41051721572875977,0.7329884767532349
1772882905736951600,2.86195166015625,-0.78497713804245,0.5066804885864258,0.9353367686271667
1772882905746883600,2.871883544921875,-0.8917232751846313,0.19539932906627655,1.0810753107070923
1772882905756816600,2.881816650390625,-1.0893926620483398,-0.02851100265979767,1.1938010454177856
1772882905766748700,2.891748779296875,-1.1284575462341309,-0.5010439157485962,0.8876680731773376
1772882905776681700,2.901681640625,-0.9024941325187683,-0.9651647210121155,0.019304722547531128
1772882905786613800,2.91161376953125,-0.47988083958625793,-0.9747068285942078,-1.2729138135910034
1772882905796546800,2.921546875,0.08815649151802063,-0.3926737904548645,-2.6493382453918457
1772882905806478800,2.931478759765625,0.5356634259223938,0.4906456172466278,-3.489501714706421
1772882905816411600,2.94141162109375,0.8431317806243896,1.4238859415054321,-2.8630688190460205
1772882905826343400,2.951343505859375,0.5240893363952637,2.298525094985962,-0.679114043712616
1772882905836276500,2.9612763671875,-0.3535149097442627,2.6367123126983643,1.7679780721664429
1772882905846208500,2.97120849609375,-1.4293140172958374,2.129809856414795,3.025029420852661
1772882905856141600,2.9811416015625,-1.7427531480789185,1.173946738243103,3.02195405960083
1772882905866073600,2.991073486328125,-1.2800624370574951,0.19473060965538025,2.309142589569092
1772882905876006700,3.001006591796875,-0.4694167673587799,-0.6823817491531372,1.600594162940979
1772882905885938700,3.010938720703125,0.18198445439338684,-1.166804313659668,1.1875951290130615
1772882905895871700,3.020871826171875,0.5707947611808777,-1.2396100759506226,0.9039796590805054
1772882905905803800,3.0308037109375,0.8854882717132568,-1.1028759479522705,0.5289943218231201
1772882905915736600,3.040736572265625,1.1800676584243774,-0.8996189832687378,-0.05469600111246109
1772882905925668600,3.050668701171875,1.322500467300415,-0.6060686111450195,-0.770254909992218
1772882905935601700,3.0606015625,1.3521385192871094,-0.3979966342449188,-1.3248001337051392
1772882905945533400,3.070533447265625,1.3841798305511475,-0.2815121114253998,-1.5072181224822998
1772882905955466800,3.080466796875,1.5086439847946167,-0.2486441731452942,-1.2696678638458252
1772882905965398500,3.0903984375,1.627846598625183,-0.21472029387950897,-0.6680057644844055
1772882905975331600,3.10033154296875,1.6479095220565796,-0.13281956315040588,0.07469207793474197
1772882905985263600,3.110263671875,1.523419976234436,-0.055452872067689896,0.7898504137992859
1772882905995196700,3.12019677734375,1.1829758882522583,0.010732538998126984,1.4818611145019531
1772882906005128700,3.130128662109375,0.6485902667045593,-0.09617127478122711,2.0052146911621094
1772882906015061500,3.1400615234375,0.17000740766525269,-0.6913358569145203,1.683773159980774
1772882906024993500,3.14999365234375,-0.3097892701625824,-1.240319848060608,1.030218243598938
1772882906034926600,3.159926513671875,-0.7499661445617676,-1.2286310195922852,0.6187180876731873
1772882906044858600,3.169858642578125,-0.7553518414497375,-0.8238174319267273,0.39666080474853516
1772882906054791700,3.179791748046875,-0.28741392493247986,-0.4036071300506592,0.1530260294675827
1772882906064723700,3.1897236328125,0.08948087692260742,-0.18740558624267578,-0.24922581017017365
1772882906074656800,3.19965673828125,0.04832731932401657,-0.20479336380958557,-0.5848389863967896
1772882906084588500,3.209588623046875,0.04392271488904953,-0.31058797240257263,-0.8827716112136841
1772882906094521600,3.219521484375,0.09016478061676025,-0.45979103446006775,-1.084010362625122
1772882906104453600,3.22945361328125,0.24676157534122467,-0.539831817150116,-1.1928095817565918
1772882906114386400,3.239386474609375,0.41695940494537354,-0.5106558203697205,-1.2442735433578491
1772882906124318700,3.249318603515625,0.5049737095832825,-0.32601964473724365,-1.0588704347610474
1772882906134251300,3.259251220703125,0.5067012906074524,-0.0029856697656214237,-0.6756287813186646
1772882906144183000,3.26918310546875,0.41213056445121765,0.34783226251602173,-0.13610005378723145
1772882906154116000,3.2791162109375,0.2234213650226593,0.6024829149246216,0.5051723718643188
1772882906164048100,3.289048095703125,0.08027166873216629,0.7041459083557129,0.9453564286231995
1772882906173981200,3.298981201171875,-0.07260256260633469,0.6267392635345459,1.0069772005081177
1772882906183913200,3.308913330078125,-0.19383977353572845,0.5060059428215027,0.8696768283843994
1772882906193846300,3.31884619140625,-0.22453244030475616,0.5131943225860596,0.7212889194488525
1772882906203778300,3.3287783203125,-0.1299673169851303,0.6016541719436646,0.5759735703468323
1772882906213711400,3.33871142578125,0.08513619750738144,0.665057897567749,0.4087483584880829
1772882906223643400,3.348643310546875,0.26570650935173035,0.6637417674064636,0.2110224962234497
1772882906233576200,3.358576171875,0.31940728425979614,0.5868392586708069,0.03955220431089401
1772882906243508200,3.36850830078125,0.2540152370929718,0.4901611804962158,-0.07132238149642944
1772882906253441300,3.378441162109375,0.12667138874530792,0.3528291583061218,-0.16007381677627563
1772882906263373300,3.388373291015625,-0.02455434575676918,0.24097320437431335,-0.20486871898174286
1772882906273306400,3.398306396484375,-0.1389475017786026,0.19357691705226898,-0.2092011570930481
1772882906283238100,3.408238037109375,-0.20372356474399567,0.1673429161310196,-0.1336755007505417
1772882906293171200,3.418171142578125,-0.20446525514125824,0.18645963072776794,0.04314001277089119
1772882906303103200,3.428103271484375,-0.12010803073644638,0.2395433485507965,0.2612534463405609
1772882906313036300,3.438036376953125,-0.004232295788824558,0.24377857148647308,0.4559195935726166
1772882906322968300,3.44796826171875,-0.022899189963936806,0.21125125885009766,0.597889244556427
1772882906332901000,3.457901123046875,-0.286205917596817,0.2722192704677582,0.8218997120857239
1772882906342833400,3.46783349609375,-0.6755065321922302,0.023024359717965126,0.7791218757629395
1772882906352766200,3.47776611328125,-1.157679796218872,-0.19527335464954376,0.7457612752914429
1772882906362698200,3.4876982421875,-1.4097232818603516,-0.5303032994270325,0.4182257354259491
1772882906372631300,3.49763134765625,-1.0713227987289429,-0.6642903685569763,-0.3897450864315033
1772882906382563300,3.507563232421875,-0.2659059762954712,-0.2585314214229584,-1.3111813068389893
1772882906392496400,3.517496337890625,0.5510277152061462,0.49269118905067444,-2.1917850971221924
1772882906402428200,3.52742822265625,1.1355732679367065,1.0847606658935547,-2.6145126819610596
1772882906412361200,3.537361328125,1.2390836477279663,1.1544467210769653,-2.0972349643707275
1772882906422293200,3.547293212890625,0.6032041311264038,0.7289010882377625,-0.5275359749794006
1772882906432226300,3.557226318359375,-0.5357867479324341,0.17805123329162598,1.0117074251174927
1772882906442158300,3.567158447265625,-1.4014883041381836,-0.402576744556427,1.4551035165786743
1772882906452091100,3.577091064453125,-1.7080836296081543,-0.9745630025863647,1.2028627395629883
1772882906462023200,3.587023193359375,-1.4428441524505615,-1.31741464138031,0.9276828765869141
1772882906471956200,3.596956298828125,-0.7771463394165039,-1.144163727760315,0.7665485739707947
1772882906481888300,3.60688818359375,0.0241940189152956,-0.5376035571098328,0.7334334850311279
1772882906491821300,3.6168212890625,0.6768487691879272,0.2216959148645401,0.7919663190841675
1772882906501753300,3.62675341796875,1.0856215953826904,0.808372974395752,0.669685423374176
1772882906511686400,3.636686279296875,1.158129334449768,0.8935925364494324,0.1486603170633316
1772882906521618400,3.646618408203125,0.9370502829551697,0.5814309120178223,-0.3926742970943451
1772882906531551500,3.656551513671875,0.6304218769073486,0.3265663981437683,-0.5007256865501404
1772882906541483300,3.666483154296875,0.38610535860061646,0.2888408601284027,-0.2534690201282501
1772882906551416000,3.676416015625,0.2498633712530136,0.18531553447246552,0.1417643278837204
1772882906561348000,3.68634814453125,0.2525683343410492,-0.07933929562568665,0.6045370101928711
1772882906571281200,3.69628125,0.2842727303504944,-0.3640407919883728,0.9573009610176086
1772882906581213200,3.706213134765625,0.3400198817253113,-0.5060051083564758,1.115000605583191
1772882906591146200,3.716146240234375,0.4282858371734619,-0.5446867346763611,1.0768276453018188
1772882906601078300,3.726078369140625,0.4209754467010498,-0.5099420547485352,0.9555171728134155
1772882906611011300,3.73601123046875,0.31564265489578247,-0.5518807172775269,0.8439786434173584
1772882906620943400,3.745943359375,0.23571665585041046,-0.6251065135002136,0.7320566177368164
1772882906630876400,3.75587646484375,0.17192648351192474,-0.6201828122138977,0.5379481315612793
1772882906640808400,3.765808349609375,0.11908750981092453,-0.4583002030849457,0.4609905183315277
1772882906650741200,3.7757412109375,0.14878813922405243,-0.25397953391075134,0.43859466910362244
1772882906660673000,3.785673095703125,-0.03985420614480972,-0.24808597564697266,0.3833463191986084
1772882906670606300,3.7956064453125,-0.22335372865200043,-0.3422563970088959,0.36295849084854126
1772882906680538000,3.8055380859375,-0.29523006081581116,-0.5023347735404968,0.36680570244789124
1772882906690471200,3.81547119140625,-0.303275465965271,-0.599980354309082,0.3238081634044647
1772882906700403200,3.8254033203125,-0.25418487191200256,-0.3648853003978729,-0.015978166833519936
1772882906710336300,3.835336181640625,-0.11398728936910629,-0.1523519903421402,-0.5401362180709839
1772882906720268300,3.845268310546875,0.0030450583435595036,-0.03717240318655968,-0.9769502878189087
1772882906730201300,3.855201416015625,0.06464317440986633,-0.04529184848070145,-1.2455532550811768
1772882906740133400,3.86513330078125,0.08582702279090881,-0.14696921408176422,-1.2431273460388184
1772882906750066200,3.875066162109375,0.12183056771755219,-0.24456261098384857,-1.0007985830307007
1772882906759998200,3.884998291015625,0.22272229194641113,-0.3811020851135254,-0.6517074704170227
1772882906769931300,3.89493115234375,0.36347806453704834,-0.5729207992553711,-0.3471768796443939
1772882906779863300,3.90486328125,0.4861600399017334,-0.7114017009735107,-0.20291396975517273
1772882906789796400,3.91479638671875,0.48630866408348083,-0.6602261066436768,-0.10295993834733963
1772882906799728000,3.92472802734375,0.5310167670249939,-0.4986731708049774,-0.025432655587792397
1772882906809661200,3.9346611328125,0.602147102355957,-0.20159569382667542,0.03948775306344032
1772882906819593200,3.94459326171875,0.6937047243118286,0.1511160135269165,0.06479231268167496
1772882906829526300,3.9545263671875,0.8007363677024841,0.3904644250869751,0.10835443437099457
1772882906839458300,3.964458251953125,0.6107512712478638,0.446096271276474,0.19189539551734924
1772882906849390300,3.974390380859375,0.3842374086380005,0.3758591115474701,0.34420984983444214
1772882906859323100,3.9843232421875,0.19770455360412598,0.2831352949142456,0.534529983997345
1772882906869254400,3.99425439453125,0.0174998976290226,0.2179240733385086,0.679855227470398
1772882906879186200,4.004186279296875,-0.09889595210552216,0.24794961512088776,0.7882253527641296
1772882906889119200,4.014119140625,-0.1575494110584259,0.3726198971271515,0.832949161529541
1772882906899051300,4.02405126953125,-0.2023182213306427,0.5356831550598145,0.8502967357635498
1772882906908984000,4.033984130859375,-0.29495707154273987,0.7395893931388855,0.8730795383453369
1772882906918916400,4.043916259765625,-0.46272608637809753,0.8596398830413818,1.0078866481781006
1772882906928849200,4.05384912109375,-0.7390437126159668,0.7784566283226013,1.0260400772094727
1772882906938781200,4.06378125,-1.2372410297393799,0.6289134621620178,0.9314547181129456
1772882906948714200,4.07371435546875,-1.5701872110366821,0.06035548448562622,0.3216416835784912
1772882906958646300,4.083646240234375,-1.5114467144012451,-0.49675729870796204,-0.7363283634185791
1772882906968579300,4.093579345703125,-0.9270581007003784,-0.8458521962165833,-1.9681010246276855
1772882906978511400,4.103511474609375,0.17807279527187347,-0.8062371015548706,-3.011709690093994
1772882906988444400,4.1134443359375,1.455931544303894,-0.5616734623908997,-3.359753131866455
1772882906998376400,4.12337646484375,2.1711606979370117,-0.25366130471229553,-2.797893762588501
1772882907008309200,4.133309326171875,1.9409784078598022,-0.08813012391328812,-1.1215015649795532
1772882907018241300,4.1432412109375,0.9039125442504883,-0.35090556740760803,0.8693170547485352
1772882907028174000,4.153174072265625,-0.04547746852040291,-0.7254376411437988,2.098989486694336
1772882907038106000,4.163106201171875,-0.658258318901062,-0.9832971096038818,2.433605670928955
1772882907048039200,4.1730390625,-1.0382229089736938,-1.10812246799469,2.0955209732055664
1772882907057971200,4.18297119140625,-1.224845051765442,-0.8775871992111206,1.4849709272384644
1772882907067904300,4.192904296875,-1.0385748147964478,-0.5025432705879211,0.7737289667129517
1772882907077836300,4.202836181640625,-0.4938850700855255,-0.1803836226463318,0.05953017249703407
1772882907087769300,4.212769287109375,0.15204918384552002,-0.04799522086977959,-0.650256335735321
1772882907097701400,4.222701416015625,0.5863460302352905,0.003061569994315505,-1.1951923370361328
1772882907107634400,4.232634521484375,0.8042690753936768,0.04260285571217537,-1.3609323501586914
1772882907117566500,4.24256640625,0.9154512286186218,-0.0006815029191784561,-1.2490148544311523
1772882907127499300,4.252499267578125,0.8068373799324036,-0.2219715416431427,-0.9502859115600586
1772882907137430800,4.2624306640625,0.6063000559806824,-0.5426291823387146,-0.5054042935371399
1772882907147363800,4.27236376953125,0.5354778170585632,-0.5969446301460266,0.019540678709745407
1772882907157295600,4.282295654296875,0.5818005800247192,-0.20100873708724976,0.5147637128829956
1772882907167228700,4.292228759765625,0.5418621897697449,0.40935075283050537,0.979539155960083
1772882907177160700,4.30216064453125,0.37303483486175537,0.8081530332565308,1.322345495223999
1772882907187093800,4.31209375,0.13757917284965515,0.7611021399497986,1.5587791204452515
1772882907197025800,4.32202587890625,-0.20384366810321808,0.46801966428756714,1.7727988958358765
1772882907206958800,4.331958740234375,-0.5554709434509277,0.22614818811416626,1.9239472150802612
1772882907216891000,4.341890869140625,-0.8690181970596313,0.18271495401859283,1.9478572607040405
1772882907226823700,4.35182373046875,-1.0165666341781616,0.2611258625984192,1.7747864723205566
1772882907236756000,4.361755859375,-0.8924753665924072,0.4719984233379364,1.440832495689392
1772882907246689800,4.371689697265625,-0.5885575413703918,0.6631215214729309,1.0643984079360962
1772882907256622800,4.381622802734375,-0.26620346307754517,0.7913801670074463,0.7135143876075745
1772882907266555000,4.391554931640625,-0.042751457542181015,0.7528460621833801,0.33381232619285583
1772882907276488000,4.401488037109375,0.18795739114284515,0.49982553720474243,0.01423539500683546
1772882907286420000,4.411419921875,0.3357662856578827,0.24688701331615448,-0.18324412405490875
1772882907296352800,4.421352783203125,0.4101180136203766,-0.06805095821619034,-0.41099900007247925
1772882907306284800,4.431284912109375,0.46865323185920715,-0.47528475522994995,-0.6447579264640808
1772882907316217900,4.4412177734375,0.5731029510498047,-0.714593231678009,-0.7907044887542725
1772882907326149600,4.451149658203125,0.6257230043411255,-0.7280989289283752,-0.7804619669914246
1772882907336082700,4.461082763671875,0.5765453577041626,-0.7570512294769287,-0.6534558534622192
1772882907346014700,4.4710146484375,0.4077611267566681,-0.7242447733879089,-0.5098128914833069
1772882907355947800,4.48094775390625,0.22084982693195343,-0.611566960811615,-0.44008389115333557
1772882907365879800,4.4908798828125,0.09961314499378204,-0.5160348415374756,-0.3673015832901001
1772882907375812900,4.500812744140625,-0.03756415471434593,-0.41731759905815125,-0.29360097646713257
1772882907385745000,4.510744873046875,-0.17402932047843933,-0.2713084816932678,-0.20766504108905792
1772882907395677700,4.520677734375,-0.2659667134284973,-0.17071634531021118,-0.03695189207792282
1772882907405609700,4.530609619140625,-0.2523403763771057,-0.11532339453697205,0.2428715080022812
1772882907415542800,4.540542724609375,-0.18679997324943542,-0.0062858592718839645,0.5643075704574585
1772882907425474800,4.550474853515625,-0.1034395694732666,0.14730502665042877,0.8451075553894043
1772882907435408000,4.560407958984375,-0.03459339588880539,0.28761953115463257,1.0445700883865356
1772882907445340000,4.57033984375,0.0031017838045954704,0.4133843779563904,1.1520658731460571
1772882907455273000,4.58027294921875,-0.02582520619034767,0.48400208353996277,1.1909760236740112
1772882907465204700,4.590204833984375,-0.10506223887205124,0.507183849811554,1.1450178623199463
1772882907475137800,4.6001376953125,-0.21547476947307587,0.5677092671394348,1.069342851638794
1772882907485069800,4.61006982421875,-0.21453307569026947,0.786396324634552,1.0938267707824707
1772882907495002600,4.620002685546875,-0.20542480051517487,1.0662401914596558,1.2269960641860962
1772882907504935000,4.629934814453125,-0.32466650009155273,1.0212796926498413,0.8834317922592163
1772882907514867700,4.63986767578125,-0.443450927734375,0.5819406509399414,0.51659095287323
1772882907524799700,4.6497998046875,-0.5115676522254944,0.13644999265670776,0.23350942134857178
1772882907534732800,4.65973291015625,-0.5370379090309143,-0.19748830795288086,-0.048714008182287216
1772882907544664800,4.669664794921875,-0.4610525667667389,-0.4427955448627472,-0.45599815249443054
1772882907554598000,4.679597900390625,-0.3358485698699951,-0.5936926603317261,-0.8232781887054443
1772882907564530000,4.689530029296875,-0.07432562857866287,-0.6004043221473694,-0.7887534499168396
1772882907574463000,4.699462890625,0.26976171135902405,-0.5035515427589417,-0.3554704785346985
1772882907584394800,4.709394775390625,0.40378183126449585,-0.49046051502227783,0.0022498385515064
1772882907594327800,4.719327880859375,0.3269839882850647,-0.592287540435791,0.159745991230011
1772882907604259800,4.729259765625,0.5297296643257141,-0.6783161759376526,0.2714861035346985
1772882907614192600,4.739192626953125,0.6995828747749329,-0.5665467977523804,0.2887524366378784
1772882907624124700,4.749124755859375,0.677985429763794,-0.44931840896606445,0.0843215361237526
1772882907634057700,4.7590576171875,0.530430018901825,-0.402089387178421,-0.24160383641719818
1772882907643989800,4.76898974609375,0.4603750705718994,-0.29560235142707825,-0.5401433706283569
1772882907653922800,4.7789228515625,0.5380179286003113,-0.07284624129533768,-0.7083891034126282
1772882907663854800,4.788854736328125,0.6830108165740967,0.20240236818790436,-0.7734664082527161
1772882907673788000,4.798787841796875,0.6240593194961548,0.41988489031791687,-0.8454362154006958
1772882907683720000,4.808719970703125,0.42559337615966797,0.31062790751457214,-0.8314002752304077
1772882907693653000,4.818653076171875,0.1991807520389557,-0.003983556292951107,-0.7016510367393494
1772882907703585000,4.8285849609375,-0.0036250948905944824,-0.3317401111125946,-0.5239750742912292
1772882907713517800,4.838517822265625,-0.18161852657794952,-0.6156173944473267,-0.3403970003128052
1772882907723449600,4.84844970703125,-0.3218696415424347,-0.7191134095191956,-0.16513729095458984
1772882907733382700,4.858382568359375,-0.37029656767845154,-0.5578593015670776,0.0784711092710495
1772882907743314700,4.868314697265625,-0.3003859221935272,-0.14802861213684082,0.42807596921920776
1772882907753247700,4.878247802734375,-0.20904110372066498,0.25395718216896057,0.7863076329231262
1772882907763179800,4.8881796875,-0.14428581297397614,0.44401872158050537,1.0362242460250854
1772882907773112800,4.89811279296875,-0.16235242784023285,0.5038365125656128,1.2426480054855347
1772882907783044900,4.908044921875,-0.30886730551719666,0.49503079056739807,1.4290660619735718
1772882907792977000,4.917976806640625,-0.4736011326313019,0.34997478127479553,1.4660803079605103
1772882907802910000,4.927909912109375,-0.5853111147880554,0.11294306069612503,1.3454481363296509
1772882907812842000,4.937842041015625,-0.6236151456832886,0.08953388035297394,1.1493768692016602
1772882907822774800,4.94777490234375,-0.5678695440292358,0.33873251080513,0.8477613925933838
1772882907832706800,4.957706787109375,-0.4810933768749237,0.6205383539199829,0.46190398931503296
1772882907842639600,4.9676396484375,-0.3979793190956116,0.7304137349128723,-0.033055420964956284
1772882907852571600,4.977571533203125,-0.30866968631744385,0.6530781984329224,-0.5805765986442566
1772882907862504700,4.987504638671875,-0.1460259109735489,0.4532968997955322,-1.0731481313705444
1772882907872436700,4.997436767578125,0.06744002550840378,0.22218087315559387,-1.4361804723739624
1772882907882369800,5.007369873046875,0.28630924224853516,0.011775699444115162,-1.6441147327423096
1772882907892301800,5.0173017578125,0.43516451120376587,-0.21578235924243927,-1.6857900619506836
1772882907902235000,5.02723486328125,0.49140381813049316,-0.3439576327800751,-1.621282935142517
1772882907912167000,5.0371669921875,0.5036351680755615,-0.35455673933029175,-1.4515737295150757
1772882907922099700,5.047099609375,0.4915122091770172,-0.2856447994709015,-1.188673496246338
1772882907932031700,5.05703173828125,0.44665470719337463,-0.2103194147348404,-0.9512087106704712
1772882907941964800,5.06696484375,0.36916232109069824,-0.16991659998893738,-0.7923396825790405
1772882907951896800,5.076896728515625,0.24354101717472076,-0.14825259149074554,-0.6956232786178589
1772882907961830000,5.086829833984375,0.1151132732629776,-0.12874838709831238,-0.6336714625358582
1772882907971761700,5.09676171875,0.022784674540162086,-0.11511673778295517,-0.5869713425636292
1772882907981694700,5.10669482421875,-0.020065853372216225,-0.12179461121559143,-0.4767380654811859
1772882907991626800,5.116626708984375,-0.04084356874227524,-0.11688747256994247,-0.29181399941444397
1772882908001559800,5.126559814453125,-0.04128964990377426,-0.08648402243852615,-0.06974659115076065
1772882908011491800,5.136491943359375,-0.017405355349183083,0.037340447306632996,0.1728261113166809
1772882908021425000,5.1464248046875,-0.012433500029146671,0.2446824461221695,0.3881101906299591
1772882908031357000,5.15635693359375,-0.0589221715927124,0.44701531529426575,0.5585442185401917
1772882908041289700,5.166289794921875,-0.13261103630065918,0.6273145079612732,0.6515197157859802
1772882908051221800,5.1762216796875,-0.19903694093227386,0.7691504955291748,0.7082735300064087
1772882908061154800,5.18615478515625,-0.23758380115032196,0.8488032221794128,0.7494603991508484
1772882908071086800,5.1960869140625,-0.23402447998523712,0.9155175685882568,0.7267798781394958
1772882908081020000,5.20602001953125,-0.20075494050979614,0.9876623153686523,0.7363030314445496
1772882908090951700,5.21595166015625,-0.16863322257995605,1.0529478788375854,1.0318207740783691
1772882908100885000,5.225885009765625,-0.12496244162321091,0.9712894558906555,1.2485549449920654
1772882908110816800,5.235816650390625,-0.10543827712535858,0.815689206123352,1.1776061058044434
1772882908120749800,5.245749755859375,-0.08171164244413376,0.7115204930305481,1.1409006118774414
1772882908130681900,5.255681884765625,-0.3338647782802582,0.5684477090835571,0.7861060500144958
1772882908140615000,5.265614990234375,-0.6446807384490967,0.08741879463195801,-0.18738241493701935
1772882908150547000,5.275546875,-0.6394665241241455,-0.5282750129699707,-1.3504961729049683
1772882908160480000,5.28547998046875,-0.37100285291671753,-0.7820332646369934,-1.8959184885025024
1772882908170412000,5.295412109375,-0.032041821628808975,-1.022445559501648,-1.7117960453033447
1772882908180345000,5.305344970703125,0.46614107489585876,-1.23738694190979,-0.8898580074310303
1772882908190277000,5.315277099609375,0.8236653804779053,-1.108280897140503,0.3671329915523529
1772882908200210200,5.325210205078125,0.9164616465568542,-0.7416139245033264,1.3788998126983643
1772882908210142000,5.335141845703125,0.707495927810669,-0.30816102027893066,1.9500727653503418
1772882908220075000,5.345074951171875,0.3887062072753906,0.033672209829092026,1.9231876134872437
1772882908230007000,5.355007080078125,0.10828892141580582,0.32721033692359924,1.3532922267913818
1772882908239939800,5.36493994140625,-0.24312849342823029,0.6788602471351624,0.6168885231018066
1772882908249872000,5.374871826171875,-0.6026970744132996,0.8852720260620117,-0.06429722905158997
1772882908259805000,5.384804931640625,-0.662227213382721,0.8070176839828491,-0.6265203356742859
1772882908269737000,5.394737060546875,-0.40986260771751404,0.5811321139335632,-0.8929656147956848
1772882908279670000,5.404669921875,-0.029463350772857666,0.2551843523979187,-0.9420921802520752
1772882908289602000,5.41460205078125,0.3430742621421814,-0.14213770627975464,-0.8197486996650696
1772882908299535000,5.42453515625,0.5804298520088196,-0.51682448387146,-0.618292510509491
1772882908309467100,5.434467041015625,0.6547879576683044,-0.8955467939376831,-0.4408828616142273
1772882908319400200,5.444400146484375,0.5384669303894043,-1.1370371580123901,-0.346240758895874
1772882908329332200,5.454332275390625,0.29836219549179077,-1.0852634906768799,-0.3369700312614441
1772882908339265000,5.46426513671875,0.08647710084915161,-0.8260071277618408,-0.34748658537864685
1772882908349196800,5.47419677734375,-0.05072017014026642,-0.44615858793258667,-0.2563766539096832
1772882908359129900,5.4841298828125,-0.12745170295238495,-0.12656113505363464,-0.03069506213068962
1772882908369062000,5.494061767578125,-0.26659733057022095,0.11969710886478424,0.33357369899749756
1772882908378995000,5.503994873046875,-0.5123634338378906,0.24192474782466888,0.7794438600540161
1772882908388927000,5.513927001953125,-0.7520985007286072,0.19134119153022766,1.166630744934082
1772882908398860000,5.523860107421875,-0.9595600962638855,0.03117336519062519,1.2606781721115112
1772882908408792000,5.5337919921875,-1.0652700662612915,-0.0921459048986435,1.099774718284607
1772882908418725000,5.54372509765625,-1.0962393283843994,-0.13307948410511017,0.7833262085914612
1772882908428657200,5.5536572265625,-1.0792478322982788,-0.21500630676746368,0.24110476672649384
1772882908438590000,5.56358984375,-1.0245311260223389,-0.037872280925512314,-0.3352815806865692
1772882908448522000,5.57352197265625,-0.8446260690689087,0.08011427521705627,-0.8578702211380005
1772882908458455000,5.583455078125,-0.4982191026210785,0.25439631938934326,-1.2239116430282593
1772882908468387000,5.593386962890625,-0.08030975610017776,0.37520477175712585,-1.384596586227417
1772882908478318800,5.60331884765625,0.3215751051902771,0.3853205144405365,-1.2926366329193115
1772882908488252000,5.613251953125,0.6629704833030701,0.31943047046661377,-1.0074647665023804
1772882908498184000,5.623183837890625,0.8572803139686584,0.14270628988742828,-0.6713810563087463
1772882908508117000,5.633116943359375,0.8488471508026123,-0.028921397402882576,-0.4081669747829437
1772882908518049000,5.643049072265625,0.7681046724319458,-0.11554177850484848,-0.26056528091430664
1772882908527982000,5.652982177734375,0.6102210283279419,-0.13235031068325043,-0.1844116598367691
1772882908537914000,5.6629140625,0.47663819789886475,-0.07071704417467117,-0.24444623291492462
1772882908547847000,5.672846923828125,0.4025879204273224,-0.014534734189510345,-0.4015391767024994
1772882908557779200,5.682779296875,0.35367152094841003,0.039924778044223785,-0.5440664887428284
1772882908567712000,5.6927119140625,0.32129839062690735,0.17353025078773499,-0.625311017036438
1772882908577644000,5.70264404296875,0.3066962957382202,0.2990860342979431,-0.6314943432807922
1772882908587577000,5.7125771484375,0.3125712275505066,0.378256231546402,-0.5647752285003662
1772882908597508900,5.7225087890625,0.3361295461654663,0.40624284744262695,-0.4018622040748596
1772882908607442000,5.73244189453125,0.35486888885498047,0.37301164865493774,-0.19220831990242004
1772882908617374000,5.7423740234375,0.34760457277297974,0.36105406284332275,0.009698966518044472
1772882908627307000,5.75230712890625,0.3044171631336212,0.3656589388847351,0.20518937706947327
1772882908637239000,5.762239013671875,0.2395087331533432,0.3468865752220154,0.351620614528656
1772882908647172000,5.772172119140625,0.13579271733760834,0.3711905777454376,0.41236892342567444
1772882908657104100,5.782104248046875,0.04352830350399017,0.4952198565006256,0.3844936192035675
1772882908667037000,5.792036865234375,-0.015356585383415222,0.6710020899772644,0.27208104729652405
1772882908676969000,5.801968994140625,-0.09230143576860428,0.8834149837493896,0.21165819466114044
1772882908686902000,5.811902099609375,-0.20988452434539795,1.0623352527618408,0.4437390863895416
1772882908696834000,5.821833984375,-0.42130810022354126,0.894072949886322,0.5023531317710876
1772882908706767000,5.83176708984375,-0.7338593602180481,0.4906035363674164,0.513678252696991
1772882908716699100,5.84169921875,-0.9116546511650085,0.0730246752500534,0.48551344871520996
1772882908726632200,5.851632080078125,-0.7514913082122803,-0.09695317596197128,0.02106027863919735
1772882908736564000,5.86156396484375,-0.33470261096954346,-0.196449413895607,-0.9563219547271729
1772882908746497000,5.8714970703125,0.17443038523197174,-0.244398295879364,-1.866223692893982
1772882908756429000,5.881428955078125,0.5617488026618958,-0.1931297779083252,-2.0024797916412354
1772882908766361900,5.89136181640625,0.6887456774711609,-0.30296599864959717,-1.3961228132247925
1772882908776294000,5.9012939453125,0.6721685528755188,-0.48795607686042786,-0.3486788868904114
1772882908786227000,5.91122705078125,0.6692044138908386,-0.7470182776451111,0.6687138676643372
1772882908796159000,5.921158935546875,0.6323012709617615,-0.9996777176856995,1.1484419107437134
1772882908806092000,5.931092041015625,0.4580434560775757,-1.2823994159698486,1.156017780303955
1772882908816024000,5.941024169921875,0.26890894770622253,-1.3389772176742554,0.6567386984825134
1772882908825957000,5.95095703125,0.15595898032188416,-1.103649377822876,0.0861402079463005
1772882908835889200,5.96088916015625,0.22392123937606812,-0.5967028141021729,-0.3403748869895935
1772882908845822200,5.970822265625,0.42185190320014954,-0.11887578666210175,-0.744707465171814
1772882908855754000,5.98075390625,0.6260321736335754,0.01673184148967266,-1.0840498208999634
1772882908865686800,5.990686767578125,0.8127871751785278,-0.3653172552585602,-1.1020320653915405
1772882908875618800,6.000618896484375,0.9680441617965698,-0.7818803787231445,-0.6586431264877319
1772882908885551900,6.0105517578125,1.021451473236084,-0.9416894912719727,-0.0049124667420983315
1772882908895484000,6.02048388671875,0.9291263222694397,-0.9930331110954285,0.590034008026123
1772882908905417000,6.0304169921875,0.9628264904022217,-0.8390949368476868,1.0350878238677979
1772882908915349000,6.040348876953125,1.1559416055679321,-0.2522764503955841,1.34355890750885
1772882908925282000,6.050281982421875,1.280193567276001,0.3992967903614044,1.4940820932388306
1772882908935214000,6.060214111328125,1.0730949640274048,0.6912533044815063,1.4192442893981934
1772882908945147100,6.070147216796875,0.6818879842758179,0.4780789613723755,1.2072415351867676
1772882908955079200,6.0800791015625,0.23229795694351196,0.08115637302398682,0.9152829051017761
1772882908965012000,6.090011962890625,-0.20386284589767456,-0.04301777482032776,0.6919816732406616
1772882908974944000,6.099944091796875,-0.4555089473724365,0.17035335302352905,0.5015233159065247
1772882908984877000,6.109876953125,-0.4626014530658722,0.4369001090526581,0.23119087517261505
1772882908994808800,6.119808837890625,-0.45816755294799805,0.6600005626678467,-0.13882899284362793
1772882909004742000,6.129741943359375,-0.4713717997074127,0.8341012597084045,-0.40190616250038147
1772882909014674000,6.139673828125,-0.44213080406188965,0.907365620136261,-0.5857303142547607
1772882909024606000,6.14960595703125,-0.3586452305316925,0.9191346764564514,-0.7048543095588684
1772882909034539000,6.1595390625,-0.1830398589372635,0.9000962376594543,-0.7505134344100952
1772882909044471000,6.169470947265625,-0.0495837964117527,0.8418965935707092,-0.8014578223228455
1772882909054404000,6.179404052734375,-0.0900111123919487,0.5562413930892944,-0.8297456502914429
1772882909064336100,6.189336181640625,-0.21292905509471893,0.009281116537749767,-0.7602787017822266
1772882909074269200,6.199269287109375,-0.1910029798746109,-0.5137144327163696,-0.6123738884925842
1772882909084201200,6.209201171875,-0.1298714429140091,-0.7431505918502808,-0.4713906943798065
1772882909094134000,6.219134033203125,-0.043408725410699844,-0.7049453854560852,-0.489250123500824
1772882909104065800,6.229065673828125,0.11713514477014542,-0.4446568191051483,-0.6910801529884338
1772882909113998800,6.238998779296875,0.3009209632873535,-0.09680537134408951,-0.8980304002761841
1772882909123931000,6.248930908203125,0.4410892426967621,0.18640875816345215,-1.0049608945846558
1772882909133863700,6.25886376953125,0.501724898815155,0.30203521251678467,-0.9635828137397766
1772882909143795700,6.268795654296875,0.4887164235115051,0.21370002627372742,-0.8270489573478699
1772882909153728800,6.278728759765625,0.44038882851600647,0.009272594004869461,-0.6175399422645569
1772882909163660800,6.288660888671875,0.3937259912490845,-0.13688328862190247,-0.3713298738002777
1772882909173593900,6.29859375,0.3556331992149353,-0.12865199148654938,-0.17062394320964813
1772882909183526000,6.30852587890625,0.30550825595855713,-0.055041681975126266,-0.02014761231839657
1772882909193458700,6.318458740234375,0.22906407713890076,0.02725053019821644,0.09154962748289108
1772882909203390700,6.328390625,0.13757117092609406,0.04893878102302551,0.15541808307170868
1772882909213323800,6.33832373046875,0.04464629665017128,0.07513949275016785,0.20813429355621338
1772882909223255800,6.348255859375,-0.052935387939214706,0.09738247841596603,0.270102858543396
1772882909233188900,6.35818896484375,-0.16822762787342072,0.09044947475194931,0.32588011026382446
1772882909243121000,6.368120849609375,-0.2630561292171478,0.02305098995566368,0.3093027174472809
1772882909253054000,6.378053955078125,-0.3950064480304718,0.012136823497712612,0.264944851398468
1772882909262985700,6.38798583984375,-0.5682573318481445,0.01258024014532566,0.4307814836502075
1772882909272918800,6.397918701171875,-0.6548305749893188,-0.1971341073513031,0.6168557405471802
1772882909282850800,6.407850830078125,-0.745380699634552,-0.1594591587781906,0.7454349994659424
1772882909292783600,6.41778369140625,-0.776833713054657,0.16721029579639435,0.8733288049697876
1772882909302716000,6.4277158203125,-0.6174307465553284,0.7124885320663452,0.5427647233009338
1772882909312648700,6.437648681640625,-0.2707854211330414,1.0858757495880127,-0.18538877367973328
1772882909322580700,6.447580810546875,0.06504371762275696,1.118527889251709,-0.714446485042572
1772882909332513800,6.457513671875,0.4083763062953949,1.0199345350265503,-0.9039743542671204
1772882909342445800,6.46744580078125,0.5075860023498535,1.0823898315429688,-0.9835307002067566
1772882909352379000,6.47737890625,0.061715561896562576,0.8157403469085693,-0.880692183971405
1772882909362311000,6.487310791015625,-0.47956740856170654,-0.3374102711677551,-0.31773507595062256
1772882909372244000,6.497243896484375,-0.33592501282691956,-1.8584363460540771,0.7236855030059814
1772882909382175700,6.50717578125,0.0018700717482715845,-2.6940953731536865,1.6813139915466309
1772882909392108800,6.51710888671875,0.1383112668991089,-2.730381488800049,2.2347333431243896
1772882909402040800,6.527040771484375,0.46985432505607605,-2.2850899696350098,2.160754680633545
1772882909411973600,6.5369736328125,0.981196939945221,-1.5557247400283813,1.5428565740585327
1772882909421905700,6.54690576171875,1.3506649732589722,-0.7660806775093079,0.5270947217941284
1772882909431838700,6.556838623046875,1.3888413906097412,-0.1785377860069275,-0.6298349499702454
1772882909441770800,6.566770751953125,1.0878376960754395,0.09618725627660751,-1.7365914583206177
1772882909451703800,6.576703857421875,0.6820632219314575,0.12845943868160248,-2.3603110313415527
1772882909461635800,6.5866357421875,0.3567839562892914,0.07328353822231293,-2.2216906547546387
1772882909471569000,6.59656884765625,0.20967413485050201,-0.1882852166891098,-1.7050390243530273
1772882909481501000,6.6065009765625,0.18884502351284027,-0.5849351286888123,-1.0404675006866455
1772882909491434000,6.61643408203125,0.31290197372436523,-0.9816382527351379,-0.19845370948314667
1772882909501366000,6.626365966796875,0.4751734435558319,-1.2818920612335205,0.6644328832626343
1772882909511297800,6.6362978515625,0.45727699995040894,-1.300544023513794,1.336247205734253
1772882909521230600,6.646230712890625,0.2933293581008911,-0.9893089532852173,1.6778143644332886
1772882909531163600,6.65616357421875,0.14303918182849884,-0.5757250785827637,1.6347577571868896
1772882909541095700,6.666095703125,-0.07144462317228317,-0.13617222011089325,1.4482879638671875
1772882909551027700,6.67602783203125,-0.39835402369499207,0.2696298658847809,1.362169861793518
1772882909560960800,6.685960693359375,-0.8647624850273132,0.5447636842727661,1.397000789642334
1772882909570892800,6.695892822265625,-1.2216942310333252,0.6025881171226501,1.522589087486267
1772882909580825900,6.705825927734375,-1.4358224868774414,0.5102052092552185,1.4610942602157593
1772882909590758000,6.7157578125,-1.536319613456726,0.3383399546146393,1.1986887454986572
1772882909600691000,6.72569091796875,-1.479466438293457,0.261404424905777,0.6965383291244507
1772882909610623000,6.735623046875,-1.2633713483810425,0.2703081965446472,0.08204693347215652
1772882909620555800,6.7455556640625,-0.9219663739204407,0.35227257013320923,-0.5211949944496155
1772882909630487800,6.75548779296875,-0.4632563292980194,0.41701239347457886,-1.048132061958313
1772882909640420900,6.7654208984375,0.18631528317928314,0.3870667517185211,-1.4971665143966675
1772882909650352600,6.7753525390625,0.696375846862793,0.33137500286102295,-1.656696081161499
1772882909660285700,6.78528564453125,0.8213074207305908,0.11601421982049942,-1.5883744955062866
1772882909670217700,6.7952177734375,0.5915147066116333,-0.3302234411239624,-1.3793576955795288
1772882909680150800,6.80515087890625,0.41182297468185425,-0.8575282692909241,-0.9588679671287537
1772882909690082800,6.815082763671875,0.5868014693260193,-1.0353952646255493,-0.46536874771118164
1772882909700015900,6.825015869140625,0.7917543053627014,-0.9478765726089478,0.009591108188033104
1772882909709948000,6.834947998046875,0.8587557077407837,-0.6856784820556641,0.27221980690956116
1772882909719880700,6.844880615234375,0.6866865158081055,-0.24525102972984314,0.28084710240364075
1772882909729812700,6.854812744140625,0.5201366543769836,0.03297312930226326,0.21171411871910095
1772882909739745800,6.864745849609375,0.39632442593574524,0.21774457395076752,0.12679842114448547
1772882909749677800,6.874677734375,0.30367040634155273,0.3758535087108612,0.03213130310177803
1772882909759611000,6.88461083984375,0.13544277846813202,0.560007631778717,-0.06325700134038925
1772882909769542700,6.894542724609375,-0.20555421710014343,0.629857063293457,-0.11713673919439316
1772882909779475700,6.904475830078125,-0.5060448050498962,0.641821563243866,-0.06366340070962906
1772882909789407700,6.91440771484375,-0.6862444281578064,0.6713954210281372,0.12529373168945312
1772882909799340800,6.9243408203125,-0.7360367178916931,0.686211109161377,0.3754119575023651
1772882909809272800,6.93427294921875,-0.7138627171516418,0.646087110042572,0.6315284371376038
1772882909819206000,6.944205810546875,-0.6757265329360962,0.6596511602401733,0.8454734683036804
1772882909829138000,6.954137939453125,-0.6003921031951904,0.7107564210891724,0.9297196269035339
1772882909839070700,6.96407080078125,-0.5384008884429932,0.7875020503997803,0.9218881130218506
1772882909849002800,6.974002685546875,-0.5836860537528992,0.8759728074073792,0.8686591982841492
1772882909858935800,6.983935791015625,-0.6489667892456055,0.8448018431663513,0.6854867339134216
1772882909868867800,6.993867919921875,-0.583313524723053,0.7044138312339783,0.3565322756767273
1772882909878801000,7.00380078125,-0.39332813024520874,0.6314620971679688,0.19506803154945374
1772882909888733000,7.01373291015625,-0.4357914328575134,0.6215141415596008,0.23772360384464264
1772882909898666000,7.023666015625,-0.5443719625473022,0.796410858631134,0.13217854499816895
1772882909908597800,7.03359765625,-0.3963702321052551,0.7973709106445312,-0.022659773007035255
1772882909918530800,7.04353076171875,-0.08139365911483765,0.8784109354019165,-0.3465065360069275
1772882909928462800,7.053462890625,0.11977007985115051,0.9512107968330383,-0.8186301589012146
1772882909938395000,7.063394775390625,0.2972681522369385,0.7544476985931396,-1.3335683345794678
1772882909948327700,7.07332763671875,0.2667885422706604,0.41595911979675293,-1.5135085582733154
1772882909958259700,7.083259765625,-0.07600874453783035,0.030252177268266678,-1.291353702545166
1772882909968192800,7.09319287109375,-0.46174606680870056,-0.5710131525993347,-0.5021528601646423
1772882909978124800,7.103124755859375,-0.5015469789505005,-1.1763821840286255,0.5793024897575378
1772882909988057900,7.113057861328125,-0.2948731780052185,-1.3632593154907227,1.3917384147644043
1772882909997990000,7.122989990234375,-0.08951470255851746,-1.2040475606918335,1.7285760641098022
1772882910007923000,7.1329228515625,0.17034776508808136,-0.7200068831443787,1.5262216329574585
1772882910017854700,7.142854736328125,0.55343097448349,0.01041429117321968,0.8031670451164246
1772882910027787800,7.152787841796875,0.8412669897079468,0.5540898442268372,-0.1620458960533142
1772882910037719800,7.1627197265625,0.8149996995925903,0.7824633717536926,-1.010109543800354
1772882910047652600,7.172652587890625,0.6990688443183899,0.7502636313438416,-1.5138992071151733
1772882910057584600,7.182584716796875,0.43239614367485046,0.30770057439804077,-1.4821975231170654
1772882910067517700,7.192517578125,0.11279845237731934,-0.38784733414649963,-0.9793950319290161
1772882910077449700,7.20244970703125,-0.01127901952713728,-0.9102919101715088,-0.3289898633956909
1772882910087382800,7.2123828125,0.08489491790533066,-1.0989468097686768,0.2750909626483917
1772882910097314800,7.222314697265625,0.2640713155269623,-1.114189863204956,0.6862473487854004
1772882910107247900,7.232247802734375,0.4154243767261505,-0.9907233715057373,0.7972558736801147
1772882910117180000,7.242179931640625,0.4611487090587616,-0.7852703332901001,0.6363988518714905
1772882910127113000,7.252113037109375,0.3833433985710144,-0.5510138869285583,0.2911093235015869
1772882910137045500,7.26204541015625,0.2945637106895447,-0.4383488595485687,-0.06734521687030792
1772882910146978300,7.271978271484375,0.15015780925750732,-0.39413824677467346,-0.27959197759628296
1772882910156910300,7.281910400390625,-0.019036009907722473,-0.44668933749198914,-0.35112154483795166
1772882910166843400,7.291843505859375,-0.10893021523952484,-0.5400320887565613,-0.3067846894264221
1772882910176775400,7.301775390625,-0.09911113977432251,-0.5088499188423157,-0.12224548310041428
1772882910186708500,7.31170849609375,-0.015168299898505211,-0.42469775676727295,0.1258641928434372
1772882910196640500,7.321640625,0.023791348561644554,-0.2843576967716217,0.33468955755233765
1772882910206573600,7.331573486328125,-0.05561745539307594,-0.20827198028564453,0.48405829071998596
1772882910216505600,7.341505615234375,-0.140732079744339,-0.178949236869812,0.6068145632743835
1772882910226438400,7.3514384765625,-0.19582915306091309,-0.02418496459722519,0.6161636114120483
1772882910236370400,7.361370361328125,-0.24199451506137848,0.24213381111621857,0.5669803619384766
1772882910246303200,7.37130322265625,-0.25304824113845825,0.43043288588523865,0.42321276664733887
1772882910256235300,7.3812353515625,-0.25111639499664307,0.5152433514595032,0.11895354837179184
1772882910266168300,7.391168212890625,-0.2613101601600647,0.6063860654830933,-0.28207775950431824
1772882910276100400,7.401100341796875,-0.10171357542276382,0.6852204203605652,-0.7976326942443848
1772882910286033400,7.411033447265625,-0.011286742985248566,0.6997610330581665,-1.1773624420166016
1772882910295965400,7.42096533203125,0.10123101621866226,0.5772609114646912,-1.3981741666793823
1772882910305898500,7.4308984375,0.2229984551668167,0.29384973645210266,-1.4481375217437744
1772882910315830500,7.44083056640625,0.23177944123744965,-0.0537513792514801,-1.2563552856445312
1772882910325763600,7.450763671875,0.15594112873077393,-0.3364829421043396,-0.9364041686058044
1772882910335695600,7.460695556640625,0.1119246706366539,-0.4538244903087616,-0.5952231287956238
1772882910345628400,7.47062841796875,0.10896722972393036,-0.4263257384300232,-0.297114759683609
1772882910355560400,7.480560546875,0.15670518577098846,-0.2527393102645874,-0.07607106864452362
1772882910365493500,7.490493408203125,0.23325243592262268,-0.007072024047374725,0.030785875394940376
1772882910375425300,7.50042529296875,0.22509996592998505,0.2001781016588211,0.00815060455352068
1772882910385357300,7.510357421875,0.15418770909309387,0.3394848704338074,-0.09477737545967102
1772882910395290400,7.520290283203125,0.05187278613448143,0.39821022748947144,-0.21893393993377686
1772882910405222400,7.530222412109375,-0.041969820857048035,0.3657790422439575,-0.3267482817173004
1772882910415155500,7.540155517578125,-0.10697225481271744,0.24192793667316437,-0.40798670053482056
1772882910425087500,7.55008740234375,-0.17505091428756714,0.11757989227771759,-0.43555253744125366
1772882910435020500,7.5600205078125,-0.23599176108837128,0.13257881999015808,-0.3900772035121918
1772882910444952600,7.56995263671875,-0.24999013543128967,0.2650489807128906,-0.31478750705718994
1772882910454885400,7.579885498046875,-0.26420527696609497,0.4444144666194916,-0.17867892980575562
1772882910464817400,7.5898173828125,-0.2759791314601898,0.5699335336685181,-0.018438927829265594
1772882910474750500,7.59975048828125,-0.27973949909210205,0.6742743253707886,0.12717711925506592
1772882910484682200,7.60968212890625,-0.2637898325920105,0.7740381956100464,0.2722054123878479
1772882910494615300,7.619615234375,-0.269319623708725,0.822349488735199,0.3994153141975403
1772882910504547300,7.62954736328125,-0.26715871691703796,0.8040155172348022,0.6203610301017761
1772882910514480400,7.63948046875,-0.22300538420677185,0.6778205633163452,1.0079047679901123
1772882910524412400,7.649412353515625,-0.2759583592414856,0.6728710532188416,1.065609097480774
1772882910534345500,7.659345458984375,-0.4511357545852661,0.6521745920181274,0.8413029909133911
1772882910544277500,7.669277587890625,-0.5709497928619385,0.6560774445533752,0.2510268986225128
1772882910554210300,7.679210205078125,-0.5517731308937073,0.7411931753158569,-0.5993568897247314
1772882910564142600,7.689142578125,-0.3804336190223694,0.7333317399024963,-1.3606878519058228
1772882910574075400,7.699075439453125,-0.029411418363451958,0.44658440351486206,-1.8087657690048218
1772882910584007400,7.70900732421875,0.32770222425460815,-0.2912331819534302,-1.6989660263061523
1772882910593940500,7.7189404296875,0.43386727571487427,-1.2380492687225342,-1.0422691106796265
1772882910603872500,7.72887255859375,0.4113079309463501,-1.9275614023208618,-0.1403174251317978
1772882910613805600,7.7388056640625,0.5491491556167603,-1.892013430595398,0.6614224314689636
1772882910623737300,7.7487373046875,0.6965673565864563,-1.1564254760742188,1.1440218687057495
1772882910633670400,7.75867041015625,0.8049875497817993,-0.16318438947200775,1.2774866819381714
1772882910643602400,7.7686025390625,0.9225155115127563,0.603042721748352,1.040815830230713
1772882910653535500,7.778535400390625,0.8617813587188721,0.8345319032669067,0.36243411898612976
1772882910663467500,7.788467529296875,0.5117354393005371,0.49982285499572754,-0.5543167591094971
1772882910673400300,7.798400390625,0.1981535702943802,0.029616747051477432,-1.1889251470565796
1772882910683332400,7.808332275390625,-0.048880189657211304,-0.032762207090854645,-1.0909298658370972
1772882910693265400,7.818265380859375,-0.09208784997463226,0.10594560950994492,-0.6277523636817932
1772882910703197400,7.828197509765625,0.05910992622375488,0.13024376332759857,-0.2692892551422119
1772882910713130500,7.838130615234375,0.12848687171936035,0.09139489382505417,-0.11088524013757706
1772882910723062500,7.8480625,0.007165235001593828,0.02316603995859623,0.00845819991081953
1772882910732995600,7.85799560546875,-0.08511941879987717,-0.0773075744509697,0.049677275121212006
1772882910742927400,7.86792724609375,-0.1276029646396637,-0.15544845163822174,-0.0996221974492073
1772882910752860400,7.8778603515625,-0.227963387966156,-0.35730621218681335,-0.31583306193351746
1772882910762792400,7.88779248046875,-0.3256606459617615,-0.5886371731758118,-0.5290713310241699
1772882910772724500,7.897724365234375,-0.30449703335762024,-0.7354193925857544,-0.6616136431694031
1772882910782657300,7.9076572265625,-0.18291975557804108,-0.8462761640548706,-0.5898078680038452
1772882910792589300,7.91758935546875,0.0065654912032186985,-0.9494840502738953,-0.36685869097709656
1772882910802522400,7.9275224609375,0.18126140534877777,-0.9791505932807922,-0.04658854007720947
1772882910812454400,7.937454345703125,0.27961620688438416,-0.8897575736045837,0.2618404030799866
1772882910822387500,7.947387451171875,0.19511623680591583,-0.7252336144447327,0.5184279680252075
1772882910832319500,7.957319580078125,-0.054598528891801834,-0.42709168791770935,0.6684651374816895
1772882910842252500,7.96725244140625,-0.39880144596099854,-0.07593125104904175,0.769519567489624
1772882910852184600,7.9771845703125,-0.7797927260398865,0.24493971467018127,0.8943662047386169
1772882910862117600,7.98711767578125,-0.9773550629615784,0.5265505909919739,1.021915316581726
1772882910872048400,7.99704833984375,-0.8632761836051941,0.8193973898887634,0.9970845580101013
1772882910881980400,8.00698046875,-0.878974974155426,0.9571179747581482,0.8477278351783752
1772882910891913500,8.01691357421875,-0.8353785276412964,0.9257712364196777,0.5463600158691406
1772882910901845500,8.026845458984376,-0.6867687702178955,0.8601552248001099,0.07582738250494003
1772882910911778600,8.036778564453124,-0.45364657044410706,0.8268744945526123,-0.46360334753990173
1772882910921710600,8.046710693359374,-0.19216091930866241,0.7099449634552002,-0.9417573809623718
1772882910931643400,8.056643310546875,-0.044450823217630386,0.5814349055290222,-1.2236303091049194
1772882910941575400,8.066575439453125,-0.08094092458486557,0.3781430423259735,-1.2990702390670776
1772882910951508500,8.076508544921875,-0.21215353906154633,0.10622604191303253,-1.159997820854187
1772882910961440300,8.086440185546875,-0.2324172556400299,-0.1491846889257431,-0.8562371730804443
1772882910971373300,8.096373291015626,-0.04265185445547104,-0.3179747760295868,-0.5026490092277527
1772882910981305300,8.106305419921876,0.23050910234451294,-0.34460532665252686,-0.13816718757152557
1772882910991238400,8.11623828125,0.4591854214668274,-0.22155582904815674,0.12929753959178925
1772882911001170400,8.12617041015625,0.5485581755638123,-0.027512051165103912,0.22126181423664093
1772882911011102500,8.1361025390625,0.5223715901374817,0.15532220900058746,0.15397411584854126
1772882911021035500,8.146035400390625,0.41152310371398926,0.2754933536052704,0.00008388957212446257
1772882911030967600,8.155967529296875,0.25000372529029846,0.33089056611061096,-0.2166351079940796
1772882911040900400,8.165900390625,0.09601175040006638,0.3501553535461426,-0.4254295825958252
1772882911050832400,8.175832275390626,-0.02929637022316456,0.2463730275630951,-0.5158814787864685
1772882911060765400,8.185765380859374,-0.10639861226081848,0.15668362379074097,-0.5045843124389648
1772882911070697200,8.195697265625,-0.15562954545021057,0.14615267515182495,-0.4280272424221039
1772882911080630500,8.205630615234375,-0.15949884057044983,0.19454258680343628,-0.3164317309856415
1772882911090562300,8.215562255859375,-0.13376125693321228,0.25943103432655334,-0.14974234998226166
1772882911100495400,8.225495361328125,-0.1206880658864975,0.35004961490631104,0.049548111855983734
1772882911110427400,8.235427490234375,-0.1263776421546936,0.44029295444488525,0.1982044279575348
1772882911120360400,8.2453603515625,-0.10999733954668045,0.5188700556755066,0.22798016667366028
1772882911130292500,8.25529248046875,-0.10427900403738022,0.6883949041366577,0.24240438640117645
1772882911140225300,8.265225341796874,-0.1135270968079567,0.8839401602745056,0.37607908248901367
1772882911150157300,8.2751572265625,-0.03105086088180542,0.8472388982772827,0.766668438911438
1772882911160090000,8.285090087890625,-0.09815532714128494,0.7573713064193726,0.672466516494751
1772882911170022100,8.295022216796875,-0.1730857640504837,0.6046627163887024,0.3149041533470154
1772882911179955200,8.304955078125,-0.08850695937871933,0.49393168091773987,0.15709534287452698
1772882911189887000,8.314886962890625,0.11161414533853531,0.5928457379341125,-0.008949819020926952
1772882911199820000,8.324820068359376,0.31003856658935547,0.5370959639549255,-0.33931654691696167
1772882911209752000,8.334751953125,0.516666054725647,0.21866069734096527,-0.7693004012107849
1772882911219685000,8.34468505859375,0.3484754264354706,-0.05385391041636467,-1.076010823249817
1772882911229617200,8.3546171875,-0.19619160890579224,-0.4228287637233734,-1.0376360416412354
1772882911239550200,8.36455029296875,-0.6968589425086975,-0.9364888668060303,-0.6890106201171875
1772882911249483000,8.37448291015625,-0.6926589012145996,-1.3315664529800415,-0.17104578018188477
1772882911259416000,8.384416015625,-0.2933993935585022,-1.1987210512161255,0.3925781846046448
1772882911269348000,8.39434814453125,0.2942896783351898,-0.5435421466827393,0.8540731072425842
1772882911279281200,8.40428125,0.7840356826782227,0.36910027265548706,1.0772606134414673
1772882911289213200,8.414213134765625,1.0364689826965332,1.0224660634994507,1.0503376722335815
1772882911299146200,8.424146240234375,1.0513312816619873,1.2446022033691406,0.8008782863616943
1772882911309078300,8.434078369140625,0.8172045350074768,1.0952450037002563,0.30843639373779297
1772882911319011300,8.44401123046875,0.3739323019981384,0.8782079815864563,-0.17658782005310059
1772882911328943000,8.453943115234376,-0.04843384400010109,0.7800348401069641,-0.3767043948173523
1772882911338876200,8.463876220703124,-0.29141587018966675,0.7161858081817627,-0.3515401780605316
1772882911348808000,8.473807861328124,-0.31305885314941406,0.5129349231719971,-0.17998655140399933
1772882911358741000,8.483740966796875,-0.16897277534008026,0.2238575965166092,0.10278204083442688
1772882911368673000,8.493673095703125,0.042719766497612,0.001728657865896821,0.43413281440734863
1772882911378606000,8.503606201171875,0.24544838070869446,-0.1501609981060028,0.6592034697532654
1772882911388538000,8.5135380859375,0.38616475462913513,-0.2541199028491974,0.6927347779273987
1772882911398471200,8.52347119140625,0.4078258275985718,-0.3720393478870392,0.47284266352653503
1772882911408403200,8.5334033203125,0.33503472805023193,-0.5674234628677368,0.04632462188601494
1772882911418336300,8.543336181640624,0.2078181803226471,-0.695173442363739,-0.468852698802948
1772882911428268300,8.553268310546875,0.09291635453701019,-0.6912373304367065,-0.8941318392753601
1772882911438201000,8.563201171875,0.05017422139644623,-0.6404377818107605,-1.1104252338409424
1772882911448133000,8.573133056640625,0.04562048241496086,-0.635167121887207,-1.0688202381134033
1772882911458066200,8.583066162109375,0.08842334151268005,-0.6103584170341492,-0.7877651453018188
1772882911467998000,8.592998046875,0.148556187748909,-0.5318777561187744,-0.3772921562194824
1772882911477930000,8.602929931640626,0.18437011539936066,-0.45015865564346313,0.012859872542321682
1772882911487863000,8.612863037109374,0.16496126353740692,-0.3964530825614929,0.2976439297199249
1772882911497795000,8.622795166015624,0.1126682236790657,-0.3116644024848938,0.47779133915901184
1772882911507728100,8.63272802734375,0.0287014190107584,-0.16954535245895386,0.5799142122268677
1772882911517660200,8.64266015625,-0.1350073516368866,0.014825285412371159,0.6337332725524902
1772882911527593200,8.65259326171875,-0.3420998156070709,0.1656254529953003,0.5876440405845642
1772882911537525200,8.662525146484375,-0.4822515845298767,0.23907463252544403,0.4630858898162842
1772882911547458000,8.6724580078125,-0.5222458839416504,0.21388113498687744,0.32377195358276367
1772882911557390300,8.682390380859376,-0.4157029390335083,0.15049603581428528,0.19338464736938477
1772882911567323100,8.6923232421875,-0.21580898761749268,0.09237121045589447,0.13974004983901978
1772882911577255200,8.702255126953125,0.009845440275967121,0.12942670285701752,0.10798052698373795
1772882911587188200,8.712188232421875,0.2132004201412201,0.2366037517786026,-0.022726617753505707
1772882911597120000,8.7221201171875,0.28008386492729187,0.30868807435035706,-0.28927841782569885
1772882911607053000,8.732052978515625,0.2180902510881424,0.20381517708301544,-0.6352203488349915
1772882911616985000,8.741985107421876,0.11024022102355957,0.025410817936062813,-0.9267057776451111
1772882911626918100,8.751918212890626,0.0020516992080956697,-0.1378289759159088,-1.0931519269943237
1772882911636850200,8.76185009765625,-0.07272400707006454,-0.2826836407184601,-1.07516610622406
1772882911646783200,8.771783203125,-0.11700677871704102,-0.4017690122127533,-0.890484631061554
1772882911656715300,8.78171533203125,-0.12039299309253693,-0.4843464493751526,-0.6091222167015076
1772882911666648000,8.79164794921875,-0.06676384806632996,-0.5027065277099609,-0.33270710706710815
1772882911676580000,8.801580078125,0.035834163427352905,-0.4694276750087738,-0.12089499831199646
1772882911686513200,8.81151318359375,0.1500139981508255,-0.41107437014579773,-0.008891229517757893
1772882911696445200,8.821445068359376,0.22344693541526794,-0.3162999153137207,0.010869692079722881
1772882911706378200,8.831378173828124,0.2592182457447052,-0.18689265847206116,-0.02274366095662117
1772882911716310000,8.84131005859375,0.23855158686637878,-0.004296744242310524,-0.05993976444005966
1772882911726243000,8.8512431640625,0.19646938145160675,0.002697515767067671,-0.06921449303627014
1772882911736175000,8.861175048828125,0.2660130262374878,-0.016656208783388138,-0.07480792701244354
1772882911746108200,8.871108154296875,0.2953570783138275,-0.02028077095746994,-0.042277682572603226
1772882911756040200,8.881040283203125,0.27798715233802795,0.009518137201666832,-0.05456097796559334
1772882911765973000,8.890972900390626,0.222637340426445,0.029641248285770416,-0.06392225623130798
1772882911775905000,8.900905029296876,0.15936808288097382,0.08497641235589981,-0.01816701889038086
1772882911785838000,8.910838134765624,0.09330597519874573,0.15424230694770813,0.1159292683005333
1772882911795770000,8.92077001953125,0.03630048409104347,0.2727378010749817,0.38320571184158325
1772882911805702100,8.9307021484375,-0.039795882999897,0.45552197098731995,0.8926790952682495
1772882911815635200,8.94063525390625,-0.190695121884346,0.59273362159729,1.0017147064208984
1772882911825567200,8.950567138671875,-0.3818475008010864,0.650268018245697,0.7545486092567444
1772882911835500300,8.960500244140626,-0.5395095348358154,0.6322776079177856,0.4305979907512665
1772882911845432000,8.97043212890625,-0.480470210313797,0.5702581405639648,-0.2820170521736145
1772882911855365000,8.980365234375,-0.11928164958953857,0.27235376834869385,-1.2457321882247925
1772882911865297200,8.990297119140624,0.40282920002937317,-0.3182935416698456,-2.086662530899048
1772882911875230000,9.00022998046875,0.7786100506782532,-0.8665034174919128,-2.3875350952148438
1772882911885162200,9.010162353515625,0.6265333890914917,-1.1247248649597168,-1.9684782028198242
1772882911895095000,9.020094970703125,0.03653617203235626,-1.403568983078003,-1.1445590257644653
1772882911905027000,9.030027099609375,-0.3065892159938812,-1.5321178436279297,-0.0799827128648758
1772882911914960100,9.039960205078126,-0.10711420327425003,-1.2662159204483032,0.706827700138092
1772882911924892200,9.04989208984375,0.22214092314243317,-0.5878477692604065,0.8895019292831421
1772882911934825200,9.0598251953125,0.364915132522583,0.02887851931154728,0.744708240032196
1772882911944757200,9.06975732421875,0.3087860643863678,0.26691317558288574,0.489433616399765
1772882911954690300,9.079690185546875,0.14782167971134186,0.19103173911571503,0.14747174084186554
1772882911964622000,9.0896220703125,-0.05602465197443962,0.02827398292720318,-0.1032094731926918
1772882911974555100,9.09955517578125,-0.18410326540470123,0.03612764552235603,-0.12917156517505646
1772882911984487200,9.109487060546876,-0.12948742508888245,0.22736285626888275,0.06009316444396973
1772882911994420000,9.119419921875,0.00999031588435173,0.5138007402420044,0.26742956042289734
1772882912004352000,9.12935205078125,0.17264235019683838,0.6518020033836365,0.35050368309020996
1772882912014285000,9.13928515625,0.17336086928844452,0.5645379424095154,0.3668901324272156
1772882912024217000,9.149217041015625,0.05576179921627045,0.34032827615737915,0.3948620855808258
1772882912034150100,9.159150146484375,-0.09851831942796707,0.13186615705490112,0.4460722804069519
1772882912044082200,9.169082275390625,-0.2612933814525604,-0.00603419030085206,0.4527704119682312
1772882912054015200,9.17901513671875,-0.4066005051136017,-0.028055069968104362,0.389985591173172
1772882912063947300,9.188947265625,-0.49940022826194763,-0.022816099226474762,0.2748243808746338
1772882912073880300,9.19888037109375,-0.550072431564331,-0.028807679191231728,0.1801348775625229
1772882912083812400,9.208812255859375,-0.5217574834823608,-0.0673191174864769,0.13652534782886505
1772882912093745200,9.2187451171875,-0.4139289855957031,-0.1498992145061493,0.17344050109386444
1772882912103677000,9.228677001953125,-0.2838476896286011,-0.12192510813474655,0.2383691668510437
1772882912113610000,9.23860986328125,-0.19226105511188507,0.07694591581821442,0.320646196603775
1772882912123542000,9.2485419921875,-0.17307084798812866,0.25053074955940247,0.4302845299243927
1772882912133475000,9.25847509765625,-0.20060953497886658,0.2953541576862335,0.5496527552604675
1772882912143407600,9.26840771484375,-0.282432496547699,0.21954193711280823,0.6361104249954224
1772882912153340700,9.278340576171875,-0.3538094758987427,0.07567957788705826,0.6180054545402527
1772882912163272700,9.288272705078125,-0.4058889150619507,-0.06758224219083786,0.5117804408073425
1772882912173204700,9.298204833984375,-0.3702518343925476,-0.10126537084579468,0.29857736825942993
1772882912183137500,9.308137451171875,-0.2167501449584961,0.0204584039747715,0.05216759815812111
1772882912193069600,9.318069580078125,0.033375002443790436,0.27865880727767944,-0.11999591439962387
1772882912203002400,9.32800244140625,0.3399676978588104,0.5572981238365173,-0.22404801845550537
1772882912212934400,9.337934326171874,0.4481210708618164,0.7024058103561401,-0.3421464264392853
1772882912222867500,9.347867431640625,0.4298989176750183,0.5464044809341431,-0.395177960395813
1772882912232799500,9.357799560546875,0.33143118023872375,0.20341171324253082,-0.3913978636264801
1772882912242732500,9.367732666015625,0.1750706136226654,-0.12401621788740158,-0.34201085567474365
1772882912252664600,9.37766455078125,0.017790181562304497,-0.2996754050254822,-0.28418830037117004
1772882912262597600,9.38759765625,-0.1195884495973587,-0.30836236476898193,-0.2360071986913681
1772882912272529700,9.39752978515625,-0.19355721771717072,-0.20037038624286652,-0.1939537525177002
1772882912282462700,9.407462646484374,-0.21131543815135956,-0.002585396869108081,-0.14723259210586548
1772882912292394800,9.417394775390624,-0.19464164972305298,0.11598918586969376,-0.07781597226858139
1772882912302327600,9.42732763671875,-0.17146842181682587,0.14744697511196136,0.00242187874391675
1772882912312259300,9.43725927734375,-0.12371981143951416,0.175249844789505,0.05372261628508568
1772882912322192600,9.447192626953125,-0.08153747022151947,0.1721789538860321,0.10712005943059921
1772882912332124400,9.45712451171875,-0.030852189287543297,0.12393153458833694,0.15230458974838257
1772882912342057500,9.467057373046876,0.034863442182540894,0.04953133314847946,0.12287452071905136
1772882912351989500,9.476989501953126,0.11788136512041092,0.008477640338242054,0.005880525801330805
1772882912361922600,9.486922607421874,0.15725167095661163,0.020659472793340683,-0.16743214428424835
1772882912371854600,9.4968544921875,0.20998385548591614,0.005434180144220591,-0.32154926657676697
1772882912381787600,9.50678759765625,0.2547912895679474,-0.058396730571985245,-0.42689698934555054
1772882912391719700,9.5167197265625,0.2666490077972412,-0.17537261545658112,-0.4533299207687378
1772882912401652500,9.526652587890625,0.28476622700691223,-0.3057308793067932,-0.385355144739151
1772882912411584500,9.53658447265625,0.28346818685531616,-0.39365729689598083,-0.06545650213956833
1772882912421517600,9.546517578125,0.28578513860702515,-0.4868125319480896,0.2678418457508087
1772882912431449600,9.55644970703125,0.1417030692100525,-0.26170510053634644,0.36379605531692505
1772882912441382700,9.566382568359375,0.00911653321236372,0.037585724145174026,0.38016995787620544
1772882912451314400,9.576314453125,-0.07991959899663925,0.2823757529258728,0.23514513671398163
1772882912461246500,9.58624658203125,-0.12972897291183472,0.4315791130065918,-0.0647297278046608
1772882912471179500,9.596179443359375,-0.027998344972729683,0.44571515917778015,-0.41318783164024353
1772882912481111600,9.606111572265625,0.2527576982975006,0.26167526841163635,-0.68912273645401
1772882912491044600,9.616044677734376,0.18932145833969116,-0.06632975488901138,-0.5859183669090271
1772882912500976600,9.6259765625,-0.2594592571258545,-0.5784913301467896,-0.3549477159976959
1772882912510909400,9.635909423828124,-0.4615370035171509,-1.2308454513549805,0.03272572159767151
1772882912520841500,9.645841552734375,-0.31488683819770813,-1.457050085067749,0.4879355728626251
1772882912530774500,9.6557744140625,-0.009925867430865765,-1.2391581535339355,0.6212571263313293
1772882912540706600,9.66570654296875,0.3654229938983917,-0.9276738166809082,0.29221588373184204
1772882912550639600,9.6756396484375,0.6017460227012634,-0.6802064776420593,-0.10210985690355301
1772882912560571400,9.6855712890625,0.6334334015846252,-0.5426899194717407,-0.36404478549957275
1772882912570504700,9.695504638671874,0.5260701775550842,-0.39568981528282166,-0.5088576674461365
1772882912580436500,9.7054365234375,0.3609994649887085,-0.1737222522497177,-0.6060968637466431
1772882912590369500,9.71536962890625,0.04547933489084244,0.07005791366100311,-0.5883601903915405
1772882912600301600,9.725301513671875,-0.41747260093688965,0.21823273599147797,-0.3766828179359436
1772882912610234600,9.735234619140625,-0.8077186346054077,0.3055359423160553,-0.03200507164001465
1772882912620166700,9.745166748046875,-0.9980260133743286,0.4050537347793579,0.3183409571647644
1772882912630099500,9.755099365234376,-0.956821858882904,0.5817957520484924,0.6240324378013611
1772882912640031500,9.765031494140626,-0.7559062838554382,0.8070182204246521,0.8890699744224548
1772882912649964500,9.774964599609374,-0.4799378514289856,1.0207947492599487,1.033861517906189
1772882912659896600,9.784896484375,-0.22925502061843872,1.1540249586105347,1.0276720523834229
1772882912669829600,9.79482958984375,-0.01919872872531414,1.1329675912857056,0.8834914565086365
1772882912679761700,9.80476171875,0.11659479141235352,0.8811057806015015,0.6205053329467773
1772882912689694700,9.81469482421875,0.10442148149013519,0.5019739270210266,0.29705989360809326
1772882912699626500,9.82462646484375,-0.0211819838732481,0.1251126378774643,-0.035722311586141586
1772882912709559600,9.8345595703125,-0.17177815735340118,-0.10809823870658875,-0.30874425172805786
1772882912719491600,9.84449169921875,-0.20986880362033844,-0.14794312417507172,-0.5001330971717834
1772882912729424400,9.85442431640625,-0.15665645897388458,-0.1256529986858368,-0.5763533115386963
1772882912739356400,9.8643564453125,-0.047443415969610214,-0.09382982552051544,-0.6066275835037231
1772882912749289500,9.87428955078125,0.08037180453538895,-0.0538155622780323,-0.6014682650566101
1772882912759221500,9.884221435546875,0.1952427327632904,-0.014055897481739521,-0.554857611656189
1772882912769154600,9.894154541015626,0.2922113537788391,0.03531111776828766,-0.488206148147583
1772882912779086600,9.904086669921876,0.34494033455848694,0.066134013235569,-0.38721510767936707
1772882912789019600,9.91401953125,0.34150567650794983,0.11873970180749893,-0.2863369584083557
1772882912798951700,9.92395166015625,0.3127720355987549,0.18490859866142273,-0.2278856337070465
1772882912808883700,9.9338837890625,0.27775466442108154,0.19315268099308014,-0.19343630969524384
1772882912818816800,9.943816650390625,0.2241412252187729,0.1921987384557724,-0.17092247307300568
1772882912828748500,9.95374853515625,0.16858315467834473,0.19355694949626923,-0.19492395222187042
1772882912838681300,9.963681396484375,0.09987040609121323,0.15412165224552155,-0.23035463690757751
1772882912848613400,9.97361328125,0.03177071362733841,0.07818081974983215,-0.2321927547454834
1772882912858546400,9.98354638671875,-0.009937052614986897,0.019062373787164688,-0.2455517053604126
1772882912868478500,9.993478515625,-0.004058923572301865,0.0001270327775273472,-0.23776808381080627
1772882912878411500,10.00341162109375,0.025749571621418,0.02033350057899952,-0.18105687201023102
1772882912888343600,10.013343505859375,0.09155920892953873,0.08148793131113052,-0.11118883639574051
1772882912898276600,10.023276611328125,0.18049733340740204,0.12011895328760147,-0.04230005294084549
1772882912908208600,10.033208740234375,0.25286340713500977,0.15667057037353516,-0.013362676836550236
1772882912918141700,10.0431416015625,0.280636191368103,0.17167748510837555,-0.04339487850666046
1772882912928073700,10.05307373046875,0.2894701659679413,0.14144527912139893,-0.0745309591293335
1772882912938006500,10.063006591796874,0.2705971300601959,0.0820128470659256,-0.06655905395746231
1772882912947938600,10.0729384765625,0.24221237003803253,0.07801304012537003,-0.04333415627479553
1772882912957871400,10.082871337890625,0.2308872789144516,0.1640818864107132,0.04104490578174591
1772882912967803400,10.092803466796875,0.24695758521556854,0.2812814712524414,0.14206498861312866
1772882912977736400,10.102736328125,0.21995793282985687,0.2631426751613617,0.10710807889699936
1772882912987668500,10.11266845703125,0.17485277354717255,0.12529826164245605,0.033977407962083817
1772882912997601500,10.1226015625,0.14796017110347748,-0.05705050379037857,-0.08783850818872452
1772882913007533600,10.132533447265626,0.1312645524740219,-0.22610370814800262,-0.21332186460494995
1772882913017466600,10.142466552734374,0.09797609597444534,-0.35020673274993896,-0.24358682334423065
1772882913027398700,10.152398681640625,0.0793699249625206,-0.37350913882255554,-0.2631690502166748
1772882913037331500,10.16233154296875,0.04911454766988754,-0.3623177409172058,-0.26724234223365784
1772882913047263700,10.172263671875,0.042094990611076355,-0.31883496046066284,-0.2997837960720062
1772882913057196500,10.182196533203125,0.04062705487012863,-0.2438075989484787,-0.3039796054363251
1772882913067128600,10.192128662109376,0.04566016420722008,-0.10837893933057785,-0.2950423061847687
