time,seconds_elapsed,z,y,x
1772871588642852000,0.07485205078125,0.36556641955077646,0.025558219626545906,-0.5469289488732815
1772871588652785200,0.08478515625,0.17216040121316908,-0.06864391263723373,-0.4027161466412246
1772871588662718000,0.094718017578125,-0.09826982009410858,-0.1847299599289894,-0.143681910225749
1772871588672651000,0.104651123046875,-0.30366262882351874,-0.2267933241546154,0.007613397613167762
1772871588682584000,0.114583984375,-0.37104923487603664,-0.1673147147476673,0.022878186762332914
1772871588692517000,0.12451708984375,-0.2583060682713985,-0.20480653327405451,0.023200988975912332
1772871588702450000,0.134449951171875,-0.0014057751446962356,-0.2520142746508121,0.12043182141110301
1772871588712383000,0.144383056640625,0.3018167086958885,-0.24934593222439289,0.1356301211953163
1772871588722317000,0.154317138671875,0.602070405858755,-0.51373453527987,0.16305113901905716
1772871588732249900,0.164249755859375,0.6196493171691894,-0.6458885047972202,0.25362645908780396
1772871588742183000,0.174182861328125,0.6455529892325401,-0.6334504635065794,0.21435323703736064
1772871588752116000,0.184115966796875,0.6323568230509757,-0.6948404594928026,0.1451474527336657
1772871588762049000,0.194049072265625,0.6643605655550956,-0.8338257363349199,0.14335574701130388
1772871588771982000,0.203982177734375,0.8346522502869367,-0.7559680051505565,0.4551124696370214
1772871588781915000,0.213914794921875,1.0252864658236502,-0.8549357443809509,0.7605929615374654
1772871588791848000,0.223847900390625,1.4296049330949783,-0.8986012831062078,0.7478064721353351
1772871588801781000,0.233781005859375,1.8327052567481994,-0.7587304556012153,0.8760428298175335
1772871588811714000,0.243714111328125,2.191461996284127,-0.739148387774825,0.8755250164885073
1772871588821648000,0.25364794921875,2.450342065051198,-0.8220739237427711,0.8050189632412046
1772871588831581000,0.263580810546875,2.4601450816631316,-0.641148032271862,0.723317343045026
1772871588841514000,0.273513916015625,1.859105187895894,-0.35022973420917985,0.9027802492912859
1772871588851446800,0.28344677734375,0.778578480887413,-0.13539280530810355,0.8854504173710942
1772871588861380000,0.293380126953125,-0.10857727909684181,0.15830197173058985,0.7838697922285646
1772871588871313200,0.303313232421875,-0.6439134053319692,0.2625420984059572,1.1525042941130696
1772871588881246200,0.31324609375,-0.931699250587821,-0.1644435432255268,1.8054304424621164
1772871588891179000,0.323178955078125,-0.7889034755468368,-0.17508944040238855,0.8914751575533301
1772871588901112000,0.333112060546875,-0.1604956823825836,0.9676409170627593,-0.15770656312070785
1772871588911046100,0.343046142578125,0.2652700620651245,0.8338239827692508,-0.04101831215210259
1772871588920979000,0.35297900390625,0.06337386327981949,-0.2672223651766777,-0.3699689653586596
1772871588930912000,0.362912109375,1.077026005411148,-0.4663789098650217,-0.5642844997566193
1772871588940845000,0.372844970703125,2.825388845130801,-0.20866613131165504,-0.49320481133982536
1772871588950778000,0.382778076171875,3.786333479425311,-0.4667570955276489,-0.7829479281432926
1772871588960711000,0.3927109375,4.449895003557205,-0.7442080092519521,-1.1790548127125948
1772871588970644000,0.40264404296875,4.833216275507211,-0.8987573504507541,-1.6602618008099495
1772871588980577000,0.412576904296875,5.004975110182166,-0.5181961908638477,-1.8917676865696906
1772871588990510000,0.422510009765625,4.292027331590652,-1.1329285098969937,-2.443365504036844
1772871589000443000,0.43244287109375,3.809020527529716,-1.268369830521941,-2.0498127609297634
1772871589010377000,0.442376953125,2.969448941019177,-2.15991944155097,-1.9403898247890172
1772871589020310000,0.45231005859375,3.032281537029147,-2.5384862124502656,-1.5119013773791492
1772871589030242800,0.462242919921875,2.279056108585,-3.6051954065084457,-0.32681378730833527
1772871589040175900,0.47217578125,0.8928817364156245,-4.760812718075513,1.0771981471076606
1772871589050109000,0.48210888671875,-0.7587117509007454,-4.78484124391675,2.5226401162818073
1772871589060041700,0.492041748046875,-3.334022257879376,-3.794533737015724,4.00996687824428
1772871589069974800,0.501974853515625,-6.368196476787328,-2.4882284358531237,5.0443940973788495
1772871589079907600,0.511907470703125,-7.773278378522396,-1.036926634734869,4.474613265228271
1772871589089840600,0.521840576171875,-7.113055058902502,0.5972428395718336,3.101161888770759
1772871589099774700,0.531774658203125,-6.120962422150373,2.434608489346504,1.375497787593305
1772871589109707500,0.54170751953125,-5.380110737589002,4.137761483508348,-0.5861917225949466
1772871589119640600,0.551640625,-4.784885083058477,5.6409185595482585,-1.8117675365291535
1772871589129573600,0.56157373046875,-4.541359819811582,6.794095492225885,-2.2739356968313453
1772871589139506700,0.571506591796875,-4.6498079195708035,7.332392221832275,-2.3967541211180388
1772871589149439500,0.581439453125,-4.675017764151096,7.632561163321137,-1.873652184164524
1772871589159372500,0.59137255859375,-4.85890016734004,7.757811344799399,-0.8231373882558196
1772871589169305600,0.6013056640625,-5.303937598490715,7.326012165406346,0.4735215481612831
1772871589179238700,0.61123876953125,-5.64358339484334,6.468589864906669,1.4643869081407785
1772871589189172700,0.6211728515625,-5.476852617463469,5.490936087873577,2.0668277547471225
1772871589199105800,0.631105712890625,-5.080874108514189,4.551636299154162,2.4004357322402297
1772871589209038800,0.641038818359375,-4.6866748841971155,4.078223837390542,2.247754815261811
1772871589218971600,0.6509716796875,-4.33255807942152,4.06425902492404,1.7986095104008912
1772871589228904700,0.66090478515625,-3.84532459757626,4.4736423743695015,1.2557291062660514
1772871589238837800,0.670837646484375,-3.4847347973942755,5.115211262401938,0.9450382593061775
1772871589248770800,0.680770751953125,-3.9666602359592913,5.726292657712102,1.1947247485965489
1772871589258703600,0.69070361328125,-5.288493361121416,6.211058288139104,1.581696359747648
1772871589268636700,0.70063671875,-6.405935548073053,6.532560525035858,1.4495207629203795
1772871589278569700,0.71056982421875,-6.882522548219561,6.765583098968863,1.1827969218503682
1772871589288503600,0.720503662109375,-6.865092105469107,6.987053182274103,0.7341811207562685
1772871589298436600,0.7304365234375,-6.868261383154988,7.3360180111140005,-0.5099142463393509
1772871589308369700,0.74036962890625,-6.469254466295242,7.389642049273848,-1.9971831406347453
1772871589318302700,0.750302734375,-5.200799295577407,7.180482581487298,-3.141260967186093
1772871589328235500,0.760235595703125,-3.289080123347044,6.673172526296973,-3.8166926695927974
1772871589338168600,0.77016845703125,-1.5179577548086642,5.598546567764878,-4.039519428204
1772871589348101600,0.7801015625,0.3669552435606718,4.178719516840577,-3.8067110815435647
1772871589358034700,0.79003466796875,2.380801495835185,2.6935458412587643,-3.3182027574568984
1772871589367967500,0.799967529296875,3.7532483714252707,0.5833604446917772,-2.8736338206008076
1772871589377901600,0.809901611328125,4.813949849501252,-1.7226421230077742,-2.9518834737122055
1772871589387834600,0.819834716796875,6.192540634673834,-3.626390170228481,-0.9859142403781413
1772871589397767400,0.829767333984375,6.776378633749484,-6.593026976436376,0.5743797773133963
1772871589407700500,0.839700439453125,7.69024002982974,-8.936913576850294,0.9205451116278767
1772871589417633500,0.849633544921875,9.455974860110878,-9.753555538672208,1.5773577460214494
1772871589427566800,0.85956689453125,10.594536407458781,-10.402642547249794,2.716890184228122
1772871589437499600,0.869499755859375,11.189909361505508,-11.202044035935401,2.9837168280854818
1772871589447432700,0.8794326171875,11.975616671359539,-11.34136132121086,2.5316142808541655
1772871589457365800,0.88936572265625,12.643369801962375,-10.845787296521664,2.175867244528234
1772871589467298800,0.899298828125,12.74533847657442,-10.229717591404913,1.971697547852993
1772871589477232600,0.909232666015625,11.319586711776257,-9.429137122067809,1.8114723529748618
1772871589487165700,0.919165771484375,8.94033478347063,-8.727358972266316,1.5745488260805607
1772871589497098800,0.9290986328125,4.9258992353796955,-7.97642545415163,0.7578640480302273
1772871589507031600,0.939031494140625,5.346569117993116,-7.3617463266104455,1.1375638415474445
1772871589516964600,0.948964599609375,4.277879563772678,-6.799473678132891,1.2866380392707883
1772871589526897700,0.958897705078125,3.355665349888801,-6.85126816277802,0.5742738327208906
1772871589536830700,0.968830810546875,3.1899598239034415,-6.407149600037932,0.10527326911538838
1772871589546763800,0.978763671875,3.3134903419822455,-5.932286354944109,-0.34115050182715057
1772871589556696600,0.988696533203125,3.562137186026573,-5.887285183700919,-1.0141325460594146
1772871589566629600,0.998629638671875,4.061438122284412,-5.8127697486817835,-1.514166838093102
1772871589576563700,1.008563720703125,4.802630583107471,-5.866442886680364,-1.9273450497768818
1772871589586496500,1.01849658203125,5.402924626943468,-5.972715395966172,-2.4293197352886198
1772871589596429600,1.0284296875,5.861621750134229,-6.173806708109378,-2.793331034351885
1772871589606362600,1.038362548828125,6.223274795633554,-6.5118930000603195,-2.8639623214140535
1772871589616295700,1.048295654296875,6.378547190409899,-6.8514376741260286,-2.3415384298525748
1772871589626228500,1.058228515625,6.040242871794105,-7.094849540126323,-1.509509952197969
1772871589636161500,1.06816162109375,4.902569797718525,-7.2972969430536025,-0.7490382789526134
1772871589646094600,1.078094482421875,3.6803707667410372,-7.0371858711868525,-0.09220167916156351
1772871589656027600,1.088027587890625,4.012648664674162,-5.647337778940797,-0.27272651555091143
1772871589665960400,1.09796044921875,4.981152920567989,-4.343549429035186,-0.6307090558439493
1772871589675894800,1.107894775390625,5.388970920392871,-2.959728926515579,-0.30608342622965573
1772871589685827800,1.117827880859375,4.646401910519599,-0.31153496963381766,0.7807089170448481
1772871589695760600,1.1277607421875,2.890052163699269,2.745412222096324,2.0226351234078406
1772871589705693700,1.137693603515625,-0.3029670477747917,6.767915925830602,2.6021859466835853
1772871589715626800,1.147626708984375,-4.965763043734431,11.843687742769717,1.868545800936222
1772871589725559800,1.157559814453125,-11.410673926889896,15.796644447547196,0.7448818168602883
1772871589735492600,1.16749267578125,-18.6527060788393,17.723339655113218,0.8549275610744953
1772871589745425700,1.17742578125,-23.26467497388124,17.59459637082219,3.0161554548755287
1772871589755358700,1.187358642578125,-21.5610742359519,15.854543678808211,5.603441938591003
1772871589765291800,1.197291748046875,-15.567143617999553,13.325899645936488,6.446311982125043
1772871589775225600,1.2072255859375,-9.561972644108533,11.367180822122096,5.8323220058917995
1772871589785158700,1.21715869140625,-4.897547585642338,10.747130522936581,5.1953521360874175
1772871589795091700,1.227091796875,-2.246763027745485,11.071555369281768,4.303151367673277
1772871589805024500,1.2370244140625,-2.3054297362476586,11.654102744024991,3.4208860100790854
1772871589814957600,1.24695751953125,-4.42545380526185,12.292668358588218,2.999206073640287
1772871589824890600,1.256890625,-7.444691151800751,12.506025862586498,2.9007845701158046
1772871589834823700,1.26682373046875,-10.608746134597062,12.106002462160587,2.7666961254045366
1772871589844756500,1.276756591796875,-12.691067957204579,10.928939042460918,2.4109059805892405
1772871589854689500,1.286689453125,-12.383009723770618,9.39360578995943,1.2934683236822486
1772871589864623600,1.29662353515625,-10.269738636147975,7.510186829540133,0.10158347468674182
1772871589874556400,1.306556396484375,-7.472739434677362,5.700417627221346,-0.7653739852689206
1772871589884489500,1.316489501953125,-4.266624594786763,3.8790830747932192,-1.197621785212308
1772871589894422800,1.3264228515625,-0.7591536494493484,2.001675922009349,-1.2885947262965143
1772871589904355800,1.33635595703125,2.5778134297102686,0.3724579326301813,-1.457063287254423
1772871589914288600,1.34628857421875,4.552685515946149,-0.8817220444977283,-1.9302499774381516
1772871589924221700,1.3562216796875,4.659547223296761,-1.2369880193084477,-2.7695740189284086
1772871589934154800,1.36615478515625,3.4726948155105113,-1.0865455289065837,-3.5853105563431975
1772871589944087800,1.376087890625,2.0244553245723247,-1.3070774545788764,-4.149398145288229
1772871589954020900,1.386020751953125,1.1612263836205006,-2.1114748518556357,-4.445117413891851
1772871589963953700,1.39595361328125,1.1532289551258086,-3.597628186124563,-4.614423594717681
1772871589973887700,1.4058876953125,2.129907165125012,-5.57711390363574,-4.161544802416861
1772871589983820800,1.41582080078125,3.869637201055884,-7.405221895721555,-3.360731985628605
1772871589993753600,1.425753662109375,6.13855477746427,-8.66071646257937,-2.4858131914049384
1772871590003686700,1.435686767578125,8.95612914945185,-9.621963294690847,-1.3529554086565971
1772871590013619700,1.44561962890625,11.69207796215415,-10.421648861014843,-0.9759465347237885
1772871590023552800,1.455552734375,13.548171108752488,-10.73851817741394,-1.197288023213297
1772871590033485600,1.465485595703125,14.019146114236115,-10.308398913931846,-1.4734811919614672
1772871590043418600,1.475418701171875,13.136555470210313,-9.392959893271327,-1.5349088896095753
1772871590053351700,1.4853515625,10.94275597088933,-8.173470121252537,-1.308712070043385
1772871590063285000,1.495284912109375,8.090187442409992,-7.110410681873559,-1.008332116152346
1772871590073219000,1.505218994140625,5.547689071708917,-6.279570683351158,-0.8603352653369307
1772871590083152100,1.515152099609375,3.7846950645685196,-5.880766011065244,-0.7208478841915726
1772871590093085000,1.5250849609375,3.181282596451044,-5.608534293293952,-0.6666239804424345
1772871590103018000,1.53501806640625,3.2354443947494027,-5.563243199193478,-1.050549648026377
1772871590112951000,1.544950927734375,3.7477509430527687,-5.761607132199407,-1.479057823050022
1772871590122884000,1.554884033203125,4.482884249967336,-5.856875432389974,-1.818946634378284
1772871590132817200,1.564817138671875,5.002872000423073,-6.1462009083032605,-2.1484078674554823
1772871590142750000,1.57475,4.793657003057003,-6.582860971730947,-2.292132593909651
1772871590152683000,1.58468310546875,3.8417239427357908,-6.844499983817339,-2.4070262165464458
1772871590162616000,1.594615966796875,2.7401538631767033,-6.715712860384583,-2.4949460536703465
1772871590172549000,1.604549072265625,1.9742367109417913,-6.2882157620996235,-2.790973949831724
1772871590182483200,1.614483154296875,1.5564654723793268,-5.688704977595806,-3.3271897815108296
1772871590192416300,1.624416259765625,1.573296780192852,-4.872623572266102,-4.218408845411241
1772871590202349300,1.634349365234375,2.374260695889592,-3.756205467665195,-5.245772994291782
1772871590212282000,1.6442822265625,3.7062452127099035,-2.816731491422653,-5.251690693902969
1772871590222215200,1.654215087890625,4.5533816815167665,-1.659698467838764,-4.605948611839115
1772871590232148200,1.664148193359375,4.255975190478563,-0.29618542481064797,-2.76645617916882
1772871590242081300,1.674081298828125,3.0192484524548053,1.111989182242751,-0.17557196322232485
1772871590252014000,1.68401416015625,0.7258113518178463,3.0609044049233196,2.39021478247717
1772871590261947100,1.693947021484375,-3.238092863431573,5.544436791914701,5.24057308756113
1772871590271880200,1.703880126953125,-9.302068492990731,9.195854435893892,8.313422197300195
1772871590281814000,1.71381396484375,-15.966414154231547,13.827968877863883,9.814906956213711
1772871590291747000,1.7237470703125,-20.40420955467224,17.058775675940513,8.542372407227754
1772871590301680000,1.73368017578125,-20.290468609201906,17.930286123025418,5.688192936420441
1772871590311613200,1.74361328125,-16.404342630159853,15.989598630464076,3.157629918184876
1772871590321546000,1.7535458984375,-11.147164444756507,11.958590717756747,2.419338439500332
1772871590331479000,1.76347900390625,-6.2752574963271615,7.962960992422699,2.8673393966317176
1772871590341412000,1.773412109375,-2.4913877766668797,4.547210883927345,4.002424792301655
1772871590351345200,1.78334521484375,-0.4073486287474632,1.658098631426692,5.051208453568816
1772871590361278000,1.79327783203125,-0.5597089354693889,-0.19772037440538406,5.744305868786573
1772871590371211000,1.8032109375,-2.624142050164938,0.05285656091868877,5.263635983240604
1772871590381144000,1.81314404296875,-4.965320560663939,2.6663755102604627,3.170627346923947
1772871590391078000,1.823077880859375,-8.103571824640035,5.705376710933447,0.2885864941142499
1772871590401011200,1.83301123046875,-11.553590697962045,8.364473170101641,-2.717018486782908
1772871590410944300,1.8429443359375,-13.448883051526545,10.078130022621155,-4.4009284358143805
1772871590420877300,1.852877197265625,-13.385458919364213,10.46507182315588,-4.2818963981986045
1772871590430810000,1.86281005859375,-12.110850486713646,9.964534038579464,-3.4672003097474575
1772871590440743200,1.8727431640625,-10.514162309539318,8.88884308116436,-2.7380706271618602
1772871590450676200,1.88267626953125,-8.717762291881442,7.79076376633048,-2.1054697662219404
1772871590460609300,1.892609375,-6.4599015315383665,6.951696622210741,-1.8943740696758031
1772871590470542000,1.9025419921875,-3.4241350750029085,6.4497752743214365,-2.0842523522786793
1772871590480475100,1.91247509765625,-0.21383096672892568,5.8611383505314585,-2.7651839672759175
1772871590490409200,1.9224091796875,2.4207670109987256,4.710000814726948,-3.810567464710772
1772871590500342000,1.932342041015625,4.436441063222289,2.9863696806818245,-4.583384021070599
1772871590510275000,1.942275146484375,6.136676708632708,0.9510212061733007,-4.251888797947764
1772871590520208100,1.9522080078125,7.913246821182966,-1.5078542939454316,-3.1193805592894552
1772871590530141200,1.96214111328125,9.245200942865013,-4.166615237548947,-1.988426564335823
1772871590540074000,1.972073974609375,10.01403602837324,-6.299345058879256,-0.7936388335056602
1772871590550007000,1.982007080078125,10.616833579462766,-7.768925444009899,0.5784886008717119
1772871590559940000,1.991940185546875,11.046152047955989,-8.892257273522018,1.7456731622442603
1772871590569873200,2.001873046875,11.68381632976532,-9.5016657671839,2.353345041371882
1772871590579806200,2.01180615234375,12.415027494800091,-9.571406242886185,2.2636896126270294
1772871590589739000,2.021739013671875,13.10914490071535,-9.30940073557496,1.6978946352422237
1772871590599673000,2.031673095703125,13.369896608573198,-8.79730812228322,1.467417508008331
1772871590609606100,2.041606201171875,12.464641712796688,-8.167464743357897,1.437019739396125
1772871590619539000,2.0515390625,10.790019232070446,-7.620555083706974,1.5792628489904106
1772871590629472000,2.061471923828125,8.861821218726039,-7.323745974040031,1.9061613919727503
1772871590639405000,2.071405029296875,6.952139689803123,-7.13666857420206,2.170052128508687
1772871590649338000,2.081338134765625,5.1229655297905206,-6.931792482823133,2.089094093221426
1772871590659271000,2.09127099609375,3.6814462870180606,-6.734038206148147,1.4892803802482784
1772871590669204000,2.101203857421875,2.6365771688461304,-6.6694549670785666,0.5946569147318601
1772871590679137000,2.111136962890625,2.0563936006247996,-6.644559010753035,-0.2610043674446642
1772871590689070300,2.1210703125,2.0046628288656474,-6.518406911998987,-1.310753366612643
1772871590699003100,2.131003173828125,2.106115955170989,-6.319336876550317,-2.3468702923998235
1772871590708937200,2.140937255859375,2.4573154111951587,-6.20741087154746,-3.3377263730943203
1772871590718870300,2.150870361328125,3.07269070430696,-6.13497516541183,-3.996671051080525
1772871590728803000,2.160802978515625,3.6103000361710786,-6.259279005950689,-4.246882952484488
1772871590738736000,2.170736083984375,3.963605524563789,-6.494260897257924,-3.7679528963431714
1772871590748669200,2.180669189453125,4.233260669845342,-6.7245256969153875,-2.9441075790137052
1772871590758602200,2.190602294921875,4.202793050867319,-7.108003036209941,-2.0609052328303457
1772871590768535000,2.20053515625,3.5343495999127623,-7.334814480543137,-1.0865925829187035
1772871590778468000,2.210468017578125,2.8787761519253254,-7.020797630965709,-0.5047641700997948
1772871590788401200,2.220401123046875,3.2990006288588045,-5.724105961322784,-1.0657203291513024
1772871590798334200,2.230334228515625,4.755801027393341,-4.161175092321634,-1.8652749625720082
1772871590808267000,2.24026708984375,5.907326101210713,-2.5081337442845104,-2.3722500867195424
1772871590818201000,2.250201171875,6.359246862134337,-0.40169864016175266,-2.1369883555576203
1772871590828134100,2.260134033203125,5.146047130170464,1.5745909116566181,-0.6490579286135733
1772871590838067000,2.27006689453125,2.9429309364497658,4.451591870602965,1.2034744567632674
1772871590848000000,2.28,0.24096505737006663,8.076713043808937,2.2650363510608673
1772871590857933000,2.28993310546875,-4.278705493202805,11.487870563817024,2.115226313343644
1772871590867866000,2.2998662109375,-10.315447078877687,14.140914883339404,1.6667019168600439
1772871590877799000,2.309798828125,-16.009464191406963,14.914892007911204,2.5851713912576435
1772871590887732000,2.31973193359375,-18.86380849738717,13.81805304852724,4.694636072334647
1772871590897665000,2.3296650390625,-17.78941050239205,11.381913111829757,6.8152329728007315
1772871590907598000,2.33959814453125,-14.156779976469277,8.487304600000382,8.249413543248176
1772871590917531100,2.34953125,-9.988499436056614,6.341425374239683,8.789758437556028
1772871590927465200,2.35946533203125,-6.30571634747684,5.285293688297271,8.117890857371687
1772871590937398300,2.369398193359375,-3.690648999649286,5.283118682345748,5.973059094837308
1772871590947331000,2.3793310546875,-2.1043150432288646,6.262444191983342,3.824890296834707
1772871590957264100,2.38926416015625,-1.921881085282564,7.574603479871153,1.8916269629247486
1772871590967197200,2.399197265625,-3.343543534940481,9.04983151549995,0.5840323526039719
1772871590977130200,2.409130126953125,-6.237059575358033,10.550975498151779,0.045101124486327165
1772871590987063300,2.419063232421875,-10.080000492668152,11.206528487873078,-0.653600686609745
1772871590996996000,2.42899609375,-13.63472360304594,10.628194346910714,-1.1203552979193627
1772871591006929200,2.43892919921875,-15.259278276789187,9.201776227158307,-0.9415352926865219
1772871591016862200,2.4488623046875,-14.042405409270524,7.377079504820704,-0.261027163798362
1772871591026795300,2.458795166015625,-11.389158845174311,5.379135755077004,-0.33099706434234977
1772871591036729000,2.46872900390625,-7.759262128129601,4.0187902361690995,-0.8462618779294192
1772871591046662100,2.478662109375,-3.7839188194990157,3.518421378418803,-1.4367299626693129
1772871591056594400,2.488594482421875,-0.5996095687031745,3.4721202304929495,-1.632699109493196
1772871591066527500,2.498527587890625,1.1669944456279278,3.252479116180539,-1.090470885656774
1772871591076460300,2.508460205078125,2.003451114988327,3.085831340909004,-0.21099954269528387
1772871591086393300,2.518393310546875,2.1385522438734768,2.8855811557650566,0.022518559669703245
1772871591096326400,2.528326416015625,1.596639077335596,2.6133961997449395,-0.16851663788333535
1772871591106259500,2.538259521484375,1.30761170758605,1.933235422989726,-0.6777996005818248
1772871591116192300,2.548192138671875,1.7316987051665782,0.4424363087415695,-1.2812427560985087
1772871591126125300,2.558125244140625,2.6337387305498123,-1.7298855182647703,-1.5066839349918066
1772871591136058400,2.568058349609375,4.189304039219022,-4.04764165212214,-1.6669132215231657
1772871591145992200,2.5779921875,6.521967819350958,-6.1598483253836624,-1.6497605728007851
1772871591155925200,2.58792529296875,9.459724568033218,-8.214946040979028,-1.4334873274862765
1772871591165858300,2.5978583984375,12.354950334978103,-10.08218426644802,-0.6229924901172519
1772871591175791400,2.607791259765625,14.191845444631575,-11.51365031723976,0.5191033688366413
1772871591185724200,2.61772412109375,14.30940916326046,-12.286069106453656,1.7713041548460722
1772871591195657200,2.6276572265625,12.83657299120426,-11.952452068871258,2.4911767642647025
1772871591205590300,2.63759033203125,10.29259694916606,-10.48481931067705,2.094444075947255
1772871591215523300,2.6475234375,7.990091575932502,-8.733706295466423,1.0601175407081842
1772871591225456400,2.657456298828125,6.6696040201604365,-6.907820071083306,-0.45208705740123983
1772871591235389400,2.667389404296875,6.057265902787447,-5.309134582611918,-2.2278084441676733
1772871591245322500,2.677322509765625,5.7822612131714815,-4.244354310789704,-3.796562612494826
1772871591255255600,2.687255615234375,5.826598367547988,-3.66167775670886,-4.497819368770719
1772871591265189400,2.697189453125,6.015956571799516,-3.625173780176043,-4.4739103776559235
1772871591275122400,2.707122314453125,5.754321066844463,-4.223216830214858,-4.197876052731275
1772871591285055500,2.717055419921875,5.127539998099207,-5.175571330818533,-3.6030157243818044
1772871591294988300,2.72698828125,4.364935331413149,-6.0830696216076605,-2.6354239071577785
1772871591304921300,2.73692138671875,3.747943835276365,-6.9140189257234335,-1.8446669126987456
1772871591314854400,2.7468544921875,3.521116608852148,-7.595063499575853,-1.3719383415460586
1772871591324787500,2.756787353515625,3.8917198535263537,-7.900116705974936,-1.0819864042975007
1772871591334720300,2.76672021484375,4.946505385556817,-7.930152363276481,-1.1880340187862515
1772871591344653300,2.7766533203125,5.9830649405449625,-7.616491487529873,-1.535810953015834
1772871591354586400,2.78658642578125,6.440377915900945,-6.899298326453566,-2.1296628349751234
1772871591364519400,2.79651953125,6.514457882112264,-5.805630398321151,-2.9481387342259286
1772871591374453200,2.806453369140625,7.259022449716925,-4.009204077178239,-4.084789771777391
1772871591384386300,2.81638623046875,7.776819412130117,-2.761668944892287,-4.437641086661816
1772871591394319400,2.8263193359375,6.686273415410518,-2.137913945969939,-3.0469223490610715
1772871591404252400,2.83625244140625,4.486510623770952,-1.3438929812788962,-0.06203574654385447
1772871591414185200,2.846185302734375,1.2821902660816906,-0.2745283042758703,3.14887611836493
1772871591424118300,2.8561181640625,-1.8028057930469512,1.5583324352949857,5.83957592254281
1772871591434051300,2.86605126953125,-3.733907711139321,4.153873244875669,7.125995789018273
1772871591443984400,2.875984375,-4.783274725252389,7.318073189100622,6.257528947412967
1772871591453917200,2.885917236328125,-7.261016838404536,10.464552767717837,4.907097504276037
1772871591463850200,2.895850341796875,-12.55956456055045,13.235728961145877,4.56270802052766
1772871591473783300,2.905783203125,-17.38303101093769,14.962521189570426,4.533839361178875
1772871591483716400,2.91571630859375,-19.029442127180097,14.700059170663357,4.902012456096709
1772871591493650400,2.925650390625,-17.600038269615172,13.301316993343828,6.031963703748583
1772871591503583500,2.93558349609375,-14.739487510210274,11.100230844146013,6.762155462607741
1772871591513516500,2.9455166015625,-12.346201211333273,9.009962446448206,6.877578077554702
1772871591523449300,2.955449462890625,-10.121029253149032,7.86292124004662,6.110238783562183
1772871591533382400,2.96538232421875,-8.092075448113679,7.2472221218079325,4.665204226145148
1772871591543315500,2.9753154296875,-6.669619802251458,7.0198927910804745,3.062248513008654
1772871591553248500,2.98524853515625,-6.570711099731922,7.1111337354511015,1.6335910898968578
1772871591563181300,2.995181396484375,-7.589589452078938,7.333565357264876,0.3789269825138151
1772871591573114400,3.0051142578125,-8.85513896448314,7.593925435456633,-0.34845468736067414
1772871591583047400,3.01504736328125,-9.943564900308846,7.843825494432449,-0.8805863184660673
1772871591592980500,3.02498046875,-10.230604895633459,7.805172230911254,-1.184737315328419
1772871591602914300,3.034914306640625,-9.860905321800708,7.758706832334399,-1.3064106612332165
1772871591612847400,3.044847412109375,-9.023871729335188,7.543805606025457,-1.733149050105363
1772871591622780400,3.054780517578125,-7.940134243586659,7.085805817449092,-2.0543002816073597
1772871591632713200,3.064713134765625,-6.861652194148301,6.760296682998538,-1.9142649111904202
1772871591642646300,3.074646240234375,-5.3267123248785735,6.106520055299997,-1.754716154269129
1772871591652579300,3.084579345703125,-3.248987766933441,4.877962010684609,-1.8482095537416636
1772871591662512400,3.094512451171875,-0.5916834518790245,3.4988246975451704,-2.0819421756401657
1772871591672445200,3.104445068359375,1.9462088863313196,1.9158716157346962,-2.5650597465991973
1772871591682378200,3.114378173828125,3.880136967760324,0.023759645771980285,-2.763893927465379
1772871591692311300,3.124311279296875,5.520452105215192,-1.8288854061990976,-2.3376760553359985
1772871591702244400,3.134244384765625,7.118162611174583,-3.9709564718484875,-1.9790935033231973
1772871591712177200,3.14417724609375,8.914540417000651,-6.2099026883631945,-1.4850835130803286
1772871591722111500,3.154111572265625,10.539234791475534,-8.28564279449284,-0.6954262965567409
1772871591732044500,3.16404443359375,11.65354277205467,-9.78076444811523,0.18434607517793775
1772871591741977300,3.173977294921875,12.398624641531706,-10.445969647800922,0.8245457206837833
1772871591751910400,3.183910400390625,13.034669797706604,-10.295885469317435,0.9283568082921206
1772871591761843500,3.193843505859375,13.287203127795458,-9.33655469996035,0.14589038005545735
1772871591771776500,3.203776611328125,13.09081195616722,-7.947218648889661,-1.1063181508690119
1772871591781709300,3.213709228515625,12.491868742418289,-6.5751043662548065,-1.9821416388474404
1772871591791642400,3.223642333984375,11.009062965011596,-5.760247534283995,-2.370525601014495
1772871591801575400,3.233575439453125,9.548360298341512,-5.220341031393408,-2.4935733040124175
1772871591811508500,3.243508544921875,7.911012193998694,-5.262437713366746,-1.9532891999810933
1772871591821441500,3.253441650390625,6.28320407141745,-5.860365028071403,-1.332854285392165
1772871591831374300,3.263374267578125,4.912287474134564,-6.4473506775230165,-0.495114298222959
1772871591841308400,3.273308349609375,3.8189720127016304,-6.8803329292207955,0.22783684185817837
1772871591851241500,3.283241455078125,2.8695120644956824,-7.064453232818842,0.3346788215950131
1772871591861174300,3.29317431640625,2.343506661185622,-6.925522316512465,-0.2281172662347555
1772871591871107300,3.303107421875,2.5836083797246214,-6.357420231229066,-1.4263830484390259
1772871591881040400,3.313040283203125,3.2970950874984264,-5.753544237253069,-3.0328973308399316
1772871591890973400,3.322973388671875,4.313996586814523,-5.238054382738471,-4.47439231595397
1772871591900906200,3.33290625,5.277681459727883,-4.9524336065620185,-5.504982733404636
1772871591910839300,3.34283935546875,6.0373892359286545,-5.060757787680625,-5.772402666980028
1772871591920772400,3.3527724609375,6.631664457866549,-5.37819292126894,-5.226805843493342
1772871591930705400,3.362705322265625,6.6326704200387,-5.953319206100702,-4.2480040654689075
1772871591940638200,3.37263818359375,6.370258670014143,-6.601963731607794,-3.0862358300566672
1772871591950571300,3.3825712890625,6.121779583752155,-7.121198617869615,-1.7901961945816873
1772871591960505300,3.39250537109375,5.677185220193863,-7.367692083272337,-0.7976888395488262
1772871591970438100,3.402438232421875,5.216429410907626,-6.569543224996328,-0.641064153380692
1772871591980371500,3.412371337890625,5.798741223329305,-4.809714988410472,-1.2885925343394278
1772871591990304500,3.422304443359375,6.150340492326021,-2.9275732083201405,-0.8129927916646004
1772871592000237600,3.432237548828125,5.540412943226099,-0.3718599667370319,-0.33886516736894845
1772871592010170400,3.44217041015625,4.566478478977084,1.803865531232953,0.6227464064016938
1772871592020103400,3.452103515625,2.693508431857824,3.538486845847964,2.619318867792189
1772871592030036500,3.462036376953125,0.4810439795553684,6.61347881283462,4.985056357747316
1772871592039969500,3.471969482421875,-3.6833038975834844,10.904134271550177,5.988072539573907
1772871592049902300,3.48190234375,-10.126278259718417,14.925126986199617,5.156812269812822
1772871592059836000,3.4918359375,-16.901494863951203,16.99485119304061,4.33528019786179
1772871592069769000,3.50176904296875,-21.400297983062266,16.775967619097234,4.952044899505377
1772871592079703000,3.511703125,-22.56659450955391,14.476051677834986,6.59024114511013
1772871592089636000,3.521635986328125,-20.799708755671976,10.833386080110072,9.542637244519591
1772871592099569200,3.531569091796875,-16.822248893278836,6.908450185680389,12.30853578980565
1772871592109502000,3.541501953125,-11.192750137889385,4.700912668386102,12.759198659622669
1772871592119435000,3.55143505859375,-6.086984164702892,4.039367160251737,10.232509267950057
1772871592129368000,3.5613681640625,-2.3339620032489297,4.349916625979542,6.995044181028008
1772871592139301000,3.571301025390625,-0.32241116843521594,5.332046087121963,4.151831217654049
1772871592149234200,3.581234130859375,-0.5474988577157258,6.456546960413456,2.042958949512243
1772871592159167000,3.5911669921875,-2.692809343677759,7.637488098329305,0.58205900670439
1772871592169100000,3.60110009765625,-6.225581319010257,8.65907278702557,0.0906003083795309
1772871592179033000,3.611033203125,-10.890185241174697,9.209232972905038,0.36320144398510457
1772871592188966100,3.620966064453125,-15.355214685499668,9.642775196573139,0.7310258715957403
1772871592198900000,3.63089990234375,-17.661451646476984,9.91312183125019,0.17091405441388488
1772871592208833000,3.6408330078125,-16.61361900232434,9.733756028702855,-1.0870999479189514
1772871592218766000,3.65076611328125,-13.033711181807517,9.025073506340384,-2.3824136072069404
1772871592228699000,3.660698974609375,-9.204449830281733,7.573907314300537,-3.482121107764542
1772871592238632000,3.6706318359375,-5.80061695407331,6.10261603359878,-3.7499475763142107
1772871592248565000,3.68056494140625,-2.748299175709486,4.940652567875385,-3.718124158813059
1772871592258498000,3.690498046875,-0.15847791281938553,3.9145232214868066,-3.81996160826087
1772871592268430800,3.700430908203125,2.1730495567589996,2.986364419984817,-3.9452103284344076
1772871592278364000,3.710364013671875,3.8761289011627436,1.908432405644655,-4.208569296181202
1772871592288297000,3.720296875,4.939898534637689,0.34070202740728855,-4.749337968859076
1772871592298230000,3.73022998046875,6.458378852015733,-1.4198656293690204,-4.914213473761081
1772871592308162800,3.740162841796875,8.495929220482706,-3.5829274605989454,-4.343510266068577
1772871592318097000,3.750096923828125,11.20188036980629,-5.982312660872936,-2.890533517475426
1772871592328030000,3.760030029296875,14.426163903594016,-8.384687690612672,-0.8001078833892941
1772871592337962800,3.769962646484375,16.97015514320135,-10.354880094599723,0.9871922974899411
1772871592347896000,3.77989599609375,17.842561077821255,-11.518245828336477,1.6499889747291803
1772871592357829000,3.7898291015625,16.991347568833827,-11.168563791137933,1.7053978504791856
1772871592367762200,3.79976220703125,15.378581532561778,-9.807753577327727,0.6990814580634236
1772871592377695000,3.809695068359375,13.182913901281356,-8.19800659661591,-0.6144421039149165
1772871592387628000,3.8196279296875,10.773360358214378,-6.775611156508326,-1.3846338647291063
1772871592397561000,3.82956103515625,8.2894649831295,-5.764169091641903,-1.231420448309183
1772871592407494100,3.839494140625,5.7994549245566125,-5.0418420748084785,-0.5575076260328292
1772871592417427000,3.849427001953125,3.586076280018687,-4.6817608086705205,-0.033626083008944985
1772871592427360000,3.859360107421875,1.9917390498846768,-4.5230297978729,-0.14084405645132064
1772871592437293000,3.86929296875,1.405817230272293,-4.364885647052526,-0.7686693735525012
1772871592447227000,3.879226806640625,1.7337018616825342,-4.423381675162911,-1.8335306016564368
1772871592457160000,3.889159912109375,2.4866326910942793,-4.832769700783491,-3.128498516246676
1772871592467093000,3.899093017578125,3.188151313176751,-5.51610969209671,-3.8823996519953012
1772871592477026000,3.909026123046875,3.676888769844174,-6.4756818689942355,-3.8678216760665176
1772871592486959000,3.918958984375,4.341107881101966,-7.459418180811404,-3.445607486620545
1772871592496892000,3.928891845703125,5.012127904546261,-8.121060719579457,-2.7574960431218147
1772871592506825000,3.938824951171875,5.552648155421018,-8.16052062330842,-2.33927706079185
1772871592516758000,3.948758056640625,5.83739390232861,-7.999449771386384,-2.5962369751513004
1772871592526691000,3.958691162109375,6.180339909270406,-7.533779302051663,-2.948566896510124
1772871592536623900,3.968623779296875,6.385142935413122,-6.874660144281387,-3.25790464836061
1772871592546557000,3.978556884765625,6.204359082761407,-6.274557823625207,-3.6482562573388218
1772871592556490000,3.988489990234375,5.913596267521381,-5.482079412201046,-4.076125111545622
1772871592566423000,3.998423095703125,5.5250049462139605,-4.899262572866678,-4.4160421260550615
1772871592576355800,4.00835595703125,5.053131530585885,-4.777917582133412,-4.347878982672095
1772871592586289000,4.018288818359375,5.707818258866667,-4.3962563523501155,-3.217860515002906
1772871592596222000,4.028221923828125,5.6779573736101385,-3.350637877115607,-1.525056480897963
1772871592606155000,4.038155029296875,4.3131449384212495,-1.9158371289432048,0.7633046316489577
1772871592616087800,4.048087890625,2.1494985853016377,0.5829238068401813,3.650727031366527
1772871592626020900,4.058020751953125,-0.8916279369622468,3.9817490840196608,5.781266356915236
1772871592635955200,4.067955078125,-4.000770595353842,8.708260888564586,6.055068100482225
1772871592645888000,4.077887939453125,-7.670424737769365,14.188978949284552,4.510021847739815
1772871592655821000,4.087821044921875,-11.874784307301043,18.44612201449871,2.8827517775580285
1772871592665754000,4.097754150390625,-15.77440923486352,20.41929957177639,2.706494754680991
1772871592675687200,4.107687255859375,-18.293519715714453,19.69494367946386,3.0819965850517153
1772871592685620000,4.117619873046875,-18.686029671770335,16.026042401242254,3.536884963609278
1772871592695553000,4.127552978515625,-16.90178361776471,10.370521900367736,5.187001656371355
1772871592705486000,4.137486083984375,-14.126862977111339,4.895940734967589,7.694627451133727
1772871592715419100,4.147419189453125,-10.909096862393618,1.5600316404283046,9.963038831585646
1772871592725352000,4.15735205078125,-7.77877171524167,0.4255874652713537,9.751868023976684
1772871592735285000,4.167284912109375,-5.304133997845649,1.0034317768901586,7.868909666806459
1772871592745218000,4.177218017578125,-3.7680128098368644,3.153133775809407,5.265973486277461
1772871592755151000,4.187151123046875,-3.340255599310994,5.94696311507225,2.6569743524476883
1772871592765085000,4.1970849609375,-4.4126212116956705,8.476935766199231,1.3030690957203506
1772871592775018000,4.20701806640625,-7.082856904515624,10.570248353898524,0.6270879427373409
1772871592784951000,4.216950927734375,-11.335339576703308,12.189535316371916,-0.2921604070782661
1772871592794883800,4.2268837890625,-15.297908159434794,12.772312992739677,-1.2970955742686987
1772871592804817000,4.23681689453125,-17.40509320514202,11.97022504144907,-1.7177512822262941
1772871592814750000,4.24675,-16.951078686809538,10.030072970938681,-1.5180087543435394
1772871592824683000,4.25668310546875,-14.171429264068603,8.260020861980319,-1.1723866600602864
1772871592834616000,4.266615966796875,-10.612589950543642,6.700640378937125,-1.002976142077148
1772871592844548900,4.276548828125,-7.288428576943278,5.609927793478965,-2.0276042901225386
1772871592854482000,4.28648193359375,-3.693437753584981,5.392607815590501,-3.9274633670806884
1772871592864415000,4.2964150390625,0.004700140514969826,5.260523404178023,-5.284212907323241
1772871592874348000,4.30634814453125,3.0156174024760722,4.1592490926951164,-5.424251492610574
1772871592884281900,4.31628173828125,5.553229170179367,2.271380751651525,-4.803537761080265
1772871592894215000,4.32621484375,7.835901715695858,-0.037566637328267094,-4.075070341795683
1772871592904148200,4.336148193359375,9.934092138564585,-2.752706470757723,-3.2528906195908784
1772871592914081000,4.3460810546875,12.081105336791277,-5.596146520885825,-1.287053049812466
1772871592924014000,4.35601416015625,13.740910187613963,-8.273807979792355,1.4297716679640113
1772871592933947100,4.365947021484375,14.517407770574092,-10.581590416646003,3.24808555739671
1772871592943880200,4.375880126953125,15.157802938652038,-11.567619223314523,4.1393727180972695
1772871592953813000,4.38581298828125,15.768134976899622,-11.131181278204917,3.7245632519498466
1772871592963746000,4.39574609375,16.04721495313048,-9.860782572203874,2.135792569901794
1772871592973679000,4.40567919921875,15.362558618521689,-8.264830892610549,0.6090627489641308
1772871592983612200,4.415612060546875,13.132752570796011,-6.774167387440801,-0.6866174055486917
1772871592993545000,4.425544921875,10.382275466525554,-5.66739857019484,-1.2677819476313887
1772871593003478000,4.43547802734375,7.482034501767158,-4.940523973059654,-1.4425959320932626
1772871593013412000,4.445412109375,4.757624735689163,-4.446764304316043,-1.5351614030659197
1772871593023345000,4.455344970703125,2.4994752215325833,-4.098846938702464,-1.6442828720420597
1772871593033278000,4.46527783203125,1.0679343519389628,-3.9073862092137333,-1.9119582416832446
1772871593043211000,4.4752109375,0.6253694483816623,-3.877363995915651,-2.302735674858093
1772871593053144000,4.48514404296875,1.0269389092057943,-4.328272949448228,-2.5340499835684893
1772871593063076600,4.49507666015625,1.8352303913116454,-5.055184955984354,-2.6211533897429704
1772871593073009400,4.505009521484375,2.646217688372731,-5.767682652720809,-2.343136804959923
1772871593082942500,4.5149423828125,3.428418451410532,-6.4110542062610385,-2.2305495595693587
1772871593092875500,4.52487548828125,4.510223507791757,-6.821888923558593,-2.4280022229492664
1772871593102808600,4.53480859375,5.628080705285072,-7.204605799874663,-2.6184336093902587
1772871593112741400,4.544741455078125,6.7805819306582205,-7.5306304826319215,-2.801220326296985
1772871593122674400,4.55467431640625,7.595967170417309,-7.798875761115551,-3.206028915172815
1772871593132607500,4.564607421875,7.957814277184009,-8.145548679625987,-3.3223324046075344
1772871593142541300,4.574541259765625,7.902792062664031,-8.231627711188793,-3.0899709249317646
1772871593152474400,4.584474365234375,7.379022455582022,-7.9277149069964885,-2.9696552772462366
1772871593162407400,4.594407470703125,6.681693686404824,-7.357247846147418,-3.0041502520442007
1772871593172340500,4.604340576171875,5.87812631021142,-6.744437435087561,-3.070557199409604
1772871593182273300,4.614273193359375,5.070425779736042,-5.936869591081142,-3.0728336199089883
1772871593192206300,4.624206298828125,4.044635456043482,-4.922357032728195,-3.3681106977030635
1772871593202139400,4.634139404296875,3.7797470867723226,-3.1762200523644686,-4.336529028879106
1772871593212072400,4.644072509765625,5.117819983595609,-1.1952660158663988,-4.4346480423256756
1772871593222005200,4.654005126953125,5.505929658865928,-0.16395663649141787,-3.333459655560553
1772871593231938600,4.6639384765625,4.79733656835258,1.1053601194918155,-0.8010103851869702
1772871593241871600,4.67387158203125,3.596149345743656,2.9211498972743746,2.69122236674726
1772871593251804700,4.6838046875,0.024775544816255567,5.154146849995851,5.980388414812087
1772871593261738500,4.693738525390625,-5.796990580269694,8.669429345867037,7.143412203243375
1772871593271671600,4.703671630859375,-13.400309282493591,12.002061610692738,6.579837239995598
1772871593281604600,4.7136044921875,-21.14338658401966,13.586495870971678,6.066016779997945
1772871593291537400,4.723537353515625,-24.30518472779989,13.887643886625765,5.877719482976198
1772871593301470500,4.733470458984375,-20.664866569983957,12.360168946409225,6.2981333450019354
1772871593311403500,4.743403564453125,-13.349081784081458,8.986416151165962,5.956649227306246
1772871593321336600,4.753336669921875,-5.990227087259292,5.945360356050729,6.144538528048992
1772871593331269400,4.763269287109375,-1.8979168568491935,3.9889878031015393,6.464250958919525
1772871593341202400,4.773202392578125,-1.5768424899756908,3.6575568773865696,6.985197909796238
1772871593351135500,4.783135498046875,-3.7954040901094674,4.704275422817468,6.843213451138138
1772871593361068500,4.793068603515625,-6.86394936517477,6.526579112538695,6.030103170573711
1772871593371001600,4.803001708984375,-10.399758516246079,8.88806040635407,4.29536056766659
1772871593380934400,4.812934326171875,-13.584165966719388,10.529517699581383,1.8014973407968877
1772871593390868500,4.822868408203125,-15.106487761956453,11.31635430572629,-0.07101297985613346
1772871593400801500,4.832801513671875,-14.441083240306376,11.403086832761764,-1.3279630062192678
1772871593410734300,4.842734375,-12.160030989468098,10.864861414825915,-2.2962395908370614
1772871593420667400,4.85266748046875,-9.563865910509229,9.806897837281227,-2.701319105608761
1772871593430600400,4.862600341796875,-7.455759073781967,8.53484376528859,-2.203204164265096
1772871593440533500,4.872533447265625,-6.530580749395489,7.226180502822995,-0.8285761452436446
1772871593450466300,4.88246630859375,-6.791921070796251,6.1043888884902,1.0768404197111725
1772871593460399400,4.8923994140625,-7.359903329092264,5.441082215902209,2.8461846726611255
1772871593470332400,4.90233251953125,-7.544797539672255,4.963112821486592,4.007677890524268
1772871593480265500,4.912265380859375,-7.123265487271547,4.6336903129845854,3.642427697315812
1772871593490198300,4.9221982421875,-5.757185808625817,4.632072940915823,1.8928490520656107
1772871593500131300,4.93213134765625,-3.552673776632547,4.285935444456339,-0.24547464374899863
1772871593510065700,4.942065673828125,-0.6862398044079542,3.1891461694329974,-2.1730931036397814
1772871593519998500,4.95199853515625,2.67857798922956,1.6412515415221451,-3.8777088638305663
1772871593529931500,4.961931640625,5.551925101843476,-0.40098493893444537,-4.743244912680983
1772871593539864600,4.971864501953125,7.808958763712644,-2.7547008594453333,-4.649779277998209
1772871593549797600,4.981797607421875,9.425073525890708,-5.081095057788491,-3.4905309164524074
1772871593559730400,4.99173046875,10.546116952204704,-6.932855143618584,-1.6596597432635725
1772871593569663500,5.00166357421875,11.625540666407346,-8.362382919824123,-0.03693915307968855
1772871593579596500,5.011596435546875,12.674918786436319,-9.177890324658154,0.9758202779956161
1772871593589529600,5.021529541015625,13.071223458600043,-9.376402141702174,0.965364496563375
1772871593599462400,5.03146240234375,13.207276773643493,-8.857828934219478,0.35576954041868447
1772871593609395500,5.0413955078125,13.320825995934008,-8.738747796764969,-0.7074630635701119
1772871593619328500,5.05132861328125,12.538936783063411,-7.657739443719387,-1.246320203538239
1772871593629261600,5.061261474609375,11.05786002140641,-6.376150650662184,-1.791870703665167
1772871593639195400,5.0711953125,8.96618701760769,-5.795574868252873,-2.2503626596726476
1772871593649128400,5.08112841796875,7.58809424508512,-5.192724710193276,-2.583575646498799
1772871593659061500,5.0910615234375,6.712310358464718,-4.930806881165505,-2.4355950161658226
1772871593668994300,5.100994384765625,6.115060504630208,-5.0799558246254914,-2.098133139723539
1772871593678927400,5.11092724609375,5.699444982796907,-5.391649199691415,-1.5550462532311677
1772871593688860400,5.1208603515625,5.019413969901204,-5.661228941649198,-0.991384780743718
1772871593698793500,5.13079345703125,4.266226535379887,-5.8810419053971765,-0.49290685130655765
1772871593708726500,5.1407265625,3.8077316567629573,-6.0497109573632475,-0.37440877443701026
1772871593718659300,5.150659423828125,4.051211327302456,-5.860858364546298,-1.064660006443411
1772871593728592400,5.16059228515625,4.953768070036173,-5.5850189776718615,-2.296276269585639
1772871593738525400,5.170525390625,6.035462651780247,-5.415405338332056,-3.5309126112014053
1772871593748458500,5.18045849609375,7.204718028077483,-5.443101154509186,-4.529262554782629
1772871593758391300,5.190391357421875,7.997927676385641,-5.600480750697851,-4.858769526697695
1772871593768325600,5.20032568359375,8.330978312256931,-5.683808437725901,-4.6153383714750404
1772871593778258700,5.2102587890625,8.096341873386502,-5.840791728073358,-3.889593070630729
1772871593788191500,5.22019140625,7.488922507715225,-6.085500063624978,-3.160425686383247
1772871593798124500,5.23012451171875,6.721065911850332,-6.221848562222719,-2.4505994008131324
1772871593808057600,5.2400576171875,5.739260860356688,-6.272502644661069,-1.8045730949804186
1772871593817990700,5.24999072265625,4.834862873670459,-6.159138131287694,-1.528943989855796
1772871593827923500,5.25992333984375,4.103877334085107,-5.592846894818544,-1.5803030056931078
1772871593837856500,5.2698564453125,4.221021950519084,-4.1079438528716565,-2.4028717272154987
1772871593847789600,5.27978955078125,4.990166248106956,-2.941322916731238,-3.228938666117191
1772871593857722600,5.28972265625,4.773640050944685,-2.1740683784127235,-1.9819171824418007
1772871593867655400,5.299655517578125,3.463374029457569,-0.7108639580547809,-0.36290246103852986
1772871593877588500,5.30958837890625,1.3528291519284248,1.0343091457128524,1.8920342285513876
1772871593887521500,5.319521484375,-1.78302031160295,3.82768197337985,4.398416160732507
1772871593897455400,5.329455322265625,-6.26321283826828,8.057248464882374,6.384670641726255
1772871593907388400,5.339388427734375,-13.198057694399356,11.478006172406673,7.312896078723669
1772871593917321500,5.349321533203125,-21.535310849142075,13.425894974648951,8.863162696462869
1772871593927254500,5.359254638671875,-26.12352711267471,14.406694648492335,9.357058558806777
1772871593937187300,5.369187255859375,-23.61467031481266,14.321477202194929,8.040593682679534
1772871593947120400,5.379120361328125,-17.051240019738675,12.079317868852614,4.977147776579857
1772871593957053400,5.389053466796875,-10.008845473992825,9.114635119321942,2.985285100315511
1772871593966986500,5.398986572265625,-4.724326861721277,6.648263125967979,2.9732758058309554
1772871593976919300,5.408919189453125,-2.7770705121636388,4.828590953794121,3.8348935121938585
1772871593986852400,5.418852294921875,-3.454928857195377,3.9338878471702334,5.130070393359661
1772871593996785400,5.428785400390625,-5.803126891067624,3.920861776858568,5.543370039466023
1772871594006718500,5.438718505859375,-9.323522199907899,4.416291424641013,5.323386979848146
1772871594016651300,5.4486513671875,-12.982820368003845,5.699151552808284,4.485391848874092
1772871594026585600,5.458585693359375,-15.639332071375845,7.21563397436738,1.9135228606514632
1772871594036518700,5.4685185546875,-16.139381195652483,8.989810469779371,-1.007703755120933
1772871594046451500,5.478451416015625,-14.29918938254118,10.632532668375969,-4.0118958004802465
1772871594056384500,5.488384521484375,-11.879046640920638,11.415097588551044,-5.9991176652014255
1772871594066317800,5.49831787109375,-9.913281990247965,11.617670663684606,-6.269145735448599
1772871594076251000,5.5082509765625,-8.122239115709066,11.296364826142787,-4.802134908545017
1772871594086183700,5.51818359375,-6.735439889639616,10.02394250535965,-2.6388497899532317
1772871594096116700,5.52811669921875,-6.192736449506879,8.11439833908081,-0.06076967213079333
1772871594106049800,5.5380498046875,-5.1592672617495055,6.287472250255942,2.5528134284883737
1772871594115982800,5.54798291015625,-3.989529654893279,4.187662701752782,4.249770782880485
1772871594125915600,5.55791552734375,-2.544407419192791,1.9690449875175953,4.4036467548623675
1772871594135848700,5.5678486328125,-0.42380116637647147,0.430340797278285,2.7249329131692646
1772871594145781800,5.57778173828125,2.6653783159166573,-0.7931979578703642,-0.22005086415708064
1772871594155715600,5.587715576171875,6.256332431104779,-2.012548613679409,-2.8082904108136892
1772871594165648600,5.597648681640625,9.566533083891867,-3.3255846844017505,-4.654590477672219
1772871594175581700,5.607581787109375,12.454261773079633,-4.814442601454258,-5.152081734159588
1772871594185514800,5.6175146484375,15.147143597471713,-6.242184663286805,-4.128799593895674
1772871594195447800,5.62744775390625,16.975574830162525,-7.42434628290832,-2.4851883375048636
1772871594205380600,5.637380615234375,17.63553043875694,-8.205964277622103,-0.8289049388065933
1772871594215313700,5.647313720703125,17.098761649370193,-8.323267299488187,0.4557127005524933
1772871594225246700,5.657246826171875,15.240296512943505,-7.870733959624171,0.8149966788329184
1772871594235179800,5.6671796875,12.83526950739026,-7.003986781418323,0.8192628118447959
1772871594245112600,5.677112548828125,10.388688840699196,-6.069658351370692,0.8215019690737128
1772871594255046000,5.6870458984375,8.051786107823252,-5.354809707593917,0.6979106607183814
1772871594264979000,5.69697900390625,6.088837683615088,-4.910683546069264,0.4981595111377537
1772871594274912000,5.706912109375,4.382808841755986,-4.669058563485741,0.4559335036963224
1772871594284845800,5.716845703125,3.232625830197334,-4.60015044695437,0.42804917920976876
1772871594294779000,5.72677880859375,2.792070512896776,-4.70294914264977,0.2576476043626666
1772871594304712000,5.7367119140625,3.0500463263005018,-5.093606164315343,-0.17907967908233402
1772871594314644700,5.746644775390625,3.7100948738753794,-5.567403241482377,-0.9543398292019962
1772871594324577800,5.756577880859375,4.647093984436989,-5.996111469122767,-1.925877023050934
1772871594334510800,5.7665107421875,5.798095911163092,-6.4307005714952945,-2.877189174994826
1772871594344444000,5.77644384765625,7.010607660862803,-6.827717775842547,-3.6289667427182195
1772871594354376700,5.786376708984375,7.8537161893278356,-7.010264546513557,-4.14076066532433
1772871594364309800,5.796309814453125,7.837377048945426,-6.860849645593762,-4.673477548971772
1772871594374242800,5.806242919921875,7.080089193367957,-6.599774112609029,-5.067895968997478
1772871594384175900,5.81617578125,5.951772561180591,-6.3842842727571725,-4.887933661861718
1772871594394108700,5.826108642578125,4.759676407521963,-6.3759840619236225,-4.286666096818447
1772871594404041700,5.836041748046875,4.065473661410809,-6.524568941760063,-3.6335055551916358
1772871594413974800,5.845974853515625,3.9341789390712973,-6.490868332210183,-3.049780661101639
1772871594423908600,5.85590869140625,4.273790833154321,-6.247358851054311,-2.548608962535858
1772871594433841700,5.865841552734375,4.735226441398263,-5.900035359680652,-2.4050657301284373
1772871594443774700,5.875774658203125,5.108462372663617,-5.318595069396496,-2.4465360968969763
1772871594453707800,5.885707763671875,4.7309226067245005,-4.713934062522649,-2.5557673098579046
1772871594463640600,5.895640625,4.093019255462289,-4.031815721958876,-2.314580426430702
1772871594473573600,5.90557373046875,4.704881572017073,-2.282092115280032,-3.038619215618074
1772871594483506700,5.915506591796875,4.750275541970134,-1.836809184935689,-3.015935966905951
1772871594493439700,5.925439697265625,3.176137634778023,-1.2171464237630367,-1.2664867932543158
1772871594503372500,5.93537255859375,0.6261001007437705,-0.0872802240461111,0.6949409972578287
1772871594513305600,5.9453056640625,-2.172390800589323,0.8937094194114208,2.950476237262785
1772871594523238700,5.95523876953125,-4.238908904865384,2.306410563978553,4.896127197450399
1772871594533172000,5.965171875,-5.437388622081279,4.380270263189077,5.778801428106427
1772871594543104800,5.975104736328125,-7.004407052657008,6.850164000928402,4.992743989640474
1772871594553038800,5.985038818359375,-9.78622738969624,9.484035417947172,3.9731107272729274
1772871594562972000,5.994971923828125,-13.405303437519073,12.320644745272396,3.5830396888017653
1772871594572904700,6.00490478515625,-17.00049416736364,14.415603931134939,3.7484628907144066
1772871594582837800,6.014837646484375,-19.995366887974736,14.860067361789941,4.012185431076586
1772871594592770800,6.024770751953125,-21.78431717414856,13.96134040647745,5.961425940188765
1772871594602704000,6.034703857421875,-21.45571767246723,11.646119344055652,8.977643646645545
1772871594612637000,6.044636962890625,-19.11282417474389,8.92698313446641,10.553142905318737
1772871594622569700,6.05456982421875,-15.382432362771034,7.036261157557368,9.449131862348317
1772871594632502800,6.064502685546875,-11.482713911706208,6.429193089541792,6.746071758291125
1772871594642435800,6.074435791015625,-8.585079914575815,6.442221497941016,3.7950174288794396
1772871594652369000,6.084368896484375,-7.005227136868238,6.648984425979852,1.594186423486471
1772871594662301700,6.0943017578125,-6.580818652248382,6.809988057884573,0.1578518898755312
1772871594672234800,6.10423486328125,-6.580512947300076,6.392141415998339,-0.9068243370503186
1772871594682168800,6.1141689453125,-6.152388072505593,5.63673805899322,-1.1808850238144397
1772871594692101600,6.1241015625,-6.195169814133644,4.618167749682068,-0.2066656051442027
1772871594702034700,6.13403466796875,-6.746469817698001,3.3886978509187697,1.3009092873379586
1772871594711967700,6.1439677734375,-7.468395267993212,2.2913994573295113,2.6762489617601037
1772871594721900800,6.15390087890625,-8.290376252755522,1.869922349986434,3.645670624759793
1772871594731833600,6.16383349609375,-8.539033618193864,2.2920260647952557,3.121763070511818
1772871594741766700,6.1737666015625,-6.855006764784455,3.1600743887275455,0.8115342634193599
1772871594751699700,6.18369970703125,-3.268652252346277,3.844849965801835,-2.2149559768572447
1772871594761632800,6.1936328125,0.7504197233736515,3.6532074500054117,-4.395756878395378
1772871594771565600,6.203565673828125,4.3967923589229585,2.900377158358693,-5.262558124876022
1772871594781498600,6.21349853515625,6.66006637648642,1.553824017959833,-5.188882647812366
1772871594791431700,6.223431640625,8.269907465222477,0.06286182210445404,-4.2876577382043
1772871594801364700,6.23336474609375,9.139325908464192,-1.8699550832122562,-3.1928543763011694
1772871594811298800,6.243298828125,9.555514846271276,-4.053307422798872,-2.091081613776833
1772871594821231900,6.25323193359375,9.791654675441979,-6.018437867221236,-0.8166932536177337
1772871594831165000,6.2631650390625,9.759336460161208,-7.374418176656961,0.39539515610337256
1772871594841097700,6.27309765625,10.264940880477427,-7.626095766699314,0.9645425126560032
1772871594851030800,6.28303076171875,11.20441719480753,-7.248244450592995,0.28694954056218264
1772871594860963800,6.2929638671875,12.090276485240459,-6.426417195087671,-0.7869368516489863
1772871594870897000,6.30289697265625,12.541693388295172,-5.698969181978702,-1.9745666735485194
1772871594880829700,6.31282958984375,12.552093201756477,-5.111495456749201,-2.8276749102413654
1772871594890762800,6.3227626953125,12.37618250809908,-4.721202592220902,-3.1927173059180376
1772871594900695800,6.33269580078125,11.28559676389098,-4.831664369890094,-2.762042454379797
1772871594910628900,6.34262890625,9.638097852411866,-5.249909655705094,-1.8449670646890997
1772871594920561700,6.352561767578125,8.06592569233477,-6.029404082393646,-0.7976781720243394
1772871594930494700,6.36249462890625,6.581832797726989,-6.978843572333455,0.3871156957969069
1772871594940427800,6.372427734375,5.44479100729227,-7.420633984386921,1.0469960471980273
1772871594950361900,6.38236181640625,4.548028630051016,-7.180946107345819,0.900518222643435
1772871594960294700,6.392294677734375,4.142796555066108,-6.432215652233362,-0.06888532017767429
1772871594970227700,6.402227783203125,4.148178832626343,-5.549414580327272,-1.7025154269106686
1772871594980160800,6.412160888671875,4.18783455118835,-4.768180616495013,-3.2596658128142355
1772871594990093800,6.42209375,4.553334919765591,-4.448951585227251,-4.092732255214453
1772871595000026600,6.432026611328125,5.146791226536036,-4.640260923546553,-4.434806155496836
1772871595009959700,6.441959716796875,5.68880902249217,-5.0242140636593104,-4.592347079727054
1772871595019892700,6.451892822265625,6.13991612894535,-5.477748104998469,-4.41853540417552
1772871595029825800,6.46182568359375,6.243090087693929,-6.30715076419413,-3.70323989341408
1772871595039758600,6.471758544921875,5.858458902189136,-6.908655352863669,-2.665371886175871
1772871595049691600,6.481691650390625,4.848905427548289,-6.999156877043843,-2.0385083998441695
1772871595059624700,6.491624755859375,3.4701486381590363,-6.834946558052301,-1.2078536947607994
1772871595069557800,6.501557861328125,2.773410820612311,-5.022798936164379,-1.0753858369886875
1772871595079490600,6.511490478515625,3.640260874670744,-2.695367795988917,-2.2533530736602843
1772871595089424600,6.521424560546875,4.156618744191527,-1.3777800533115863,-2.3097230495274066
1772871595099357700,6.531357666015625,3.572304944297671,0.40829672325253485,-1.0553870050549508
1772871595109290500,6.54129052734375,2.106401201853156,2.4786644886940716,0.3395283074527979
1772871595119223600,6.5512236328125,-0.04069207587242126,4.740518118065595,1.8913029916673898
1772871595129156600,6.561156494140625,-3.2568314661711453,7.222689153575897,3.530430380642414
1772871595139089700,6.571089599609375,-7.492913038656115,8.505849725994468,4.51116984873116
1772871595149022500,6.5810224609375,-12.225890239822863,9.181811882016062,5.962494446203112
1772871595158955500,6.59095556640625,-17.416742726403474,10.25665703625679,8.29614256119728
1772871595168888600,6.600888671875,-21.039388449406623,11.725298679232596,9.047574676483869
1772871595178821600,6.610821533203125,-21.488130580294133,12.057432200258969,7.179346855455637
1772871595188754400,6.62075439453125,-19.52090579394102,11.384469810575245,5.230006685361266
1772871595198687500,6.6306875,-16.532612451720237,10.32379522050619,4.684047458302975
1772871595208620500,6.64062060546875,-12.869928148317337,8.954568476006388,4.487470993235707
1772871595218554600,6.6505546875,-9.146181181186437,7.3990551897853605,3.954899947799742
1772871595228487700,6.66048779296875,-6.18739918013215,5.864210597583651,3.5681694519281386
1772871595238420700,6.670420654296875,-4.723674535292386,4.611002680358291,3.921045901253819
1772871595248353800,6.680353759765625,-4.3198774615466595,3.9173213277727363,4.708933477756381
1772871595258286600,6.69028662109375,-4.448024533510208,3.689287648168206,4.785623626466095
1772871595268219600,6.7002197265625,-5.246078114718198,3.7407103768914935,4.492896817676723
1772871595278152700,6.710152587890625,-6.668783935949206,4.486861336904764,4.126493947301805
1772871595288085800,6.720085693359375,-8.605533504539729,5.726017347902059,2.736237858776748
1772871595298018800,6.730018798828125,-10.260893650913237,6.711871382525563,0.6478007681593299
1772871595307951600,6.73995166015625,-11.21870290979147,7.619916201281547,-1.1662670081362128
1772871595317884700,6.749884765625,-11.187625049960612,8.043933640757203,-2.5105495732545853
1772871595327817700,6.759817626953125,-9.978761301374435,7.8660379107624285,-3.461856026110053
1772871595337750800,6.769750732421875,-7.637579283744096,7.251050155663489,-3.9112376239448783
1772871595347683600,6.77968359375,-4.950409991779924,6.064119421944022,-3.800511057859659
1772871595357617700,6.78961767578125,-2.126153950071335,4.545575391680002,-3.13237038924396
1772871595367550700,6.79955078125,0.9453384843617677,2.911317070046067,-2.5720962211072442
1772871595377483500,6.8094833984375,3.9977649837970732,0.9069558544754981,-2.5599995406001805
1772871595387416600,6.81941650390625,7.078936516201495,-0.8119289618253708,-2.3942753099143506
1772871595397349600,6.829349609375,9.644511811107396,-2.7575544953107833,-2.404652619282901
1772871595407282700,6.83928271484375,11.555268275785446,-4.649183065670728,-2.1303106313593685
1772871595417215500,6.849215576171875,12.839452346032857,-6.0313785973370075,-1.335649030677229
1772871595427148500,6.8591484375,13.697017269873617,-7.02365009778738,-0.561364885982871
1772871595437081600,6.86908154296875,14.498663322615622,-7.479560805130005,-0.0070858666077256195
1772871595447014700,6.8790146484375,15.011914458292722,-7.3854855141162865,0.37219051386564966
1772871595456947500,6.888947509765625,14.780089569711684,-6.865881794542074,0.22857582365721463
1772871595466880500,6.898880615234375,13.857363314652442,-5.920579550537466,0.2666556712046265
1772871595476813600,6.9088134765625,12.874183467674255,-4.943362411355972,0.01557780062109232
1772871595486747600,6.91874755859375,11.55757363011837,-4.188583323729038,-0.3754240889593959
1772871595496680700,6.9286806640625,10.276514413893223,-3.9656732707485554,-0.34489246483445163
1772871595506613800,6.93861376953125,8.739435779029131,-3.827579682049155,-0.14426467854976655
1772871595516546800,6.948546875,7.147992516770959,-3.8293914076462388,-0.3092547497421503
1772871595526479600,6.958479736328125,6.293888547039032,-4.047811163470149,-0.7608531468436122
1772871595536412700,6.96841259765625,6.227497966286539,-4.349414813937247,-1.667964484141767
1772871595546345700,6.978345703125,6.51412938081026,-4.606123091623187,-2.7574849372059105
1772871595556278800,6.98827880859375,7.034179090586305,-4.830014264595508,-3.703894557930529
1772871595566211600,6.998211669921875,7.6482643438875675,-4.940769472253322,-4.416279441942274
1772871595576144600,7.00814453125,7.7056679005861275,-4.941703538233042,-4.746311899036169
1772871595586077700,7.01807763671875,7.002827089989185,-4.892868487915396,-4.475263253569603
1772871595596010800,7.0280107421875,6.409362599912286,-4.712342409417033,-4.298075964105129
1772871595605943600,7.037943603515625,6.061308456176519,-4.663925584511459,-4.536227133098245
1772871595615876600,7.047876708984375,6.0980170153707265,-4.485874079433083,-5.183356577867269
1772871595625810700,7.057810791015625,6.3303597903460265,-4.103999791420996,-5.675487768626213
1772871595635743700,7.06774365234375,6.514370203828811,-3.739852298757434,-6.0186851199805735
1772871595645676500,7.077676513671875,6.491511890810727,-3.2927637802958487,-6.276283916765451
1772871595655609600,7.087609619140625,6.430660239484906,-2.7219252557858824,-6.440430522871017
1772871595665542700,7.097542724609375,6.227027426165342,-2.1946993707701563,-6.311817586961388
1772871595675475700,7.107475830078125,6.026313715162873,-1.5101336370542644,-5.282763877558708
1772871595685408500,7.117408447265625,6.008512685534358,-1.0349033122137188,-3.5713550962269305
1772871595695341600,7.127341552734375,5.076669058039784,-0.8077613207519054,-0.5735027752831577
1772871595705274600,7.137274658203125,2.826466118973493,-0.7166787818133831,3.480735790885985
1772871595715207700,7.147207763671875,-0.3684457743793726,0.3929226285099983,7.44004829443097
1772871595725140500,7.157140380859375,-3.602491992768645,2.5063015604212877,9.656613752311468
1772871595735073500,7.167073486328125,-5.9635331416010855,5.166646266084909,9.4844872533679
1772871595745006600,7.177006591796875,-6.980265714091062,7.099363218158483,7.545979442933201
1772871595754939600,7.186939697265625,-9.771028066998719,8.58096546499431,5.9763540447294705
1772871595764873700,7.196873779296875,-13.9292080691576,10.817739598166941,4.9850727243602275
1772871595774806800,7.206806884765625,-17.476385001939533,12.41129824514389,3.8528216753333804
1772871595784739800,7.21673974609375,-19.51820296472311,11.929916411936283,3.332618528561294
1772871595794672600,7.226672607421875,-20.0563068021059,9.669288524967431,5.749484732729196
1772871595804605700,7.236605712890625,-18.92676968821287,6.261708863446116,11.317995643192528
1772871595814538800,7.246538818359375,-16.057690754437445,2.5186715049117803,15.333075334405898
1772871595824471800,7.256471923828125,-12.598784810304641,-1.3516717985868454,16.495668330204484
1772871595834404600,7.266404541015625,-12.243490193921327,-1.5676561439573764,14.37639887894988
1772871595844337700,7.276337646484375,-12.083386141204834,3.0779689369708296,9.548516950207949
1772871595854270700,7.286270751953125,-11.047433319938182,4.8331888029783965,4.88447913749367
1772871595864203800,7.296203857421875,-9.7374940461874,6.346774918574094,1.2228501883625984
1772871595874136600,7.306136474609375,-9.577993220061064,7.428091314655542,-1.3837158731013535
1772871595884069600,7.316069580078125,-9.962270769822597,6.700749100008607,-2.4339862657949327
1772871595894003700,7.326003662109375,-10.366678084421157,5.030941326087713,-1.6548519045904277
1772871595903936500,7.3359365234375,-11.546278329122066,3.9159126300185916,0.8422773383378982
1772871595913869600,7.34586962890625,-12.887841406148672,3.4194472094476223,2.82440217218101
1772871595923802600,7.355802734375,-13.328621179854869,3.7013638704091307,3.0916286290109154
1772871595933735700,7.365735595703125,-11.97356383048296,4.646681896504759,2.102709069336951
1772871595943668500,7.37566845703125,-9.094709937146305,5.369714431259036,0.12539689647257327
1772871595953601500,7.3856015625,-5.361289717262983,5.400530425283312,-2.1329855496570467
1772871595963534600,7.39553466796875,-0.8387690379559993,4.687306752359866,-3.6769273482888933
1772871595973467600,7.405467529296875,3.838371709698438,3.4253906280219555,-5.052890123045445
1772871595983400700,7.415400634765625,7.786487404185533,1.6908695589110254,-6.017027415901422
1772871595993333500,7.42533349609375,10.703467906820773,-0.10038257446438073,-6.42324850192368
1772871596003266600,7.4352666015625,12.708626994770764,-2.1126170076280832,-6.375906320512295
1772871596013199600,7.44519970703125,14.003381558871268,-3.7015497483700512,-5.740415291088819
1772871596023133700,7.4551337890625,14.085678733807802,-5.113112244296073,-4.3747246117606755
1772871596033066800,7.465066650390625,13.386008369940518,-6.4058332567423575,-2.3699247125118967
1772871596042999800,7.474999755859375,12.332608739310503,-7.1702142854511735,-0.40314591636061664
1772871596052932900,7.484932861328125,11.060209799402951,-7.234060442417859,0.9844584886118769
1772871596062866400,7.494866455078125,10.427110633552074,-7.014782900720834,1.728873418612778
1772871596072799500,7.504799560546875,10.933514679813385,-6.718131027442216,2.0083751273870467
1772871596082732500,7.514732666015625,11.969451134467125,-6.41759617525041,1.8295491308048366
1772871596092665300,7.524665283203125,12.82217621706128,-6.159996793943643,1.045951360450685
1772871596102598400,7.534598388671875,13.139759819209575,-5.415924393770099,-0.5322331917837262
1772871596112531500,7.544531494140625,12.135460027313231,-4.354502200204133,-2.15382112467587
1772871596122464500,7.554464599609375,10.12735377999544,-3.3814059403449295,-3.370666227404773
1772871596132397300,7.564397216796875,8.222984970527888,-2.828759198346734,-4.011415615747869
1772871596142330400,7.574330322265625,6.44393239351213,-2.840727868559956,-3.924860491105914
1772871596152263400,7.584263427734375,4.849719666540622,-3.1165397829055785,-3.2810686663269997
1772871596162197200,7.594197265625,3.858742297554016,-3.726872990196943,-2.280297340817749
1772871596172130300,7.60413037109375,3.457950835365057,-4.726583700737357,-1.3623878383904695
1772871596182063400,7.6140634765625,3.819426186209917,-5.475071579265594,-0.6426534683987498
1772871596191996400,7.623996337890625,4.625930200377106,-5.846821071365476,-0.52233226775527
1772871596201929200,7.63392919921875,5.551839177125692,-6.05216828738749,-1.2077408820360898
1772871596211862300,7.6438623046875,6.603485826608538,-5.9342813281536095,-2.097303995423019
1772871596221795300,7.65379541015625,7.730521186813712,-5.614471282127499,-3.2619881182819603
1772871596231728400,7.663728271484375,8.69245658571124,-5.327422518974542,-4.34213400927931
1772871596241661200,7.6736611328125,9.063324034279585,-5.027611304882169,-4.873404785771668
1772871596251594200,7.68359423828125,8.319260986456275,-4.595620986831188,-4.907787824627757
1772871596261527300,7.69352734375,6.783870450809598,-4.193854542130231,-4.44614675693959
1772871596271460400,7.70346044921875,5.10903520411551,-4.016412401121855,-3.7526761244952676
1772871596281393400,7.713393310546875,3.202655054825544,-4.404875712135434,-2.718027663825452
1772871596291326200,7.723326171875,1.5952835710734128,-4.26254638556242,-1.3467252820953726
1772871596301260500,7.733260498046875,1.298109135225415,-3.823088215848803,-0.7238841831475495
1772871596311193300,7.743193359375,1.396494106131792,-2.82440217218101,0.1464037364050746
1772871596321126400,7.75312646484375,1.145074290242791,0.4390194860354066,-0.2168804174274206
1772871596331059500,7.7630595703125,1.7394395285516977,3.7081174363225697,-0.8249091471686959
1772871596340992500,7.772992431640625,2.173828139916062,5.765699954470992,0.17050737330913543
1772871596350925600,7.782925537109375,0.5757961469173432,7.5915002541363235,1.5467472114413976
1772871596360858400,7.7928583984375,-2.854328523889184,9.009961277404427,2.8393595028162
1772871596370791400,7.80279150390625,-8.30052705989182,9.423584164115786,3.871043852983415
1772871596380724500,7.812724365234375,-16.186998686873913,9.345205623927711,6.4531625786721705
1772871596390657500,7.822657470703125,-24.6251707149148,8.70575562774539,10.848673665612935
1772871596400590300,7.83259033203125,-30.327471671664714,6.990142964982986,15.916521703815459
1772871596410523400,7.8425234375,-30.546248862624168,7.117958613035082,18.551862024343013
1772871596420456400,7.85245654296875,-24.62762804493904,8.091188143885136,14.783910004782676
1772871596430390300,7.862390380859375,-16.219869859862328,9.444098544356226,7.784333441022038
1772871596440323300,7.8723232421875,-9.347598656544088,10.62650507864952,1.4172101464241742
1772871596450256400,7.88225634765625,-5.795737949860095,10.65231756529808,-2.438821723127365
1772871596460189400,7.892189453125,-4.1872108663320535,9.913145212125778,-3.514804649226367
1772871596470122200,7.902122314453125,-3.6883167573094364,8.062509161889553,-3.1095529927581547
1772871596480055300,7.91205517578125,-4.495849530002475,5.30657613030076,-1.7837120932593942
1772871596489988400,7.92198828125,-6.724171476650238,2.529927058419585,0.7029881101131439
1772871596499921400,7.93192138671875,-9.947538480114936,0.43506431866884226,4.5892005983948705
1772871596509854200,7.941854248046875,-12.949324925637244,-0.1875707363128662,7.751091681155562
1772871596519787300,7.951787353515625,-13.422537480914592,1.0974755037218331,7.529556131398677
1772871596529720300,7.96172021484375,-11.236078407484293,3.4070658667802807,4.349645115561783
1772871596539653400,7.9716533203125,-8.715915787231921,5.398852262938022,0.9052990271791815
1772871596549586200,7.981586181640625,-6.608007103425264,6.38331805807352,-1.6073445957452057
1772871596559520300,7.991520263671875,-4.258623074638844,6.298097104644775,-2.8737171149700877
1772871596569453600,8.00145361328125,-1.6129922462433575,5.035816823169589,-3.001669248883426
1772871596579386400,8.011386474609376,1.2212123580276966,3.3375784890562294,-2.5142495968163012
1772871596589319400,8.0213193359375,3.543924652987718,1.611281350672245,-2.1704235921695827
1772871596599252500,8.03125244140625,4.681716969528794,0.17849720301926136,-2.2296754070833322
1772871596609185500,8.041185546875,5.407782003846764,-0.9634580784201622,-2.6639067820593714
1772871596619118300,8.051118408203125,6.435832673686742,-1.9071236611336468,-3.397509518405795
1772871596629051400,8.061051513671876,7.990889448311925,-2.682137727537751,-4.050598748362064
1772871596638984400,8.070984375,9.500887184026837,-3.3418998593866824,-4.331069302168488
1772871596648917500,8.08091748046875,10.69497129663229,-3.9859921284168958,-4.098154864785075
1772871596658850300,8.090850341796875,11.917185525178908,-4.582215561813116,-3.795947987727821
1772871596668783400,8.100783447265625,12.841715614789724,-5.207877855661511,-3.1221725280955432
1772871596678716400,8.11071630859375,13.22533382385969,-5.7674587808370585,-1.8715689481496809
1772871596688649500,8.1206494140625,12.958866660964489,-6.084492347887158,-0.7418070855900645
1772871596698582500,8.13058251953125,12.298655031782388,-6.1702545685857535,-0.39152679023742676
1772871596708516400,8.140516357421875,11.165672745871543,-5.94436959144771,-0.48657910958975553
1772871596718449400,8.150449462890625,9.808791688203812,-5.624347948497533,-0.6555462677195668
1772871596728382500,8.160382568359376,8.558352651169896,-5.192350031661987,-1.2082859486982225
1772871596738315300,8.170315185546874,7.308137486019731,-4.777637596148252,-2.0414809859141707
1772871596748248300,8.180248291015625,6.223594529107213,-4.508207491794228,-2.7773373464062807
1772871596758181400,8.190181396484375,5.510851333177089,-4.493087664073705,-3.2139559087797998
1772871596768114400,8.200114501953125,5.1678182324737305,-4.818682723242044,-3.533376955488324
1772871596778047200,8.210047119140626,4.946095635712147,-5.365729161015152,-3.536405071137845
1772871596787980300,8.219980224609374,4.897362876725197,-5.993429682692885,-2.8939325122639534
1772871596797913300,8.229913330078125,4.759025250136852,-6.607242548793554,-2.217237073531747
1772871596807846400,8.239846435546875,4.5196308030843735,-6.970522903233766,-2.1275021498098967
1772871596817779200,8.249779296875,4.689747715771198,-6.9740037310868495,-2.3600743496268985
1772871596827712300,8.259712158203126,5.0355947048515075,-6.854907980585097,-2.8485853040620683
1772871596837646300,8.269646240234374,5.551760266670584,-6.474264403411746,-3.7236771167650815
1772871596847579100,8.2795791015625,6.24668723540306,-6.015981121718883,-4.521910730715096
1772871596857512400,8.289512451171875,6.671472736641764,-5.589799197685719,-4.661104097349941
1772871596867445500,8.299445556640626,6.601904694896936,-5.22938416954875,-4.381932058921456
1772871596877378600,8.309378662109374,6.186760882228612,-5.0761418192952865,-3.661884677457809
1772871596887311400,8.319311279296874,5.868843518081307,-5.096577873602509,-2.939618743161857
1772871596897244400,8.329244384765625,5.407451748979091,-5.306544566118717,-2.3689842167913913
1772871596907177500,8.339177490234375,4.510903891271353,-5.542901837432384,-1.4616440391734242
1772871596917110500,8.349110595703126,4.316887047559023,-4.341557378435135,-0.8276099305599928
1772871596927043300,8.359043212890626,4.9683209115236995,-2.964066663458943,-1.174500291213393
1772871596936978400,8.368978515625,5.430462622210383,-0.5242687887758016,-0.5912669800326228
1772871596946911200,8.3789111328125,4.697537054473162,2.2774206163376567,-0.0819862092912197
1772871596956844300,8.38884423828125,2.3388433455497024,4.910349784070253,0.9446560550555586
1772871596966777300,8.39877734375,-1.1694681422650814,7.705874821335077,2.959482550539076
1772871596976710400,8.40871044921875,-5.885611697530746,9.963170933532714,6.199814425069094
1772871596986644200,8.418644287109375,-10.742488250088691,11.725595616352557,8.632014099708199
1772871596996577300,8.428577392578125,-15.533109246450662,13.581595239448546,9.336782078975439
1772871597006510300,8.43851025390625,-20.51003607375622,14.641784676349163,8.46334329417646
1772871597016443100,8.448443115234374,-23.855577504515647,13.846311174762247,7.196730536454916
1772871597026376200,8.458376220703125,-22.81378180243969,11.38970245053172,5.8736547177553176
1772871597036309200,8.468309326171875,-18.043276542389393,9.041535396319627,4.952034378111362
1772871597046242600,8.47824267578125,-12.573005056881904,6.8206795477688305,4.714171962931752
1772871597056175400,8.48817529296875,-7.545846756464242,5.436123716711998,4.393892545828223
1772871597066107600,8.498107666015626,-3.784000652563572,4.517914062294364,3.730719144231081
1772871597076040700,8.508040771484374,-1.9785656800568103,3.7503093953639266,3.53678793297559
1772871597085974000,8.51797412109375,-1.8538637801110744,3.0329426312863825,4.685370231339335
1772871597095907000,8.527906982421875,-2.0787948175251483,2.2540362336188555,6.015332302421331
1772871597105839900,8.53783984375,-2.7928993649363516,1.7906144199937581,6.661444094580411
1772871597115774000,8.54777392578125,-5.423606764966249,2.497832130500674,6.6478463618606325
1772871597125707000,8.55770703125,-9.135808255732059,5.2217579124540086,5.1571705817312
1772871597135639800,8.567639892578125,-12.43091947593689,8.728255628845096,2.079599411906302
1772871597145572900,8.57757275390625,-14.045313990193604,11.150194606232642,-0.9366913597866893
1772871597155506000,8.587505859375,-13.533037837028502,12.339801865684985,-2.820491720739007
1772871597165439000,8.59743896484375,-12.57564125060439,11.941634906780719,-3.6671342685490846
1772871597175371800,8.607371826171875,-11.0589998390913,10.692605152022837,-3.039947249351442
1772871597185304800,8.617304931640625,-8.684685951709747,8.637892636352777,-1.6172630554303526
1772871597195238000,8.62723779296875,-5.794195981115102,6.132734693008661,-0.3520540270268917
1772871597205171000,8.6371708984375,-2.1950608975589274,4.067860264286399,0.5722720644444227
1772871597215103700,8.647103759765624,1.1166057361274957,1.9217028061062096,0.8922183040708302
1772871597225036800,8.657036865234375,3.540190142634511,-0.11156827760636806,0.5173658775195479
1772871597234969900,8.666969970703125,5.011764331930875,-1.8806132553488015,-0.5394228110268712
1772871597244903000,8.67690283203125,5.786902316975593,-3.1850060008883476,-1.9140376783058046
1772871597254836700,8.686836669921876,6.627048488503694,-4.277439418789744,-3.0209935425564645
1772871597264769800,8.696769775390624,8.108157398864627,-5.640860107359289,-3.55050461589992
1772871597274702800,8.706702880859375,10.252596947211027,-7.086281618267297,-3.019246991150081
1772871597284636000,8.716635986328125,12.596153292757272,-8.032918325746058,-2.3773843808680772
1772871597294568700,8.726568603515625,14.58177298297882,-8.38698778424859,-2.203506946603954
1772871597304501800,8.736501708984376,15.39148076162338,-8.466525431343912,-2.028829886394739
1772871597314434800,8.746434814453124,14.729247855746745,-8.533461371019483,-1.7031529941618442
1772871597324368000,8.756367919921875,12.728300832533836,-8.126523076638579,-1.5558561083093285
1772871597334300700,8.76630078125,10.09865258616805,-7.196584990504384,-1.6518597370371222
1772871597344233700,8.776233642578125,7.084849539637565,-6.042540042820573,-2.0041288681194187
1772871597354166800,8.786166748046876,4.532836906138062,-5.069173733848333,-2.5604250725358724
1772871597364099800,8.796099853515624,3.356732686859369,-4.550591174015403,-3.4163051120296117
1772871597374033000,8.806032958984375,3.9436598841220136,-4.481290258774161,-3.9666187349051234
1772871597383967000,8.815967041015625,4.970841954433918,-4.7956578214854,-4.200136106617748
1772871597393900000,8.825900146484376,5.698734788700938,-5.179999084132909,-4.01366164110899
1772871597403832800,8.835832763671876,5.960338729473948,-5.519575322380661,-3.570245673680305
1772871597413766000,8.845765869140624,5.863605617427826,-5.949135198414325,-3.0817323811575768
1772871597423699000,8.855698974609375,5.625298965612053,-6.483535505104064,-2.634839385268092
1772871597433632000,8.865632080078125,5.537788439941406,-6.828479992386698,-2.2600351817727087
1772871597443564800,8.875564697265625,5.917956216296553,-7.023563588547706,-2.315121109178662
1772871597453497900,8.885497802734376,6.470864824101328,-7.109459664759039,-2.5307085641860962
1772871597463431000,8.895430908203124,6.6965230067461725,-6.890502441057563,-2.8576304880440233
1772871597473364000,8.905364013671875,6.696041360709071,-6.386586119958758,-3.270209710921347
1772871597483296800,8.915296875,6.553579932188987,-5.919301785686612,-3.8817327125191685
1772871597493229800,8.925229736328125,6.377232600679993,-5.576494894954562,-4.281163407748937
1772871597503163000,8.935162841796876,5.945856615135074,-5.615739694628119,-4.283326138740778
1772871597513096000,8.945095947265624,5.630964151766896,-5.6416036192029715,-4.0432966086551545
1772871597523029800,8.95502978515625,5.620827373155951,-5.548142076173424,-3.678141984775662
1772871597532962800,8.964962890625,5.837267061078548,-5.662971401402354,-3.213811824133992
1772871597542895900,8.974895751953126,6.247637083473801,-4.885165658453107,-2.513691086150706
1772871597552828700,8.98482861328125,7.913944740319252,-2.7560230479598045,-3.311467603982985
1772871597562761700,8.99476171875,8.609247556626796,-0.8361515489339828,-2.5381623873233794
1772871597572694800,9.00469482421875,7.291716512572765,2.0032728358119725,0.023973580783605574
1772871597582627800,9.0146279296875,4.643530738997459,4.753428453043103,2.7864930050253864
1772871597592561000,9.024560791015626,-0.07006430082917213,7.77030491566956,4.8199388607829805
1772871597602493700,9.03449365234375,-6.385830333155393,11.242651940655708,6.2505672917068
1772871597612426800,9.0444267578125,-14.193077616775035,12.939147230494022,7.40329121991992
1772871597622359800,9.05435986328125,-21.480882508862017,13.416519243538378,8.725456353515385
1772871597632292900,9.06429296875,-25.684850448727605,12.70846683577299,9.761808403232694
1772871597642225700,9.0742255859375,-25.038126077628135,10.111896683144568,10.092487049275636
1772871597652159000,9.084158935546874,-20.858717409479617,7.49501264128387,10.247807374846934
1772871597662092800,9.0940927734375,-14.689528424298762,6.154430976510048,8.758647844499349
1772871597672025900,9.10402587890625,-8.370355213877557,5.635795809707045,6.296690744978189
1772871597681959000,9.113958984375,-4.696055876004696,5.086671396616101,4.711562072694301
1772871597691892000,9.12389208984375,-4.146420590782165,4.995280230119824,4.182330985336005
1772871597701825000,9.133824951171874,-6.068830668374896,5.2496320078074925,4.020208286273479
1772871597711757800,9.1437578125,-9.218511088860035,5.919803305467963,3.813060450570285
1772871597721691000,9.15369091796875,-12.60596507719755,6.459456125858425,3.7214264152288434
1772871597731624000,9.1636240234375,-15.38706411422491,7.082904250788689,4.737688447597622
1772871597741557000,9.173556884765626,-16.42900711581707,8.277963930428028,5.388928250294923
1772871597751489800,9.18348974609375,-15.933227339422702,9.41328313485384,4.507901494584978
1772871597761422800,9.1934228515625,-14.40304956998825,10.09902784922123,2.6945582331717013
1772871597771356000,9.20335595703125,-12.029273442745207,10.063061048305034,1.2395286437019706
1772871597781289000,9.2132890625,-9.587190671995282,8.74081758877635,0.45930648726075884
1772871597791222800,9.223222900390626,-7.856704849749803,6.464488274806738,0.3940601081073284
1772871597801155800,9.23315576171875,-7.196490297958254,4.027382707947492,0.6457581564158201
1772871597811089000,9.2430888671875,-6.921507235652208,2.1922540234446526,0.8214633906289934
1772871597821021700,9.253021728515625,-6.11559592668116,1.401409935224056,0.034979835705459116
1772871597830954800,9.262954833984375,-4.260636168026924,1.4009353034496306,-2.103569485558569
1772871597840887800,9.2728876953125,-1.785609159052372,1.5215163240730762,-4.711757595266402
1772871597850820900,9.28282080078125,1.4162246425181626,1.394582719552517,-7.0822180220901965
1772871597860753700,9.292753662109375,5.031021990108489,0.26223463989198204,-8.100431773048639
1772871597870686700,9.302686767578125,9.405759753611683,-1.4999895519196986,-7.3807929723858825
1772871597880619800,9.312619873046875,13.744784398698807,-3.426767177072167,-6.229556067860126
1772871597890552800,9.322552734375,17.243809587252137,-5.399142770317196,-5.016861947330832
1772871597900485600,9.332485595703124,18.983902026754617,-6.584231675562262,-3.7358416018113494
1772871597910418700,9.342418701171875,18.46647272861004,-7.339259769514203,-2.53452490760386
1772871597920351700,9.352351806640625,16.348615482240913,-7.800133652222156,-0.603790069258213
1772871597930285800,9.362285888671876,13.630250841546058,-7.97196847474277,1.4198106843113898
1772871597940219000,9.372218994140624,11.363877104401588,-7.400536368253826,2.377740354698896
1772871597950152000,9.38215185546875,9.855272868871689,-6.179276663953066,2.0375997605666516
1772871597960085000,9.3920849609375,8.757970383629202,-4.855756024095416,0.7938792181327938
1772871597970017800,9.402017822265625,7.974974086299538,-3.908793153402209,-0.7359861243516206
1772871597979950800,9.411950927734376,7.298136901009082,-3.5122529189169405,-2.0756284624487162
1772871597989884000,9.4218837890625,6.811946790736913,-3.6831191886663435,-2.7661200790822504
1772871597999817000,9.43181689453125,6.475674854731559,-4.4259360358208415,-2.7183590877369044
1772871598009750000,9.44175,6.724179075434804,-5.536750913587213,-2.5290081900089976
1772871598019682800,9.451682861328125,7.1001172513961786,-6.450939057403803,-2.2182237464815375
1772871598029615900,9.461615966796876,7.059194289377332,-6.912354207381606,-1.9062112224638461
1772871598039549000,9.471548828125,6.450506511205434,-7.032361227509379,-1.7956629355549811
1772871598049482000,9.48148193359375,5.673966842669248,-6.483332091486454,-2.1571640053629872
1772871598059415800,9.491415771484375,5.000744340744614,-5.5385389660477635,-3.1004651386782527
1772871598069349400,9.501349365234375,4.263766282746196,-4.688123329439759,-4.414355195881426
1772871598079282200,9.5112822265625,3.876161634388566,-4.187618862611055,-5.607720638823509
1772871598089215200,9.52121533203125,4.370367293334007,-4.244285337206721,-6.212202781999111
1772871598099148300,9.531148193359375,4.763371170386672,-4.794703297239542,-6.125944886738061
1772871598109081300,9.541081298828125,4.5475773791521785,-5.57953850043416,-5.4323009435534475
1772871598119014100,9.55101416015625,4.090859447079897,-6.4592229016244405,-4.472606017059087
1772871598128947200,9.560947265625,3.7841713329553603,-7.226689621388911,-3.8002632205784317
1772871598138880300,9.57088037109375,3.79144570787251,-7.751200986748933,-3.268719180102646
1772871598148813300,9.580813232421875,3.4837072079122064,-7.879923228251934,-2.7706057000637054
1772871598158746400,9.590746337890625,2.580946467038989,-7.982159613889455,-2.1308315864935516
1772871598168679400,9.600679443359375,1.791757744809985,-7.867819533482193,-0.7792880904614925
1772871598178612500,9.610612548828126,3.41965646828413,-5.788077205973863,-1.1984656886905432
1772871598188546300,9.62054638671875,4.993610251080989,-3.604661153501272,-1.9120216623082755
1772871598198479400,9.630479248046875,4.696804064023494,-0.6847393367171287,-1.5254112856850026
1772871598208412400,9.640412353515625,3.610198329362273,3.300316972154379,-0.35613223625123497
1772871598218345500,9.650345458984376,0.7959457952737807,6.536012126794457,1.3287585405111313
1772871598228278300,9.6602783203125,-3.0398657085478304,10.033571918970345,2.531946581548452
1772871598238211300,9.67021142578125,-7.274406481331586,13.102703469491004,2.2648992806777355
1772871598248144400,9.680144287109375,-11.892856555086373,14.819222141182422,0.9901131533727049
1772871598258077400,9.690077392578125,-16.701438740074632,14.993026217949389,1.5682356974110006
1772871598268010500,9.700010498046876,-20.55536457725763,12.859151902759075,5.386886515334248
1772871598277943300,9.709943359375,-21.938712786090374,9.82580478232503,11.493935562944412
1772871598287876400,9.71987646484375,-19.140401917499304,7.289632107514143,14.968823504585027
1772871598297809400,9.729809326171875,-14.456521632456779,5.249293569633364,14.9392572183609
1772871598307742500,9.739742431640625,-9.85532781392932,5.322890136241912,13.23115332379341
1772871598317676300,9.74967626953125,-6.792681533774733,6.669098408725858,9.960648137056827
1772871598327609300,9.759609375,-4.994208801496028,8.191078258657456,6.558249093043804
1772871598337542400,9.76954248046875,-4.634904949471355,9.508105444842576,3.4487034068092703
1772871598347475200,9.77947509765625,-5.808098249739408,10.109740966415405,0.7227829439073801
1772871598357408300,9.789408203125,-7.9106842772185795,9.627509822902082,-0.7633166143476963
1772871598367341300,9.79934130859375,-10.195775574314593,8.419323535186052,-0.21437340304255484
1772871598377274400,9.8092744140625,-12.493724014896154,7.192893734771013,1.7198136215835809
1772871598387207200,9.819207275390625,-14.808768551707267,6.5654685229033225,3.634713761937618
1772871598397140200,9.82914013671875,-15.563927578562497,7.01024116563797,4.481628404687345
1772871598407073300,9.8390732421875,-14.040986190122364,8.241606084367632,3.6881507530927657
1772871598417006300,9.84900634765625,-11.819584398126601,9.312226314389704,2.2859835697606203
1772871598426939100,9.858939208984374,-9.833362650358676,9.795380417966841,1.2374524219498038
1772871598436872200,9.8688720703125,-7.725164043694734,9.3455066527009,0.19339432789981365
1772871598446806500,9.878806640625,-5.041468565320969,7.854377283585071,-0.46314708833694457
1772871598456739300,9.8887392578125,-1.9109306522011755,5.894861756435036,-0.893132788567245
1772871598466672400,9.89867236328125,1.3298743927985428,3.7691315847337243,-1.58391228223145
1772871598476605400,9.90860546875,4.702696629193425,1.6100217059999704,-2.2440283420845866
1772871598486538500,9.91853857421875,7.636928710880875,-0.5831839190810918,-2.564411511823535
1772871598496471300,9.92847119140625,9.998411758261918,-3.4012177252739666,-2.8928356569379567
1772871598506404400,9.938404296875,12.907169206953048,-6.403962202173471,-2.232236489742994
1772871598516337400,9.94833740234375,15.799554197514055,-8.957925385218859,-0.9544552722752093
1772871598526270500,9.9582705078125,17.25285330992937,-10.35039096648693,0.12044482702314853
1772871598536203300,9.968203369140625,16.98052456152439,-10.451240866202115,0.0812672473669052
1772871598546136300,9.97813623046875,15.649411566841602,-9.34334567527473,-1.1267159189924596
1772871598556069400,9.9880693359375,13.983957896476984,-7.469254515171051,-2.878752478788793
1772871598566002400,9.99800244140625,12.007316462481022,-5.389599865946173,-4.292078184995055
1772871598575936300,10.007936279296874,9.290015651625394,-3.5878286766439675,-5.153464712950587
1772871598585869300,10.017869384765625,6.103575234019756,-2.696522811242938,-5.086652691915631
1772871598595802400,10.02780224609375,3.7466251538932323,-2.200868707054853,-4.1390161597445605
1772871598605735400,10.0377353515625,2.0369471418768166,-1.9792437254488466,-3.0973876309290524
1772871598615668200,10.047668212890626,1.6030109504550694,-2.3190385748833418,-2.580336226186156
1772871598625601300,10.057601318359374,2.594917709246278,-3.076652593675256,-2.2628581302389503
1772871598635534300,10.067534423828125,4.145399431040882,-4.325314684164524,-2.016432761636376
1772871598645467400,10.07746728515625,5.8452434467852115,-5.726304348149895,-1.4835314613327384
1772871598655400200,10.087400146484375,7.146072946885227,-7.043824870809912,-0.6068877430126071
1772871598665333200,10.097333251953126,7.985418907946348,-8.083751856404543,0.14445903207808733
1772871598675266300,10.107266357421874,8.784519952380657,-8.745837462764978,0.8747741250559687
1772871598685199400,10.117199462890625,9.043408204454183,-8.887205835351347,1.0509960766196251
1772871598695132200,10.127132080078125,8.414258068490028,-8.314785886868833,0.6183426184847951
1772871598705066500,10.13706640625,7.540980027210712,-7.460631063732505,-0.30640432874709367
1772871598714999600,10.14699951171875,7.097292257103324,-6.607937545320391,-1.6444696267858148
1772871598724932400,10.156932373046875,7.0417854739367955,-5.903449552038311,-2.78232828656137
1772871598734865400,10.166865478515625,6.9667667655706405,-5.23158430994153,-3.9694484053730963
1772871598744798500,10.176798583984375,6.799892780327797,-4.643821830898523,-5.159242711830139
1772871598754731500,10.1867314453125,6.708972153952717,-4.14092900762856,-5.877238421460985
1772871598764664300,10.196664306640624,6.494257390126585,-3.6137954770714042,-6.04493190639317
1772871598774597400,10.206597412109375,6.004160920065641,-3.222355196073651,-5.862774427300692
1772871598784530400,10.216530517578125,5.448351330122351,-3.1098850011914965,-5.187419005000591
1772871598794463500,10.22646337890625,4.656608831757307,-3.3468384848326442,-4.267354078105091
1772871598804396300,10.236396240234376,3.40943610304296,-4.019127505299449,-2.930677896337211
1772871598814329300,10.246329345703124,3.8345068509638307,-3.138288673377037,-2.408047522418201
1772871598824262400,10.256262451171875,6.364792805823684,-1.6735381926208734,-2.6420751817405224
1772871598834195500,10.266195556640625,6.658112319809198,-0.6457575718939303,0.21629940266907213
1772871598844129300,10.27612939453125,3.7749668667584655,0.9680413145571947,4.758203704620898
1772871598854062300,10.286062255859376,-1.8119085524350405,2.532392571750283,8.518421622797847
1772871598863995400,10.295995361328124,-7.8289961740911,5.734990927952528,9.998002592939137
1772871598873928200,10.30592822265625,-12.497390136188267,9.663195468789338,8.29220931340158
1772871598883861200,10.315861328125,-15.804120482516288,13.29475164347887,4.712530625465512
1772871598893794300,10.325794189453125,-16.638710188961028,15.798710147905348,0.9186920311070979
1772871598903727400,10.335727294921876,-16.231254008185864,15.254045636832712,-1.445927999125421
1772871598913660200,10.34566015625,-14.327459199213981,13.556322851026058,-1.801298895615339
1772871598923593200,10.35559326171875,-11.397720921814441,10.898135907918213,-0.10610606667771935
1772871598933526300,10.3655263671875,-9.550085806959867,6.707206313323974,3.3194372676879165
1772871598943459300,10.375459228515625,-10.1169504594028,2.5841028852432966,8.004031838479637
1772871598953392400,10.385392333984376,-12.255239083904026,0.05555003778636455,11.583092686778306
1772871598963325200,10.3953251953125,-13.27185007584095,0.19377602069377897,11.906088961625098
1772871598973259500,10.405259521484375,-10.787173779511452,1.4687947877109049,8.578437407821417
1772871598983192300,10.4151923828125,-7.200666122338175,3.0313913101911543,3.635241585204005
1772871598993125400,10.42512548828125,-4.731048278930783,4.425636176091432,-1.3600158485621212
1772871599003058400,10.435058349609376,-3.815244516611099,5.232122070080042,-4.753012273457646
1772871599012991500,10.444991455078124,-3.8194793777018785,5.47866112819016,-6.036188043445349
1772871599022924500,10.454924560546875,-4.200058072945476,4.8680233849942685,-5.900629233920574
1772871599032857300,10.464857421875,-4.250039955210686,3.969202321657538,-5.0155152088969945
1772871599042790400,10.474790283203125,-4.255698711624741,2.9480250447183844,-3.6239001069784162
1772871599052723500,10.484723388671876,-4.500848945724964,2.047647984111309,-2.0239432833969593
1772871599062656000,10.494656005859374,-4.881660865202546,1.4178478598058224,-0.5561715551234782
1772871599072588800,10.5045888671875,-5.037679109910131,0.8303922547549009,0.26928514292538164
1772871599082521900,10.51452197265625,-4.611915703549981,0.5702303294837474,0.02662672564089298
1772871599092455000,10.524454833984375,-3.6858120810121298,0.540704375270009,-0.8435514499269425
1772871599102388000,10.534387939453126,-2.3106465941131114,0.2991033580839634,-1.5613129124104976
1772871599112321000,10.544321044921874,-1.2547522240579128,0.1912351040393114,-1.714382244184613
1772871599122254800,10.5542548828125,-1.4794529598474502,0.011095979031920432,-1.6304967771433292
1772871599132188000,10.56418798828125,-1.3045832996755837,-0.36783728709220886,-1.3020607954606414
1772871599142121000,10.574120849609375,-0.47708618184030055,-0.7720090393692255,-0.6507122716918587
1772871599152053800,10.5840537109375,0.8076216200202703,-1.4765487628385423,-0.08248202998414635
1772871599161986800,10.59398681640625,2.356167989838123,-1.9802236763969063,0.2820614762596786
1772871599171920000,10.603919921875,3.885499371576309,-2.3726357250362633,0.6223609142154455
1772871599181853000,10.61385302734375,5.072756853032112,-2.578010705848038,1.1172231373734771
1772871599191785700,10.62378564453125,5.608512081462145,-2.618349438238144,0.991979824027419
1772871599201718800,10.63371875,6.078161975821852,-2.0644372063487766,0.6971751860506832
1772871599211651800,10.64365185546875,6.2629930580377575,-1.627844362938404,0.3691702892616391
1772871599221585000,10.6535849609375,6.266677299508452,-1.4156012499228119,0.28445436274558306
1772871599231517700,10.663517578125,6.363386446157097,-1.3629048480018973,0.703483419349417
1772871599241450800,10.67345068359375,6.558028143769502,-1.4002210177004337,0.8718835912462324
1772871599251385000,10.683385009765624,6.5226815205782644,-1.3209081192716956,0.8655580414865165
1772871599261318000,10.69331787109375,6.176401985299587,-1.1209686075121164,0.8833489150471985
1772871599271251000,10.7032509765625,5.405356822526454,-0.5394973375678062,1.028441568853706
1772871599281184000,10.71318408203125,3.505149808913469,0.06563099455684424,3.069711980757117
1772871599291117000,10.723116943359376,1.7898504498839378,-0.10972264973968267,5.416378567278385
1772871599301049900,10.7330498046875,4.267739862552285,-0.37140462418496606,3.5280846942991015
1772871599310983000,10.74298291015625,5.658887931481003,0.30176030233353374,3.3649697693288325
1772871599320916000,10.752916015625,5.647652251717448,0.329608094201982,2.82516672681272
1772871599330849000,10.76284912109375,5.838962174558639,1.2316308761894703,1.339445646481216
1772871599340781800,10.77278173828125,4.091508266377449,2.0921365296572447,0.20587927707210182
1772871599350715000,10.78271484375,2.285048042476177,3.1499396559432147,-1.0357061530292033
1772871599360648000,10.79264794921875,-0.2804740609377622,3.7788504301935433,-2.0910145398899913
1772871599370581000,10.8025810546875,-2.9448306325912474,4.108080046471954,-2.760197118774056
1772871599380513800,10.812513671875,-4.68038133701086,3.773032683825493,-2.7954937653437257
1772871599390446800,10.82244677734375,-4.60244352632761,2.9545214210003614,-1.5545913490705192
1772871599400381000,10.832380859375,-2.808130251815915,1.4600044552728533,0.2897644518524408
1772871599410313700,10.842313720703125,-0.7544014864861964,-0.7427519652247428,1.7009759423837065
1772871599420246800,10.852246826171875,1.725514463573694,-2.1579177463397383,1.8671894178912043
1772871599430179800,10.862179931640625,3.450291260522604,-2.247479359321296,0.7624013991989195
1772871599440113000,10.87211279296875,4.3071050737351175,-1.833149493384361,-0.4398251033298671
1772871599450046000,10.8820458984375,4.21744876820743,-1.5155740745425224,-0.8120065571062266
1772871599459978800,10.891978759765625,3.4139655631661414,-1.2066750063702463,-1.0504238296896218
1772871599469911800,10.901911865234375,2.5374364111363885,-0.82422993273288,-1.4311474863618612
1772871599479844900,10.911844970703125,1.3718547549158333,-0.7182856324881315,-1.5356081239201127
1772871599489778000,10.92177783203125,0.24182255098223684,-0.6966893022298812,-1.2000531040124593
1772871599499710700,10.931710693359374,0.05357727640867233,-0.7484916779205203,-0.8829284976780414
1772871599509643800,10.941643798828125,0.2711000833928585,-0.8058449657365679,-0.7804702859833836
1772871599519576800,10.951576904296875,0.10349836839735507,-0.8771803094148636,-0.4537428617842495
1772871599529510000,10.961510009765625,-0.520472903624177,-0.7779512888997793,0.30380042985901234
1772871599539442700,10.971442626953126,-1.529905382233858,-0.5183326767250895,1.0538817150585353
1772871599549377000,10.981376953125,-2.3643156404584644,-0.19117752863317727,1.6204881549566983
1772871599559310000,10.99131005859375,-2.7513895429402586,0.013610884462296961,2.0710366046138105
1772871599569243000,11.001242919921875,-2.631715700289607,0.12414222023636103,1.8573755876243114
1772871599579176000,11.011176025390625,-1.9347148478925227,0.3841100842401385,1.0438350989490748
1772871599589109000,11.02110888671875,-1.040738886499405,0.5503408031433821,0.17542203335762022
1772871599599042000,11.0310419921875,-0.12628770783245563,0.5689022957503795,-0.2878238391786814
1772871599608974800,11.040974853515625,0.6024824937909841,0.327241365070641,-0.22958178582936525
1772871599618908000,11.050907958984375,1.1228367394715546,-0.16248539489507674,0.1974675686880946
1772871599628841000,11.060841064453125,1.3551269074767827,-0.5396420067355037,0.5185264457315206
1772871599638774000,11.07077392578125,1.252217152622342,-0.6761328364133834,0.4703229713156819
1772871599648706800,11.080706787109374,0.790777452725172,-0.5116816944032907,0.30584523355960846
1772871599658640000,11.090639892578125,0.2663502585172653,-0.37478140714168545,0.3436842580884695
1772871599668573000,11.100572998046875,-0.05416355186402797,-0.28153058425337074,0.38524712544605133
1772871599678506000,11.110506103515625,-0.278891175660491,-0.10962006614804268,0.21183044056147335
1772871599688438800,11.120438720703126,-0.36859658102691173,0.08025777806341648,-0.06505816310495138
1772871599698371800,11.130371826171874,-0.33066169490814207,0.22034926258176563,-0.27087080468162894
1772871599708306000,11.140305908203125,-0.22656068444252012,0.22482027051597833,-0.4592345910683274
1772871599718238700,11.15023876953125,-0.08997837708890438,0.09586977321505546,-0.4775974923633039
1772871599728171800,11.160171875,-0.15789455997347832,-0.12516045736819506,-0.4642575337968766
1772871599738104800,11.170104736328126,0.013777180939912795,-0.132353876003623,-0.527656677648425
1772871599748038000,11.180037841796874,0.12704407915771007,-0.326892697763443,-0.3583890752673149
1772871599757970700,11.189970703125,-0.12221709739267825,-0.5348348987147211,-0.1012066041983664
1772871599767903700,11.19990380859375,-0.8018138105243444,-0.5180348628222942,0.1087703174509108
1772871599777836800,11.2098369140625,-1.1932517534345388,-0.2906897500038147,-0.06318243236094713
1772871599787769900,11.219769775390626,-0.9461147294312715,-0.0745054981470108,-0.3158947722785175
1772871599797703000,11.229702880859374,-0.37405543095469473,-0.14467413613349198,-0.47500616069585083
1772871599807635700,11.2396357421875,0.05546995828747749,-0.14738719448447227,-0.43290553319975733
