time,seconds_elapsed,z,y,x
1772871588625470000,0.057469970703125,-0.6848602294921875,0.676788330078125,0.09423828125
1772871588635403000,0.067403076171875,-0.690185546875,0.66949462890625,0.0807952880859375
1772871588645335800,0.077335693359375,-0.7064971923828125,0.663665771484375,0.084686279296875
1772871588655268900,0.087268798828125,-0.728485107421875,0.6541290283203125,0.10443115234375
1772871588665202000,0.097201904296875,-0.7541961669921875,0.646759033203125,0.125396728515625
1772871588675136000,0.107135986328125,-0.767364501953125,0.648681640625,0.1329803466796875
1772871588685069000,0.117069091796875,-0.764801025390625,0.6550140380859375,0.129913330078125
1772871588695002000,0.127002197265625,-0.74542236328125,0.642791748046875,0.1329193115234375
1772871588704935200,0.13693505859375,-0.715545654296875,0.6508636474609375,0.1404571533203125
1772871588714868000,0.146867919921875,-0.6819610595703125,0.63372802734375,0.13385009765625
1772871588724801000,0.156801025390625,-0.6630706787109375,0.61248779296875,0.1401519775390625
1772871588734734000,0.166734130859375,-0.6644744873046875,0.612152099609375,0.139739990234375
1772871588744667100,0.176667236328125,-0.6575775146484375,0.6160125732421875,0.125457763671875
1772871588754600000,0.186599853515625,-0.65960693359375,0.60260009765625,0.1212005615234375
1772871588764534000,0.196533935546875,-0.6432342529296875,0.603546142578125,0.1296234130859375
1772871588774467000,0.206467041015625,-0.6269989013671875,0.6073150634765625,0.1782989501953125
1772871588784400000,0.21639990234375,-0.5944366455078125,0.5935516357421875,0.185821533203125
1772871588794333000,0.2263330078125,-0.5488128662109375,0.6042938232421875,0.1962738037109375
1772871588804266000,0.236265869140625,-0.5079345703125,0.61810302734375,0.20391845703125
1772871588814199000,0.246198974609375,-0.4691314697265625,0.61578369140625,0.1976776123046875
1772871588824131800,0.2561318359375,-0.447998046875,0.6236572265625,0.1859588623046875
1772871588834065000,0.26606494140625,-0.464202880859375,0.6612396240234375,0.1862640380859375
1772871588843998000,0.275998046875,-0.5484161376953125,0.6954803466796875,0.1998748779296875
1772871588853931000,0.285930908203125,-0.648590087890625,0.728363037109375,0.182861328125
1772871588863864800,0.29586474609375,-0.7128143310546875,0.7621917724609375,0.1927337646484375
1772871588873798000,0.3057978515625,-0.7470703125,0.750823974609375,0.261932373046875
1772871588883731000,0.31573095703125,-0.756866455078125,0.70794677734375,0.269439697265625
1772871588893664000,0.3256640625,-0.7048797607421875,0.78857421875,0.121185302734375
1772871588903596800,0.3355966796875,-0.635101318359375,0.870025634765625,0.09075927734375
1772871588913529900,0.34552978515625,-0.6288299560546875,0.7844696044921875,0.085906982421875
1772871588923463000,0.355462890625,-0.609283447265625,0.7064056396484375,0.046478271484375
1772871588933396200,0.365396240234375,-0.4372711181640625,0.72900390625,0.0511474609375
1772871588943329000,0.3753291015625,-0.29736328125,0.7302703857421875,0.0436553955078125
1772871588953263000,0.38526318359375,-0.2187652587890625,0.6970367431640625,0.007659912109375
1772871588963196200,0.395196044921875,-0.1598663330078125,0.6745758056640625,-0.03564453125
1772871588973129000,0.40512890625,-0.1214752197265625,0.6971282958984375,-0.079925537109375
1772871588983062000,0.41506201171875,-0.1512603759765625,0.697998046875,-0.1290435791015625
1772871588992995000,0.4249951171875,-0.206756591796875,0.654296875,-0.1488189697265625
1772871589002928000,0.43492822265625,-0.2742767333984375,0.6135406494140625,-0.11724853515625
1772871589012861000,0.44486083984375,-0.316680908203125,0.5414886474609375,-0.1101226806640625
1772871589022794000,0.4547939453125,-0.319610595703125,0.4879913330078125,-0.026214599609375
1772871589032727000,0.46472705078125,-0.4429473876953125,0.35626220703125,0.1160888671875
1772871589042660000,0.47466015625,-0.583282470703125,0.2938995361328125,0.2628021240234375
1772871589052593700,0.48459375,-0.781097412109375,0.3592529296875,0.4180908203125
1772871589062526700,0.494526611328125,-1.081298828125,0.489166259765625,0.5655975341796875
1772871589072459800,0.504459716796875,-1.323089599609375,0.633819580078125,0.595458984375
1772871589082392600,0.514392578125,-1.3394775390625,0.794281005859375,0.479034423828125
1772871589092325600,0.52432568359375,-1.230926513671875,0.97821044921875,0.326141357421875
1772871589102258700,0.5342587890625,-1.1386871337890625,1.1655731201171875,0.1287689208984375
1772871589112191700,0.544191650390625,-1.0676116943359375,1.3288116455078125,-0.0417327880859375
1772871589122124500,0.55412451171875,-1.0193328857421875,1.47149658203125,-0.1146392822265625
1772871589132057600,0.5640576171875,-1.0175628662109375,1.554840087890625,-0.1410064697265625
1772871589141991700,0.57399169921875,-1.0256500244140625,1.5925750732421875,-0.1205902099609375
1772871589151924700,0.5839248046875,-1.0332489013671875,1.6173095703125,-0.0327606201171875
1772871589161857500,0.593857421875,-1.0654754638671875,1.6053009033203125,0.08892822265625
1772871589171790600,0.60379052734375,-1.1162872314453125,1.532012939453125,0.2107696533203125
1772871589181723600,0.6137236328125,-1.1254425048828125,1.4388885498046875,0.282257080078125
1772871589191656700,0.62365673828125,-1.0936126708984375,1.33551025390625,0.32647705078125
1772871589201589500,0.633589599609375,-1.0511627197265625,1.2605743408203125,0.3346710205078125
1772871589211522600,0.6435224609375,-1.01324462890625,1.2379913330078125,0.2975921630859375
1772871589221455600,0.65345556640625,-0.9715728759765625,1.260040283203125,0.250640869140625
1772871589231389700,0.6633896484375,-0.91583251953125,1.3179473876953125,0.202911376953125
1772871589241322800,0.67332275390625,-0.9073333740234375,1.385223388671875,0.2081451416015625
1772871589251255800,0.683255859375,-1.0087890625,1.4474029541015625,0.2579803466796875
1772871589261188900,0.69318896484375,-1.1340179443359375,1.4880828857421875,0.278045654296875
1772871589271121700,0.70312158203125,-1.2158355712890625,1.5201873779296875,0.25506591796875
1772871589281054700,0.7130546875,-1.222900390625,1.543731689453125,0.22998046875
1772871589290987800,0.72298779296875,-1.2170257568359375,1.5780487060546875,0.1483154296875
1772871589300920800,0.7329208984375,-1.2025299072265625,1.6031341552734375,0.00250244140625
1772871589310853600,0.742853515625,-1.122589111328125,1.5905609130859375,-0.131072998046875
1772871589320786700,0.75278662109375,-0.9549102783203125,1.55523681640625,-0.2191314697265625
1772871589330720800,0.762720703125,-0.77093505859375,1.46990966796875,-0.2623748779296875
1772871589340653600,0.772653564453125,-0.599029541015625,1.330657958984375,-0.258880615234375
1772871589350586600,0.782586669921875,-0.405426025390625,1.1780242919921875,-0.2205963134765625
1772871589360519700,0.792519775390625,-0.234832763671875,0.996063232421875,-0.17242431640625
1772871589370452700,0.80245263671875,-0.1409454345703125,0.740234375,-0.1707000732421875
1772871589380385500,0.812385498046875,-0.01947021484375,0.540252685546875,-0.0964508056640625
1772871589390318600,0.822318603515625,0.071807861328125,0.2769317626953125,0.1143951416015625
1772871589400251600,0.832251708984375,0.109130859375,-0.0274200439453125,0.1863861083984375
1772871589410184700,0.842184814453125,0.2453460693359375,-0.193267822265625,0.204437255859375
1772871589420117500,0.852117431640625,0.401763916015625,-0.2534637451171875,0.2976531982421875
1772871589430051600,0.862051513671875,0.463134765625,-0.3441619873046875,0.368896484375
1772871589439984600,0.871984619140625,0.5321502685546875,-0.4013824462890625,0.339874267578125
1772871589449917400,0.88191748046875,0.6041259765625,-0.37896728515625,0.28460693359375
1772871589459850500,0.8918505859375,0.656829833984375,-0.320220947265625,0.2586212158203125
1772871589469783600,0.901783447265625,0.5966796875,-0.2428131103515625,0.2432708740234375
1772871589479716600,0.911716552734375,0.4009857177734375,-0.162261962890625,0.22918701171875
1772871589489649400,0.9216494140625,0.0608062744140625,-0.0818634033203125,0.1793365478515625
1772871589499582700,0.931582763671875,-0.1485595703125,-0.0134735107421875,0.1415557861328125
1772871589509515800,0.941515869140625,-0.113006591796875,0.05572509765625,0.2077484130859375
1772871589519448800,0.95144873046875,-0.2565460205078125,0.0806121826171875,0.16778564453125
1772871589529382700,0.961382568359375,-0.30194091796875,0.0889434814453125,0.106964111328125
1772871589539315700,0.971315673828125,-0.2983551025390625,0.150177001953125,0.0668487548828125
1772871589549248800,0.981248779296875,-0.2835235595703125,0.17230224609375,0.0130615234375
1772871589559181600,0.991181640625,-0.247222900390625,0.17242431640625,-0.05084228515625
1772871589569114600,1.001114501953125,-0.18487548828125,0.17529296875,-0.0896759033203125
1772871589579047700,1.011047607421875,-0.1139984130859375,0.160858154296875,-0.1329498291015625
1772871589588980700,1.020980712890625,-0.0667266845703125,0.144073486328125,-0.1785430908203125
1772871589598913800,1.030913818359375,-0.027252197265625,0.113800048828125,-0.1999053955078125
1772871589608846600,1.0408466796875,-0.0001678466796875,0.0727386474609375,-0.1785888671875
1772871589618779600,1.050779541015625,-0.0072479248046875,0.0435791015625,-0.09991455078125
1772871589628713700,1.060713623046875,-0.0836334228515625,0.0175323486328125,-0.01885986328125
1772871589638646500,1.070646484375,-0.2257537841796875,0.00872802734375,0.057403564453125
1772871589648579600,1.08057958984375,-0.284881591796875,0.09197998046875,0.0881500244140625
1772871589658512600,1.0905126953125,-0.19439697265625,0.2470703125,0.0428009033203125
1772871589668445700,1.10044580078125,-0.118011474609375,0.36309814453125,0.035430908203125
1772871589678378500,1.11037841796875,-0.124359130859375,0.5721588134765625,0.1099395751953125
1772871589688311600,1.1203115234375,-0.242706298828125,0.8843536376953125,0.2404022216796875
1772871589698244600,1.13024462890625,-0.4762420654296875,1.2364349365234375,0.350189208984375
1772871589708177700,1.140177734375,-0.8526458740234375,1.7369384765625,0.3494415283203125
1772871589718111700,1.15011181640625,-1.405792236328125,2.23223876953125,0.2462158203125
1772871589728044800,1.160044921875,-2.1108856201171875,2.5446319580078125,0.1851043701171875
1772871589737977900,1.169977783203125,-2.7777557373046875,2.6328125,0.3114166259765625
1772871589747910700,1.17991064453125,-2.947418212890625,2.5251007080078125,0.588409423828125
1772871589757843700,1.18984375,-2.50811767578125,2.28387451171875,0.785980224609375
1772871589767776800,1.19977685546875,-1.8725128173828125,2.0246734619140625,0.7724456787109375
1772871589777709800,1.209709716796875,-1.331207275390625,1.88677978515625,0.71099853515625
1772871589787642600,1.219642578125,-0.9499969482421875,1.877288818359375,0.640350341796875
1772871589797575700,1.22957568359375,-0.81268310546875,1.9310302734375,0.5478363037109375
1772871589807508700,1.2395087890625,-0.9301605224609375,2.0001678466796875,0.485076904296875
1772871589817442600,1.249442626953125,-1.193695068359375,2.057647705078125,0.472503662109375
1772871589827375600,1.259375732421875,-1.5073394775390625,2.054901123046875,0.469696044921875
1772871589837308700,1.26930859375,-1.7910919189453125,1.9781646728515625,0.4620208740234375
1772871589847241700,1.27924169921875,-1.8820953369140625,1.833770751953125,0.3920440673828125
1772871589857174500,1.289174560546875,-1.7472686767578125,1.6566314697265625,0.2721710205078125
1772871589867107600,1.299107666015625,-1.491302490234375,1.4556884765625,0.17083740234375
1772871589877040600,1.30904052734375,-1.194305419921875,1.2696075439453125,0.1096038818359375
1772871589886973700,1.3189736328125,-0.856658935546875,1.068084716796875,0.093475341796875
1772871589896906500,1.328906494140625,-0.5028839111328125,0.88214111328125,0.0881500244140625
1772871589906839600,1.338839599609375,-0.2171783447265625,0.72796630859375,0.065643310546875
1772871589916773600,1.348773681640625,-0.109832763671875,0.6431732177734375,-0.00018310546875
1772871589926706400,1.35870654296875,-0.1730804443359375,0.644989013671875,-0.0811920166015625
1772871589936639500,1.368639404296875,-0.3151702880859375,0.6508331298828125,-0.1483001708984375
1772871589946572500,1.378572509765625,-0.4392242431640625,0.5984344482421875,-0.1850128173828125
1772871589956505600,1.388505615234375,-0.48748779296875,0.48101806640625,-0.2101593017578125
1772871589966438700,1.398438720703125,-0.446197509765625,0.2920379638671875,-0.20330810546875
1772871589976371700,1.408371826171875,-0.31146240234375,0.0849456787109375,-0.1308746337890625
1772871589986304800,1.4183046875,-0.1184234619140625,-0.0830841064453125,-0.0581207275390625
1772871589996237800,1.42823779296875,0.1311492919921875,-0.198150634765625,0.0515594482421875
1772871590006170600,1.438170654296875,0.414947509765625,-0.3001556396484375,0.1341552734375
1772871590016104700,1.448104736328125,0.6493988037109375,-0.370941162109375,0.133880615234375
1772871590026037800,1.458037841796875,0.771148681640625,-0.364654541015625,0.1067962646484375
1772871590035970600,1.467970458984375,0.7474212646484375,-0.293975830078125,0.08837890625
1772871590045903600,1.477903564453125,0.5986480712890625,-0.1745452880859375,0.0974884033203125
1772871590055837200,1.487837158203125,0.3278045654296875,-0.04803466796875,0.1289215087890625
1772871590065770200,1.497770263671875,0.0570831298828125,0.0545654296875,0.15045166015625
1772871590075703000,1.507703125,-0.1706390380859375,0.121978759765625,0.161407470703125
1772871590085636000,1.517635986328125,-0.2841796875,0.1544342041015625,0.173431396484375
1772871590095569200,1.527569091796875,-0.3070220947265625,0.17755126953125,0.156646728515625
1772871590105502200,1.537502197265625,-0.2767181396484375,0.1627044677734375,0.1051788330078125
1772871590115435000,1.54743505859375,-0.212188720703125,0.1473541259765625,0.0667572021484375
1772871590125369000,1.557369140625,-0.1404876708984375,0.131317138671875,0.0284576416015625
1772871590135302100,1.56730224609375,-0.1244964599609375,0.0886383056640625,0.003570556640625
1772871590145235000,1.57723486328125,-0.185821533203125,0.0487518310546875,-0.0079803466796875
1772871590155168000,1.58716796875,-0.3038787841796875,0.0398101806640625,-0.0192718505859375
1772871590165101000,1.59710107421875,-0.3998870849609375,0.0691680908203125,-0.0319366455078125
1772871590175034000,1.6070341796875,-0.4672698974609375,0.118927001953125,-0.0754852294921875
1772871590184967200,1.61696728515625,-0.49169921875,0.18377685546875,-0.140655517578125
1772871590194900000,1.62689990234375,-0.4629669189453125,0.281036376953125,-0.2557830810546875
1772871590204833000,1.6368330078125,-0.3477325439453125,0.3815460205078125,-0.3060455322265625
1772871590214766000,1.64676611328125,-0.2270355224609375,0.47869873046875,-0.2781982421875
1772871590224699100,1.65669921875,-0.1968536376953125,0.6111297607421875,-0.1520843505859375
1772871590234633200,1.66663330078125,-0.2745819091796875,0.755035400390625,0.081695556640625
1772871590244566300,1.676566162109375,-0.4413909912109375,0.9290924072265625,0.3534698486328125
1772871590254499000,1.6864990234375,-0.732574462890625,1.1660308837890625,0.6174774169921875
1772871590264432000,1.69643212890625,-1.2332763671875,1.4805145263671875,0.9462432861328125
1772871590274365200,1.706365234375,-1.8899078369140625,1.93792724609375,1.2122344970703125
1772871590284298200,1.71629833984375,-2.4910430908203125,2.3690032958984375,1.23297119140625
1772871590294231300,1.726231201171875,-2.7160491943359375,2.582275390625,1.0062713623046875
1772871590304164000,1.7361640625,-2.5013885498046875,2.5211944580078125,0.7080230712890625
1772871590314097200,1.74609716796875,-2.0153961181640625,2.1824188232421875,0.5367279052734375
1772871590324030200,1.7560302734375,-1.5031585693359375,1.739013671875,0.5247344970703125
1772871590333964000,1.765964111328125,-1.0670928955078125,1.359283447265625,0.603057861328125
1772871590343897000,1.77589697265625,-0.76593017578125,1.0313262939453125,0.7111663818359375
1772871590353830100,1.785830078125,-0.665191650390625,0.7836761474609375,0.786834716796875
1772871590363763200,1.79576318359375,-0.7877960205078125,0.691802978515625,0.8119354248046875
1772871590373696000,1.805696044921875,-1.0212554931640625,0.86199951171875,0.665740966796875
1772871590383629000,1.815629150390625,-1.269927978515625,1.1808319091796875,0.4117889404296875
1772871590393562000,1.82556201171875,-1.626312255859375,1.481353759765625,0.09796142578125
1772871590403495200,1.8354951171875,-1.905517578125,1.7172393798828125,-0.155303955078125
1772871590413428000,1.845427978515625,-1.9956512451171875,1.8266754150390625,-0.231964111328125
1772871590423361000,1.855361083984375,-1.913543701171875,1.8142242431640625,-0.177032470703125
1772871590433294000,1.865294189453125,-1.7628326416015625,1.731903076171875,-0.1034698486328125
1772871590443228000,1.875227783203125,-1.598114013671875,1.6113739013671875,-0.043670654296875
1772871590453161000,1.885160888671875,-1.40118408203125,1.508697509765625,0.0005950927734375
1772871590463094000,1.895093994140625,-1.1412200927734375,1.4315643310546875,-0.0003509521484375
1772871590473027000,1.905027099609375,-0.818603515625,1.3744659423828125,-0.0309906005859375
1772871590482960100,1.914960205078125,-0.5273284912109375,1.275543212890625,-0.1150665283203125
1772871590492893200,1.92489306640625,-0.3021697998046875,1.1143951416015625,-0.207122802734375
1772871590502826200,1.934826171875,-0.1292266845703125,0.911712646484375,-0.2302398681640625
1772871590512759300,1.94475927734375,0.040252685546875,0.6732635498046875,-0.1447601318359375
1772871590522692000,1.954692138671875,0.1983184814453125,0.4010009765625,-0.0332183837890625
1772871590532625200,1.964625244140625,0.290863037109375,0.1432342529296875,0.0697174072265625
1772871590542559200,1.974559326171875,0.354400634765625,-0.03839111328125,0.190673828125
1772871590552492000,1.984491943359375,0.3957977294921875,-0.1734161376953125,0.315338134765625
1772871590562425000,1.994425048828125,0.4416351318359375,-0.2711029052734375,0.40423583984375
1772871590572358100,2.004358154296875,0.5109405517578125,-0.306640625,0.4314117431640625
1772871590582291200,2.014291259765625,0.5800018310546875,-0.3010101318359375,0.389312744140625
1772871590592224000,2.02422412109375,0.6398162841796875,-0.2608489990234375,0.34661865234375
1772871590602157000,2.034156982421875,0.6123504638671875,-0.196563720703125,0.3383026123046875
1772871590612090000,2.044090087890625,0.476959228515625,-0.1290130615234375,0.3413848876953125
1772871590622023200,2.054023193359375,0.29669189453125,-0.0762176513671875,0.3625335693359375
1772871590631956200,2.063956298828125,0.105560302734375,-0.04681396484375,0.392791748046875
1772871590641889000,2.073888916015625,-0.0776214599609375,-0.0186309814453125,0.4016265869140625
1772871590651823000,2.083822998046875,-0.2425537109375,0.0128173828125,0.3613433837890625
1772871590661756200,2.093756103515625,-0.362213134765625,0.0316162109375,0.275543212890625
1772871590671689000,2.10368896484375,-0.4454345703125,0.03753662109375,0.1851043701171875
1772871590681622000,2.1136220703125,-0.47247314453125,0.046051025390625,0.0874786376953125
1772871590691555000,2.12355517578125,-0.4659881591796875,0.06390380859375,-0.0186614990234375
1772871590701488000,2.133488037109375,-0.45111083984375,0.0774383544921875,-0.1219024658203125
1772871590711421000,2.1434208984375,-0.3976898193359375,0.0836944580078125,-0.20550537109375
1772871590721354000,2.15335400390625,-0.341552734375,0.07977294921875,-0.2522430419921875
1772871590731287000,2.163287109375,-0.29876708984375,0.0542755126953125,-0.241119384765625
1772871590741220000,2.17322021484375,-0.2735595703125,0.0265655517578125,-0.165191650390625
1772871590751153000,2.18315283203125,-0.257843017578125,-0.007537841796875,-0.078521728515625
1772871590761087200,2.193087158203125,-0.3018035888671875,-0.054046630859375,0.0233001708984375
1772871590771020300,2.203020263671875,-0.3850860595703125,-0.05670166015625,0.1140899658203125
1772871590780953000,2.212953125,-0.4171600341796875,0.013458251953125,0.119293212890625
1772871590790886100,2.22288623046875,-0.31182861328125,0.1692352294921875,0.0355987548828125
1772871590800819200,2.232819091796875,-0.1736297607421875,0.31488037109375,-0.0344390869140625
1772871590810752300,2.242752197265625,-0.0848541259765625,0.513946533203125,-0.050872802734375
1772871590820685000,2.25268505859375,-0.110626220703125,0.7217254638671875,0.0356292724609375
1772871590830618000,2.2626181640625,-0.298553466796875,0.9631195068359375,0.2325286865234375
1772871590840551200,2.27255126953125,-0.5227508544921875,1.321258544921875,0.39532470703125
1772871590850484200,2.282484130859375,-0.8627166748046875,1.7012176513671875,0.44952392578125
1772871590860417000,2.2924169921875,-1.4030609130859375,2.03448486328125,0.4063720703125
1772871590870351000,2.30235107421875,-2.017425537109375,2.22869873046875,0.417755126953125
1772871590880284200,2.3122841796875,-2.479461669921875,2.2099761962890625,0.5942535400390625
1772871590890217000,2.322217041015625,-2.5700836181640625,2.0182037353515625,0.809722900390625
1772871590900150000,2.33214990234375,-2.30926513671875,1.728546142578125,1.0018768310546875
1772871590910083000,2.3420830078125,-1.9000244140625,1.44970703125,1.0911102294921875
1772871590920016100,2.35201611328125,-1.4982452392578125,1.2843780517578125,1.100189208984375
1772871590929949000,2.361948974609375,-1.1770477294921875,1.2210693359375,0.9459991455078125
1772871590939882000,2.371882080078125,-0.9645233154296875,1.276031494140625,0.7223052978515625
1772871590949815000,2.38181494140625,-0.8625030517578125,1.3989410400390625,0.524566650390625
1772871590959748000,2.391748046875,-0.922210693359375,1.5440673828125,0.3595733642578125
1772871590969681200,2.40168115234375,-1.1317596435546875,1.708984375,0.282684326171875
1772871590979615200,2.411615234375,-1.4802703857421875,1.83935546875,0.225921630859375
1772871590989548300,2.42154833984375,-1.866302490234375,1.850311279296875,0.1504364013671875
1772871590999481000,2.431481201171875,-2.1515350341796875,1.748504638671875,0.1209869384765625
1772871591009414100,2.4414140625,-2.1669464111328125,1.5822906494140625,0.162811279296875
1772871591019347200,2.45134716796875,-1.9571075439453125,1.37896728515625,0.1924591064453125
1772871591029280300,2.4612802734375,-1.644317626953125,1.1915740966796875,0.1498260498046875
1772871591039213000,2.471213134765625,-1.250457763671875,1.0906524658203125,0.091400146484375
1772871591049146000,2.48114599609375,-0.878570556640625,1.0637664794921875,0.049041748046875
1772871591059078400,2.491078369140625,-0.631072998046875,1.04901123046875,0.0668487548828125
1772871591069011500,2.501011474609375,-0.5094146728515625,1.02288818359375,0.1569671630859375
1772871591078944500,2.510944580078125,-0.457733154296875,1.0079803466796875,0.2165679931640625
1772871591088878300,2.52087841796875,-0.483001708984375,0.9845123291015625,0.2091827392578125
1772871591098811400,2.530811279296875,-0.5419769287109375,0.9439544677734375,0.1703948974609375
1772871591108744400,2.540744384765625,-0.534210205078125,0.8339385986328125,0.1014862060546875
1772871591118677500,2.550677490234375,-0.4731903076171875,0.6387481689453125,0.0478515625
1772871591128610300,2.5606103515625,-0.3580169677734375,0.395538330078125,0.0277557373046875
1772871591138543400,2.57054345703125,-0.1707305908203125,0.1616363525390625,0.009063720703125
1772871591148476400,2.580476318359375,0.093994140625,-0.0606536865234375,0.0189666748046875
1772871591158409500,2.590409423828125,0.392059326171875,-0.2731170654296875,0.064208984375
1772871591168342300,2.60034228515625,0.641998291015625,-0.4500885009765625,0.1722869873046875
1772871591178275300,2.610275390625,0.7413177490234375,-0.5674591064453125,0.2954864501953125
1772871591188208400,2.62020849609375,0.6727447509765625,-0.5938720703125,0.411285400390625
1772871591198142200,2.63014208984375,0.46099853515625,-0.4888763427734375,0.4247589111328125
1772871591208075300,2.6400751953125,0.200897216796875,-0.3090362548828125,0.3495330810546875
1772871591218008300,2.65000830078125,0.0214080810546875,-0.1237640380859375,0.22021484375
1772871591227941400,2.65994140625,-0.06854248046875,0.0613555908203125,0.05487060546875
1772871591237874200,2.669874267578125,-0.1070556640625,0.1988067626953125,-0.122161865234375
1772871591247807200,2.67980712890625,-0.11846923828125,0.284637451171875,-0.2405242919921875
1772871591257740300,2.689740234375,-0.098236083984375,0.3189239501953125,-0.2676239013671875
1772871591267673300,2.69967333984375,-0.095489501953125,0.29144287109375,-0.2506561279296875
1772871591277606100,2.709606201171875,-0.1428680419921875,0.209503173828125,-0.2138671875
1772871591287539200,2.719539306640625,-0.2156982421875,0.1124114990234375,-0.1337738037109375
1772871591297472500,2.729472412109375,-0.2916412353515625,0.02783203125,-0.0396575927734375
1772871591307405600,2.739405517578125,-0.3364105224609375,-0.05609130859375,0.016021728515625
1772871591317339400,2.74933935546875,-0.3394775390625,-0.1077880859375,0.0558624267578125
1772871591327272400,2.7592724609375,-0.26416015625,-0.129730224609375,0.0615692138671875
1772871591337205500,2.76920556640625,-0.1540069580078125,-0.121124267578125,0.0379638671875
1772871591347138300,2.77913818359375,-0.0782928466796875,-0.0741729736328125,-0.0065155029296875
1772871591357071400,2.7890712890625,-0.0641937255859375,0.0124053955078125,-0.076202392578125
1772871591367004400,2.79900439453125,-0.0364532470703125,0.1548004150390625,-0.169708251953125
1772871591376937500,2.8089375,0.0530853271484375,0.3269805908203125,-0.2662353515625
1772871591386870300,2.818870361328125,0.027740478515625,0.40673828125,-0.2132415771484375
1772871591396803300,2.82880322265625,-0.1454315185546875,0.478973388671875,0.025146484375
1772871591406736400,2.838736328125,-0.41632080078125,0.57635498046875,0.3553009033203125
1772871591416669400,2.84866943359375,-0.7560577392578125,0.7228546142578125,0.66558837890625
1772871591426602200,2.858602294921875,-1.0038299560546875,0.9634552001953125,0.8816986083984375
1772871591436536300,2.868536376953125,-1.1375579833984375,1.266693115234375,0.900543212890625
1772871591446469400,2.878469482421875,-1.258697509765625,1.6130828857421875,0.758026123046875
1772871591456402200,2.888402099609375,-1.660736083984375,1.9251251220703125,0.6725921630859375
1772871591466335200,2.898335205078125,-2.21978759765625,2.1830596923828125,0.67034912109375
1772871591476268300,2.908268310546875,-2.559051513671875,2.2573699951171875,0.676300048828125
1772871591486201300,2.918201416015625,-2.560577392578125,2.1596527099609375,0.7613372802734375
1772871591496134400,2.928134521484375,-2.3134002685546875,1.9700927734375,0.871551513671875
1772871591506067200,2.938067138671875,-2.044677734375,1.72735595703125,0.9117889404296875
1772871591516000300,2.948000244140625,-1.8187255859375,1.5585479736328125,0.884307861328125
1772871591525933300,2.957933349609375,-1.6011199951171875,1.4723663330078125,0.76251220703125
1772871591535866400,2.967866455078125,-1.416717529296875,1.427978515625,0.6016082763671875
1772871591545800400,2.977800537109375,-1.3310089111328125,1.4261016845703125,0.446868896484375
1772871591555733500,2.9877333984375,-1.383453369140625,1.4464263916015625,0.308685302734375
1772871591565666600,2.99766650390625,-1.50299072265625,1.47607421875,0.2103118896484375
1772871591575599400,3.007599365234375,-1.6248626708984375,1.508544921875,0.1546173095703125
1772871591585532400,3.017532470703125,-1.6963043212890625,1.5225982666015625,0.1129150390625
1772871591595465500,3.027465576171875,-1.6837310791015625,1.5146331787109375,0.09552001953125
1772871591605398500,3.0373984375,-1.62152099609375,1.510650634765625,0.0692901611328125
1772871591615331300,3.047331298828125,-1.5169677734375,1.4720916748046875,0.01837158203125
1772871591625264400,3.057264404296875,-1.410919189453125,1.4305267333984375,0.0056610107421875
1772871591635197400,3.067197509765625,-1.2861328125,1.3893585205078125,0.0276336669921875
1772871591645130500,3.077130615234375,-1.106414794921875,1.2841796875,0.028564453125
1772871591655063300,3.087063232421875,-0.871185302734375,1.1375885009765625,0.014739990234375
1772871591664997400,3.096997314453125,-0.601837158203125,0.9846343994140625,-0.0190582275390625
1772871591674930400,3.106930419921875,-0.3841400146484375,0.7926025390625,-0.063385009765625
1772871591684863200,3.11686328125,-0.2125701904296875,0.596160888671875,-0.046661376953125
1772871591694796300,3.12679638671875,-0.060272216796875,0.3861236572265625,-0.00396728515625
1772871591704729300,3.136729248046875,0.103118896484375,0.1508331298828125,0.0280609130859375
1772871591714662400,3.146662353515625,0.2787628173828125,-0.0799407958984375,0.090362548828125
1772871591724595200,3.15659521484375,0.41143798828125,-0.2751617431640625,0.178070068359375
1772871591734528300,3.1665283203125,0.497802734375,-0.3900604248046875,0.261749267578125
1772871591744461300,3.17646142578125,0.56341552734375,-0.425445556640625,0.309539794921875
1772871591754394400,3.186394287109375,0.613555908203125,-0.3687286376953125,0.2855987548828125
1772871591764327200,3.1963271484375,0.6109466552734375,-0.2484283447265625,0.180908203125
1772871591774260200,3.20626025390625,0.58367919921875,-0.09820556640625,0.07373046875
1772871591784194600,3.216194580078125,0.4722900390625,0.0155181884765625,0.0252532958984375
1772871591794127400,3.22612744140625,0.3264923095703125,0.0870513916015625,-0.0025177001953125
1772871591804060400,3.236060302734375,0.174774169921875,0.1251678466796875,0.020263671875
1772871591813993500,3.245993408203125,0.0113983154296875,0.09271240234375,0.083343505859375
1772871591823926500,3.255926513671875,-0.1411285400390625,0.03411865234375,0.1490631103515625
1772871591833859300,3.265859375,-0.2585906982421875,-0.0138702392578125,0.23712158203125
1772871591843792400,3.27579248046875,-0.3611907958984375,-0.0426025390625,0.2795867919921875
1772871591853725400,3.285725341796875,-0.441497802734375,-0.0460662841796875,0.2584075927734375
1772871591863658500,3.295658447265625,-0.45501708984375,-0.010009765625,0.1709136962890625
1772871591873591300,3.30559130859375,-0.407501220703125,0.0518798828125,0.0238189697265625
1772871591883524400,3.3155244140625,-0.317047119140625,0.1045379638671875,-0.134735107421875
1772871591893458400,3.32545849609375,-0.2145843505859375,0.144744873046875,-0.2612762451171875
1772871591903391500,3.3353916015625,-0.1328125,0.14788818359375,-0.3302764892578125
1772871591913324300,3.34532421875,-0.062530517578125,0.1224822998046875,-0.311767578125
1772871591923257300,3.35525732421875,-0.0321807861328125,0.07403564453125,-0.229339599609375
1772871591933190400,3.3651904296875,-0.056610107421875,0.0046844482421875,-0.118988037109375
1772871591943123500,3.37512353515625,-0.0837860107421875,-0.05950927734375,0.009613037109375
1772871591953056300,3.38505615234375,-0.115997314453125,-0.10205078125,0.131927490234375
1772871591962989300,3.3949892578125,-0.1789398193359375,-0.095733642578125,0.2080230712890625
1772871591972922400,3.40492236328125,-0.176910400390625,0.0564117431640625,0.15283203125
1772871591982855400,3.41485546875,-0.10198974609375,0.2294464111328125,0.1530303955078125
1772871591992788200,3.424788330078125,-0.1244964599609375,0.4606170654296875,0.212310791015625
1772871592002721300,3.43472119140625,-0.192901611328125,0.720367431640625,0.281585693359375
1772871592012655400,3.4446552734375,-0.334259033203125,0.9108734130859375,0.43853759765625
1772871592022588200,3.454588134765625,-0.5220184326171875,1.15203857421875,0.6809539794921875
1772871592032521200,3.464521240234375,-0.8067779541015625,1.5645294189453125,0.8784332275390625
1772871592042454300,3.474454345703125,-1.337677001953125,2.0325775146484375,0.8648223876953125
1772871592052387600,3.4843876953125,-2.028289794921875,2.3805694580078125,0.7410888671875
1772871592062321000,3.49432080078125,-2.61334228515625,2.4895172119140625,0.7171783447265625
1772871592072254000,3.50425390625,-2.905548095703125,2.360870361328125,0.8217620849609375
1772871592082187000,3.51418701171875,-2.8635101318359375,2.045440673828125,1.056304931640625
1772871592092119800,3.524119873046875,-2.582183837890625,1.626983642578125,1.3795318603515625
1772871592102052900,3.534052978515625,-2.080810546875,1.2811279296875,1.5809173583984375
1772871592111986000,3.54398583984375,-1.524322509765625,1.1370391845703125,1.469024658203125
1772871592121919000,3.5539189453125,-1.07550048828125,1.104339599609375,1.1582489013671875
1772871592131853000,3.56385302734375,-0.7783966064453125,1.1766815185546875,0.8486328125
1772871592141786000,3.5737861328125,-0.6816864013671875,1.287811279296875,0.597412109375
1772871592151719200,3.58371923828125,-0.80426025390625,1.414337158203125,0.4102325439453125
1772871592161652000,3.59365185546875,-1.08282470703125,1.545623779296875,0.3024749755859375
1772871592171585000,3.6035849609375,-1.49652099609375,1.6395263671875,0.2896575927734375
1772871592181518000,3.61351806640625,-1.975860595703125,1.69732666015625,0.3243560791015625
1772871592191451100,3.623451171875,-2.337646484375,1.749267578125,0.3154449462890625
1772871592201384200,3.63338427734375,-2.409271240234375,1.7543792724609375,0.20086669921875
1772871592211317000,3.64331689453125,-2.1490478515625,1.714141845703125,0.0643310546875
1772871592221250000,3.65325,-1.757781982421875,1.5910797119140625,-0.068756103515625
1772871592231183000,3.66318310546875,-1.3982696533203125,1.4272918701171875,-0.13763427734375
1772871592241116200,3.6731162109375,-1.0765838623046875,1.2818450927734375,-0.136505126953125
1772871592251049000,3.683049072265625,-0.7972412109375,1.1645660400390625,-0.1320343017578125
1772871592260983000,3.692983154296875,-0.55694580078125,1.0538177490234375,-0.1406707763671875
1772871592270916000,3.702916015625,-0.3477020263671875,0.95086669921875,-0.1470184326171875
1772871592280849000,3.712848876953125,-0.230133056640625,0.8022003173828125,-0.1921539306640625
1772871592290782000,3.722781982421875,-0.1160125732421875,0.622314453125,-0.230926513671875
1772871592300715000,3.732715087890625,0.0550384521484375,0.4105987548828125,-0.2193756103515625
1772871592310648000,3.74264794921875,0.2803955078125,0.163726806640625,-0.115142822265625
1772871592320580900,3.752580810546875,0.5818634033203125,-0.0977325439453125,0.0670318603515625
1772871592330514000,3.762513916015625,0.8867950439453125,-0.3311309814453125,0.2848052978515625
1772871592340447000,3.772447021484375,1.0655975341796875,-0.505157470703125,0.408050537109375
1772871592350380000,3.782380126953125,1.059844970703125,-0.54736328125,0.449462890625
1772871592360312800,3.792312744140625,0.9306182861328125,-0.447174072265625,0.40313720703125
1772871592370246000,3.802245849609375,0.7417144775390625,-0.279296875,0.274993896484375
1772871592380180000,3.812179931640625,0.5103302001953125,-0.112274169921875,0.156158447265625
1772871592390112800,3.82211279296875,0.26947021484375,0.023193359375,0.1288604736328125
1772871592400045800,3.8320458984375,0.0232086181640625,0.119476318359375,0.176605224609375
1772871592409979000,3.841978759765625,-0.2130126953125,0.18426513671875,0.2497711181640625
1772871592419912200,3.851912109375,-0.406585693359375,0.2104949951171875,0.27313232421875
1772871592429845000,3.861844970703125,-0.5178070068359375,0.23138427734375,0.2305755615234375
1772871592439778000,3.871778076171875,-0.524322509765625,0.24267578125,0.1419830322265625
1772871592449711000,3.881711181640625,-0.46527099609375,0.218597412109375,0.0106201171875
1772871592459644200,3.89164404296875,-0.3836212158203125,0.1622772216796875,-0.106414794921875
1772871592469577000,3.901576904296875,-0.3336181640625,0.0740814208984375,-0.1419525146484375
1772871592479510000,3.911510009765625,-0.27740478515625,-0.0311737060546875,-0.119720458984375
1772871592489443000,3.921443115234375,-0.214202880859375,-0.12579345703125,-0.0599212646484375
1772871592499377000,3.931376953125,-0.1506500244140625,-0.1631622314453125,0.0037384033203125
1772871592509310000,3.94131005859375,-0.1164703369140625,-0.1559600830078125,0.0129547119140625
1772871592519243000,3.951242919921875,-0.087799072265625,-0.1324462890625,-0.0279541015625
1772871592529176000,3.961176025390625,-0.058013916015625,-0.0716705322265625,-0.0513763427734375
1772871592539108900,3.97110888671875,-0.0606536865234375,-0.0155487060546875,-0.08758544921875
1772871592549042000,3.9810419921875,-0.0909576416015625,0.05267333984375,-0.1251373291015625
1772871592558973200,3.99097314453125,-0.123199462890625,0.127899169921875,-0.1689605712890625
1772871592568906000,4.000906005859375,-0.1821441650390625,0.1551513671875,-0.1843109130859375
1772871592578839000,4.010839111328125,-0.17877197265625,0.1700897216796875,-0.1408843994140625
1772871592588772000,4.020772216796875,-0.1107025146484375,0.2444610595703125,0.0272369384765625
1772871592598705200,4.030705078125,-0.19256591796875,0.3726043701171875,0.21282958984375
1772871592608639000,4.040638916015625,-0.3613739013671875,0.572723388671875,0.5022735595703125
1772871592618572000,4.050572021484375,-0.625640869140625,0.8851165771484375,0.7732696533203125
1772871592628505000,4.060505126953125,-0.927154541015625,1.304779052734375,0.9149169921875
1772871592638438000,4.07043798828125,-1.2510528564453125,1.861236572265625,0.83441162109375
1772871592648371000,4.080370849609375,-1.642669677734375,2.394378662109375,0.6479949951171875
1772871592658304000,4.090303955078125,-2.060638427734375,2.728363037109375,0.548736572265625
1772871592668237000,4.100237060546875,-2.3928375244140625,2.80621337890625,0.5725250244140625
1772871592678169900,4.110169921875,-2.55169677734375,2.58172607421875,0.5998382568359375
1772871592688103000,4.12010302734375,-2.474700927734375,2.0822601318359375,0.685791015625
1772871592698036000,4.130035888671875,-2.238861083984375,1.4818572998046875,0.8942413330078125
1772871592707969000,4.139968994140625,-1.9354705810546875,1.0137176513671875,1.15234375
1772871592717901800,4.14990185546875,-1.61444091796875,0.7906341552734375,1.26495361328125
1772871592727836000,4.1598359375,-1.3243865966796875,0.7591400146484375,1.13226318359375
1772871592737769000,4.16976904296875,-1.1246490478515625,0.897552490234375,0.907470703125
1772871592747701800,4.17970166015625,-1.0161895751953125,1.164215087890625,0.637969970703125
1772871592757634800,4.189634765625,-1.042938232421875,1.4410858154296875,0.440521240234375
1772871592767568000,4.19956787109375,-1.21929931640625,1.6784820556640625,0.370269775390625
1772871592777501000,4.2095009765625,-1.5755767822265625,1.880859375,0.2981109619140625
1772871592787434000,4.21943408203125,-2.0134124755859375,2.006591796875,0.1852264404296875
1772871592797367000,4.229366943359375,-2.336517333984375,2.009979248046875,0.08837890625
1772871592807300000,4.239300048828125,-2.424163818359375,1.861480712890625,0.05987548828125
1772871592817233200,4.249233154296875,-2.2551727294921875,1.66265869140625,0.065765380859375
1772871592827166200,4.259166259765625,-1.9136199951171875,1.494720458984375,0.09173583984375
1772871592837099000,4.26909912109375,-1.57586669921875,1.340240478515625,0.0595703125
1772871592847033000,4.279033203125,-1.2402496337890625,1.25982666015625,-0.0930023193359375
1772871592856966100,4.288966064453125,-0.8711395263671875,1.2425079345703125,-0.2598876953125
1772871592866899000,4.29889892578125,-0.5338897705078125,1.1700439453125,-0.327423095703125
1772871592876832000,4.30883203125,-0.26849365234375,0.998870849609375,-0.2870330810546875
1772871592886765000,4.31876513671875,-0.0343475341796875,0.77349853515625,-0.219024658203125
1772871592896698000,4.328697998046875,0.1796417236328125,0.5093841552734375,-0.1544342041015625
1772871592906631000,4.338630859375,0.3819732666015625,0.212005615234375,-0.0402069091796875
1772871592916564000,4.34856396484375,0.5845489501953125,-0.074859619140625,0.21600341796875
1772871592926497000,4.3584970703125,0.6948699951171875,-0.3434295654296875,0.453216552734375
1772871592936430000,4.36843017578125,0.756866455078125,-0.5276947021484375,0.5919342041015625
1772871592946365000,4.378364990234375,0.8232879638671875,-0.553131103515625,0.6292266845703125
1772871592956298000,4.388298095703125,0.8705902099609375,-0.45892333984375,0.5204925537109375
1772871592966230800,4.398230712890625,0.8720855712890625,-0.30279541015625,0.3575286865234375
1772871592976164000,4.4081640625,0.7235260009765625,-0.131744384765625,0.2162017822265625
1772871592986097200,4.41809716796875,0.470947265625,0.0131072998046875,0.117156982421875
1772871592996030200,4.4280302734375,0.18841552734375,0.1162261962890625,0.0864715576171875
1772871593005963000,4.437962890625,-0.0900115966796875,0.1888580322265625,0.0739593505859375
1772871593015896000,4.44789599609375,-0.341522216796875,0.2415924072265625,0.0658416748046875
1772871593025829000,4.4578291015625,-0.52496337890625,0.274322509765625,0.0496673583984375
1772871593035762200,4.46776220703125,-0.61883544921875,0.2901153564453125,0.0144500732421875
1772871593045695000,4.477695068359375,-0.6139678955078125,0.2740325927734375,-0.01690673828125
1772871593055628000,4.4876279296875,-0.548248291015625,0.20465087890625,-0.0333099365234375
1772871593065560600,4.497560546875,-0.4633636474609375,0.129486083984375,-0.01983642578125
1772871593075494400,4.507494384765625,-0.3897552490234375,0.051300048828125,0.0085906982421875
1772871593085427500,4.517427490234375,-0.2994537353515625,-0.003997802734375,0.0048675537109375
1772871593095360500,4.527360595703125,-0.188201904296875,-0.049530029296875,-0.017730712890625
1772871593105293600,4.53729345703125,-0.0783538818359375,-0.0921173095703125,-0.029632568359375
1772871593115226600,4.5472265625,0.0267181396484375,-0.1243133544921875,-0.0614013671875
1772871593125159400,4.557159423828125,0.0795135498046875,-0.1609039306640625,-0.0949859619140625
1772871593135092500,4.567092529296875,0.096588134765625,-0.19146728515625,-0.080718994140625
1772871593145025500,4.577025634765625,0.0624847412109375,-0.181304931640625,-0.05926513671875
1772871593154958600,4.58695849609375,-0.003692626953125,-0.1367645263671875,-0.05035400390625
1772871593164891400,4.596891357421875,-0.082244873046875,-0.07666015625,-0.0581207275390625
1772871593174824400,4.606824462890625,-0.16632080078125,-0.0131988525390625,-0.055084228515625
1772871593184757500,4.616757568359375,-0.2593536376953125,0.08056640625,-0.062225341796875
1772871593194690600,4.626690673828125,-0.35516357421875,0.20452880859375,-0.1234283447265625
1772871593204624400,4.636624267578125,-0.2887115478515625,0.4120025634765625,-0.205474853515625
1772871593214557400,4.646557373046875,-0.1653594970703125,0.566375732421875,-0.1413726806640625
1772871593224490500,4.656490478515625,-0.2037506103515625,0.6612091064453125,0.03887939453125
1772871593234423300,4.66642333984375,-0.2769927978515625,0.84161376953125,0.3593597412109375
1772871593244356400,4.6763564453125,-0.4889373779296875,1.049163818359375,0.72784423828125
1772871593254289400,4.686289306640625,-0.96771240234375,1.357940673828125,0.9718780517578125
1772871593264222500,4.696222412109375,-1.6318206787109375,1.7588653564453125,0.97503662109375
1772871593274155300,4.7061552734375,-2.4551544189453125,2.018585205078125,0.9069976806640625
1772871593284088300,4.71608837890625,-3.0698394775390625,2.11376953125,0.8636932373046875
1772871593294021400,4.726021484375,-3.0529022216796875,2.052764892578125,0.877655029296875
1772871593303954700,4.73595458984375,-2.449951171875,1.7707977294921875,0.883331298828125
1772871593313887500,4.745887451171875,-1.6794281005859375,1.400299072265625,0.860504150390625
1772871593323821600,4.755821533203125,-1.0685272216796875,1.135223388671875,0.8993072509765625
1772871593333754600,4.765754638671875,-0.8603363037109375,1.003814697265625,0.9477386474609375
1772871593343687400,4.7756875,-0.9733123779296875,1.05487060546875,0.9866790771484375
1772871593353620500,4.785620361328125,-1.252166748046875,1.2077178955078125,0.93487548828125
1772871593363553500,4.795553466796875,-1.582916259765625,1.4400482177734375,0.813934326171875
1772871593373486600,4.805486572265625,-1.936431884765625,1.6658935546875,0.579010009765625
1772871593383419400,4.81541943359375,-2.1866455078125,1.7907257080078125,0.3394012451171875
1772871593393352400,4.8253525390625,-2.230072021484375,1.8351287841796875,0.184326171875
1772871593403285500,4.835285400390625,-2.06646728515625,1.8112945556640625,0.06964111328125
1772871593413218600,4.845218505859375,-1.8055572509765625,1.721160888671875,-0.001556396484375
1772871593423151600,4.855151611328125,-1.55859375,1.5949249267578125,0.009613037109375
1772871593433084400,4.86508447265625,-1.396331787109375,1.46185302734375,0.1118316650390625
1772871593443018500,4.8750185546875,-1.3665771484375,1.3315582275390625,0.290283203125
1772871593452951600,4.88495166015625,-1.420074462890625,1.2459259033203125,0.4822540283203125
1772871593462884400,4.89488427734375,-1.4614410400390625,1.1934814453125,0.634735107421875
1772871593472817400,4.9048173828125,-1.45379638671875,1.15350341796875,0.6759796142578125
1772871593482750500,4.91475048828125,-1.36810302734375,1.1385040283203125,0.5516357421875
1772871593492683500,4.92468359375,-1.186370849609375,1.1280517578125,0.3321533203125
1772871593502616300,4.9346162109375,-0.9365692138671875,1.0458984375,0.1237030029296875
1772871593512549400,4.94454931640625,-0.6198577880859375,0.8975067138671875,-0.069183349609375
1772871593522482400,4.954482421875,-0.301239013671875,0.7075347900390625,-0.2038726806640625
1772871593532415500,4.96441552734375,-0.0533599853515625,0.4659576416015625,-0.24676513671875
1772871593542348300,4.974348388671875,0.1405487060546875,0.213836669921875,-0.18402099609375
1772871593552281300,4.98428125,0.26495361328125,-0.0123138427734375,-0.0224609375
1772871593562214400,4.99421435546875,0.3659820556640625,-0.1847076416015625,0.1584930419921875
1772871593572148500,5.0041484375,0.4763031005859375,-0.3109588623046875,0.2976226806640625
1772871593582081500,5.01408154296875,0.5480499267578125,-0.363128662109375,0.3513336181640625
1772871593592014600,5.0240146484375,0.563201904296875,-0.354522705078125,0.30987548828125
1772871593601947600,5.03394775390625,0.5869903564453125,-0.30120849609375,0.2190399169921875
1772871593611880400,5.04388037109375,0.5537261962890625,-0.2703704833984375,0.130828857421875
1772871593621813500,5.0538134765625,0.44500732421875,-0.1044921875,0.077484130859375
1772871593631746600,5.06374658203125,0.2553253173828125,-0.019500732421875,0.023284912109375
1772871593641679600,5.0736796875,0.0698394775390625,0.050262451171875,-0.0257568359375
1772871593651612400,5.0836123046875,-0.0294647216796875,0.1013641357421875,-0.0323944091796875
1772871593661545500,5.09354541015625,-0.106170654296875,0.1095428466796875,-0.0084686279296875
1772871593671478500,5.103478515625,-0.1468048095703125,0.084930419921875,0.0382843017578125
1772871593681411600,5.11341162109375,-0.2007904052734375,0.0565338134765625,0.0991058349609375
1772871593691344400,5.123344482421875,-0.2763824462890625,0.0337677001953125,0.150787353515625
1772871593701278500,5.133278564453125,-0.344085693359375,0.011749267578125,0.1929779052734375
1772871593711211500,5.14321142578125,-0.3603973388671875,0.0088958740234375,0.1640777587890625
1772871593721144300,5.153144287109375,-0.2983551025390625,0.0349273681640625,0.0591583251953125
1772871593731077400,5.163077392578125,-0.195892333984375,0.053985595703125,-0.0704345703125
1772871593741010400,5.173010498046875,-0.0838623046875,0.059051513671875,-0.1890106201171875
1772871593750943500,5.182943603515625,0.020721435546875,0.0428619384765625,-0.2577667236328125
1772871593760876500,5.19287646484375,0.0750885009765625,0.0283203125,-0.260650634765625
1772871593770809300,5.202809326171875,0.0814971923828125,0.0154876708984375,-0.2041015625
1772871593780742400,5.212742431640625,0.03045654296875,-0.0098114013671875,-0.124908447265625
1772871593790675500,5.222675537109375,-0.0384368896484375,-0.0317230224609375,-0.049285888671875
1772871593800608500,5.2326083984375,-0.1316070556640625,-0.0425567626953125,0.0222015380859375
1772871593810541300,5.242541259765625,-0.2319488525390625,-0.0463104248046875,0.078338623046875
1772871593820474400,5.252474365234375,-0.319366455078125,-0.017547607421875,0.0849761962890625
1772871593830408400,5.262408447265625,-0.3673095703125,0.0772552490234375,0.0592498779296875
1772871593840341500,5.272341552734375,-0.3031768798828125,0.23907470703125,-0.0659027099609375
1772871593850274600,5.282274658203125,-0.2594451904296875,0.310943603515625,-0.0364532470703125
1772871593860207600,5.29220751953125,-0.3458251953125,0.4302520751953125,0.1249847412109375
1772871593870140700,5.302140625,-0.508514404296875,0.60272216796875,0.3201141357421875
1772871593880073500,5.312073486328125,-0.765838623046875,0.82965087890625,0.5703125
1772871593890006500,5.322006591796875,-1.1306304931640625,1.2157135009765625,0.81878662109375
1772871593899939600,5.331939697265625,-1.6846160888671875,1.656829833984375,0.9545135498046875
1772871593909872600,5.34187255859375,-2.49835205078125,1.93060302734375,1.0722808837890625
1772871593919805400,5.351805419921875,-3.2304229736328125,2.0811920166015625,1.201080322265625
1772871593929738500,5.361738525390625,-3.3408966064453125,2.1354827880859375,1.15545654296875
1772871593939671600,5.371671630859375,-2.8360748291015625,1.9975738525390625,0.909912109375
1772871593949604600,5.3816044921875,-2.1242523193359375,1.6961669921875,0.603729248046875
1772871593959538400,5.391538330078125,-1.4786224365234375,1.399383544921875,0.514984130859375
1772871593969471500,5.401471435546875,-1.1128082275390625,1.171539306640625,0.5606842041015625
1772871593979404500,5.411404541015625,-1.063079833984375,1.02716064453125,0.689697265625
1772871593989337300,5.42133740234375,-1.2227935791015625,0.9907989501953125,0.79168701171875
1772871593999270400,5.4312705078125,-1.5193023681640625,1.02215576171875,0.78997802734375
1772871594009203500,5.441203369140625,-1.8972015380859375,1.127227783203125,0.7498321533203125
1772871594019136500,5.451136474609375,-2.2217254638671875,1.2867584228515625,0.559326171875
1772871594029069300,5.4610693359375,-2.3973236083984375,1.462310791015625,0.2527923583984375
1772871594039002400,5.47100244140625,-2.3106536865234375,1.6531829833984375,-0.063812255859375
1772871594048935400,5.480935302734375,-2.069000244140625,1.7829132080078125,-0.3365325927734375
1772871594058869000,5.490868896484375,-1.8460693359375,1.821197509765625,-0.45269775390625
1772871594068801800,5.5008017578125,-1.659942626953125,1.815155029296875,-0.366119384765625
1772871594078734800,5.51073486328125,-1.4865570068359375,1.7298583984375,-0.155792236328125
1772871594088669000,5.5206689453125,-1.4000091552734375,1.55120849609375,0.1031646728515625
1772871594098601700,5.530601806640625,-1.328857421875,1.35498046875,0.38079833984375
1772871594108534800,5.54053466796875,-1.211669921875,1.159881591796875,0.61334228515625
1772871594118467800,5.5504677734375,-1.0868988037109375,0.928466796875,0.697296142578125
1772871594128401000,5.56040087890625,-0.9189605712890625,0.730804443359375,0.6141510009765625
1772871594138333700,5.570333740234375,-0.65643310546875,0.59344482421875,0.3441314697265625
1772871594148266800,5.580266845703125,-0.3196258544921875,0.457794189453125,0.0411224365234375
1772871594158199800,5.59019970703125,0.0344390869140625,0.32183837890625,-0.1880950927734375
1772871594168132900,5.6001328125,0.3329620361328125,0.1619110107421875,-0.3160400390625
1772871594178065700,5.610065673828125,0.616943359375,-0.0007781982421875,-0.273651123046875
1772871594187998700,5.619998779296875,0.8494415283203125,-0.1464385986328125,-0.123626708984375
1772871594197931800,5.629931884765625,0.975830078125,-0.2496337890625,0.0583648681640625
1772871594207864800,5.63986474609375,0.9878692626953125,-0.29833984375,0.21533203125
1772871594217798700,5.649798583984375,0.8683624267578125,-0.2669830322265625,0.30340576171875
1772871594227731700,5.659731689453125,0.6452178955078125,-0.1905364990234375,0.30987548828125
1772871594237664800,5.669664794921875,0.4062957763671875,-0.0775146484375,0.311492919921875
1772871594247597600,5.67959765625,0.1658782958984375,0.0174560546875,0.3082733154296875
1772871594257530600,5.689530517578125,-0.0441131591796875,0.0879669189453125,0.2869110107421875
1772871594267463700,5.699463623046875,-0.225006103515625,0.1298370361328125,0.2760009765625
1772871594277396700,5.709396728515625,-0.36859130859375,0.1520233154296875,0.2728424072265625
1772871594287329800,5.719329833984375,-0.4485626220703125,0.155548095703125,0.2647552490234375
1772871594297262600,5.7292626953125,-0.45330810546875,0.133392333984375,0.2338409423828125
1772871594307195600,5.739195556640625,-0.4030609130859375,0.0845947265625,0.169342041015625
1772871594317128700,5.749128662109375,-0.32220458984375,0.0387725830078125,0.076080322265625
1772871594327062000,5.75906201171875,-0.216217041015625,-0.0071563720703125,-0.02471923828125
1772871594336994800,5.768994873046875,-0.0948333740234375,-0.0514373779296875,-0.1156768798828125
1772871594346929000,5.778928955078125,0.0181427001953125,-0.0860137939453125,-0.1739501953125
1772871594356862000,5.788862060546875,0.063446044921875,-0.087249755859375,-0.2215728759765625
1772871594366794800,5.798794677734375,0.0216827392578125,-0.0615692138671875,-0.271697998046875
1772871594376727800,5.808727783203125,-0.0787506103515625,-0.035736083984375,-0.283233642578125
1772871594386660900,5.818660888671875,-0.2001495361328125,-0.022064208984375,-0.2376556396484375
1772871594396594000,5.828593994140625,-0.304107666015625,-0.0323638916015625,-0.16802978515625
1772871594406526700,5.838526611328125,-0.345367431640625,-0.0446014404296875,-0.1075439453125
1772871594416459800,5.848459716796875,-0.334930419921875,-0.0308837890625,-0.04644775390625
1772871594426392800,5.858392822265625,-0.29254150390625,-0.0081634521484375,-0.0111846923828125
1772871594436326000,5.868325927734375,-0.25006103515625,0.0326995849609375,-0.001312255859375
1772871594446258700,5.8782587890625,-0.24432373046875,0.093963623046875,-0.011383056640625
1772871594456191700,5.888191650390625,-0.326568603515625,0.1330413818359375,0.012603759765625
1772871594466124800,5.898124755859375,-0.329010009765625,0.2646484375,-0.0034027099609375
1772871594476057900,5.908057861328125,-0.2677154541015625,0.38934326171875,-0.0761566162109375
1772871594485991700,5.91799169921875,-0.350128173828125,0.4072418212890625,0.040924072265625
1772871594495924700,5.9279248046875,-0.569671630859375,0.5155487060546875,0.2299041748046875
1772871594505857800,5.93785791015625,-0.8516845703125,0.6206817626953125,0.4521331787109375
1772871594515790600,5.94779052734375,-1.107879638671875,0.7364959716796875,0.6725616455078125
1772871594525723600,5.9577236328125,-1.26397705078125,0.91851806640625,0.83538818359375
1772871594535656700,5.96765673828125,-1.3803558349609375,1.1601409912109375,0.8360748291015625
1772871594545589800,5.97758984375,-1.5938720703125,1.428375244140625,0.720916748046875
1772871594555522600,5.9875224609375,-1.9202423095703125,1.723724365234375,0.6536102294921875
1772871594565455600,5.99745556640625,-2.2935333251953125,1.99981689453125,0.637481689453125
1772871594575388700,6.007388671875,-2.62701416015625,2.139556884765625,0.6650848388671875
1772871594585321700,6.01732177734375,-2.8806304931640625,2.1142425537109375,0.7493896484375
1772871594595254800,6.0272548828125,-2.9641876220703125,1.949188232421875,1.0410614013671875
1772871594605187800,6.037187744140625,-2.8243408203125,1.6654510498046875,1.3006134033203125
1772871594615122000,6.047121826171875,-2.5113677978515625,1.41229248046875,1.325164794921875
1772871594625054700,6.0570546875,-2.109527587890625,1.280548095703125,1.1062774658203125
1772871594634987800,6.06698779296875,-1.7575531005859375,1.2571563720703125,0.8027801513671875
1772871594644920800,6.0769208984375,-1.5323028564453125,1.26507568359375,0.5297393798828125
1772871594654854000,6.08685400390625,-1.433380126953125,1.2907257080078125,0.3539886474609375
1772871594664786700,6.09678662109375,-1.42803955078125,1.27655029296875,0.2312164306640625
1772871594674719700,6.1067197265625,-1.4047088623046875,1.2138214111328125,0.1573028564453125
1772871594684652800,6.11665283203125,-1.36737060546875,1.124603271484375,0.194488525390625
1772871594694585900,6.1265859375,-1.407562255859375,1.0117340087890625,0.3307952880859375
1772871594704519000,6.136518798828125,-1.4688873291015625,0.89410400390625,0.4716339111328125
1772871594714451700,6.14645166015625,-1.54901123046875,0.81365966796875,0.594390869140625
1772871594724384800,6.156384765625,-1.6197509765625,0.821136474609375,0.623016357421875
1772871594734317800,6.16631787109375,-1.5636749267578125,0.8908233642578125,0.46710205078125
1772871594744251600,6.176251708984375,-1.2833099365234375,0.97454833984375,0.176513671875
1772871594754184700,6.186184814453125,-0.8908233642578125,0.9915313720703125,-0.1055145263671875
1772871594764117800,6.19611767578125,-0.4888153076171875,0.93206787109375,-0.2498931884765625
1772871594774050800,6.20605078125,-0.19482421875,0.8114776611328125,-0.2881011962890625
1772871594783983600,6.215983642578125,-0.0089874267578125,0.6576690673828125,-0.2314453125
1772871594793916700,6.225916748046875,0.11468505859375,0.4837646484375,-0.1262359619140625
1772871594803849700,6.235849609375,0.167236328125,0.2611236572265625,-0.0202484130859375
1772871594813782800,6.24578271484375,0.20269775390625,0.045623779296875,0.0926055908203125
1772871594823715600,6.255715576171875,0.2010345458984375,-0.13671875,0.2205963134765625
1772871594833648600,6.265648681640625,0.2130889892578125,-0.2231292724609375,0.3202362060546875
1772871594843581700,6.275581787109375,0.2921295166015625,-0.21661376953125,0.3147735595703125
1772871594853514800,6.2855146484375,0.382537841796875,-0.1617584228515625,0.21881103515625
1772871594863447600,6.295447509765625,0.4558258056640625,-0.08197021484375,0.111541748046875
1772871594873380600,6.305380615234375,0.47210693359375,-0.0221710205078125,0.0050048828125
1772871594883315000,6.31531494140625,0.4706268310546875,0.0326080322265625,-0.0529937744140625
1772871594893247700,6.325247802734375,0.4143829345703125,0.0541229248046875,-0.0586395263671875
1772871594903180800,6.335180908203125,0.2684173583984375,0.031524658203125,0.01495361328125
1772871594913113900,6.34511376953125,0.1035614013671875,-0.016693115234375,0.1030120849609375
1772871594923047000,6.355046875,-0.047515869140625,-0.102813720703125,0.2157745361328125
1772871594932979700,6.364979736328125,-0.1803436279296875,-0.171539306640625,0.31549072265625
1772871594942912800,6.374912841796875,-0.2776641845703125,-0.178863525390625,0.33953857421875
1772871594952845800,6.384845703125,-0.347412109375,-0.117706298828125,0.2869720458984375
1772871594962779000,6.39477880859375,-0.3587646484375,-0.032135009765625,0.147491455078125
1772871594972711700,6.404711669921875,-0.357086181640625,0.0582427978515625,-0.0237884521484375
1772871594982644700,6.414644775390625,-0.3416900634765625,0.1143798828125,-0.150543212890625
1772871594992577800,6.424577880859375,-0.28948974609375,0.1180267333984375,-0.203704833984375
1772871595002510800,6.4345107421875,-0.2344207763671875,0.08013916015625,-0.22900390625
1772871595012444000,6.44444384765625,-0.183013916015625,0.0370941162109375,-0.23541259765625
1772871595022377700,6.454377685546875,-0.1550140380859375,-0.030029296875,-0.1912384033203125
1772871595032310800,6.464310791015625,-0.1674652099609375,-0.1168670654296875,-0.0916900634765625
1772871595042243800,6.474243896484375,-0.2408905029296875,-0.1522979736328125,-0.0014801025390625
1772871595052176600,6.4841767578125,-0.3687896728515625,-0.15484619140625,0.0663604736328125
1772871595062109700,6.494109619140625,-0.5015869140625,-0.084716796875,0.1526947021484375
1772871595072042800,6.504042724609375,-0.4896240234375,0.16357421875,0.079193115234375
1772871595081975800,6.513975830078125,-0.390380859375,0.331817626953125,-0.00457763671875
1772871595091908600,6.52390869140625,-0.4034423828125,0.47198486328125,0.077239990234375
1772871595101841700,6.533841552734375,-0.5046844482421875,0.679962158203125,0.224822998046875
1772871595111774700,6.543774658203125,-0.6893310546875,0.89251708984375,0.375091552734375
1772871595121707800,6.553707763671875,-0.9470367431640625,1.157745361328125,0.555419921875
1772871595131640600,6.563640625,-1.3292236328125,1.3672027587890625,0.68988037109375
1772871595141573600,6.57357373046875,-1.7781524658203125,1.4640655517578125,0.7896881103515625
1772871595151507700,6.5835078125,-2.285491943359375,1.5589447021484375,0.9925384521484375
1772871595161440500,6.5934404296875,-2.7684783935546875,1.7088165283203125,1.176513671875
1772871595171373600,6.60337353515625,-2.9758148193359375,1.822296142578125,1.10150146484375
1772871595181306600,6.613306640625,-2.8863983154296875,1.78289794921875,0.8587493896484375
1772871595191239700,6.62323974609375,-2.6265106201171875,1.6861114501953125,0.73760986328125
1772871595201172500,6.63317236328125,-2.2965240478515625,1.5463409423828125,0.7168731689453125
1772871595211105500,6.64310546875,-1.9167327880859375,1.38287353515625,0.683502197265625
1772871595221038600,6.65303857421875,-1.5711212158203125,1.207916259765625,0.635467529296875
1772871595230971600,6.6629716796875,-1.3448333740234375,1.0562896728515625,0.6291046142578125
1772871595240904400,6.672904541015625,-1.263336181640625,0.95166015625,0.7090301513671875
1772871595250837500,6.68283740234375,-1.246917724609375,0.9111175537109375,0.7577056884765625
1772871595260770600,6.6927705078125,-1.2904052734375,0.9081878662109375,0.73358154296875
1772871595270703600,6.70270361328125,-1.395172119140625,0.9549713134765625,0.70391845703125
1772871595280637700,6.7126376953125,-1.5677947998046875,1.0798492431640625,0.6157073974609375
1772871595290570800,6.72257080078125,-1.751495361328125,1.2096710205078125,0.4191741943359375
1772871595300503800,6.73250390625,-1.8822174072265625,1.3178558349609375,0.20257568359375
1772871595310436600,6.7424365234375,-1.9271087646484375,1.399627685546875,0.0390167236328125
1772871595320369700,6.75236962890625,-1.866241455078125,1.4137725830078125,-0.0850982666015625
1772871595330302700,6.762302734375,-1.679595947265625,1.3695068359375,-0.154937744140625
1772871595340235800,6.77223583984375,-1.419342041015625,1.2756500244140625,-0.172637939453125
1772871595350168800,6.7821689453125,-1.1477508544921875,1.1164093017578125,-0.123138427734375
1772871595360101600,6.7921015625,-0.8488922119140625,0.9522247314453125,-0.0440216064453125
1772871595370034700,6.80203466796875,-0.5478668212890625,0.7442626953125,-0.017242431640625
1772871595379967700,6.8119677734375,-0.23944091796875,0.541412353515625,-0.0114898681640625
1772871595389900800,6.82190087890625,0.04632568359375,0.3490753173828125,-0.0015869140625
1772871595399833600,6.83183349609375,0.263702392578125,0.1317291259765625,-0.0043182373046875
1772871595409766700,6.8417666015625,0.420806884765625,-0.04571533203125,0.051788330078125
1772871595419700700,6.85170068359375,0.5168304443359375,-0.1777801513671875,0.13848876953125
1772871595429633500,6.861633544921875,0.593719482421875,-0.26580810546875,0.2057037353515625
1772871595439566600,6.871566650390625,0.6645050048828125,-0.293426513671875,0.270050048828125
1772871595449499600,6.881499755859375,0.6798095703125,-0.274932861328125,0.291717529296875
1772871595459432700,6.8914326171875,0.61492919921875,-0.205596923828125,0.2994537353515625
1772871595469365500,6.901365478515625,0.5141754150390625,-0.112640380859375,0.313079833984375
1772871595479298600,6.911298583984375,0.4036865234375,-0.0187530517578125,0.28125
1772871595489231600,6.921231689453125,0.2672882080078125,0.0279541015625,0.262542724609375
1772871595499164700,6.93116455078125,0.134033203125,0.050201416015625,0.283477783203125
1772871595509097500,6.941097412109375,-0.0343780517578125,0.0646209716796875,0.2802581787109375
1772871595519030500,6.951030517578125,-0.16668701171875,0.060028076171875,0.243194580078125
1772871595528963600,6.960963623046875,-0.2059478759765625,0.0350341796875,0.1705474853515625
1772871595538896600,6.970896728515625,-0.1908721923828125,0.0071258544921875,0.0612335205078125
1772871595548830700,6.980830810546875,-0.149444580078125,-0.016510009765625,-0.04266357421875
1772871595558763800,6.990763671875,-0.084991455078125,-0.0348052978515625,-0.1245574951171875
1772871595568696800,7.00069677734375,-0.03955078125,-0.0394287109375,-0.1766815185546875
1772871595578629600,7.010629638671875,-0.0767822265625,-0.0373382568359375,-0.1738739013671875
1772871595588562700,7.020562744140625,-0.1521759033203125,-0.0233001708984375,-0.1373443603515625
1772871595598495700,7.030495849609375,-0.1970672607421875,-0.00909423828125,-0.1401214599609375
1772871595608428800,7.0404287109375,-0.2157440185546875,-0.0013885498046875,-0.189971923828125
1772871595618361600,7.050361572265625,-0.1983642578125,0.03094482421875,-0.259307861328125
1772871595628294700,7.060294677734375,-0.1735076904296875,0.0712127685546875,-0.3001251220703125
1772871595638227700,7.070227783203125,-0.1690216064453125,0.1083526611328125,-0.3365631103515625
1772871595648160800,7.080160888671875,-0.1731414794921875,0.1637725830078125,-0.3551177978515625
1772871595658093600,7.090093505859375,-0.1887664794921875,0.215118408203125,-0.372711181640625
1772871595668026600,7.100026611328125,-0.21392822265625,0.275970458984375,-0.304443359375
1772871595677959700,7.109959716796875,-0.2209014892578125,0.331207275390625,-0.1733551025390625
1772871595687893500,7.1198935546875,-0.254425048828125,0.3726806640625,0.075347900390625
1772871595697826600,7.12982666015625,-0.41168212890625,0.3795318603515625,0.4425048828125
1772871595707759600,7.139759521484375,-0.694976806640625,0.4380950927734375,0.8787994384765625
1772871595717692700,7.149692626953125,-1.0279998779296875,0.6151885986328125,1.2106781005859375
1772871595727625700,7.159625732421875,-1.3247222900390625,0.878265380859375,1.3220672607421875
1772871595737558500,7.16955859375,-1.4670867919921875,1.1343231201171875,1.19781494140625
1772871595747491600,7.17949169921875,-1.6187896728515625,1.30291748046875,1.0029296875
1772871595757424600,7.189424560546875,-1.99163818359375,1.5023651123046875,0.894622802734375
1772871595767357700,7.199357666015625,-2.3934783935546875,1.734649658203125,0.791412353515625
1772871595777290500,7.20929052734375,-2.6771240234375,1.802734375,0.6985015869140625
1772871595787223600,7.2192236328125,-2.80474853515625,1.6521148681640625,0.761260986328125
1772871595797156600,7.229156494140625,-2.775604248046875,1.3540191650390625,1.2224273681640625
1772871595807089700,7.239089599609375,-2.584259033203125,0.9691009521484375,1.7559661865234375
1772871595817023700,7.249023681640625,-2.2063751220703125,0.5804901123046875,2.019775390625
1772871595826956800,7.258956787109375,-2.015533447265625,0.2765045166015625,1.96905517578125
1772871595836889900,7.268889892578125,-2.0307159423828125,0.6054840087890625,1.5847320556640625
1772871595846822700,7.27882275390625,-1.9731292724609375,0.958160400390625,1.0586090087890625
1772871595856755700,7.288755615234375,-1.8296661376953125,1.0823822021484375,0.6461334228515625
1772871595866688800,7.298688720703125,-1.7491302490234375,1.2465362548828125,0.3178863525390625
1772871595876621800,7.308621826171875,-1.7717437744140625,1.27081298828125,0.1316375732421875
1772871595886554600,7.3185546875,-1.8032684326171875,1.1348724365234375,0.106964111328125
1772871595896487700,7.32848779296875,-1.8755035400390625,0.9897308349609375,0.283599853515625
1772871595906420700,7.338420654296875,-2.0152435302734375,0.9217071533203125,0.5368499755859375
1772871595916353800,7.348353759765625,-2.1196136474609375,0.909820556640625,0.64178466796875
1772871595926286600,7.35828662109375,-2.080902099609375,0.9828643798828125,0.5943756103515625
1772871595936219600,7.3682197265625,-1.859161376953125,1.071319580078125,0.438262939453125
1772871595946152700,7.378152587890625,-1.5238037109375,1.105987548828125,0.2060394287109375
1772871595956086500,7.38808642578125,-1.11297607421875,1.0526885986328125,0.0091400146484375
1772871595966019600,7.39801953125,-0.6373138427734375,0.9387054443359375,-0.13189697265625
1772871595975952600,7.40795263671875,-0.201507568359375,0.7669677734375,-0.262725830078125
1772871595985885700,7.4178857421875,0.1421356201171875,0.57623291015625,-0.334381103515625
1772871595995818500,7.427818603515625,0.3795928955078125,0.3726043701171875,-0.3607177734375
1772871596005751600,7.43775146484375,0.5487060546875,0.1787261962890625,-0.336578369140625
1772871596015684600,7.4476845703125,0.615936279296875,0.0299224853515625,-0.242431640625
1772871596025617700,7.45761767578125,0.5745086669921875,-0.111083984375,-0.068878173828125
1772871596035550700,7.46755078125,0.4835357666015625,-0.223663330078125,0.1453094482421875
1772871596045483500,7.4774833984375,0.3607330322265625,-0.2646331787109375,0.3246917724609375
1772871596055416600,7.48741650390625,0.2494354248046875,-0.2581787109375,0.4402923583984375
1772871596065350400,7.497350341796875,0.2456512451171875,-0.235137939453125,0.4985198974609375
1772871596075283200,7.507283203125,0.3345947265625,-0.207733154296875,0.5088653564453125
1772871596085217500,7.517217529296875,0.4367523193359375,-0.1820220947265625,0.4713134765625
1772871596095150600,7.527150634765625,0.5046234130859375,-0.1329803466796875,0.3372650146484375
1772871596105083400,7.53708349609375,0.4819488525390625,-0.024505615234375,0.164581298828125
1772871596115016400,7.547016357421875,0.3151397705078125,0.095123291015625,0.0030517578125
1772871596124949500,7.556949462890625,0.1155242919921875,0.19061279296875,-0.0988311767578125
1772871596134882600,7.566882568359375,-0.0661468505859375,0.226898193359375,-0.1361541748046875
1772871596144815400,7.5768154296875,-0.2394561767578125,0.217132568359375,-0.097198486328125
1772871596154748400,7.58674853515625,-0.37176513671875,0.178680419921875,-0.012725830078125
1772871596164681500,7.596681396484375,-0.441253662109375,0.094482421875,0.092620849609375
1772871596174614500,7.606614501953125,-0.4470977783203125,-0.0065765380859375,0.176544189453125
1772871596184547300,7.61654736328125,-0.3783721923828125,-0.06005859375,0.2292938232421875
1772871596194480400,7.62648046875,-0.295928955078125,-0.094970703125,0.19244384765625
1772871596204413400,7.636413330078125,-0.1940765380859375,-0.100372314453125,0.1044158935546875
1772871596214346500,7.646346435546875,-0.085418701171875,-0.077056884765625,-0.00421142578125
1772871596224280300,7.6562802734375,0.0253753662109375,-0.044830322265625,-0.130645751953125
1772871596234213400,7.66621337890625,0.097686767578125,-0.0163421630859375,-0.2150726318359375
1772871596244146400,7.676146484375,0.087127685546875,0.022430419921875,-0.2420654296875
1772871596254079200,7.686079345703125,-0.0439300537109375,0.066375732421875,-0.2159576416015625
1772871596264012300,7.69601220703125,-0.2045440673828125,0.1007843017578125,-0.144317626953125
1772871596273945300,7.7059453125,-0.3851776123046875,0.0857086181640625,-0.0645751953125
1772871596283878400,7.71587841796875,-0.583831787109375,0.0523834228515625,0.08648681640625
1772871596293811200,7.725811279296875,-0.683685302734375,0.0924530029296875,0.185150146484375
1772871596303744300,7.735744140625,-0.6760101318359375,0.138702392578125,0.2552032470703125
1772871596313677300,7.74567724609375,-0.689666748046875,0.3505401611328125,0.3055877685546875
1772871596323610400,7.7556103515625,-0.689178466796875,0.729888916015625,0.210052490234375
1772871596333543400,7.76554345703125,-0.59393310546875,0.9927215576171875,0.237579345703125
1772871596343476200,7.775476318359375,-0.6441802978515625,1.1930694580078125,0.3778076171875
1772871596353409300,7.7854091796875,-0.890289306640625,1.3813934326171875,0.5243988037109375
1772871596363343400,7.79534326171875,-1.32275390625,1.4930877685546875,0.644683837890625
1772871596373276400,7.8052763671875,-1.9877166748046875,1.5200958251953125,0.8057861328125
1772871596383209500,7.81520947265625,-2.8525543212890625,1.5163116455078125,1.17791748046875
1772871596393142500,7.825142578125,-3.6016082763671875,1.387542724609375,1.6640167236328125
1772871596403075600,7.83507568359375,-3.94207763671875,1.2787017822265625,2.11981201171875
1772871596413008400,7.84500830078125,-3.6353912353515625,1.360260009765625,2.060089111328125
1772871596422941400,7.85494140625,-2.8615570068359375,1.449737548828125,1.442352294921875
1772871596432874500,7.86487451171875,-2.046722412109375,1.59063720703125,0.7332305908203125
1772871596442807600,7.8748076171875,-1.5260772705078125,1.63433837890625,0.199951171875
1772871596452740400,7.884740234375,-1.28607177734375,1.59014892578125,-0.0314788818359375
1772871596462673400,7.89467333984375,-1.1815338134765625,1.4570159912109375,-0.046295166015625
1772871596472606500,7.9046064453125,-1.1897125244140625,1.2143402099609375,0.0467987060546875
1772871596482539500,7.91453955078125,-1.3452301025390625,0.9274139404296875,0.2293853759765625
1772871596492473300,7.924473388671875,-1.626190185546875,0.6811065673828125,0.5600128173828125
1772871596502406400,7.934406494140625,-1.9631805419921875,0.5387115478515625,0.957275390625
1772871596512339500,7.94433935546875,-2.1656036376953125,0.5787506103515625,1.1265106201171875
1772871596522272300,7.954272216796875,-2.0534210205078125,0.779205322265625,0.9238739013671875
1772871596532205300,7.964205322265625,-1.7880706787109375,1.0135650634765625,0.5602874755859375
1772871596542138400,7.974138427734375,-1.558502197265625,1.1621551513671875,0.25341796875
1772871596552071400,7.984071533203125,-1.33953857421875,1.208984375,0.0605316162109375
1772871596562003500,7.99400341796875,-1.0839996337890625,1.133087158203125,-0.0081329345703125
1772871596571936300,8.003936279296875,-0.8083953857421875,0.9671173095703125,0.0173187255859375
1772871596581869300,8.013869384765625,-0.5303802490234375,0.788421630859375,0.063934326171875
1772871596591802400,8.02380224609375,-0.3611297607421875,0.621795654296875,0.075225830078125
1772871596601735400,8.0337353515625,-0.277496337890625,0.4913330078125,0.0488739013671875
1772871596611668200,8.043668212890625,-0.2005615234375,0.3820343017578125,-0.015411376953125
1772871596621601300,8.053601318359375,-0.0665740966796875,0.2891998291015625,-0.091766357421875
1772871596631534300,8.063534423828125,0.0944671630859375,0.213287353515625,-0.140960693359375
1772871596641467400,8.07346728515625,0.226715087890625,0.1431427001953125,-0.1399993896484375
1772871596651400400,8.083400390625,0.347625732421875,0.07672119140625,-0.1084442138671875
1772871596661334300,8.093334228515625,0.46087646484375,0.013427734375,-0.0673065185546875
1772871596671267300,8.103267333984375,0.530670166015625,-0.049835205078125,0.03436279296875
1772871596681200400,8.113200439453125,0.538055419921875,-0.09027099609375,0.1675567626953125
1772871596691133200,8.12313330078125,0.4903411865234375,-0.1070709228515625,0.242156982421875
1772871596701066200,8.133066162109374,0.4064483642578125,-0.09033203125,0.2467193603515625
1772871596710999300,8.142999267578125,0.2754058837890625,-0.0529632568359375,0.22979736328125
1772871596720932400,8.152932373046875,0.1492462158203125,-0.004241943359375,0.1963653564453125
1772871596730865400,8.162865478515625,0.02716064453125,0.0490570068359375,0.116790771484375
1772871596740798500,8.172798583984376,-0.0906524658203125,0.0924530029296875,0.031005859375
1772871596750731500,8.1827314453125,-0.180084228515625,0.1148681640625,-0.0284576416015625
1772871596760664600,8.19266455078125,-0.2285308837890625,0.1018829345703125,-0.0691375732421875
1772871596770597400,8.202597412109375,-0.254486083984375,0.060699462890625,-0.0913543701171875
1772871596780530400,8.212530517578125,-0.2661590576171875,0.0004730224609375,-0.0608367919921875
1772871596790463500,8.22246337890625,-0.27032470703125,-0.0625762939453125,0.019683837890625
1772871596800397300,8.232397216796874,-0.2947998046875,-0.1142425537109375,0.0592803955078125
1772871596810330400,8.242330322265625,-0.3013763427734375,-0.13287353515625,0.0467071533203125
1772871596820263400,8.252263427734375,-0.2705841064453125,-0.124176025390625,0.0113372802734375
1772871596830196500,8.262196533203126,-0.2318115234375,-0.1019744873046875,-0.0588531494140625
1772871596840129300,8.27212939453125,-0.1675872802734375,-0.0571136474609375,-0.1556243896484375
1772871596850062300,8.282062255859374,-0.10516357421875,-0.0132904052734375,-0.2022247314453125
1772871596859995400,8.291995361328125,-0.086151123046875,0.0254669189453125,-0.192626953125
1772871596869928400,8.301928466796875,-0.119476318359375,0.0526123046875,-0.1349945068359375
1772871596879861200,8.311861328125,-0.1573028564453125,0.05322265625,-0.057708740234375
1772871596889794300,8.321794189453126,-0.1949615478515625,0.04241943359375,0.0159759521484375
1772871596899727400,8.331727294921874,-0.2662353515625,0.001190185546875,0.071380615234375
1772871596909660400,8.341660400390625,-0.34710693359375,0.0452728271484375,0.179901123046875
1772871596919593200,8.35159326171875,-0.308746337890625,0.18646240234375,0.1722412109375
1772871596929526300,8.3615263671875,-0.2474822998046875,0.3600006103515625,0.1727294921875
1772871596939460400,8.37146044921875,-0.2425689697265625,0.657257080078125,0.240936279296875
1772871596949393200,8.38139306640625,-0.40228271484375,0.923828125,0.317047119140625
1772871596959326200,8.391326171875,-0.69281005859375,1.2160491943359375,0.468994140625
1772871596969259300,8.40125927734375,-1.106719970703125,1.488067626953125,0.7631072998046875
1772871596979192300,8.4111923828125,-1.60064697265625,1.6937255859375,1.08868408203125
1772871596989126400,8.42112646484375,-2.07086181640625,1.8911590576171875,1.2519989013671875
1772871596999059500,8.4310595703125,-2.5704803466796875,2.071136474609375,1.2225189208984375
1772871597008992500,8.440992431640625,-3.030029296875,2.10528564453125,1.086029052734375
1772871597018925300,8.45092529296875,-3.1782989501953125,1.9192657470703125,0.9312744140625
1772871597028858400,8.4608583984375,-2.8498992919921875,1.6605224609375,0.796417236328125
1772871597038791400,8.47079150390625,-2.3130035400390625,1.410552978515625,0.7374267578125
1772871597048724500,8.480724365234375,-1.7783203125,1.206390380859375,0.726959228515625
1772871597058657300,8.4906572265625,-1.325531005859375,1.0829315185546875,0.6859588623046875
1772871597068589800,8.50058984375,-1.0410003662109375,0.985595703125,0.64044189453125
1772871597078523000,8.51052294921875,-0.9553070068359375,0.9082489013671875,0.6985015869140625
1772871597088456000,8.5204560546875,-0.9721221923828125,0.829925537109375,0.8560333251953125
1772871597098389000,8.530388916015625,-0.999237060546875,0.7646942138671875,0.953887939453125
1772871597108321800,8.54032177734375,-1.1492462158203125,0.77783203125,0.98779296875
1772871597118255900,8.550255859375,-1.4894256591796875,0.9676513671875,0.914642333984375
1772871597128189000,8.56018896484375,-1.8457794189453125,1.3327178955078125,0.6635589599609375
1772871597138121700,8.570121826171874,-2.109222412109375,1.65594482421875,0.3242950439453125
1772871597148054800,8.5800546875,-2.1461029052734375,1.84857177734375,0.07403564453125
1772871597157987800,8.58998779296875,-2.0498504638671875,1.8901214599609375,-0.063751220703125
1772871597167921000,8.5999208984375,-1.9379730224609375,1.795196533203125,-0.0754241943359375
1772871597177853700,8.609853759765626,-1.7352447509765625,1.6286468505859375,0.045562744140625
1772871597187786800,8.619786865234374,-1.474029541015625,1.3758544921875,0.188079833984375
1772871597197719800,8.6297197265625,-1.1433258056640625,1.13665771484375,0.30059814453125
1772871597207652900,8.63965283203125,-0.7843780517578125,0.9195404052734375,0.36566162109375
1772871597217586000,8.6495859375,-0.4924774169921875,0.69573974609375,0.3638153076171875
1772871597227518700,8.659518798828126,-0.300262451171875,0.495208740234375,0.29339599609375
1772871597237451800,8.66945166015625,-0.1955108642578125,0.330535888671875,0.1605224609375
1772871597247384800,8.679384765625,-0.1282958984375,0.2102508544921875,0.032470703125
1772871597257319000,8.68931884765625,-0.0167999267578125,0.0838470458984375,-0.0644989013671875
1772871597267252000,8.699251953125,0.1622161865234375,-0.0726165771484375,-0.06268310546875
1772871597277185000,8.70918505859375,0.3964996337890625,-0.2051849365234375,0.00299072265625
1772871597287118000,8.7191181640625,0.6194000244140625,-0.270965576171875,0.04248046875
1772871597297051000,8.72905078125,0.7723388671875,-0.287445068359375,0.047271728515625
1772871597306984000,8.73898388671875,0.782867431640625,-0.2930145263671875,0.0800323486328125
1772871597316917000,8.7489169921875,0.646636962890625,-0.2774810791015625,0.1103668212890625
1772871597326850000,8.75885009765625,0.4128875732421875,-0.197357177734375,0.1212158203125
1772871597336782800,8.768782958984374,0.12615966796875,-0.0803375244140625,0.0998992919921875
1772871597346716000,8.7787158203125,-0.163726806640625,0.0412139892578125,0.0613861083984375
1772871597356649000,8.78864892578125,-0.363067626953125,0.121612548828125,-0.0166168212890625
1772871597366582000,8.79858203125,-0.383056640625,0.1531219482421875,-0.0931243896484375
1772871597376514800,8.808514892578126,-0.2809600830078125,0.13995361328125,-0.133087158203125
1772871597386449000,8.818448974609375,-0.1911163330078125,0.0994415283203125,-0.136322021484375
1772871597396382000,8.8283818359375,-0.13665771484375,0.0645751953125,-0.099029541015625
1772871597406314800,8.838314697265625,-0.132843017578125,0.0260772705078125,-0.0504302978515625
1772871597416247800,8.848247802734376,-0.1519317626953125,-0.02423095703125,-0.0006256103515625
1772871597426180900,8.858180908203124,-0.1727142333984375,-0.0737152099609375,0.044830322265625
1772871597436114000,8.868114013671875,-0.1622467041015625,-0.099761962890625,0.062286376953125
1772871597446046700,8.878046630859375,-0.1042633056640625,-0.116119384765625,0.0435638427734375
1772871597455979800,8.887979736328125,-0.06719970703125,-0.1128082275390625,0.017242431640625
1772871597465912800,8.897912841796876,-0.0558929443359375,-0.0728759765625,-0.0184478759765625
1772871597475846000,8.907845947265624,-0.065673828125,-0.0251312255859375,-0.069427490234375
1772871597485778700,8.91777880859375,-0.079803466796875,0.019561767578125,-0.1259765625
1772871597495711700,8.927711669921875,-0.1138153076171875,0.031768798828125,-0.1432647705078125
1772871597505644800,8.937644775390625,-0.1579437255859375,0.020294189453125,-0.12847900390625
1772871597515577900,8.947577880859376,-0.1777801513671875,0.0247344970703125,-0.096038818359375
1772871597525511700,8.95751171875,-0.1629638671875,0.021728515625,-0.0531463623046875
1772871597535445000,8.967445068359375,-0.1493377685546875,0.018768310546875,0.0156097412109375
1772871597545378000,8.9773779296875,-0.03759765625,0.19708251953125,0.01861572265625
1772871597555310800,8.987310791015625,0.116119384765625,0.3915863037109375,-0.0318450927734375
1772871597565244000,8.997243896484376,0.0826416015625,0.6375732421875,0.1761016845703125
1772871597575177000,9.007177001953124,-0.108856201171875,0.9446258544921875,0.466827392578125
1772871597585110000,9.017110107421875,-0.4656982421875,1.231781005859375,0.7284088134765625
1772871597595042800,9.027042724609375,-1.01513671875,1.6038970947265625,0.9013214111328125
1772871597604975900,9.036975830078125,-1.7311248779296875,1.8993072509765625,1.0305938720703125
1772871597614909000,9.046908935546876,-2.52008056640625,2.01409912109375,1.1387481689453125
1772871597624842000,9.056842041015624,-3.1390380859375,2.0242156982421875,1.262969970703125
1772871597634775000,9.066775146484375,-3.3213653564453125,1.8566131591796875,1.309539794921875
1772871597644707800,9.076707763671875,-3.063507080078125,1.5482025146484375,1.329254150390625
1772871597654641000,9.086640869140625,-2.528961181640625,1.3356170654296875,1.2852630615234375
1772871597664575000,9.096574951171876,-1.8656158447265625,1.24176025390625,1.051177978515625
1772871597674507800,9.1065078125,-1.3380279541015625,1.18096923828125,0.8397369384765625
1772871597684440800,9.11644091796875,-1.129547119140625,1.140716552734375,0.738861083984375
1772871597694374000,9.126373779296875,-1.207305908203125,1.15625,0.712738037109375
1772871597704307000,9.136306884765625,-1.4792022705078125,1.20648193359375,0.70050048828125
1772871597714239700,9.14623974609375,-1.8149261474609375,1.2823638916015625,0.6759185791015625
1772871597724172800,9.1561728515625,-2.1402587890625,1.3308258056640625,0.72882080078125
1772871597734105900,9.16610595703125,-2.3411102294921875,1.4250335693359375,0.8496246337890625
1772871597744039000,9.176038818359375,-2.35760498046875,1.55218505859375,0.8485260009765625
1772871597753971700,9.1859716796875,-2.255706787109375,1.639129638671875,0.6970672607421875
1772871597763904800,9.19590478515625,-2.0513458251953125,1.679840087890625,0.5227813720703125
1772871597773837800,9.205837890625,-1.7992401123046875,1.6076812744140625,0.4049072265625
1772871597783771000,9.21577099609375,-1.5794219970703125,1.4158935546875,0.3626708984375
1772871597793704700,9.22570458984375,-1.4616546630859375,1.1623077392578125,0.3704986572265625
1772871597803637800,9.2356376953125,-1.429046630859375,0.9389495849609375,0.3945770263671875
1772871597813571000,9.245571044921874,-1.389434814453125,0.797576904296875,0.37530517578125
1772871597823504000,9.25550390625,-1.2573089599609375,0.76007080078125,0.21923828125
1772871597833437000,9.26543701171875,-1.0417022705078125,0.7611846923828125,-0.0312042236328125
1772871597843370000,9.275369873046875,-0.7578582763671875,0.7545166015625,-0.287078857421875
1772871597853303000,9.285302978515626,-0.425933837890625,0.6785430908203125,-0.473785400390625
1772871597863235800,9.29523583984375,-0.0274658203125,0.5030517578125,-0.4745330810546875
1772871597873169000,9.3051689453125,0.4145050048828125,0.301025390625,-0.3663787841796875
1772871597883102000,9.31510205078125,0.81976318359375,0.0832061767578125,-0.25372314453125
1772871597893035000,9.325034912109375,1.092254638671875,-0.083404541015625,-0.1298370361328125
1772871597902967800,9.3349677734375,1.1549072265625,-0.170684814453125,-0.0157012939453125
1772871597912900900,9.34490087890625,1.008880615234375,-0.228271484375,0.1348419189453125
1772871597922834000,9.354833984375,0.75872802734375,-0.2528076171875,0.3576202392578125
1772871597932767700,9.364767822265625,0.4934234619140625,-0.235260009765625,0.5208587646484375
1772871597942700800,9.37470068359375,0.3172760009765625,-0.1305389404296875,0.557037353515625
1772871597952633900,9.3846337890625,0.1884613037109375,0.0121307373046875,0.4746246337890625
1772871597962567000,9.39456689453125,0.1027069091796875,0.13726806640625,0.328369140625
1772871597972500000,9.4045,0.033782958984375,0.2117767333984375,0.1803436279296875
1772871597982432800,9.414432861328125,-0.021240234375,0.2298736572265625,0.0651702880859375
1772871597992365800,9.42436572265625,-0.0612335205078125,0.190277099609375,0.0407257080078125
1772871598002299000,9.434298828125,-0.0680999755859375,0.0947723388671875,0.04931640625
1772871598012232000,9.44423193359375,-0.019561767578125,-0.0091552734375,0.0748291015625
1772871598022164700,9.454164794921875,0.00439453125,-0.074005126953125,0.106292724609375
1772871598032097800,9.464097900390625,-0.02545166015625,-0.1001129150390625,0.134490966796875
1772871598042030800,9.47403076171875,-0.0991668701171875,-0.078399658203125,0.127349853515625
1772871598051964000,9.4839638671875,-0.165496826171875,0.01141357421875,0.06182861328125
1772871598061897700,9.493897705078124,-0.2361602783203125,0.1076812744140625,-0.0555572509765625
1772871598071831600,9.50383154296875,-0.3011322021484375,0.1816864013671875,-0.1917724609375
1772871598081764400,9.513764404296875,-0.2934112548828125,0.2069091796875,-0.28729248046875
1772871598091697400,9.523697509765626,-0.232391357421875,0.174163818359375,-0.3162384033203125
1772871598101630500,9.53363037109375,-0.22674560546875,0.1039276123046875,-0.27862548828125
1772871598111563500,9.5435634765625,-0.2666473388671875,0.0193939208984375,-0.189208984375
1772871598121496300,9.553496337890625,-0.311767578125,-0.0678558349609375,-0.1043701171875
1772871598131429400,9.563429443359375,-0.3252716064453125,-0.1377410888671875,-0.04779052734375
1772871598141362400,9.573362548828126,-0.3334808349609375,-0.1747283935546875,0.0065155029296875
1772871598151295500,9.58329541015625,-0.39935302734375,-0.1784210205078125,0.056976318359375
1772871598161228500,9.593228515625,-0.5144500732421875,-0.209197998046875,0.171051025390625
1772871598171161300,9.603161376953125,-0.4898834228515625,-0.100555419921875,0.2373809814453125
1772871598181094400,9.613094482421875,-0.2745361328125,0.133148193359375,0.143768310546875
1772871598191028500,9.623028564453126,-0.2223052978515625,0.36279296875,0.128753662109375
1772871598200961300,9.632961181640624,-0.2901153564453125,0.7418670654296875,0.2151031494140625
1772871598210894300,9.642894287109375,-0.475555419921875,1.11944580078125,0.3729248046875
1772871598220827400,9.652827392578125,-0.822418212890625,1.45562744140625,0.53594970703125
1772871598230760400,9.662760498046875,-1.22625732421875,1.8245849609375,0.602294921875
1772871598240693200,9.672693359375,-1.6663818359375,2.0766143798828125,0.4899749755859375
1772871598250626300,9.682626220703124,-2.155975341796875,2.1895294189453125,0.4228668212890625
1772871598260559400,9.692559326171875,-2.6050262451171875,2.0970306396484375,0.6317291259765625
1772871598270492400,9.702492431640625,-2.9119110107421875,1.797760009765625,1.1735992431640625
1772871598280425200,9.71242529296875,-2.838531494140625,1.510833740234375,1.7208404541015625
1772871598290358300,9.722358154296876,-2.43670654296875,1.249664306640625,1.8606719970703125
1772871598300291300,9.732291259765624,-1.94720458984375,1.128173828125,1.779296875
1772871598310224400,9.742224365234375,-1.556060791015625,1.2080230712890625,1.516937255859375
1772871598320158200,9.752158203125,-1.319244384765625,1.35260009765625,1.1699676513671875
1772871598330091500,9.762091552734375,-1.2026824951171875,1.4959259033203125,0.8452911376953125
1772871598340024600,9.772024658203126,-1.2515411376953125,1.599456787109375,0.546417236328125
1772871598349957400,9.781957275390624,-1.4264678955078125,1.6077880859375,0.313446044921875
1772871598359890400,9.791890380859375,-1.659912109375,1.5148773193359375,0.256500244140625
1772871598369823500,9.801823486328125,-1.8871307373046875,1.3890533447265625,0.3954620361328125
1772871598379756500,9.811756591796875,-2.13299560546875,1.287200927734375,0.60577392578125
1772871598389689300,9.821689453125,-2.3125,1.2741851806640625,0.7574005126953125
1772871598399622400,9.831622314453124,-2.26727294921875,1.3651885986328125,0.76806640625
1772871598409555500,9.841555419921875,-2.0532989501953125,1.4849395751953125,0.6431732177734375
1772871598419488500,9.851488525390625,-1.840850830078125,1.5576019287109375,0.5278472900390625
1772871598429421300,9.86142138671875,-1.64501953125,1.5578155517578125,0.42755126953125
1772871598439354400,9.871354248046876,-1.4077606201171875,1.44744873046875,0.33001708984375
1772871598449288400,9.881288330078124,-1.1139678955078125,1.2599029541015625,0.279632568359375
1772871598459221200,9.89122119140625,-0.7945556640625,1.0460357666015625,0.2092437744140625
1772871598469154300,9.901154296875,-0.4671630859375,0.8189544677734375,0.1239776611328125
1772871598479087400,9.91108740234375,-0.137603759765625,0.5975341796875,0.069091796875
1772871598489020400,9.9210205078125,0.1091461181640625,0.336944580078125,0.026763916015625
1772871598498953200,9.930953125,0.368194580078125,0.02398681640625,0.03076171875
1772871598508886300,9.94088623046875,0.6734619140625,-0.2744293212890625,0.1379547119140625
1772871598518819300,9.9508193359375,0.91131591796875,-0.4810333251953125,0.2626800537109375
1772871598528752400,9.96075244140625,0.959564208984375,-0.55523681640625,0.317657470703125
1772871598538685400,9.970685546875,0.8743743896484375,-0.49114990234375,0.240570068359375
1772871598548618200,9.9806181640625,0.7154693603515625,-0.324859619140625,0.068756103515625
1772871598558551300,9.99055126953125,0.54241943359375,-0.1046142578125,-0.1008758544921875
1772871598568484400,10.000484375,0.3141632080078125,0.1101531982421875,-0.2241973876953125
1772871598578418200,10.010418212890626,0.0035858154296875,0.2593994140625,-0.2626190185546875
1772871598588351200,10.020351318359374,-0.2783050537109375,0.3265380859375,-0.205108642578125
1772871598598284300,10.0302841796875,-0.4800567626953125,0.37298583984375,-0.0826263427734375
1772871598608217600,10.040217529296875,-0.600006103515625,0.3680267333984375,-0.003021240234375
1772871598618150400,10.050150390625,-0.5622100830078125,0.312469482421875,0.0344696044921875
1772871598628083500,10.06008349609375,-0.425048828125,0.2076416015625,0.0587158203125
1772871598638016500,10.0700166015625,-0.25762939453125,0.066741943359375,0.0906982421875
1772871598647949600,10.079949462890625,-0.0997467041015625,-0.0789947509765625,0.1680908203125
1772871598657882400,10.08988232421875,0.00091552734375,-0.2029571533203125,0.249755859375
1772871598667815400,10.0998154296875,0.0812530517578125,-0.291778564453125,0.328704833984375
1772871598677748500,10.10974853515625,0.1450347900390625,-0.3381805419921875,0.3801422119140625
1772871598687681500,10.119681640625,0.1263885498046875,-0.312469482421875,0.363128662109375
1772871598697614300,10.1296142578125,0.034210205078125,-0.2331085205078125,0.29168701171875
1772871598707548400,10.13954833984375,-0.03387451171875,-0.14031982421875,0.1682281494140625
1772871598717481500,10.1494814453125,-0.05908203125,-0.061767578125,0.0303955078125
1772871598727414300,10.159414306640626,-0.0564727783203125,0.0111846923828125,-0.0841217041015625
1772871598737347300,10.169347412109374,-0.0762939453125,0.07525634765625,-0.216094970703125
1772871598747280400,10.1792802734375,-0.0868988037109375,0.1326446533203125,-0.3204193115234375
1772871598757213400,10.18921337890625,-0.099212646484375,0.1822967529296875,-0.3623504638671875
1772871598767146200,10.199146240234375,-0.1369781494140625,0.2335052490234375,-0.3602294921875
1772871598777079300,10.209079345703126,-0.192718505859375,0.255157470703125,-0.3109283447265625
1772871598787012400,10.219012451171874,-0.25787353515625,0.24786376953125,-0.22491455078125
1772871598796945400,10.2289453125,-0.36627197265625,0.1965789794921875,-0.1183013916015625
1772871598806878200,10.238878173828125,-0.457305908203125,0.168304443359375,0.019989013671875
1772871598816811300,10.248811279296875,-0.266693115234375,0.3343658447265625,-0.0397186279296875
1772871598826744300,10.258744384765626,-0.07489013671875,0.4412994384765625,0.0836181640625
1772871598836677400,10.268677490234374,-0.2137908935546875,0.596710205078125,0.48956298828125
1772871598846611200,10.278611083984375,-0.641937255859375,0.756805419921875,0.9369964599609375
1772871598856544300,10.288544189453125,-1.26837158203125,1.002197265625,1.229034423828125
1772871598866477300,10.298477294921875,-1.800689697265625,1.3998870849609375,1.21380615234375
1772871598876410400,10.308410400390626,-2.2136383056640625,1.795989990234375,0.9168701171875
1772871598886343200,10.31834326171875,-2.421356201171875,2.1471405029296875,0.5149383544921875
1772871598896276500,10.3282763671875,-2.4255828857421875,2.2509002685546875,0.17041015625
1772871598906209500,10.33820947265625,-2.327056884765625,2.1060638427734375,0.02362060546875
1772871598916142300,10.348142333984375,-2.058135986328125,1.898651123046875,0.0905914306640625
1772871598926075400,10.358075439453126,-1.7985687255859375,1.5303497314453125,0.348724365234375
1772871598936008400,10.368008544921874,-1.7285614013671875,1.0816192626953125,0.7840576171875
1772871598945941500,10.37794140625,-1.894989013671875,0.7187652587890625,1.2387542724609375
1772871598955874600,10.38787451171875,-2.1006622314453125,0.59613037109375,1.4583740234375
1772871598965807400,10.397807373046875,-2.0323486328125,0.6880645751953125,1.2892913818359375
1772871598975741400,10.407741455078124,-1.6835174560546875,0.8282012939453125,0.8393402099609375
1772871598985674500,10.417674560546875,-1.35906982421875,0.98486328125,0.3156585693359375
1772871598995607300,10.427607177734375,-1.1981353759765625,1.0956878662109375,-0.1313018798828125
1772871599005540400,10.437540283203125,-1.15765380859375,1.148956298828125,-0.3712310791015625
1772871599015473400,10.447473388671876,-1.1924591064453125,1.1290435791015625,-0.4218597412109375
1772871599025406500,10.457406494140624,-1.2190093994140625,1.0384063720703125,-0.3699951171875
1772871599035339300,10.46733935546875,-1.2208099365234375,0.9373779296875,-0.253814697265625
1772871599045272300,10.477272216796875,-1.236236572265625,0.82794189453125,-0.0951995849609375
1772871599055205400,10.487205322265625,-1.2766571044921875,0.7490081787109375,0.063995361328125
1772871599065138000,10.497137939453125,-1.314666748046875,0.67596435546875,0.19525146484375
1772871599075071000,10.507071044921876,-1.3073272705078125,0.620849609375,0.223541259765625
1772871599085003800,10.517003662109374,-1.243804931640625,0.601104736328125,0.1607208251953125
1772871599094936800,10.526936767578125,-1.131591796875,0.5818023681640625,0.062255859375
1772871599104870000,10.536869873046875,-0.99365234375,0.5507354736328125,0.01263427734375
1772871599114803000,10.546802978515625,-0.9646759033203125,0.542205810546875,-0.002716064453125
1772871599124736800,10.55673681640625,-0.9945526123046875,0.498443603515625,0.0044708251953125
1772871599134669800,10.566669921875,-0.9447174072265625,0.45465087890625,0.0467376708984375
1772871599144603000,10.576602783203125,-0.8466796875,0.3801116943359375,0.1132354736328125
1772871599154535700,10.58653564453125,-0.703765869140625,0.298431396484375,0.158416748046875
1772871599164468700,10.59646875,-0.5589447021484375,0.2366485595703125,0.19561767578125
1772871599174401800,10.60640185546875,-0.4148406982421875,0.1909027099609375,0.243927001953125
1772871599184334800,10.6163349609375,-0.344451904296875,0.1563568115234375,0.2689208984375
1772871599194267600,10.626267578125,-0.2984161376953125,0.1737060546875,0.2345733642578125
1772871599204200700,10.63620068359375,-0.26873779296875,0.224273681640625,0.2012176513671875
1772871599214134000,10.646134033203126,-0.2684478759765625,0.2442474365234375,0.1605072021484375
1772871599224067000,10.656067138671874,-0.2696685791015625,0.252349853515625,0.1757965087890625
1772871599234000000,10.665999755859374,-0.2560882568359375,0.240814208984375,0.2091064453125
1772871599243933000,10.675932861328125,-0.249664306640625,0.2338714599609375,0.2082366943359375
1772871599253867000,10.685866943359375,-0.2707977294921875,0.2356414794921875,0.2136993408203125
1772871599263799800,10.6957998046875,-0.3303070068359375,0.2666473388671875,0.224884033203125
1772871599273732900,10.70573291015625,-0.44683837890625,0.3166351318359375,0.280609130859375
1772871599283666000,10.715666015625,-0.71484375,0.3529815673828125,0.672393798828125
1772871599293599000,10.725598876953125,-0.6555023193359375,0.2763671875,0.5702667236328125
1772871599303531800,10.73553173828125,-0.391357421875,0.32177734375,0.481903076171875
1772871599313464800,10.74546484375,-0.367523193359375,0.346771240234375,0.4720916748046875
1772871599323398000,10.75539794921875,-0.3353424072265625,0.3976593017578125,0.3477783203125
1772871599333331000,10.7653310546875,-0.410003662109375,0.498626708984375,0.2144775390625
1772871599343263700,10.775263671875,-0.606048583984375,0.6112213134765625,0.099822998046875
1772871599353196800,10.78519677734375,-0.810333251953125,0.711639404296875,-0.027099609375
1772871599363129900,10.7951298828125,-1.0941162109375,0.76739501953125,-0.1084442138671875
1772871599373063000,10.80506298828125,-1.3253936767578125,0.7755126953125,-0.1536712646484375
1772871599382996000,10.814995849609375,-1.423187255859375,0.7069854736328125,-0.0854339599609375
1772871599392928800,10.8249287109375,-1.3120880126953125,0.5884552001953125,0.083160400390625
1772871599402862800,10.83486279296875,-1.1142730712890625,0.381988525390625,0.2684783935546875
1772871599412796000,10.8447958984375,-0.876800537109375,0.1678466796875,0.356536865234375
1772871599422728700,10.854728759765624,-0.6545867919921875,0.09283447265625,0.3079071044921875
1772871599432661800,10.864661865234375,-0.523284912109375,0.1189727783203125,0.1713409423828125
1772871599442594800,10.8745947265625,-0.4827728271484375,0.160308837890625,0.095916748046875
1772871599452527900,10.88452783203125,-0.5347900390625,0.1910858154296875,0.07403564453125
1772871599462460700,10.894460693359376,-0.6208648681640625,0.23809814453125,0.0374298095703125
1772871599472393700,10.904393798828124,-0.721588134765625,0.2677459716796875,0.00518798828125
1772871599482326800,10.914326904296875,-0.8474578857421875,0.276611328125,0.0194549560546875
1772871599492259800,10.924259765625,-0.920196533203125,0.2776031494140625,0.0619659423828125
1772871599502193000,10.93419287109375,-0.9022064208984375,0.273956298828125,0.0800018310546875
1772871599512126000,10.9441259765625,-0.8931427001953125,0.271728515625,0.097412109375
1772871599522059000,10.95405908203125,-0.932281494140625,0.27349853515625,0.1566009521484375
1772871599531992000,10.963991943359375,-1.018341064453125,0.2987518310546875,0.2412872314453125
1772871599541924900,10.9739248046875,-1.11798095703125,0.3319091796875,0.3080291748046875
1772871599551859000,10.98385888671875,-1.1796417236328125,0.36480712890625,0.3639984130859375
1772871599561792000,10.9937919921875,-1.1950531005859375,0.3754730224609375,0.3813018798828125
1772871599571724800,11.003724853515624,-1.151336669921875,0.3956451416015625,0.3241424560546875
1772871599581657900,11.013657958984375,-1.0661163330078125,0.417510986328125,0.22991943359375
1772871599591591000,11.0235908203125,-0.9727783203125,0.425537109375,0.1602783203125
1772871599601524000,11.03352392578125,-0.8874969482421875,0.41571044921875,0.140411376953125
1772871599611456800,11.043456787109376,-0.8240966796875,0.373321533203125,0.1710052490234375
1772871599621389800,11.053389892578124,-0.7844085693359375,0.3267364501953125,0.2137298583984375
1772871599631323000,11.063322998046875,-0.7766876220703125,0.3006134033203125,0.227081298828125
1772871599641256000,11.073255859375,-0.807281494140625,0.30401611328125,0.208709716796875
1772871599651188700,11.083188720703125,-0.8605499267578125,0.3287200927734375,0.201812744140625
1772871599661121800,11.093121826171876,-0.903839111328125,0.337921142578125,0.2084808349609375
1772871599671054800,11.103054931640624,-0.9291534423828125,0.353424072265625,0.2028656005859375
1772871599680988000,11.11298779296875,-0.9471435546875,0.3739471435546875,0.1775970458984375
1772871599690920700,11.122920654296875,-0.946380615234375,0.391571044921875,0.1551971435546875
1772871599700853800,11.132853759765625,-0.939788818359375,0.4011688232421875,0.1360931396484375
1772871599710787800,11.142787841796874,-0.9241943359375,0.394989013671875,0.12744140625
1772871599720720600,11.152720703125,-0.9174346923828125,0.376190185546875,0.1337127685546875
1772871599730653700,11.16265380859375,-0.92242431640625,0.3570404052734375,0.131317138671875
1772871599740586800,11.172586669921875,-0.8968048095703125,0.3605499267578125,0.1368865966796875
1772871599750519800,11.182519775390626,-0.9007720947265625,0.3273773193359375,0.15789794921875
1772871599760452900,11.192452880859374,-0.952239990234375,0.3245086669921875,0.1865386962890625
1772871599770385700,11.2023857421875,-1.0175628662109375,0.3332672119140625,0.186492919921875
1772871599780319000,11.212319091796875,-1.02288818359375,0.3640289306640625,0.161163330078125
1772871599790252000,11.222251953125,-0.97705078125,0.36865234375,0.13983154296875
1772871599800185000,11.23218505859375,-0.9198455810546875,0.3594818115234375,0.1324615478515625
1772871599810118000,11.242117919921874,-0.8906402587890625,0.3650970458984375,0.146759033203125
