time,seconds_elapsed,z,y,x
1772871588625470000,0.057469970703125,-0.02220037765800953,-0.14909334480762482,-0.1473817378282547
1772871588635403000,0.067403076171875,-0.07176846265792847,-0.23032721877098083,-0.24041339755058289
1772871588645335800,0.077335693359375,-0.11014008522033691,-0.2755295932292938,-0.2986375689506531
1772871588655268900,0.087268798828125,-0.11994664371013641,-0.2483658641576767,-0.29064568877220154
1772871588665202000,0.097201904296875,-0.10415542870759964,-0.15179485082626343,-0.20277974009513855
1772871588675136000,0.107135986328125,-0.08738257735967636,-0.04850122332572937,-0.09411584585905075
1772871588685069000,0.117069091796875,-0.1150221899151802,-0.019301259890198708,-0.014697985723614693
1772871588695002000,0.127002197265625,-0.16578523814678192,-0.07225049287080765,0.0057380469515919685
1772871588704935200,0.13693505859375,-0.20606102049350739,-0.1604842096567154,-0.07211919873952866
1772871588714868000,0.146867919921875,-0.22099709510803223,-0.2978002727031708,-0.18883676826953888
1772871588724801000,0.156801025390625,-0.2234400063753128,-0.35865694284439087,-0.29495468735694885
1772871588734734000,0.166734130859375,-0.23392914235591888,-0.37982481718063354,-0.3728579878807068
1772871588744667100,0.176667236328125,-0.24011112749576569,-0.26525482535362244,-0.38259372115135193
1772871588754600000,0.186599853515625,-0.21276499330997467,-0.06403064727783203,-0.3182480037212372
1772871588764534000,0.196533935546875,-0.1360718160867691,0.1692659854888916,-0.22551940381526947
1772871588774467000,0.206467041015625,-0.044010333716869354,0.3347819745540619,-0.12560239434242249
1772871588784400000,0.21639990234375,0.044410340487957,0.34410998225212097,-0.12015224248170853
1772871588794333000,0.2263330078125,0.10046935081481934,0.1811191886663437,-0.24882499873638153
1772871588804266000,0.236265869140625,0.09817823022603989,-0.09652654081583023,-0.4651208221912384
1772871588814199000,0.246198974609375,0.09023269265890121,-0.3411538600921631,-0.7307996153831482
1772871588824131800,0.2561318359375,0.10258016735315323,-0.5464106202125549,-1.0688213109970093
1772871588834065000,0.26606494140625,0.17121516168117523,-0.6579800248146057,-1.3225289583206177
1772871588843998000,0.275998046875,0.2608342468738556,-0.6690057516098022,-1.3573790788650513
1772871588853931000,0.285930908203125,0.35323742032051086,-0.5230631828308105,-1.1990715265274048
1772871588863864800,0.29586474609375,0.43402522802352905,-0.23918648064136505,-0.9504161477088928
1772871588873798000,0.3057978515625,0.4774104952812195,-0.1145436242222786,-0.7327114939689636
1772871588883731000,0.31573095703125,0.4683248698711395,-0.4177335798740387,-0.723415195941925
1772871588893664000,0.3256640625,0.3924380838871002,-0.7230769991874695,-0.8949805498123169
1772871588903596800,0.3355966796875,0.34795236587524414,-0.8110888600349426,-0.823087215423584
1772871588913529900,0.34552978515625,0.3464181423187256,-0.5848813056945801,-0.47214728593826294
1772871588923463000,0.355462890625,0.344074010848999,-0.2565958499908447,-0.18405425548553467
1772871588933396200,0.365396240234375,0.3191521465778351,-0.029219670221209526,-0.10259934514760971
1772871588943329000,0.3753291015625,0.2613522410392761,0.07367128878831863,-0.13846120238304138
1772871588953263000,0.38526318359375,0.16278225183486938,0.11481180042028427,-0.23669776320457458
1772871588963196200,0.395196044921875,-0.032110266387462616,0.003712446428835392,-0.41581931710243225
1772871588973129000,0.40512890625,-0.4354441463947296,-0.5313283205032349,-0.7994258403778076
1772871588983062000,0.41506201171875,-0.6195516586303711,-0.4558570086956024,-0.8015217185020447
1772871588992995000,0.4249951171875,-0.835936963558197,-0.16797569394111633,-0.6583936214447021
1772871589002928000,0.43492822265625,-1.0462124347686768,0.3102702498435974,-0.41245466470718384
1772871589012861000,0.44486083984375,-1.1725852489471436,0.8913128972053528,-0.31531932950019836
1772871589022794000,0.4547939453125,-1.173885464668274,1.4456663131713867,-0.37683701515197754
1772871589032727000,0.46472705078125,-1.0398706197738647,1.767567753791809,-0.5797821283340454
1772871589042660000,0.47466015625,-0.8087186813354492,1.7653477191925049,-0.8817140460014343
1772871589052593700,0.48459375,-0.48926955461502075,1.3987553119659424,-1.0974788665771484
1772871589062526700,0.494526611328125,-0.11713061481714249,0.672160804271698,-1.0414472818374634
1772871589072459800,0.504459716796875,0.21683324873447418,-0.12714916467666626,-0.8866347670555115
1772871589082392600,0.514392578125,0.48612597584724426,-0.6890125274658203,-0.8196882009506226
1772871589092325600,0.52432568359375,0.6533793807029724,-0.8780418038368225,-0.7548364996910095
1772871589102258700,0.5342587890625,0.6623311042785645,-0.7583010196685791,-0.5768377780914307
1772871589112191700,0.544191650390625,0.5974069237709045,-0.3526459336280823,-0.3546254634857178
1772871589122124500,0.55412451171875,0.4954267740249634,0.12566737830638885,-0.1481143683195114
1772871589132057600,0.5640576171875,0.3046078383922577,0.42358508706092834,0.017118798568844795
1772871589141991700,0.57399169921875,0.09419654309749603,0.49013587832450867,0.08928406983613968
1772871589151924700,0.5839248046875,-0.09076612442731857,0.360886812210083,0.09008169174194336
1772871589161857500,0.593857421875,-0.24324940145015717,0.09773721545934677,0.10848759114742279
1772871589171790600,0.60379052734375,-0.3108406960964203,-0.2710783779621124,0.12687937915325165
1772871589181723600,0.6137236328125,-0.24859729409217834,-0.5965963006019592,0.07869374752044678
1772871589191656700,0.62365673828125,-0.08823558688163757,-0.7511680126190186,-0.009334912523627281
1772871589201589500,0.633589599609375,0.1194145455956459,-0.6716513633728027,-0.11619850993156433
1772871589211522600,0.6435224609375,0.3217247724533081,-0.4071113169193268,-0.18689079582691193
1772871589221455600,0.65345556640625,0.4677852988243103,-0.07007043063640594,-0.23800617456436157
1772871589231389700,0.6633896484375,0.5634151697158813,0.2400466799736023,-0.36059415340423584
1772871589241322800,0.67332275390625,0.669687032699585,0.33323147892951965,-0.5299570560455322
1772871589251255800,0.683255859375,0.7315407991409302,0.08078832179307938,-0.6504557728767395
1772871589261188900,0.69318896484375,0.761601984500885,-0.3422611951828003,-0.7396631836891174
1772871589271121700,0.70312158203125,0.8508937954902649,-0.7125958800315857,-0.8335097432136536
1772871589281054700,0.7130546875,1.000760793685913,-0.9355136156082153,-0.8660669326782227
1772871589290987800,0.72298779296875,1.067474365234375,-0.9661016464233398,-0.6881677508354187
1772871589300920800,0.7329208984375,1.0002087354660034,-0.7844452857971191,-0.277464359998703
1772871589310853600,0.742853515625,0.8114033937454224,-0.4633077383041382,0.21779091656208038
1772871589320786700,0.75278662109375,0.5427636504173279,-0.08998528122901917,0.6424740552902222
1772871589330720800,0.762720703125,0.24504011869430542,0.1656651347875595,0.9918301701545715
1772871589340653600,0.772653564453125,-0.049558497965335846,0.2294241338968277,1.212899923324585
1772871589350586600,0.782586669921875,-0.3451280891895294,0.120669424533844,1.3156747817993164
1772871589360519700,0.792519775390625,-0.6386116147041321,0.04343482479453087,1.437178373336792
1772871589370452700,0.80245263671875,-0.994044303894043,0.026942135766148567,1.6303586959838867
1772871589380385500,0.812385498046875,-1.1763962507247925,0.08077367395162582,1.7181764841079712
1772871589390318600,0.822318603515625,-1.2621606588363647,-0.004033890087157488,1.816386342048645
1772871589400251600,0.832251708984375,-1.3577519655227661,-0.22953572869300842,1.776499629020691
1772871589410184700,0.842184814453125,-1.3973374366760254,-0.46535465121269226,1.5037728548049927
1772871589420117500,0.852117431640625,-1.2773317098617554,-0.6110047698020935,1.1991761922836304
1772871589430051600,0.862051513671875,-1.027592658996582,-0.5903804898262024,0.9251187443733215
1772871589439984600,0.871984619140625,-0.7144923210144043,-0.43256181478500366,0.6316109895706177
1772871589449917400,0.88191748046875,-0.41214069724082947,-0.16538256406784058,0.26464125514030457
1772871589459850500,0.8918505859375,-0.11699825525283813,0.102241151034832,-0.17696572840213776
1772871589469783600,0.901783447265625,0.12701120972633362,0.2682548761367798,-0.5455429553985596
1772871589479716600,0.911716552734375,0.25723952054977417,0.38994643092155457,-0.7451756596565247
1772871589489649400,0.9216494140625,0.24443930387496948,0.4585827589035034,-0.46311384439468384
1772871589499582700,0.931582763671875,0.25106632709503174,0.3381689786911011,-0.4070548415184021
1772871589509515800,0.941515869140625,0.34228622913360596,0.26655739545822144,-0.3271978199481964
1772871589519448800,0.95144873046875,0.3711354732513428,0.13733361661434174,-0.2021741420030594
1772871589529382700,0.961382568359375,0.34966373443603516,0.05757514387369156,-0.07781543582677841
1772871589539315700,0.971315673828125,0.32845085859298706,0.01805250346660614,0.0341917909681797
1772871589549248800,0.981248779296875,0.3078102767467499,0.007962319068610668,0.1499820351600647
1772871589559181600,0.991181640625,0.2840961813926697,0.10114099830389023,0.27373406291007996
1772871589569114600,1.001114501953125,0.26538321375846863,0.22950562834739685,0.3810405731201172
1772871589579047700,1.011047607421875,0.21070876717567444,0.30344828963279724,0.4570296108722687
1772871589588980700,1.020980712890625,0.10572376847267151,0.3269943594932556,0.4807855188846588
1772871589598913800,1.030913818359375,-0.0211806520819664,0.31622961163520813,0.46082326769828796
1772871589608846600,1.0408466796875,-0.1061520054936409,0.3217484652996063,0.3666805326938629
1772871589618779600,1.050779541015625,-0.13794241845607758,0.27522093057632446,0.24866147339344025
1772871589628713700,1.060713623046875,-0.12479519844055176,0.19180192053318024,0.20949196815490723
1772871589638646500,1.070646484375,-0.115447498857975,0.07201027870178223,0.29748520255088806
1772871589648579600,1.08057958984375,-0.060802362859249115,-0.09605968743562698,0.4167724549770355
1772871589658512600,1.0905126953125,-0.0295493695884943,-0.12409424781799316,0.22013716399669647
1772871589668445700,1.10044580078125,0.010219347663223743,-0.14500485360622406,-0.25807681679725647
1772871589678378500,1.11037841796875,0.17267803847789764,-0.22639665007591248,-0.829071581363678
1772871589688311600,1.1203115234375,0.5207774043083191,-0.28991517424583435,-1.5311436653137207
1772871589698244600,1.13024462890625,0.9527256488800049,-0.27534928917884827,-2.2096030712127686
1772871589708177700,1.140177734375,1.2171401977539062,0.013364274986088276,-2.4913113117218018
1772871589718111700,1.15011181640625,1.1342171430587769,0.4400538206100464,-2.198193311691284
1772871589728044800,1.160044921875,0.6953604221343994,0.7035227417945862,-1.3178306818008423
1772871589737977900,1.169977783203125,0.18144382536411285,0.6754332780838013,0.06706851720809937
1772871589747910700,1.17991064453125,-0.07675176858901978,0.5143179297447205,1.2859374284744263
1772871589757843700,1.18984375,0.005659749731421471,0.40528303384780884,1.7575217485427856
1772871589767776800,1.19977685546875,0.26036447286605835,0.2248149961233139,1.615397334098816
1772871589777709800,1.209709716796875,0.5403527021408081,0.03230813890695572,1.0175226926803589
1772871589787642600,1.219642578125,0.759121298789978,-0.13712961971759796,0.14893968403339386
1772871589797575700,1.22957568359375,0.8920082449913025,-0.16099953651428223,-0.6661154627799988
1772871589807508700,1.2395087890625,0.968342125415802,-0.11502805352210999,-1.2569960355758667
1772871589817442600,1.249442626953125,1.030190110206604,-0.06779369711875916,-1.5002208948135376
1772871589827375600,1.259375732421875,1.0741345882415771,0.04380447044968605,-1.2965458631515503
1772871589837308700,1.26930859375,1.0094085931777954,0.08491435647010803,-0.7348774671554565
1772871589847241700,1.27924169921875,0.8663803339004517,0.09380878508090973,-0.10333437472581863
1772871589857174500,1.289174560546875,0.7139785885810852,0.18092690408229828,0.4429987370967865
1772871589867107600,1.299107666015625,0.6013505458831787,0.272266685962677,0.8960764408111572
1772871589877040600,1.30904052734375,0.5322859883308411,0.28530338406562805,1.1581922769546509
1772871589886973700,1.3189736328125,0.5353710055351257,0.19372792541980743,1.0807839632034302
1772871589896906500,1.328906494140625,0.5893452763557434,0.10229281336069107,0.618816077709198
1772871589906839600,1.338839599609375,0.6716798543930054,0.11066579073667526,0.016761936247348785
1772871589916773600,1.348773681640625,0.6569469571113586,0.27789339423179626,-0.4170214533805847
1772871589926706400,1.35870654296875,0.5032436847686768,0.4792097210884094,-0.5099146366119385
1772871589936639500,1.368639404296875,0.23589028418064117,0.6323646903038025,-0.2830471396446228
1772871589946572500,1.378572509765625,-0.10776294767856598,0.6956338882446289,0.17012059688568115
1772871589956505600,1.388505615234375,-0.48912522196769714,0.7123550772666931,0.7105603814125061
1772871589966438700,1.398438720703125,-0.7827547192573547,0.7009384036064148,1.180010437965393
1772871589976371700,1.408371826171875,-0.9505900144577026,0.569052517414093,1.5449106693267822
1772871589986304800,1.4183046875,-0.9531996846199036,0.3763374090194702,1.78798246383667
1772871589996237800,1.42823779296875,-0.7495070099830627,0.31230464577674866,1.8034511804580688
1772871590006170600,1.438170654296875,-0.45178237557411194,0.38188639283180237,1.5189498662948608
1772871590016104700,1.448104736328125,-0.1927255094051361,0.4519844949245453,0.9818840622901917
1772871590026037800,1.458037841796875,-0.03503095358610153,0.39574944972991943,0.299843430519104
1772871590035970600,1.467970458984375,0.04231896251440048,0.17059756815433502,-0.3671678900718689
1772871590045903600,1.477903564453125,0.09272833913564682,-0.0568678081035614,-0.8476303815841675
1772871590055837200,1.487837158203125,0.09427430480718613,-0.23255467414855957,-1.0141056776046753
1772871590065770200,1.497770263671875,0.05330876260995865,-0.2908310294151306,-0.8951243758201599
1772871590075703000,1.507703125,0.000075101139373146,-0.25864672660827637,-0.6080878376960754
1772871590085636000,1.517635986328125,-0.023906132206320763,-0.24066081643104553,-0.3037167489528656
1772871590095569200,1.527569091796875,-0.05155240744352341,-0.2462952584028244,-0.0689268708229065
1772871590105502200,1.537502197265625,-0.08235985040664673,-0.2799754738807678,0.08676791936159134
1772871590115435000,1.54743505859375,-0.08770854771137238,-0.26485028862953186,0.16097795963287354
1772871590125369000,1.557369140625,-0.054971907287836075,-0.16792269051074982,0.16132764518260956
1772871590135302100,1.56730224609375,-0.011641742661595345,-0.08911922574043274,0.11302695423364639
1772871590145235000,1.57723486328125,0.006494917441159487,-0.030845263972878456,0.0949813723564148
1772871590155168000,1.58716796875,0.06541069597005844,-0.003991013392806053,0.17616410553455353
1772871590165101000,1.59710107421875,0.15340952575206757,0.0191382747143507,0.3302042782306671
1772871590175034000,1.6070341796875,0.22291670739650726,0.02690565027296543,0.509050726890564
1772871590184967200,1.61696728515625,0.18874488770961761,0.011033476330339909,0.7173352241516113
1772871590194900000,1.62689990234375,0.050809118896722794,0.06001140549778938,0.8832868933677673
1772871590204833000,1.6368330078125,-0.11978232860565186,0.2171509563922882,0.8269368410110474
1772871590214766000,1.64676611328125,-0.313480943441391,0.3939156234264374,0.5341331958770752
1772871590224699100,1.65669921875,-0.4696473777294159,0.42861366271972656,0.03981931880116463
1772871590234633200,1.66663330078125,-0.4330875277519226,0.32422176003456116,-0.6124476790428162
1772871590244566300,1.676566162109375,-0.18965302407741547,0.3152271807193756,-1.3454880714416504
1772871590254499000,1.6864990234375,0.12150885164737701,0.445462703704834,-2.099675178527832
1772871590264432000,1.69643212890625,0.465009480714798,0.5948982238769531,-2.48047137260437
1772871590274365200,1.706365234375,0.8016455769538879,0.6499042510986328,-2.1147043704986572
1772871590284298200,1.71629833984375,0.8846129179000854,0.45949408411979675,-0.978280782699585
1772871590294231300,1.726231201171875,0.5820426344871521,0.32400283217430115,0.5205012559890747
1772871590304164000,1.7361640625,0.04102253541350365,0.28612709045410156,1.6769254207611084
1772871590314097200,1.74609716796875,-0.40331098437309265,0.05909581109881401,2.117901563644409
1772871590324030200,1.7560302734375,-0.6239205598831177,-0.48917528986930847,1.9311566352844238
1772871590333964000,1.765964111328125,-0.6237043142318726,-1.1072132587432861,1.232831597328186
1772871590343897000,1.77589697265625,-0.35664013028144836,-1.6185367107391357,0.23420077562332153
1772871590353830100,1.785830078125,0.1905348002910614,-1.889073371887207,-0.7721604108810425
1772871590363763200,1.79576318359375,0.8823649287223816,-1.97029709815979,-1.4716657400131226
1772871590373696000,1.805696044921875,1.4697381258010864,-1.8154329061508179,-1.8673584461212158
1772871590383629000,1.815629150390625,1.7524946928024292,-1.46027672290802,-1.9012168645858765
1772871590393562000,1.82556201171875,1.5603750944137573,-1.2348531484603882,-1.5431050062179565
1772871590403495200,1.8354951171875,1.0401479005813599,-1.235011339187622,-1.0003325939178467
1772871590413428000,1.845427978515625,0.519512414932251,-1.4680595397949219,-0.5415740609169006
1772871590423361000,1.855361083984375,0.13309626281261444,-1.6758537292480469,-0.25932955741882324
1772871590433294000,1.865294189453125,-0.11944703757762909,-1.5481735467910767,0.004855741746723652
1772871590443228000,1.875227783203125,-0.187801331281662,-1.072117805480957,0.377769410610199
1772871590453161000,1.885160888671875,-0.14066417515277863,-0.31060901284217834,0.8864885568618774
1772871590463094000,1.895093994140625,-0.04214132949709892,0.6592460870742798,1.4067482948303223
1772871590473027000,1.905027099609375,0.013378389179706573,1.5697720050811768,1.8000845909118652
1772871590482960100,1.914960205078125,-0.13743269443511963,2.094625473022461,2.002199172973633
1772871590492893200,1.92489306640625,-0.4991946220397949,2.1165354251861572,2.0203566551208496
1772871590502826200,1.934826171875,-0.9693554639816284,1.6540120840072632,1.8908896446228027
1772871590512759300,1.94475927734375,-1.3709516525268555,0.920365035533905,1.633936882019043
1772871590522692000,1.954692138671875,-1.6209475994110107,0.25589996576309204,1.3262521028518677
1772871590532625200,1.964625244140625,-1.7220369577407837,-0.18134449422359467,1.08652925491333
1772871590542559200,1.974559326171875,-1.6493449211120605,-0.2070288211107254,0.9649285078048706
1772871590552492000,1.984491943359375,-1.4050142765045166,0.08325733989477158,0.9739859104156494
1772871590562425000,1.994425048828125,-1.0893319845199585,0.4915159344673157,1.0134248733520508
1772871590572358100,2.004358154296875,-0.8502227067947388,0.8685657382011414,0.9487383365631104
1772871590582291200,2.014291259765625,-0.7386974692344666,1.0468300580978394,0.6760135889053345
1772871590592224000,2.02422412109375,-0.6525053381919861,0.9769366979598999,0.18709026277065277
1772871590602157000,2.034156982421875,-0.6038390398025513,0.6896881461143494,-0.35328295826911926
1772871590612090000,2.044090087890625,-0.5748872756958008,0.2877553403377533,-0.7892533540725708
1772871590622023200,2.054023193359375,-0.48702505230903625,-0.0790277048945427,-1.080114722251892
1772871590631956200,2.063956298828125,-0.33578068017959595,-0.3428494930267334,-1.2245155572891235
1772871590641889000,2.073888916015625,-0.17234647274017334,-0.5303325653076172,-1.215873122215271
1772871590651823000,2.083822998046875,-0.012405270710587502,-0.6737706661224365,-1.0950934886932373
1772871590661756200,2.093756103515625,0.1315913200378418,-0.7031565308570862,-0.8595719933509827
1772871590671689000,2.10368896484375,0.2619647681713104,-0.5729591250419617,-0.5388200879096985
1772871590681622000,2.1136220703125,0.3609512746334076,-0.3275882601737976,-0.2114238291978836
1772871590691555000,2.12355517578125,0.3948429226875305,-0.061163488775491714,0.09575209021568298
1772871590701488000,2.133488037109375,0.32337087392807007,0.056228119879961014,0.3339305818080902
1772871590711421000,2.1434208984375,0.19283096492290497,0.1366228312253952,0.46795761585235596
1772871590721354000,2.15335400390625,0.03669889271259308,0.21190133690834045,0.5666143894195557
1772871590731287000,2.163287109375,-0.06739714741706848,0.26527613401412964,0.6570641398429871
1772871590741220000,2.17322021484375,-0.07586733251810074,0.28749117255210876,0.7093760967254639
1772871590751153000,2.18315283203125,0.012920325621962547,0.3343212604522705,0.7199203372001648
1772871590761087200,2.193087158203125,0.12647698819637299,0.29057058691978455,0.7603663206100464
1772871590771020300,2.203020263671875,0.20418855547904968,0.14448341727256775,0.852676510810852
1772871590780953000,2.212953125,0.27319371700286865,-0.05974482372403145,0.9951969385147095
1772871590790886100,2.22288623046875,0.281383752822876,-0.08740174770355225,0.9314826726913452
1772871590800819200,2.232819091796875,0.2143929898738861,0.005499694030731916,0.6147568821907043
1772871590810752300,2.242752197265625,0.1448565274477005,0.15085183084011078,0.01654328964650631
1772871590820685000,2.25268505859375,0.1876697689294815,0.26646658778190613,-0.6915624737739563
1772871590830618000,2.2626181640625,0.42047637701034546,0.25848427414894104,-1.349703073501587
1772871590840551200,2.27255126953125,0.7328044772148132,0.2824580669403076,-1.969693899154663
1772871590850484200,2.282484130859375,0.8359454870223999,0.44842198491096497,-2.2895874977111816
1772871590860417000,2.2924169921875,0.516595721244812,0.6292847394943237,-2.0553371906280518
1772871590870351000,2.30235107421875,-0.07089973986148834,0.6732481718063354,-1.2505005598068237
1772871590880284200,2.3122841796875,-0.5529577136039734,0.4342731535434723,-0.14748798310756683
1772871590890217000,2.322217041015625,-0.7631141543388367,0.211338609457016,0.7544072270393372
1772871590900150000,2.33214990234375,-0.7052862644195557,0.06929198652505875,1.1680145263671875
1772871590910083000,2.3420830078125,-0.35767051577568054,-0.02901141159236431,1.166855812072754
1772871590920016100,2.35201611328125,0.15783171355724335,-0.0068182251416146755,0.898552417755127
1772871590929949000,2.361948974609375,0.6222907304763794,0.10514213144779205,0.5350825786590576
1772871590939882000,2.371882080078125,0.9597651958465576,0.3094547986984253,0.05059100687503815
1772871590949815000,2.38181494140625,1.1713181734085083,0.3648828864097595,-0.5285096168518066
1772871590959748000,2.391748046875,1.2004480361938477,0.1968369036912918,-1.0887393951416016
1772871590969681200,2.40168115234375,1.0518229007720947,-0.20892710983753204,-1.5468443632125854
1772871590979615200,2.411615234375,0.7288632392883301,-0.8833465576171875,-1.7170366048812866
1772871590989548300,2.42154833984375,0.28836068511009216,-1.5858029127120972,-1.4714452028274536
1772871590999481000,2.431481201171875,-0.1311763972043991,-1.9852222204208374,-0.8870523571968079
1772871591009414100,2.4414140625,-0.2702232301235199,-1.8200557231903076,-0.20530176162719727
1772871591019347200,2.45134716796875,-0.14400005340576172,-1.2212066650390625,0.5041728615760803
1772871591029280300,2.4612802734375,0.07056471705436707,-0.4275127053260803,1.067705750465393
1772871591039213000,2.471213134765625,0.19387120008468628,0.22186554968357086,1.2456203699111938
1772871591049146000,2.48114599609375,0.16434259712696075,0.4735257625579834,1.042370080947876
1772871591059078400,2.491078369140625,0.06397685408592224,0.39776548743247986,0.6551794409751892
1772871591069011500,2.501011474609375,-0.008988169021904469,0.13293248414993286,0.2257915884256363
1772871591078944500,2.510944580078125,-0.06525277346372604,-0.16501931846141815,-0.08429783582687378
1772871591088878300,2.52087841796875,-0.15429902076721191,-0.32476022839546204,-0.1270141452550888
1772871591098811400,2.530811279296875,-0.34952178597450256,-0.4182044267654419,0.0840432345867157
1772871591108744400,2.540744384765625,-0.6044813990592957,-0.39484506845474243,0.41130951046943665
1772871591118677500,2.550677490234375,-0.8319140076637268,-0.2675776481628418,0.8108433485031128
1772871591128610300,2.5606103515625,-0.9990696907043457,-0.03854872286319733,1.2450230121612549
1772871591138543400,2.57054345703125,-1.0853630304336548,0.31962326169013977,1.6230006217956543
1772871591148476400,2.580476318359375,-1.0889729261398315,0.6684422492980957,1.7776442766189575
1772871591158409500,2.590409423828125,-1.0182294845581055,0.9070329666137695,1.5339879989624023
1772871591168342300,2.60034228515625,-0.8711639046669006,0.8711642026901245,0.9317673444747925
1772871591178275300,2.610275390625,-0.5891159772872925,0.5572810769081116,0.15937207639217377
1772871591188208400,2.62020849609375,-0.20437337458133698,0.1782435029745102,-0.504115879535675
1772871591198142200,2.63014208984375,0.16276361048221588,-0.021696239709854126,-0.8351763486862183
1772871591208075300,2.6400751953125,0.43082916736602783,-0.049063149839639664,-0.8520922064781189
1772871591218008300,2.65000830078125,0.565762460231781,0.041782867163419724,-0.7068040370941162
1772871591227941400,2.65994140625,0.5235329866409302,0.12986265122890472,-0.519662082195282
1772871591237874200,2.669874267578125,0.30840498208999634,0.20011551678180695,-0.3506168723106384
1772871591247807200,2.67980712890625,0.017895376309752464,0.17764988541603088,-0.23643650114536285
1772871591257740300,2.689740234375,-0.2284528762102127,0.12040470540523529,-0.20841605961322784
1772871591267673300,2.69967333984375,-0.44413697719573975,0.09031418710947037,-0.20890048146247864
1772871591277606100,2.709606201171875,-0.5942018628120422,0.08260220289230347,-0.16925320029258728
1772871591287539200,2.719539306640625,-0.6371831297874451,0.09017516672611237,-0.061948321759700775
1772871591297472500,2.729472412109375,-0.6137350797653198,0.06127161160111427,0.13131994009017944
1772871591307405600,2.739405517578125,-0.5783219337463379,0.06366366147994995,0.37694060802459717
1772871591317339400,2.74933935546875,-0.5087937116622925,0.07014766335487366,0.6032499074935913
1772871591327272400,2.7592724609375,-0.3776567578315735,0.15530863404273987,0.7362197041511536
1772871591337205500,2.76920556640625,-0.22768349945545197,0.34137728810310364,0.776757538318634
1772871591347138300,2.77913818359375,-0.1172424703836441,0.5901833772659302,0.7816790342330933
1772871591357071400,2.7890712890625,-0.09847144782543182,0.758226215839386,0.7886360287666321
1772871591367004400,2.79900439453125,-0.20427004992961884,0.8226472735404968,0.7423574924468994
1772871591376937500,2.8089375,-0.4220479130744934,0.9160650968551636,0.5002457499504089
1772871591386870300,2.818870361328125,-0.6287792325019836,0.9455404281616211,0.13928039371967316
1772871591396803300,2.82880322265625,-0.6510973572731018,0.8553040027618408,-0.28562721610069275
1772871591406736400,2.838736328125,-0.47422295808792114,0.5251820087432861,-0.6615220308303833
1772871591416669400,2.84866943359375,-0.11719852685928345,0.027524834498763084,-0.931046724319458
1772871591426602200,2.858602294921875,0.3592612147331238,-0.38913044333457947,-1.2469031810760498
1772871591436536300,2.868536376953125,0.7234612703323364,-0.5409684181213379,-1.6853439807891846
1772871591446469400,2.878469482421875,0.8043609261512756,-0.36714765429496765,-2.114854335784912
1772871591456402200,2.888402099609375,0.6751888394355774,-0.16328400373458862,-1.9686795473098755
1772871591466335200,2.898335205078125,0.4191189706325531,-0.026705646887421608,-1.1594161987304688
1772871591476268300,2.908268310546875,0.11853330582380295,0.11869841814041138,-0.2310207039117813
1772871591486201300,2.918201416015625,-0.024703215807676315,0.19197343289852142,0.4177927076816559
1772871591496134400,2.928134521484375,0.05968889594078064,0.1091560497879982,0.6831165552139282
1772871591506067200,2.938067138671875,0.24104084074497223,-0.14147457480430603,0.6499958634376526
1772871591516000300,2.948000244140625,0.41353538632392883,-0.4942786991596222,0.45270487666130066
1772871591525933300,2.957933349609375,0.5795709490776062,-0.7318041920661926,0.1420157253742218
1772871591535866400,2.967866455078125,0.7181514501571655,-0.7711182832717896,-0.26882055401802063
1772871591545800400,2.977800537109375,0.8021491765975952,-0.6827942728996277,-0.6294043064117432
1772871591555733500,2.9877333984375,0.796034574508667,-0.4592442810535431,-0.8114204406738281
1772871591565666600,2.99766650390625,0.7519094347953796,-0.2353384792804718,-0.8228906989097595
1772871591575599400,3.007599365234375,0.6793226003646851,-0.14680995047092438,-0.6995239853858948
1772871591585532400,3.017532470703125,0.5476516485214233,-0.21038146317005157,-0.5612683892250061
1772871591595465500,3.027465576171875,0.4094493091106415,-0.399067223072052,-0.43961653113365173
1772871591605398500,3.0373984375,0.2482883781194687,-0.6017298102378845,-0.3432258069515228
1772871591615331300,3.047331298828125,0.05620095506310463,-0.6399416327476501,-0.2116459310054779
1772871591625264400,3.057264404296875,-0.10776827484369278,-0.4776555001735687,0.07501139491796494
1772871591635197400,3.067197509765625,-0.2015107423067093,-0.1407770961523056,0.539531946182251
1772871591645130500,3.077130615234375,-0.24475781619548798,0.3295038640499115,1.0182580947875977
1772871591655063300,3.087063232421875,-0.31557953357696533,0.7546146512031555,1.3318665027618408
1772871591664997400,3.096997314453125,-0.4872588813304901,1.005610704421997,1.4534035921096802
1772871591674930400,3.106930419921875,-0.7444195747375488,1.0050088167190552,1.4553866386413574
1772871591684863200,3.11686328125,-0.9835352301597595,0.7958566546440125,1.4464285373687744
1772871591694796300,3.12679638671875,-1.1638360023498535,0.5619837045669556,1.460269570350647
1772871591704729300,3.136729248046875,-1.2257859706878662,0.46656903624534607,1.4264681339263916
1772871591714662400,3.146662353515625,-1.1622180938720703,0.5709340572357178,1.3293930292129517
1772871591724595200,3.15659521484375,-1.0052008628845215,0.7888525724411011,1.219077706336975
1772871591734528300,3.1665283203125,-0.7736376523971558,1.0388275384902954,1.0832743644714355
1772871591744461300,3.17646142578125,-0.4652411937713623,1.270355224609375,0.9089456796646118
1772871591754394400,3.186394287109375,-0.2044799029827118,1.5242292881011963,0.6822690963745117
1772871591764327200,3.1963271484375,-0.1151827797293663,1.6428135633468628,0.3807564079761505
1772871591774260200,3.20626025390625,-0.16003946959972382,1.577048897743225,0.025832129642367363
1772871591784194600,3.216194580078125,-0.31092166900634766,1.2612240314483643,-0.28951355814933777
1772871591794127400,3.22612744140625,-0.537735104560852,0.8571841716766357,-0.5588656663894653
1772871591804060400,3.236060302734375,-0.7155482172966003,0.5028495788574219,-0.7226538062095642
1772871591813993500,3.245993408203125,-0.8082672357559204,0.2841382324695587,-0.7496830224990845
1772871591823926500,3.255926513671875,-0.7532932162284851,0.20083962380886078,-0.673050045967102
1772871591833859300,3.265859375,-0.5437722206115723,0.18905620276927948,-0.503973126411438
1772871591843792400,3.27579248046875,-0.26851320266723633,0.26368623971939087,-0.2634076774120331
1772871591853725400,3.285725341796875,-0.03597104921936989,0.29976460337638855,0.004366785287857056
1772871591863658500,3.295658447265625,0.08729629218578339,0.2825017273426056,0.24299241602420807
1772871591873591300,3.30559130859375,0.09874255210161209,0.2961781322956085,0.45611852407455444
1772871591883524400,3.3155244140625,0.02521321177482605,0.3575807809829712,0.598563551902771
1772871591893458400,3.32545849609375,-0.12012507766485214,0.4435233771800995,0.6792021989822388
1772871591903391500,3.3353916015625,-0.2969845235347748,0.4712093472480774,0.7035704255104065
1772871591913324300,3.34532421875,-0.4239336848258972,0.46313488483428955,0.6542965769767761
1772871591923257300,3.35525732421875,-0.4763377904891968,0.4777742922306061,0.6050376892089844
1772871591933190400,3.3651904296875,-0.4806124269962311,0.4787282347679138,0.5640271306037903
1772871591943123500,3.37512353515625,-0.4124176502227783,0.4503892660140991,0.5047542452812195
1772871591953056300,3.38505615234375,-0.31736811995506287,0.42157813906669617,0.43635573983192444
1772871591962989300,3.3949892578125,-0.2399020791053772,0.40220868587493896,0.512714684009552
1772871591972922400,3.40492236328125,-0.17757771909236908,0.4841075539588928,0.46988627314567566
1772871591982855400,3.41485546875,-0.08695593476295471,0.7060524821281433,0.24578313529491425
1772871591992788200,3.424788330078125,0.0166170597076416,0.8788167834281921,-0.07690490037202835
1772871592002721300,3.43472119140625,0.1169910654425621,0.8949307799339294,-0.630530834197998
1772871592012655400,3.4446552734375,0.3079032301902771,0.5633834600448608,-1.4317082166671753
1772871592022588200,3.454588134765625,0.6442732810974121,-0.12836675345897675,-2.4773502349853516
1772871592032521200,3.464521240234375,0.8365697264671326,-0.9956901669502258,-3.4624745845794678
1772871592042454300,3.474454345703125,0.5467139482498169,-1.7162197828292847,-3.8662331104278564
1772871592052387600,3.4843876953125,-0.06949785351753235,-1.8697928190231323,-3.317275047302246
1772871592062321000,3.49432080078125,-0.5815978646278381,-1.4071184396743774,-1.946323275566101
1772871592072254000,3.50425390625,-0.8377209901809692,-0.4145266115665436,-0.32686012983322144
1772871592082187000,3.51418701171875,-0.7110733389854431,0.5917301774024963,1.0820071697235107
1772871592092119800,3.524119873046875,-0.18243958055973053,1.1512136459350586,1.9637545347213745
1772871592102052900,3.534052978515625,0.5260201096534729,1.1486836671829224,2.209407329559326
1772871592111986000,3.54398583984375,1.0167086124420166,0.7955586314201355,1.8533324003219604
1772871592121919000,3.5539189453125,1.2030318975448608,0.24327869713306427,1.0440616607666016
1772871592131853000,3.56385302734375,1.2198591232299805,-0.4602336585521698,-0.02558019384741783
1772871592141786000,3.5737861328125,1.1723229885101318,-1.1823580265045166,-1.1038035154342651
1772871592151719200,3.58371923828125,1.050618052482605,-1.724008560180664,-1.9963809251785278
1772871592161652000,3.59365185546875,0.9154760241508484,-2.0617287158966064,-2.580517053604126
1772871592171585000,3.6035849609375,0.8281541466712952,-2.277911901473999,-2.707228183746338
1772871592181518000,3.61351806640625,0.761753261089325,-2.3819003105163574,-2.2979249954223633
1772871592191451100,3.623451171875,0.6469331979751587,-2.322901725769043,-1.4138118028640747
1772871592201384200,3.63338427734375,0.5384770631790161,-1.9508365392684937,-0.3859351873397827
1772871592211317000,3.64331689453125,0.4698290228843689,-1.309494972229004,0.4065168797969818
1772871592221250000,3.65325,0.37933826446533203,-0.579293429851532,0.9097792506217957
1772871592231183000,3.66318310546875,0.28360721468925476,0.03615241125226021,1.1938514709472656
1772871592241116200,3.6731162109375,0.18207207322120667,0.4974246919155121,1.3455454111099243
1772871592251049000,3.683049072265625,0.039143405854701996,0.8939411640167236,1.4597762823104858
1772871592260983000,3.692983154296875,-0.14060398936271667,1.1972535848617554,1.5188872814178467
1772871592270916000,3.702916015625,-0.3723125755786896,1.3036376237869263,1.603283405303955
1772871592280849000,3.712848876953125,-0.7056189179420471,1.2411550283432007,1.8184317350387573
1772871592290782000,3.722781982421875,-1.0898499488830566,1.1189191341400146,2.068030834197998
1772871592300715000,3.732715087890625,-1.4280048608779907,1.0130544900894165,2.2792720794677734
1772871592310648000,3.74264794921875,-1.5986990928649902,1.0273860692977905,2.3003005981445312
1772871592320580900,3.752580810546875,-1.4507501125335693,1.0499967336654663,1.9837263822555542
1772871592330514000,3.762513916015625,-1.0367491245269775,1.0071641206741333,1.349307894706726
1772871592340447000,3.772447021484375,-0.5589064359664917,0.9107640385627747,0.5861065983772278
1772871592350380000,3.782380126953125,-0.16207732260227203,0.6896830797195435,-0.12479652464389801
1772871592360312800,3.792312744140625,0.048887114971876144,0.32458314299583435,-0.7209004163742065
1772871592370246000,3.802245849609375,0.056229185312986374,0.07096178829669952,-1.143186092376709
1772871592380180000,3.812179931640625,-0.04585031419992447,0.010495783761143684,-1.3631213903427124
1772871592390112800,3.82211279296875,-0.09059914201498032,0.0700637698173523,-1.3971675634384155
1772871592400045800,3.8320458984375,-0.036502350121736526,0.1534271091222763,-1.2728424072265625
1772871592409979000,3.841978759765625,0.06664880365133286,0.11036672443151474,-1.0646755695343018
1772871592419912200,3.851912109375,0.13260304927825928,-0.11715485155582428,-0.8213233947753906
1772871592429845000,3.861844970703125,0.13985350728034973,-0.4369933009147644,-0.5759472250938416
1772871592439778000,3.871778076171875,0.11480088531970978,-0.6211652755737305,-0.31825652718544006
1772871592449711000,3.881711181640625,0.05675302818417549,-0.578019917011261,-0.04867885634303093
1772871592459644200,3.89164404296875,-0.02575516514480114,-0.3664182126522064,0.2120763063430786
1772871592469577000,3.901576904296875,-0.12069579213857651,-0.18476451933383942,0.44267621636390686
1772871592479510000,3.911510009765625,-0.16573303937911987,-0.08883532881736755,0.5694184303283691
1772871592489443000,3.921443115234375,-0.11177526414394379,-0.03958762437105179,0.579728364944458
1772871592499377000,3.931376953125,0.002359294332563877,-0.01666979119181633,0.5374980568885803
1772871592509310000,3.94131005859375,0.09790286421775818,0.03785790130496025,0.5274869799613953
1772871592519243000,3.951242919921875,0.1887155920267105,0.15006646513938904,0.5166189074516296
1772871592529176000,3.961176025390625,0.258597731590271,0.2004271000623703,0.49272421002388
1772871592539108900,3.97110888671875,0.26609960198402405,0.18809880316257477,0.46901142597198486
1772871592549042000,3.9810419921875,0.1669759452342987,0.11956101655960083,0.4419907331466675
1772871592558973200,3.99097314453125,-0.060166135430336,0.07639463990926743,0.4168294370174408
1772871592568906000,4.000906005859375,-0.301967054605484,0.07691209018230438,0.4785338342189789
1772871592578839000,4.010839111328125,-0.400556743144989,0.2590097188949585,0.3318852484226227
1772871592588772000,4.020772216796875,-0.4004307687282562,0.5262891054153442,0.03002900443971157
1772871592598705200,4.030705078125,-0.27673837542533875,0.6958717107772827,-0.4176105558872223
1772871592608639000,4.040638916015625,0.02149330824613571,0.6070502400398254,-0.9775007367134094
1772871592618572000,4.050572021484375,0.3925968110561371,0.2923429012298584,-1.6114739179611206
1772871592628505000,4.060505126953125,0.6922541260719299,-0.23132456839084625,-2.224682331085205
1772871592638438000,4.07043798828125,0.7238525152206421,-0.5319759845733643,-2.5023889541625977
1772871592648371000,4.080370849609375,0.44394123554229736,-0.5274936556816101,-2.268491506576538
1772871592658304000,4.090303955078125,0.036861076951026917,-0.40152105689048767,-1.6156526803970337
1772871592668237000,4.100237060546875,-0.44395506381988525,-0.32882314920425415,-0.7023591995239258
1772871592678169900,4.110169921875,-0.9524406790733337,-0.3204706907272339,0.24500122666358948
1772871592688103000,4.12010302734375,-1.3154939413070679,-0.3356057107448578,0.8315326571464539
1772871592698036000,4.130035888671875,-1.3637709617614746,-0.5137618780136108,1.0349196195602417
1772871592707969000,4.139968994140625,-0.9977796673774719,-0.6553927659988403,1.0002974271774292
1772871592717901800,4.14990185546875,-0.3794466555118561,-0.5442148447036743,0.8532925248146057
1772871592727836000,4.1598359375,0.30817195773124695,-0.17303170263767242,0.6410553455352783
1772871592737769000,4.16976904296875,0.9059205651283264,0.2615698277950287,0.3252286911010742
1772871592747701800,4.17970166015625,1.2914948463439941,0.6465209722518921,-0.11322616040706635
1772871592757634800,4.189634765625,1.4722191095352173,0.7943847179412842,-0.6809955835342407
1772871592767568000,4.19956787109375,1.4317697286605835,0.3784780502319336,-1.276257872581482
1772871592777501000,4.2095009765625,1.1148407459259033,-0.699213445186615,-1.6670222282409668
1772871592787434000,4.21943408203125,0.5564030408859253,-2.1160905361175537,-1.6847699880599976
1772871592797367000,4.229366943359375,-0.10237909853458405,-3.1743838787078857,-1.2935903072357178
1772871592807300000,4.239300048828125,-0.5547723770141602,-3.406338691711426,-0.6615347862243652
1772871592817233200,4.249233154296875,-0.5117303729057312,-2.680483102798462,0.03856896236538887
1772871592827166200,4.259166259765625,-0.015565377660095692,-1.2463977336883545,0.813146710395813
1772871592837099000,4.26909912109375,0.4703454077243805,0.3653721213340759,1.6109269857406616
1772871592847033000,4.279033203125,0.5598829984664917,1.5197070837020874,2.175208330154419
1772871592856966100,4.288966064453125,0.23580266535282135,1.959612250328064,2.3506646156311035
1772871592866899000,4.29889892578125,-0.3005417287349701,1.6962966918945312,2.222632884979248
1772871592876832000,4.30883203125,-0.8477941751480103,1.0100756883621216,1.9541559219360352
1772871592886765000,4.31876513671875,-1.2915515899658203,0.3450375497341156,1.7055988311767578
1772871592896698000,4.328697998046875,-1.6144471168518066,-0.058757055550813675,1.5343037843704224
1772871592906631000,4.338630859375,-1.7023018598556519,-0.03922809660434723,1.370477557182312
1772871592916564000,4.34856396484375,-1.497551441192627,0.28591591119766235,1.211263656616211
1772871592926497000,4.3584970703125,-1.1181068420410156,0.7041283249855042,1.0626335144042969
1772871592936430000,4.36843017578125,-0.6468714475631714,1.0122747421264648,0.8566102981567383
1772871592946365000,4.378364990234375,-0.2055121511220932,1.0249897241592407,0.49364566802978516
1772871592956298000,4.388298095703125,0.09592306613922119,0.8136372566223145,-0.09678912907838821
1772871592966230800,4.398230712890625,0.26814889907836914,0.5098842978477478,-0.7844753861427307
1772871592976164000,4.4081640625,0.2784428000450134,0.17677797377109528,-1.3311190605163574
1772871592986097200,4.41809716796875,0.20702961087226868,-0.04361618682742119,-1.6547935009002686
1772871592996030200,4.4280302734375,0.13768969476222992,-0.1305857002735138,-1.737621784210205
1772871593005963000,4.437962890625,0.10356101393699646,-0.08825182914733887,-1.5904264450073242
1772871593015896000,4.44789599609375,0.0777864083647728,0.03978043422102928,-1.2578730583190918
1772871593025829000,4.4578291015625,0.06983660906553268,0.1539304405450821,-0.8070001006126404
1772871593035762200,4.46776220703125,0.031381357461214066,0.23385563492774963,-0.3671359419822693
1772871593045695000,4.477695068359375,-0.022309033200144768,0.2626345455646515,-0.004573180340230465
1772871593055628000,4.4876279296875,-0.07339352369308472,0.3087961971759796,0.27707552909851074
1772871593065560600,4.497560546875,-0.05760310962796211,0.37331604957580566,0.4935210347175598
1772871593075494400,4.507494384765625,-0.014877216890454292,0.3748372495174408,0.6668949723243713
1772871593085427500,4.517427490234375,-0.007289072033017874,0.3418167233467102,0.7688378095626831
1772871593095360500,4.527360595703125,-0.001924666459672153,0.2895053029060364,0.784089207649231
1772871593105293600,4.53729345703125,0.0161824319511652,0.1581273227930069,0.7107593417167664
1772871593115226600,4.5472265625,-0.0012988236267119646,0.09645622968673706,0.6049727201461792
1772871593125159400,4.557159423828125,-0.006637662649154663,0.11153584718704224,0.4821240305900574
1772871593135092500,4.567092529296875,0.05348239839076996,0.17456355690956116,0.37163373827934265
1772871593145025500,4.577025634765625,0.11585389822721481,0.2425210326910019,0.31545302271842957
1772871593154958600,4.58695849609375,0.13804228603839874,0.26939257979393005,0.3055140972137451
1772871593164891400,4.596891357421875,0.13483531773090363,0.28829091787338257,0.33366265892982483
1772871593174824400,4.606824462890625,0.12681519985198975,0.33346956968307495,0.39008811116218567
1772871593184757500,4.616757568359375,0.033198967576026917,0.39394411444664,0.501737654209137
1772871593194690600,4.626690673828125,-0.1326155662536621,0.4031818211078644,0.7171139121055603
1772871593204624400,4.636624267578125,-0.3103373646736145,0.5817675590515137,0.6225548982620239
1772871593214557400,4.646557373046875,-0.5451037883758545,0.7651597261428833,0.25301679968833923
1772871593224490500,4.656490478515625,-0.5678780674934387,0.6834409236907959,-0.3306836485862732
1772871593234423300,4.66642333984375,-0.336344450712204,0.4181349277496338,-1.2397397756576538
1772871593244356400,4.6763564453125,0.07743007689714432,-0.038913577795028687,-2.201003313064575
1772871593254289400,4.686289306640625,0.44198301434516907,-0.5162771940231323,-2.7888259887695312
1772871593264222500,4.696222412109375,0.5018439292907715,-0.6016094088554382,-2.5832865238189697
1772871593274155300,4.7061552734375,0.20690764486789703,-0.550601601600647,-1.361784815788269
1772871593284088300,4.71608837890625,-0.2641506791114807,-0.5154436230659485,0.48008137941360474
1772871593294021400,4.726021484375,-0.5015941262245178,-0.3079189360141754,2.0141563415527344
1772871593303954700,4.73595458984375,-0.41840043663978577,-0.06773270666599274,2.613476276397705
1772871593313887500,4.745887451171875,-0.08977116644382477,0.1955212950706482,2.18173885345459
1772871593323821600,4.755821533203125,0.31258028745651245,0.34095677733421326,1.2070943117141724
1772871593333754600,4.765754638671875,0.7891969084739685,0.18419034779071808,0.12625886499881744
1772871593343687400,4.7756875,1.2088234424591064,-0.25796735286712646,-0.8172418475151062
1772871593353620500,4.785620361328125,1.434874415397644,-0.8332735300064087,-1.4714488983154297
1772871593363553500,4.795553466796875,1.3606399297714233,-1.373303771018982,-1.751093864440918
1772871593373486600,4.805486572265625,1.0413063764572144,-1.6380290985107422,-1.5454381704330444
1772871593383419400,4.81541943359375,0.707578718662262,-1.4630101919174194,-0.9625558853149414
1772871593393352400,4.8253525390625,0.48638349771499634,-0.880998432636261,-0.2717430889606476
1772871593403285500,4.835285400390625,0.3453272879123688,-0.08019497245550156,0.2850343883037567
1772871593413218600,4.845218505859375,0.2007293701171875,0.6259280443191528,0.5737237334251404
1772871593423151600,4.855151611328125,0.013164271600544453,0.997319221496582,0.518467366695404
1772871593433084400,4.86508447265625,-0.17485304176807404,0.9646499156951904,0.2118629813194275
1772871593443018500,4.8750185546875,-0.3005760908126831,0.5142505168914795,-0.13618206977844238
1772871593452951600,4.88495166015625,-0.3510408401489258,-0.1623457670211792,-0.3821479082107544
1772871593462884400,4.89488427734375,-0.2601061463356018,-0.7178316116333008,-0.4356873035430908
1772871593472817400,4.9048173828125,-0.10778611898422241,-1.0161511898040771,-0.2604598104953766
1772871593482750500,4.91475048828125,-0.048580318689346313,-0.9967660903930664,0.11763422191143036
1772871593492683500,4.92468359375,-0.0754857063293457,-0.6558912992477417,0.6619545221328735
1772871593502616300,4.9346162109375,-0.1528204381465912,-0.1911366730928421,1.2128970623016357
1772871593512549400,4.94454931640625,-0.3333912789821625,0.19639268517494202,1.568633794784546
1772871593522482400,4.954482421875,-0.6287238597869873,0.5226789116859436,1.7304760217666626
1772871593532415500,4.96441552734375,-0.9442224502563477,0.6972669959068298,1.7309538125991821
1772871593542348300,4.974348388671875,-1.1562880277633667,0.7351434826850891,1.6305608749389648
1772871593552281300,4.98428125,-1.1972951889038086,0.6588921546936035,1.5151602029800415
1772871593562214400,4.99421435546875,-1.0559444427490234,0.5716757774353027,1.331532597541809
1772871593572148500,5.0041484375,-0.7583708167076111,0.4861411452293396,1.0412904024124146
1772871593582081500,5.01408154296875,-0.4532921314239502,0.3194057047367096,0.7226053476333618
1772871593592014600,5.0240146484375,-0.20531320571899414,0.14584003388881683,0.3279046416282654
1772871593601947600,5.03394775390625,-0.08216571062803268,-0.13651204109191895,-0.07086032629013062
1772871593611880400,5.04388037109375,0.011259845457971096,-0.3104574680328369,-0.534534215927124
1772871593621813500,5.0538134765625,-0.0023246733471751213,-0.40213704109191895,-0.8338027000427246
1772871593631746600,5.06374658203125,-0.0623461976647377,-0.3372643291950226,-0.8608220815658569
1772871593641679600,5.0736796875,-0.11857378482818604,-0.1526406705379486,-0.7398232221603394
1772871593651612400,5.0836123046875,-0.15550357103347778,0.04189551994204521,-0.5478692054748535
1772871593661545500,5.09354541015625,-0.18296769261360168,0.18268778920173645,-0.3829503059387207
1772871593671478500,5.103478515625,-0.16925214231014252,0.21965593099594116,-0.31000232696533203
1772871593681411600,5.11341162109375,-0.10549766570329666,0.14503468573093414,-0.24889637529850006
1772871593691344400,5.123344482421875,-0.006803577765822411,0.03455531224608421,-0.1471838504076004
1772871593701278500,5.133278564453125,0.11364134401082993,-0.05762920901179314,0.02923724800348282
1772871593711211500,5.14321142578125,0.1956523209810257,-0.10837281495332718,0.22476786375045776
1772871593721144300,5.153144287109375,0.18657228350639343,-0.09117119014263153,0.3880595862865448
1772871593731077400,5.163077392578125,0.09645010530948639,-0.012595420703291893,0.5017214417457581
1772871593741010400,5.173010498046875,-0.049016278237104416,0.08647816628217697,0.5311062335968018
1772871593750943500,5.182943603515625,-0.18527717888355255,0.22845181822776794,0.4932405948638916
1772871593760876500,5.19287646484375,-0.2739231586456299,0.3378289043903351,0.42141300439834595
1772871593770809300,5.202809326171875,-0.2795030176639557,0.4405022859573364,0.3576076626777649
1772871593780742400,5.212742431640625,-0.227254718542099,0.4580397307872772,0.316200315952301
1772871593790675500,5.222675537109375,-0.13916534185409546,0.4248889684677124,0.29644978046417236
1772871593800608500,5.2326083984375,-0.04435707628726959,0.3559802174568176,0.33546188473701477
1772871593810541300,5.242541259765625,0.02365579456090927,0.3098055124282837,0.4163157343864441
1772871593820474400,5.252474365234375,0.037517547607421875,0.25819239020347595,0.50726318359375
1772871593830408400,5.262408447265625,-0.006554305553436279,0.16253991425037384,0.6050262451171875
1772871593840341500,5.272341552734375,-0.19862201809883118,0.2716224491596222,0.44709521532058716
1772871593850274600,5.282274658203125,-0.31154003739356995,0.37868526577949524,0.07442363351583481
1772871593860207600,5.29220751953125,-0.26650863885879517,0.3985351324081421,-0.4549744427204132
1772871593870140700,5.302140625,-0.09279625117778778,0.2996777892112732,-1.14511239528656
1772871593880073500,5.312073486328125,0.21704496443271637,0.0628117173910141,-1.860440969467163
1772871593890006500,5.322006591796875,0.5214805006980896,-0.18288911879062653,-2.4061965942382812
1772871593899939600,5.331939697265625,0.5292683839797974,-0.39000317454338074,-2.4717884063720703
1772871593909872600,5.34187255859375,0.41103360056877136,-0.6191162467002869,-1.6747362613677979
1772871593919805400,5.351805419921875,0.28488898277282715,-0.8117237687110901,-0.23670734465122223
1772871593929738500,5.361738525390625,0.23780536651611328,-1.0746318101882935,1.256000280380249
1772871593939671600,5.371671630859375,0.06449270993471146,-1.0389026403427124,2.0414092540740967
1772871593949604600,5.3816044921875,-0.08759456127882004,-0.818749189376831,2.048839807510376
1772871593959538400,5.391538330078125,-0.03298351541161537,-0.40766045451164246,1.5021096467971802
1772871593969471500,5.401471435546875,0.24649100005626678,0.012460663914680481,0.7464209198951721
1772871593979404500,5.411404541015625,0.677161455154419,0.09646742045879364,-0.10700048506259918
1772871593989337300,5.42133740234375,1.03147292137146,-0.30549973249435425,-0.9693933129310608
1772871593999270400,5.4312705078125,1.2389472723007202,-1.0255801677703857,-1.6764633655548096
1772871594009203500,5.441203369140625,1.30254328250885,-1.9490077495574951,-2.0680904388427734
1772871594019136500,5.451136474609375,1.1854840517044067,-2.582221746444702,-1.9610463380813599
1772871594029069300,5.4610693359375,0.9812339544296265,-2.593144416809082,-1.453101396560669
1772871594039002400,5.47100244140625,0.7437119483947754,-1.8698493242263794,-0.8180820941925049
1772871594048935400,5.480935302734375,0.5159962177276611,-0.5126236081123352,-0.14891864359378815
1772871594058869000,5.490868896484375,0.2893204987049103,0.9666105508804321,0.48906874656677246
1772871594068801800,5.5008017578125,0.06179199367761612,2.0131478309631348,0.8814269304275513
1772871594078734800,5.51073486328125,-0.16408640146255493,2.4298603534698486,0.9767923355102539
1772871594088669000,5.5206689453125,-0.4431811571121216,2.094202995300293,0.8994200825691223
1772871594098601700,5.530601806640625,-0.7101162075996399,1.14146888256073,0.6202994585037231
1772871594108534800,5.54053466796875,-0.8453986644744873,-0.0032120386604219675,0.3471291959285736
1772871594118467800,5.5504677734375,-0.7653557658195496,-0.8880009651184082,0.3251139223575592
1772871594128401000,5.56040087890625,-0.5863186120986938,-1.2452411651611328,0.5650340914726257
1772871594138333700,5.570333740234375,-0.5048924684524536,-1.0113111734390259,1.0061640739440918
1772871594148266800,5.580266845703125,-0.5689305663108826,-0.31266921758651733,1.4785337448120117
1772871594158199800,5.59019970703125,-0.7620078921318054,0.5276688933372498,1.8562415838241577
1772871594168132900,5.6001328125,-0.9961172938346863,1.2104098796844482,2.015969753265381
1772871594178065700,5.610065673828125,-1.1384989023208618,1.5981768369674683,1.8050991296768188
1772871594187998700,5.619998779296875,-1.1298271417617798,1.5790947675704956,1.2481290102005005
1772871594197931800,5.629931884765625,-0.9924584031105042,1.2402663230895996,0.4809999167919159
1772871594207864800,5.63986474609375,-0.7382418513298035,0.7850247621536255,-0.32638129591941833
1772871594217798700,5.649798583984375,-0.49335139989852905,0.4049229919910431,-0.963334858417511
1772871594227731700,5.659731689453125,-0.31514328718185425,0.20273500680923462,-1.3450931310653687
1772871594237664800,5.669664794921875,-0.18580980598926544,0.16817383468151093,-1.4878391027450562
1772871594247597600,5.67959765625,-0.1306951642036438,0.17100316286087036,-1.4396977424621582
1772871594257530600,5.689530517578125,-0.1291944682598114,0.17632123827934265,-1.294171929359436
1772871594267463700,5.699463623046875,-0.1516028344631195,0.14674656093120575,-1.0526416301727295
1772871594277396700,5.709396728515625,-0.16664624214172363,0.06399735808372498,-0.7498148679733276
1772871594287329800,5.719329833984375,-0.15214265882968903,-0.015214106999337673,-0.4354814291000366
1772871594297262600,5.7292626953125,-0.10948654264211655,-0.0805148184299469,-0.1676718145608902
1772871594307195600,5.739195556640625,-0.08537215739488602,-0.13869157433509827,0.021803298965096474
1772871594317128700,5.749128662109375,-0.0886976420879364,-0.1754961907863617,0.15078018605709076
1772871594327062000,5.75906201171875,-0.08887767791748047,-0.07828787714242935,0.23459599912166595
1772871594336994800,5.768994873046875,-0.04712916165590286,0.13697676360607147,0.2413140833377838
1772871594346929000,5.778928955078125,0.02341557666659355,0.34698113799095154,0.14056217670440674
1772871594356862000,5.788862060546875,0.04452885314822197,0.44951948523521423,0.015024489723145962
1772871594366794800,5.798794677734375,-0.023470439016819,0.46083498001098633,-0.0801134780049324
1772871594376727800,5.808727783203125,-0.12235387414693832,0.3903653621673584,-0.09221381694078445
1772871594386660900,5.818660888671875,-0.2101132869720459,0.28164899349212646,0.012685434892773628
1772871594396594000,5.828593994140625,-0.27198997139930725,0.24045760929584503,0.19028446078300476
1772871594406526700,5.838526611328125,-0.29001691937446594,0.31631535291671753,0.41522011160850525
1772871594416459800,5.848459716796875,-0.25658145546913147,0.45907890796661377,0.6305241584777832
1772871594426392800,5.858392822265625,-0.19917728006839752,0.6104636192321777,0.7946414351463318
1772871594436326000,5.868325927734375,-0.1488531231880188,0.8030179142951965,0.9001771807670593
1772871594446258700,5.8782587890625,-0.16862523555755615,0.994335949420929,0.9980987310409546
1772871594456191700,5.888191650390625,-0.2054482251405716,0.9465113878250122,1.1316733360290527
1772871594466124800,5.898124755859375,-0.29870840907096863,0.7824907898902893,1.0736459493637085
1772871594476057900,5.908057861328125,-0.5396499037742615,0.7618147730827332,0.7597883939743042
1772871594485991700,5.91799169921875,-0.6849130988121033,0.7013956904411316,0.39032086730003357
1772871594495924700,5.9279248046875,-0.7093492150306702,0.5804514288902283,0.10739303380250931
1772871594505857800,5.93785791015625,-0.5584741830825806,0.4716434180736542,-0.04051573574542999
1772871594515790600,5.94779052734375,-0.1835293471813202,0.3407783508300781,-0.1906287968158722
1772871594525723600,5.9577236328125,0.268088161945343,0.14105220139026642,-0.537295937538147
1772871594535656700,5.96765673828125,0.5371620059013367,-0.0869402214884758,-1.039846420288086
1772871594545589800,5.97758984375,0.5923479795455933,-0.31211769580841064,-1.4773223400115967
1772871594555522600,5.9875224609375,0.4702870845794678,-0.4415014982223511,-1.5950454473495483
1772871594565455600,5.99745556640625,0.2390384078025818,-0.34404686093330383,-1.3111921548843384
1772871594575388700,6.007388671875,-0.1725427508354187,0.15369156002998352,-0.7430688142776489
1772871594585321700,6.01732177734375,-0.5449005961418152,0.5869942307472229,-0.01266759168356657
1772871594595254800,6.0272548828125,-0.5341385006904602,0.6312938332557678,0.6182336807250977
1772871594605187800,6.037187744140625,-0.18374373018741608,0.26481008529663086,0.9655181169509888
1772871594615122000,6.047121826171875,0.14366236329078674,-0.24492906033992767,0.9381594657897949
1772871594625054700,6.0570546875,0.3324626386165619,-0.6563078165054321,0.6735571026802063
1772871594634987800,6.06698779296875,0.4128629267215729,-0.693159818649292,0.3661801218986511
1772871594644920800,6.0769208984375,0.4445215165615082,-0.3077344000339508,0.14960254728794098
1772871594654854000,6.08685400390625,0.44516921043395996,0.12830470502376556,0.09237626940011978
1772871594664786700,6.09678662109375,0.3373516798019409,0.35706040263175964,0.08954346179962158
1772871594674719700,6.1067197265625,0.12730015814304352,0.2816724181175232,-0.06691751629114151
1772871594684652800,6.11665283203125,-0.05446164309978485,-0.04700212925672531,-0.3100753128528595
1772871594694585900,6.1265859375,-0.1353684812784195,-0.5273069739341736,-0.564416766166687
1772871594704519000,6.136518798828125,-0.08393537998199463,-0.9365176558494568,-0.7729303240776062
1772871594714451700,6.14645166015625,0.10854778438806534,-1.1840320825576782,-0.7689632773399353
1772871594724384800,6.156384765625,0.364886075258255,-1.1642158031463623,-0.398355633020401
1772871594734317800,6.16631787109375,0.5205880403518677,-0.8647571802139282,0.23044386506080627
1772871594744251600,6.176251708984375,0.462534099817276,-0.3199694752693176,0.8338027000427246
1772871594754184700,6.186184814453125,0.21340203285217285,0.22348769009113312,1.2302992343902588
1772871594764117800,6.19611767578125,-0.12013226747512817,0.6118173003196716,1.3634867668151855
1772871594774050800,6.20605078125,-0.46803855895996094,0.7326387763023376,1.3083473443984985
1772871594783983600,6.215983642578125,-0.7348210215568542,0.5022876262664795,1.1075557470321655
1772871594793916700,6.225916748046875,-0.8949134945869446,0.1704646795988083,0.8692408800125122
1772871594803849700,6.235849609375,-0.9831240177154541,-0.1034076139330864,0.6850726008415222
1772871594813782800,6.24578271484375,-0.9732381105422974,-0.13260650634765625,0.6050414443016052
1772871594823715600,6.255715576171875,-0.8358144760131836,0.045584794133901596,0.712579071521759
1772871594833648600,6.265648681640625,-0.567401111125946,0.3111048936843872,0.9029596447944641
1772871594843581700,6.275581787109375,-0.2941935360431671,0.5925642848014832,1.0208032131195068
1772871594853514800,6.2855146484375,-0.08484698086977005,0.8214719891548157,0.9756863713264465
1772871594863447600,6.295447509765625,0.015473764389753342,0.8976301550865173,0.7670969367027283
1772871594873380600,6.305380615234375,-0.053884804248809814,0.7574176788330078,0.38439080119132996
1772871594883315000,6.31531494140625,-0.2553521394729614,0.3509415090084076,-0.14699743688106537
1772871594893247700,6.325247802734375,-0.4710455536842346,-0.15863251686096191,-0.6506105065345764
1772871594903180800,6.335180908203125,-0.6339218020439148,-0.532142698764801,-0.9758687615394592
1772871594913113900,6.34511376953125,-0.6738601922988892,-0.610295295715332,-1.0826013088226318
1772871594923047000,6.355046875,-0.5026439428329468,-0.45050299167633057,-1.0085939168930054
1772871594932979700,6.364979736328125,-0.20432117581367493,-0.2111535221338272,-0.836317241191864
1772871594942912800,6.374912841796875,0.09522531926631927,-0.028079571202397346,-0.6126687526702881
1772871594952845800,6.384845703125,0.2792244553565979,0.008493619970977306,-0.3988901376724243
1772871594962779000,6.39477880859375,0.30726566910743713,-0.004120443016290665,-0.20218639075756073
1772871594972711700,6.404711669921875,0.1924285739660263,-0.018927352502942085,0.026561569422483444
1772871594982644700,6.414644775390625,0.0201614610850811,-0.032164592295885086,0.24461586773395538
1772871594992577800,6.424577880859375,-0.13533678650856018,-0.03163036331534386,0.39796894788742065
1772871595002510800,6.4345107421875,-0.2750062644481659,-0.010884072631597519,0.470123827457428
1772871595012444000,6.44444384765625,-0.3805942237377167,0.07215941697359085,0.4634994864463806
1772871595022377700,6.454377685546875,-0.35192447900772095,0.2012292444705963,0.4093853831291199
1772871595032310800,6.464310791015625,-0.22815966606140137,0.37062281370162964,0.39973434805870056
1772871595042243800,6.474243896484375,-0.12401781976222992,0.5448465347290039,0.4811764657497406
1772871595052176600,6.4841767578125,-0.055143944919109344,0.6660534143447876,0.6455339789390564
1772871595062109700,6.494109619140625,0.040398288518190384,0.532213032245636,0.9563233256340027
1772871595072042800,6.504042724609375,-0.0059814597479999065,0.5547628402709961,1.0082448720932007
1772871595081975800,6.513975830078125,-0.17013230919837952,0.625828206539154,0.7981432676315308
1772871595091908600,6.52390869140625,-0.14944781363010406,0.6027947664260864,0.44256410002708435
1772871595101841700,6.533841552734375,-0.03858254477381706,0.6771049499511719,-0.009396697394549847
1772871595111774700,6.543774658203125,0.17024603486061096,0.6279835104942322,-0.5502359867095947
1772871595121707800,6.553707763671875,0.3913011848926544,0.3814578652381897,-1.0545510053634644
1772871595131640600,6.563640625,0.3875107169151306,-0.04657549038529396,-1.5081321001052856
1772871595141573600,6.57357373046875,0.24805587530136108,-0.6376904845237732,-1.8471705913543701
1772871595151507700,6.5835078125,0.19185945391654968,-1.151616096496582,-1.785501480102539
1772871595161440500,6.5934404296875,0.2586587071418762,-1.3504754304885864,-1.112025499343872
1772871595171373600,6.60337353515625,0.280973345041275,-1.0615607500076294,-0.12464792281389236
1772871595181306600,6.613306640625,0.1758892685174942,-0.52369624376297,0.7095729112625122
1772871595191239700,6.62323974609375,0.08501236140727997,-0.07874088734388351,1.3435118198394775
1772871595201172500,6.63317236328125,0.13462412357330322,0.22687149047851562,1.7018795013427734
1772871595211105500,6.64310546875,0.2454715520143509,0.45542582869529724,1.679564118385315
1772871595221038600,6.65303857421875,0.30010947585105896,0.5225856900215149,1.276400089263916
1772871595230971600,6.6629716796875,0.36320722103118896,0.3232771158218384,0.6704729199409485
1772871595240904400,6.672904541015625,0.5135762095451355,-0.08251191675662994,0.0033622407354414463
1772871595250837500,6.68283740234375,0.6916112303733826,-0.5242320895195007,-0.6875328421592712
1772871595260770600,6.6927705078125,0.869044840335846,-0.9406349062919617,-1.3234059810638428
1772871595270703600,6.70270361328125,1.0581625699996948,-1.3188532590866089,-1.8569567203521729
1772871595280637700,6.7126376953125,1.125549554824829,-1.5617426633834839,-2.1012535095214844
1772871595290570800,6.72257080078125,1.02885103225708,-1.6615922451019287,-2.0391104221343994
1772871595300503800,6.73250390625,0.7976406812667847,-1.5550967454910278,-1.6934362649917603
1772871595310436600,6.7424365234375,0.522805392742157,-1.2213724851608276,-1.083996295928955
1772871595320369700,6.75236962890625,0.29818856716156006,-0.6528432965278625,-0.3275701403617859
1772871595330302700,6.762302734375,0.09734492748975754,0.01467827893793583,0.39656251668930054
1772871595340235800,6.77223583984375,-0.09060073643922806,0.5942316651344299,1.0050429105758667
1772871595350168800,6.7821689453125,-0.23052668571472168,0.884651243686676,1.4680672883987427
1772871595360101600,6.7921015625,-0.3617965579032898,0.9162296652793884,1.7467907667160034
1772871595370034700,6.80203466796875,-0.5618079304695129,0.7474204301834106,1.8641613721847534
1772871595379967700,6.8119677734375,-0.7370455265045166,0.4452725350856781,1.8482558727264404
1772871595389900800,6.82190087890625,-0.8719716668128967,0.1784387230873108,1.738529920578003
1772871595399833600,6.83183349609375,-0.953018307685852,0.06443491578102112,1.6048732995986938
1772871595409766700,6.8417666015625,-0.8978567719459534,0.11651649326086044,1.5287662744522095
1772871595419700700,6.85170068359375,-0.7144132256507874,0.372464120388031,1.5451923608779907
1772871595429633500,6.861633544921875,-0.4440706670284271,0.8261511921882629,1.5466665029525757
1772871595439566600,6.871566650390625,-0.1140432134270668,1.3923970460891724,1.4654121398925781
1772871595449499600,6.881499755859375,0.1825660765171051,1.827640414237976,1.2873622179031372
1772871595459432700,6.8914326171875,0.3718467950820923,1.8947306871414185,1.0067667961120605
1772871595469365500,6.901365478515625,0.38848090171813965,1.5412272214889526,0.5805081129074097
1772871595479298600,6.911298583984375,0.2587521970272064,0.9230446815490723,0.0736321434378624
1772871595489231600,6.921231689453125,0.10361267626285553,0.20848742127418518,-0.42197147011756897
1772871595499164700,6.93116455078125,0.023428892716765404,-0.3383074700832367,-0.7582690715789795
1772871595509097500,6.941097412109375,-0.002326004905626178,-0.6754908561706543,-0.8064648509025574
1772871595519030500,6.951030517578125,0.01846875622868538,-0.7369227409362793,-0.6654174327850342
1772871595528963600,6.960963623046875,0.06973806768655777,-0.49974218010902405,-0.4525884985923767
1772871595538896600,6.970896728515625,0.11276809126138687,-0.13097506761550903,-0.21218842267990112
1772871595548830700,6.980830810546875,0.12087076157331467,0.21946071088314056,-0.03795590251684189
1772871595558763800,6.990763671875,0.11514443159103394,0.4372556209564209,-0.0018690064316615462
1772871595568696800,7.00069677734375,0.08969339728355408,0.5025461912155151,-0.06726372241973877
1772871595578629600,7.010629638671875,0.09143883734941483,0.40651875734329224,-0.11907844990491867
1772871595588562700,7.020562744140625,0.1137784942984581,0.170897975564003,-0.16268105804920197
1772871595598495700,7.030495849609375,0.11260590702295303,-0.11293081194162369,-0.15760427713394165
1772871595608428800,7.0404287109375,0.046965111047029495,-0.2947075366973877,-0.12053680419921875
1772871595618361600,7.050361572265625,-0.025860359892249107,-0.3621097505092621,-0.0863596573472023
1772871595628294700,7.060294677734375,-0.10802367329597473,-0.3486245572566986,-0.01894386298954487
1772871595638227700,7.070227783203125,-0.22158192098140717,-0.22526320815086365,0.109835684299469
1772871595648160800,7.080160888671875,-0.4025719463825226,0.029040971770882607,0.2792992889881134
1772871595658093600,7.090093505859375,-0.6607361435890198,0.36230042576789856,0.4905385673046112
1772871595668026600,7.100026611328125,-0.8789047002792358,0.6956672072410583,0.7240692973136902
1772871595677959700,7.109959716796875,-1.0293370485305786,1.1610593795776367,0.7074508666992188
1772871595687893500,7.1198935546875,-1.0799504518508911,1.2783732414245605,0.3419474959373474
1772871595697826600,7.12982666015625,-0.9092894792556763,0.9827762246131897,-0.19885104894638062
1772871595707759600,7.139759521484375,-0.49122297763824463,0.5933133959770203,-0.7107657194137573
1772871595717692700,7.149692626953125,0.07322707772254944,0.2552906274795532,-1.0250141620635986
1772871595727625700,7.159625732421875,0.6124674081802368,0.16635915637016296,-1.2076895236968994
1772871595737558500,7.16955859375,0.8582212328910828,0.2701289653778076,-1.6222450733184814
1772871595747491600,7.17949169921875,0.7981024980545044,0.4209941029548645,-1.8886525630950928
1772871595757424600,7.189424560546875,0.5558879971504211,0.6042483448982239,-1.7427523136138916
1772871595767357700,7.199357666015625,0.12899313867092133,0.8405964374542236,-1.1216720342636108
1772871595777290500,7.20929052734375,-0.49207866191864014,1.2251206636428833,-0.2214527577161789
1772871595787223600,7.2192236328125,-1.046857237815857,1.5359421968460083,0.6286730170249939
1772871595797156600,7.229156494140625,-1.0296545028686523,1.3185590505599976,1.1283786296844482
1772871595807089700,7.239089599609375,-0.3785853981971741,0.3405059278011322,0.9744825959205627
1772871595817023700,7.249023681640625,0.4433593153953552,-0.9379642605781555,0.037450436502695084
1772871595826956800,7.258956787109375,0.8275799751281738,-1.4741507768630981,-0.5862584114074707
1772871595836889900,7.268889892578125,1.033200979232788,-1.5510740280151367,-0.6088209748268127
1772871595846822700,7.27882275390625,1.4185631275177002,-1.2569952011108398,-0.6124356985092163
1772871595856755700,7.288755615234375,1.5394389629364014,-0.785499632358551,-0.678208589553833
1772871595866688800,7.298688720703125,1.2472949028015137,-0.49139130115509033,-0.7861979007720947
1772871595876621800,7.308621826171875,0.8170596957206726,-0.5582294464111328,-0.9899193644523621
1772871595886554600,7.3185546875,0.4584762156009674,-0.8254422545433044,-1.2695666551589966
1772871595896487700,7.32848779296875,0.3284386098384857,-1.1096338033676147,-1.4077136516571045
1772871595906420700,7.338420654296875,0.34024572372436523,-1.371572732925415,-1.262132167816162
1772871595916353800,7.348353759765625,0.4628691077232361,-1.3136321306228638,-0.7748416662216187
1772871595926286600,7.35828662109375,0.5732685923576355,-0.954071581363678,-0.08817166835069656
1772871595936219600,7.3682197265625,0.5341270565986633,-0.5307485461235046,0.623289167881012
1772871595946152700,7.378152587890625,0.35079875588417053,-0.19835969805717468,1.2821134328842163
1772871595956086500,7.38808642578125,0.1104775071144104,-0.034918833523988724,1.743893027305603
1772871595966019600,7.39801953125,-0.16621799767017365,-0.027294205501675606,1.895786166191101
1772871595975952600,7.40795263671875,-0.47086259722709656,-0.12931564450263977,1.7776060104370117
1772871595985885700,7.4178857421875,-0.7844415307044983,-0.25578010082244873,1.5290398597717285
1772871595995818500,7.427818603515625,-1.0339725017547607,-0.3054898679256439,1.1843708753585815
1772871596005751600,7.43775146484375,-1.206529140472412,-0.26425695419311523,0.8217870593070984
1772871596015684600,7.4476845703125,-1.2819151878356934,-0.0011432950850576162,0.5599133968353271
1772871596025617700,7.45761767578125,-1.1788474321365356,0.40395012497901917,0.44976556301116943
1772871596035550700,7.46755078125,-0.9229158163070679,0.8700680136680603,0.47640037536621094
1772871596045483500,7.4774833984375,-0.660344123840332,1.1972240209579468,0.6308831572532654
1772871596055416600,7.48741650390625,-0.45500028133392334,1.23671293258667,0.795971691608429
1772871596065350400,7.497350341796875,-0.24296391010284424,1.0460635423660278,0.7574493288993835
1772871596075283200,7.507283203125,0.017618674784898758,0.6151332259178162,0.43960854411125183
1772871596085217500,7.517217529296875,0.2664993405342102,-0.025653431192040443,-0.1435273438692093
1772871596095150600,7.527150634765625,0.37337785959243774,-0.6453542113304138,-0.8526789546012878
1772871596105083400,7.53708349609375,0.3272817134857178,-1.0427215099334717,-1.4189854860305786
1772871596115016400,7.547016357421875,0.16172684729099274,-1.1555745601654053,-1.6367233991622925
1772871596124949500,7.556949462890625,-0.03629755228757858,-0.9707767963409424,-1.5431479215621948
1772871596134882600,7.566882568359375,-0.17736226320266724,-0.5856972932815552,-1.2248834371566772
1772871596144815400,7.5768154296875,-0.27359825372695923,-0.1816510260105133,-0.7580986022949219
1772871596154748400,7.58674853515625,-0.3012509346008301,0.143513485789299,-0.2861523926258087
1772871596164681500,7.596681396484375,-0.2572392523288727,0.3287147581577301,0.11261096596717834
1772871596174614500,7.606614501953125,-0.16839726269245148,0.2918720543384552,0.33291083574295044
1772871596184547300,7.61654736328125,-0.05602758377790451,0.03580779954791069,0.3770604729652405
1772871596194480400,7.62648046875,0.020563865080475807,-0.3095855414867401,0.3184000849723816
1772871596204413400,7.636413330078125,0.05524461343884468,-0.5438587665557861,0.21410323679447174
1772871596214346500,7.646346435546875,0.03236379846930504,-0.5994029641151428,0.11510368436574936
1772871596224280300,7.6562802734375,-0.02106240764260292,-0.3915373980998993,0.013730459846556187
1772871596234213400,7.66621337890625,-0.06023670732975006,-0.023212378844618797,-0.07172585278749466
1772871596244146400,7.676146484375,-0.09093736112117767,0.39005401730537415,-0.05808647349476814
1772871596254079200,7.686079345703125,-0.11463124305009842,0.6666421890258789,0.05276947095990181
1772871596264012300,7.69601220703125,-0.14919933676719666,0.8038700819015503,0.21446862816810608
1772871596273945300,7.7059453125,-0.21379217505455017,0.8894696831703186,0.3777931034564972
1772871596283878400,7.71587841796875,-0.17560137808322906,0.6785225868225098,0.5877060890197754
1772871596293811200,7.725811279296875,-0.18035033345222473,0.36165621876716614,0.5961669683456421
1772871596303744300,7.735744140625,-0.19651386141777039,0.010074738413095474,0.3963817059993744
1772871596313677300,7.74567724609375,-0.24313035607337952,-0.1420668661594391,0.2797996997833252
1772871596323610400,7.7556103515625,-0.1876804232597351,0.049981407821178436,-0.0796322450041771
1772871596333543400,7.76554345703125,-0.05950567126274109,0.3679282069206238,-0.6868993043899536
1772871596343476200,7.775476318359375,0.15904530882835388,0.6371945738792419,-1.3061965703964233
1772871596353409300,7.7854091796875,0.36805233359336853,0.8880350589752197,-1.905577540397644
1772871596363343400,7.79534326171875,0.2672135829925537,0.8468700647354126,-2.422285556793213
1772871596373276400,7.8052763671875,-0.13706065714359283,0.45471104979515076,-2.5552990436553955
1772871596383209500,7.81520947265625,-0.5089433789253235,-0.09217812865972519,-2.0176076889038086
1772871596393142500,7.825142578125,-0.4988768994808197,-0.6459435820579529,-0.9772741198539734
1772871596403075600,7.83507568359375,0.037274133414030075,-1.2507376670837402,0.3028871715068817
1772871596413008400,7.84500830078125,0.6891187429428101,-1.3672045469284058,1.2513384819030762
1772871596422941400,7.85494140625,1.0649731159210205,-0.9486547112464905,1.5816640853881836
1772871596432874500,7.86487451171875,1.088994026184082,-0.2723290026187897,1.4755512475967407
1772871596442807600,7.8748076171875,0.8247652649879456,0.3445453941822052,1.233289122581482
1772871596452740400,7.884740234375,0.46976882219314575,0.6401152610778809,0.8695303201675415
1772871596462673400,7.89467333984375,0.11506880074739456,0.5351182818412781,0.34570202231407166
1772871596472606500,7.9046064453125,-0.22604937851428986,0.2442086786031723,-0.28866374492645264
1772871596482539500,7.91453955078125,-0.4253246784210205,-0.038612108677625656,-0.8598100543022156
1772871596492473300,7.924473388671875,-0.2756344974040985,-0.3257671892642975,-1.1430047750473022
1772871596502406400,7.934406494140625,0.2133876383304596,-0.5451999306678772,-0.9603332281112671
1772871596512339500,7.94433935546875,0.7444413900375366,-0.5891269445419312,-0.5591554045677185
1772871596522272300,7.954272216796875,1.0125585794448853,-0.41478174924850464,-0.2951994240283966
1772871596532205300,7.964205322265625,0.9501397013664246,-0.22948431968688965,-0.1053226962685585
1772871596542138400,7.974138427734375,0.6188755035400391,-0.13644945621490479,0.1189144030213356
1772871596552071400,7.984071533203125,0.21310588717460632,-0.1212388128042221,0.34098342061042786
1772871596562003500,7.99400341796875,-0.11334013938903809,-0.1521538496017456,0.4967306852340698
1772871596571936300,8.003936279296875,-0.28378671407699585,-0.18508702516555786,0.48858699202537537
1772871596581869300,8.013869384765625,-0.33661237359046936,-0.16315457224845886,0.3783089518547058
1772871596591802400,8.02380224609375,-0.32483428716659546,-0.10001128911972046,0.3379833698272705
1772871596601735400,8.0337353515625,-0.31061193346977234,0.006850715726613998,0.4305726885795593
1772871596611668200,8.043668212890625,-0.36571991443634033,0.138508602976799,0.5975696444511414
1772871596621601300,8.053601318359375,-0.466570109128952,0.3044094443321228,0.7360883951187134
1772871596631534300,8.063534423828125,-0.5800476670265198,0.5046506524085999,0.8096177577972412
1772871596641467400,8.07346728515625,-0.6749054789543152,0.6375407576560974,0.8055553436279297
1772871596651400400,8.083400390625,-0.7782864570617676,0.5989217758178711,0.6641239523887634
1772871596661334300,8.093334228515625,-0.835182785987854,0.47899746894836426,0.3990131616592407
1772871596671267300,8.103267333984375,-0.7686449885368347,0.36897456645965576,0.058039866387844086
1772871596681200400,8.113200439453125,-0.5996911525726318,0.21663004159927368,-0.2959381937980652
1772871596691133200,8.12313330078125,-0.4299609661102295,0.057025469839572906,-0.6347732543945312
1772871596701066200,8.133066162109374,-0.30672159790992737,-0.04238234460353851,-0.8904436230659485
1772871596710999300,8.142999267578125,-0.21554400026798248,-0.12353072315454483,-1.037972092628479
1772871596720932400,8.152932373046875,-0.17835482954978943,-0.16405817866325378,-1.081238031387329
1772871596730865400,8.162865478515625,-0.22990190982818604,-0.11320458352565765,-0.9950075745582581
1772871596740798500,8.172798583984376,-0.33334439992904663,0.008475776761770248,-0.7971405386924744
1772871596750731500,8.1827314453125,-0.44976529479026794,0.12552809715270996,-0.55492103099823
1772871596760664600,8.19266455078125,-0.5744518041610718,0.23588016629219055,-0.32842394709587097
1772871596770597400,8.202597412109375,-0.652133047580719,0.31892845034599304,-0.1628115475177765
1772871596780530400,8.212530517578125,-0.615820050239563,0.36089906096458435,-0.07314451783895493
1772871596790463500,8.22246337890625,-0.5018327832221985,0.36187776923179626,-0.018757175654172897
1772871596800397300,8.232397216796874,-0.39355340600013733,0.2591750919818878,0.048285506665706635
1772871596810330400,8.242330322265625,-0.2976551353931427,0.12039831280708313,0.09728900343179703
1772871596820263400,8.252263427734375,-0.2417583018541336,0.0621563158929348,0.174294576048851
1772871596830196500,8.262196533203126,-0.2522445023059845,0.13233327865600586,0.264123797416687
1772871596840129300,8.27212939453125,-0.31449589133262634,0.2723154127597809,0.31553345918655396
1772871596850062300,8.282062255859374,-0.3855130672454834,0.4565827250480652,0.3495577275753021
1772871596859995400,8.291995361328125,-0.45250436663627625,0.6172853112220764,0.40292003750801086
1772871596869928400,8.301928466796875,-0.47683367133140564,0.6632493734359741,0.4755263030529022
1772871596879861200,8.311861328125,-0.47403788566589355,0.6301965713500977,0.5212900638580322
1772871596889794300,8.321794189453126,-0.5378522872924805,0.5521028637886047,0.541700005531311
1772871596899727400,8.331727294921874,-0.6431086659431458,0.36827975511550903,0.5858088731765747
1772871596909660400,8.341660400390625,-0.653174102306366,0.12127582728862762,0.6497843861579895
1772871596919593200,8.35159326171875,-0.7291511297225952,0.11787097901105881,0.5516296029090881
1772871596929526300,8.3615263671875,-0.6333361864089966,0.2754896283149719,0.325207382440567
1772871596939460400,8.37146044921875,-0.46174660325050354,0.7271193861961365,-0.04656057804822922
1772871596949393200,8.38139306640625,-0.3061535358428955,1.1569617986679077,-0.4675900936126709
1772871596959326200,8.391326171875,-0.10587716102600098,1.4062342643737793,-0.8467315435409546
1772871596969259300,8.40125927734375,0.19596391916275024,1.3882472515106201,-1.1646636724472046
1772871596979192300,8.4111923828125,0.47343015670776367,0.7295889258384705,-1.5895148515701294
1772871596989126400,8.42112646484375,0.47798654437065125,-0.4866737723350525,-2.0133516788482666
1772871596999059500,8.4310595703125,0.1047932580113411,-1.7494052648544312,-1.9339854717254639
1772871597008992500,8.440992431640625,-0.34138181805610657,-2.373832941055298,-1.0441412925720215
1772871597018925300,8.45092529296875,-0.554775595664978,-2.11160945892334,0.19361314177513123
1772871597028858400,8.4608583984375,-0.5058528184890747,-1.1057708263397217,1.238875389099121
1772871597038791400,8.47079150390625,-0.28837934136390686,0.21120332181453705,1.909010887145996
1772871597048724500,8.480724365234375,0.02317429520189762,1.2054883241653442,2.0811657905578613
1772871597058657300,8.4906572265625,0.23833294212818146,1.6436747312545776,1.7691988945007324
1772871597068589800,8.50058984375,0.31491532921791077,1.5601119995117188,1.1921536922454834
1772871597078523000,8.51052294921875,0.3972461521625519,1.0508793592453003,0.4814300239086151
1772871597088456000,8.5204560546875,0.552535891532898,0.2042146474123001,-0.4119071364402771
1772871597098389000,8.530388916015625,0.7658007740974426,-0.7164499759674072,-1.4951175451278687
1772871597108321800,8.54032177734375,1.0043216943740845,-1.500088095664978,-2.4525442123413086
1772871597118255900,8.550255859375,1.193240761756897,-2.008788824081421,-2.8719537258148193
1772871597128189000,8.56018896484375,1.2211387157440186,-1.8739205598831177,-2.5508651733398438
1772871597138121700,8.570121826171874,1.055765986442566,-1.2256807088851929,-1.777239203453064
1772871597148054800,8.5800546875,0.7535156011581421,-0.4537872076034546,-0.9928618669509888
1772871597157987800,8.58998779296875,0.3474080264568329,0.12347719818353653,-0.30892667174339294
1772871597167921000,8.5999208984375,-0.0651976466178894,0.37477120757102966,0.26849883794784546
1772871597177853700,8.609853759765626,-0.3683796226978302,0.38095906376838684,0.688304603099823
1772871597187786800,8.619786865234374,-0.528690755367279,0.26995372772216797,0.9480041265487671
1772871597197719800,8.6297197265625,-0.5170484781265259,0.19247090816497803,1.0508370399475098
1772871597207652900,8.63965283203125,-0.384906142950058,0.2797163426876068,1.035960078239441
1772871597217586000,8.6495859375,-0.20329692959785461,0.4207589328289032,0.9459854364395142
1772871597227518700,8.659518798828126,-0.10681193321943283,0.4447582960128784,0.8351311087608337
1772871597237451800,8.66945166015625,-0.16839593648910522,0.3482503890991211,0.7700402140617371
1772871597247384800,8.679384765625,-0.354309618473053,0.14027534425258636,0.8204101920127869
1772871597257319000,8.68931884765625,-0.571060299873352,-0.03299310430884361,0.9427893757820129
1772871597267252000,8.699251953125,-0.6609094738960266,-0.1314546912908554,0.9514286518096924
1772871597277185000,8.70918505859375,-0.5828074812889099,-0.20365218818187714,0.7596091628074646
1772871597287118000,8.7191181640625,-0.4311085045337677,-0.23203377425670624,0.3792719542980194
1772871597297051000,8.72905078125,-0.18577386438846588,-0.07449714094400406,-0.10524013638496399
1772871597306984000,8.73898388671875,0.12292805314064026,0.2327544242143631,-0.5564517974853516
1772871597316917000,8.7489169921875,0.3785310685634613,0.42198053002357483,-0.9147886633872986
1772871597326850000,8.75885009765625,0.4835384488105774,0.44901055097579956,-1.1390976905822754
1772871597336782800,8.768782958984374,0.462723970413208,0.29772675037384033,-1.1615134477615356
1772871597346716000,8.7787158203125,0.3328040540218353,0.04758482798933983,-0.9229400157928467
1772871597356649000,8.78864892578125,0.14251267910003662,-0.11649305373430252,-0.5355606079101562
1772871597366582000,8.79858203125,-0.025500033050775528,-0.07442443072795868,-0.22748908400535583
1772871597376514800,8.808514892578126,-0.14601047337055206,0.09283087402582169,-0.028365595266222954
1772871597386449000,8.818448974609375,-0.21876563131809235,0.22902812063694,0.06938733160495758
1772871597396382000,8.8283818359375,-0.2551223039627075,0.3000381290912628,0.08893519639968872
1772871597406314800,8.838314697265625,-0.2689252197742462,0.31581708788871765,0.09779047220945358
1772871597416247800,8.848247802734376,-0.24538445472717285,0.30971792340278625,0.13905642926692963
1772871597426180900,8.858180908203124,-0.19719696044921875,0.2463328093290329,0.1932797133922577
1772871597436114000,8.868114013671875,-0.1516643613576889,0.11524882912635803,0.20598778128623962
1772871597446046700,8.878046630859375,-0.0802258625626564,0.033791784197092056,0.15295971930027008
1772871597455979800,8.887979736328125,0.01938328519463539,0.03542163968086243,0.12063427269458771
1772871597465912800,8.897912841796876,0.1107877641916275,0.12669003009796143,0.1366657018661499
1772871597475846000,8.907845947265624,0.12789617478847504,0.2038511335849762,0.18235516548156738
1772871597485778700,8.91777880859375,0.05415058508515358,0.24258467555046082,0.21099425852298737
1772871597495711700,8.927711669921875,-0.06335313618183136,0.24851687252521515,0.2655682861804962
1772871597505644800,8.937644775390625,-0.1633676141500473,0.2676663398742676,0.3820701241493225
1772871597515577900,8.947577880859376,-0.25557824969291687,0.32085126638412476,0.5281602144241333
1772871597525511700,8.95751171875,-0.3667399287223816,0.42421120405197144,0.6232814192771912
1772871597535445000,8.967445068359375,-0.32846948504447937,0.42210811376571655,0.7423161864280701
1772871597545378000,8.9773779296875,-0.39852580428123474,0.5760247111320496,0.5653078556060791
1772871597555310800,8.987310791015625,-0.4638957679271698,0.816217303276062,0.11836153268814087
1772871597565244000,8.997243896484376,-0.2676820456981659,1.0405484437942505,-0.4541797637939453
1772871597575177000,9.007177001953124,0.01104519423097372,1.209460735321045,-1.2638517618179321
1772871597585110000,9.017110107421875,0.31524422764778137,0.8740963339805603,-2.1034953594207764
1772871597595042800,9.027042724609375,0.45914947986602783,0.0444050133228302,-2.7423694133758545
1772871597604975900,9.036975830078125,0.2741101086139679,-0.7921969294548035,-2.8862502574920654
1772871597614909000,9.046908935546876,-0.07461431622505188,-1.5666122436523438,-2.3485124111175537
1772871597624842000,9.056842041015624,-0.33905208110809326,-1.9021660089492798,-1.1438686847686768
1772871597634775000,9.066775146484375,-0.38186827301979065,-1.465351939201355,0.18390512466430664
1772871597644707800,9.076707763671875,-0.07907138019800186,-0.7259824872016907,1.1845297813415527
1772871597654641000,9.086640869140625,0.29531288146972656,-0.12904533743858337,1.6786577701568604
1772871597664575000,9.096574951171876,0.47515907883644104,0.16047783195972443,1.4239565134048462
1772871597674507800,9.1065078125,0.5189464688301086,0.02298041619360447,0.6239863634109497
1772871597684440800,9.11644091796875,0.5785845518112183,-0.34501969814300537,-0.23060044646263123
1772871597694374000,9.126373779296875,0.6771768927574158,-0.503743588924408,-0.8037827610969543
1772871597704307000,9.136306884765625,0.7704657912254333,-0.35451334714889526,-0.9884623289108276
1772871597714239700,9.14623974609375,0.7826279401779175,0.004830441437661648,-0.8478626012802124
1772871597724172800,9.1561728515625,0.8417685031890869,0.2658849358558655,-0.5279775261878967
1772871597734105900,9.16610595703125,0.9546486735343933,0.2793557345867157,-0.20748208463191986
1772871597744039000,9.176038818359375,0.9701358079910278,0.1241118311882019,0.038053110241889954
1772871597753971700,9.1859716796875,0.8034514784812927,-0.1368768960237503,0.2037334144115448
1772871597763904800,9.19590478515625,0.5196479558944702,-0.3934231996536255,0.26162999868392944
1772871597773837800,9.205837890625,0.2830125391483307,-0.5995728969573975,0.21015456318855286
1772871597783771000,9.21577099609375,0.13339826464653015,-0.7165442705154419,0.06443251669406891
1772871597793704700,9.22570458984375,0.04512779787182808,-0.7743308544158936,-0.05007115751504898
1772871597803637800,9.2356376953125,0.05092576518654823,-0.7038753628730774,0.030479079112410545
1772871597813571000,9.245571044921874,0.16900713741779327,-0.4420996606349945,0.3855240046977997
1772871597823504000,9.25550390625,0.26070722937583923,0.014056696556508541,0.9288144111633301
1772871597833437000,9.26543701171875,0.15931960940361023,0.509052574634552,1.570872187614441
1772871597843370000,9.275369873046875,-0.1644749641418457,0.8881088495254517,2.180614948272705
1772871597853303000,9.285302978515626,-0.5840597152709961,1.0694937705993652,2.638551712036133
1772871597863235800,9.29523583984375,-0.9367520213127136,0.9332888126373291,2.7039966583251953
1772871597873169000,9.3051689453125,-1.1889346837997437,0.49308985471725464,2.275873899459839
1772871597883102000,9.31510205078125,-1.3388131856918335,0.08125437796115875,1.480960726737976
1772871597893035000,9.325034912109375,-1.342003583908081,-0.04963865876197815,0.5724366307258606
1772871597902967800,9.3349677734375,-1.2603694200515747,0.10925059020519257,-0.1273512989282608
1772871597912900900,9.34490087890625,-1.0619999170303345,0.5027883052825928,-0.5084981322288513
1772871597922834000,9.354833984375,-0.7429788112640381,0.8877527713775635,-0.5899831056594849
1772871597932767700,9.364767822265625,-0.39392200112342834,0.9802235960960388,-0.5976381301879883
1772871597942700800,9.37470068359375,-0.1347639411687851,0.8682506680488586,-0.6277653574943542
1772871597952633900,9.3846337890625,-0.015254320576786995,0.6872273683547974,-0.6926681995391846
1772871597962567000,9.39456689453125,0.0051809134893119335,0.4527411162853241,-0.7632148265838623
1772871597972500000,9.4045,-0.06728716194629669,0.16330556571483612,-0.8032290935516357
1772871597982432800,9.414432861328125,-0.19694049656391144,-0.1122562363743782,-0.8090763092041016
1772871597992365800,9.42436572265625,-0.3011132478713989,-0.2621117830276489,-0.7281447052955627
1772871598002299000,9.434298828125,-0.30861854553222656,-0.23753692209720612,-0.6382566690444946
1772871598012232000,9.44423193359375,-0.20608925819396973,-0.07148163765668869,-0.6057690382003784
1772871598022164700,9.454164794921875,-0.04168832302093506,0.09017782658338547,-0.630760133266449
1772871598032097800,9.464097900390625,0.1671929806470871,0.1419273167848587,-0.6666232943534851
1772871598042030800,9.47403076171875,0.3487204313278198,0.07581380754709244,-0.6859855651855469
1772871598051964000,9.4839638671875,0.44705232977867126,-0.040948230773210526,-0.6819300651550293
1772871598061897700,9.493897705078124,0.4283686578273773,-0.17352278530597687,-0.5472223162651062
1772871598071831600,9.50383154296875,0.27287572622299194,-0.24850381910800934,-0.32058119773864746
1772871598081764400,9.513764404296875,0.06331052631139755,-0.317062646150589,-0.19160617887973785
1772871598091697400,9.523697509765626,-0.12168382108211517,-0.3227224051952362,-0.14550499618053436
1772871598101630500,9.53363037109375,-0.23283058404922485,-0.2696988582611084,-0.08540038764476776
1772871598111563500,9.5435634765625,-0.2159474790096283,-0.17100822925567627,0.04586682468652725
1772871598121496300,9.553496337890625,-0.1723584532737732,-0.03567943349480629,0.21213355660438538
1772871598131429400,9.563429443359375,-0.1165098324418068,0.09056372195482254,0.3362397849559784
1772871598141362400,9.573362548828126,-0.06290838867425919,0.16833415627479553,0.4524604082107544
1772871598151295500,9.58329541015625,-0.11344080418348312,0.22699053585529327,0.6041157245635986
1772871598161228500,9.593228515625,-0.06589779257774353,0.05463661253452301,0.84917151927948
1772871598171161300,9.603161376953125,0.06054776534438133,-0.06337098032236099,0.8901549577713013
1772871598181094400,9.613094482421875,0.025233184918761253,0.10996858030557632,0.5998669266700745
1772871598191028500,9.623028564453126,0.06012512370944023,0.24251756072044373,0.20472465455532074
1772871598200961300,9.632961181640624,0.1576455533504486,0.36846885085105896,-0.38696742057800293
1772871598210894300,9.642894287109375,0.35386964678764343,0.302754282951355,-1.0120453834533691
1772871598220827400,9.652827392578125,0.6247373819351196,0.06779715418815613,-1.4360512495040894
1772871598230760400,9.662760498046875,0.651458740234375,-0.17243808507919312,-1.5832711458206177
1772871598240693200,9.672693359375,0.19110551476478577,-0.2712315022945404,-1.365907907485962
1772871598250626300,9.682626220703124,-0.5665963292121887,-0.10427340865135193,-0.7476062774658203
1772871598260559400,9.692559326171875,-1.20415198802948,0.18986819684505463,0.09629644453525543
1772871598270492400,9.702492431640625,-1.2651642560958862,0.30085116624832153,0.9743102788925171
1772871598280425200,9.71242529296875,-0.803283154964447,0.2705707848072052,1.6038628816604614
1772871598290358300,9.722358154296876,-0.11550822108983994,0.3701503574848175,1.7724753618240356
1772871598300291300,9.732291259765624,0.5569593906402588,0.3907991647720337,1.549635410308838
1772871598310224400,9.742224365234375,0.9820377230644226,0.2333562970161438,1.1303139925003052
1772871598320158200,9.752158203125,1.157131552696228,0.06730446964502335,0.6537967324256897
1772871598330091500,9.762091552734375,1.1172674894332886,-0.15723969042301178,0.186514213681221
1772871598340024600,9.772024658203126,0.8258073925971985,-0.4600701332092285,-0.19021548330783844
1772871598349957400,9.781957275390624,0.3874518573284149,-0.7735428214073181,-0.4379216730594635
1772871598359890400,9.791890380859375,0.036368660628795624,-0.8892907500267029,-0.5751516819000244
1772871598369823500,9.801823486328125,-0.04318901523947716,-0.7455263733863831,-0.5802479386329651
1772871598379756500,9.811756591796875,0.16288399696350098,-0.4271145761013031,-0.3043939769268036
1772871598389689300,9.821689453125,0.5026575326919556,0.04777098447084427,0.1632874608039856
1772871598399622400,9.831622314453124,0.7561630606651306,0.5009501576423645,0.5244619250297546
1772871598409555500,9.841555419921875,0.7876133918762207,0.7469679713249207,0.7345696091651917
1772871598419488500,9.851488525390625,0.6090028882026672,0.6163390874862671,0.8510855436325073
1772871598429421300,9.86142138671875,0.2190828174352646,0.18495281040668488,0.9197330474853516
1772871598439354400,9.871354248046876,-0.22907978296279907,-0.33620065450668335,0.9244319200515747
1772871598449288400,9.881288330078124,-0.5522056221961975,-0.7647216320037842,0.8772929310798645
1772871598459221200,9.89122119140625,-0.7283068895339966,-0.9603564143180847,0.8884214758872986
1772871598469154300,9.901154296875,-0.7891958355903625,-0.8010793924331665,0.9786006212234497
1772871598479087400,9.91108740234375,-0.7516316771507263,-0.37669721245765686,1.1219689846038818
1772871598489020400,9.9210205078125,-0.7132459282875061,-0.07226194441318512,1.2857846021652222
1772871598498953200,9.930953125,-0.630084753036499,0.003388339886441827,1.2068825960159302
1772871598508886300,9.94088623046875,-0.5047646164894104,-0.21146804094314575,0.7430645227432251
1772871598518819300,9.9508193359375,-0.343213826417923,-0.5687079429626465,0.05993097648024559
1772871598528752400,9.96075244140625,-0.14039652049541473,-0.9506512880325317,-0.5708544254302979
1772871598538685400,9.970685546875,0.04586149752140045,-1.0659054517745972,-1.0192652940750122
1772871598548618200,9.9806181640625,0.1574769765138626,-0.9505090713500977,-1.270132064819336
1772871598558551300,9.99055126953125,0.21430563926696777,-0.5580797791481018,-1.392279863357544
1772871598568484400,10.000484375,0.13453596830368042,-0.06379309296607971,-1.3449105024337769
1772871598578418200,10.010418212890626,0.027453728020191193,0.41371381282806396,-1.0771235227584839
1772871598588351200,10.020351318359374,-0.0794207900762558,0.6760714054107666,-0.7591939568519592
1772871598598284300,10.0302841796875,-0.20544183254241943,0.6370797753334045,-0.3888779878616333
1772871598608217600,10.040217529296875,-0.3548542261123657,0.38087862730026245,-0.04403962939977646
1772871598618150400,10.050150390625,-0.4958933889865875,0.15541408956050873,0.21908414363861084
1772871598628083500,10.06008349609375,-0.5553495287895203,0.0923863872885704,0.41252365708351135
1772871598638016500,10.0700166015625,-0.5216552019119263,0.12383672595024109,0.48791640996932983
1772871598647949600,10.079949462890625,-0.4060060977935791,0.13485369086265564,0.49495968222618103
1772871598657882400,10.08988232421875,-0.24428750574588776,0.10297857969999313,0.4327005445957184
1772871598667815400,10.0998154296875,-0.016279637813568115,0.02347682975232601,0.22498278319835663
1772871598677748500,10.10974853515625,0.1944778710603714,-0.19346027076244354,-0.07880320399999619
1772871598687681500,10.119681640625,0.3692169189453125,-0.5110478401184082,-0.28565704822540283
1772871598697614300,10.1296142578125,0.5034253001213074,-0.7623607516288757,-0.3637521266937256
1772871598707548400,10.13954833984375,0.575249969959259,-0.8979393243789673,-0.36379924416542053
1772871598717481500,10.1494814453125,0.6143755316734314,-0.9832270741462708,-0.3781536817550659
1772871598727414300,10.159414306640626,0.5482660531997681,-0.9984808564186096,-0.35302382707595825
1772871598737347300,10.169347412109374,0.40167686343193054,-0.8351888656616211,-0.27788859605789185
1772871598747280400,10.1792802734375,0.28258827328681946,-0.455967515707016,-0.16847316920757294
1772871598757213400,10.18921337890625,0.17119678854942322,0.017250625416636467,0.0022423816844820976
1772871598767146200,10.199146240234375,0.030223416164517403,0.3977649509906769,0.19486269354820251
1772871598777079300,10.209079345703126,-0.08771147578954697,0.5262158513069153,0.33880576491355896
1772871598787012400,10.219012451171874,-0.2338993102312088,0.508300244808197,0.4261544942855835
1772871598796945400,10.2289453125,-0.4454006254673004,0.2690831422805786,0.518912672996521
1772871598806878200,10.238878173828125,-0.5913985967636108,-0.2733822762966156,0.6439797878265381
1772871598816811300,10.248811279296875,-0.8622000217437744,-0.2375161498785019,0.26683276891708374
1772871598826744300,10.258744384765626,-0.8745746612548828,-0.015084144659340382,-0.3792903423309326
1772871598836677400,10.268677490234374,-0.43968310952186584,0.07045605778694153,-1.127791404724121
1772871598846611200,10.278611083984375,0.3057442009449005,0.03814978152513504,-1.686445951461792
1772871598856544300,10.288544189453125,1.0146355628967285,-0.3937113583087921,-1.9015899896621704
1772871598866477300,10.298477294921875,1.226556658744812,-0.94062739610672,-1.9340426921844482
1772871598876410400,10.308410400390626,0.9153708219528198,-1.3755037784576416,-1.628833293914795
1772871598886343200,10.31834326171875,0.3359830677509308,-1.4931275844573975,-1.031842589378357
1772871598896276500,10.3282763671875,-0.31762510538101196,-1.0851571559906006,-0.25307512283325195
1772871598906209500,10.33820947265625,-0.832128643989563,-0.3958306908607483,0.5601155161857605
1772871598916142300,10.348142333984375,-1.126523494720459,0.385015070438385,1.0984724760055542
1772871598926075400,10.358075439453126,-1.1147412061691284,0.8598907589912415,1.0927530527114868
1772871598936008400,10.368008544921874,-0.7152858972549438,0.7492012977600098,0.708625853061676
1772871598945941500,10.37794140625,-0.008145011961460114,0.07208804041147232,0.3454876244068146
1772871598955874600,10.38787451171875,0.698378324508667,-0.6679266691207886,0.31838223338127136
1772871598965807400,10.397807373046875,1.2757278680801392,-1.0646932125091553,0.31981900334358215
1772871598975741400,10.407741455078124,1.6310365200042725,-1.2174347639083862,0.1880258321762085
1772871598985674500,10.417674560546875,1.6051148176193237,-1.304733157157898,0.030592797324061394
1772871598995607300,10.427607177734375,1.2442314624786377,-1.2859861850738525,-0.0639859065413475
1772871599005540400,10.437540283203125,0.7844389081001282,-1.1498419046401978,0.026325613260269165
1772871599015473400,10.447473388671876,0.3644424080848694,-0.8695122599601746,0.25462377071380615
1772871599025406500,10.457406494140624,0.05778393894433975,-0.5283586382865906,0.4673842489719391
1772871599035339300,10.46733935546875,-0.10352133214473724,-0.1784546971321106,0.6168892979621887
1772871599045272300,10.477272216796875,-0.12069099396467209,0.08643582463264465,0.7419028878211975
1772871599055205400,10.487205322265625,-0.019273562356829643,0.24674400687217712,0.8890771269798279
1772871599065138000,10.497137939453125,0.10501137375831604,0.28582963347435,1.0476808547973633
1772871599075071000,10.507071044921876,0.11643766611814499,0.17783232033252716,1.169110894203186
1772871599085003800,10.517003662109374,-0.061703313142061234,-0.0624399408698082,1.2025855779647827
1772871599094936800,10.526936767578125,-0.34737899899482727,-0.48328569531440735,1.010478138923645
1772871599104870000,10.536869873046875,-0.6134772896766663,-0.98985755443573,0.7466827034950256
1772871599114803000,10.546802978515625,-0.8241133093833923,-1.0916815996170044,0.7796374559402466
1772871599124736800,10.55673681640625,-0.9092136025428772,-0.8206064701080322,1.0759268999099731
1772871599134669800,10.566669921875,-0.8431205749511719,-0.3111424446105957,1.5019639730453491
1772871599144603000,10.576602783203125,-0.7002081871032715,0.20726743340492249,1.8925697803497314
1772871599154535700,10.58653564453125,-0.5562757849693298,0.518017590045929,2.1198618412017822
1772871599164468700,10.59646875,-0.4633801579475403,0.5658801794052124,2.119558334350586
1772871599174401800,10.60640185546875,-0.35852086544036865,0.4124927520751953,1.9249333143234253
1772871599184334800,10.6163349609375,-0.33890748023986816,0.12105398625135422,1.658715009689331
1772871599194267600,10.626267578125,-0.4004150629043579,-0.1980518251657486,1.3403801918029785
1772871599204200700,10.63620068359375,-0.5093647241592407,-0.5230631828308105,1.0756558179855347
1772871599214134000,10.646134033203126,-0.6262269020080566,-0.6813143491744995,0.9589946866035461
1772871599224067000,10.656067138671874,-0.647807776927948,-0.5702674984931946,0.9564138650894165
1772871599234000000,10.665999755859374,-0.5730161070823669,-0.25931358337402344,1.0008430480957031
1772871599243933000,10.675932861328125,-0.44269832968711853,0.19337931275367737,1.0689539909362793
1772871599253867000,10.685866943359375,-0.30102747678756714,0.5932561755180359,1.1211212873458862
1772871599263799800,10.6957998046875,-0.17311212420463562,0.8774428367614746,1.164238452911377
1772871599273732900,10.70573291015625,-0.04338475689291954,0.37688708305358887,1.182836890220642
1772871599283666000,10.715666015625,0.10764177143573761,0.40175676345825195,1.18643057346344
1772871599293599000,10.725598876953125,0.20429322123527527,-0.2596145272254944,0.7755516767501831
1772871599303531800,10.73553173828125,0.32946258783340454,-0.2730728089809418,0.295584499835968
1772871599313464800,10.74546484375,0.41532662510871887,-0.17315900325775146,-0.13764601945877075
1772871599323398000,10.75539794921875,0.5433229207992554,-0.13344994187355042,-0.6490187644958496
1772871599333331000,10.7653310546875,0.5557798743247986,-0.121629498898983,-1.0732264518737793
1772871599343263700,10.775263671875,0.5354974865913391,-0.08419530093669891,-1.333721399307251
1772871599353196800,10.78519677734375,0.45316269993782043,0.0008812400046736002,-1.2351903915405273
1772871599363129900,10.7951298828125,0.2403327077627182,0.14383839070796967,-0.7726173996925354
1772871599373063000,10.80506298828125,-0.04599279165267944,0.3273206055164337,-0.05555806681513786
1772871599382996000,10.814995849609375,-0.23121750354766846,0.4377930462360382,0.6348565816879272
1772871599392928800,10.8249287109375,-0.3268636167049408,0.4264639616012573,0.9525615572929382
1772871599402862800,10.83486279296875,-0.25331029295921326,0.433248907327652,0.9936230182647705
1772871599412796000,10.8447958984375,-0.12557443976402283,0.5126540064811707,0.824959397315979
1772871599422728700,10.854728759765624,-0.11033423244953156,0.5121878981590271,0.5250853300094604
1772871599432661800,10.864661865234375,-0.15341192483901978,0.40066540241241455,0.15636058151721954
1772871599442594800,10.8745947265625,-0.15205983817577362,0.21726973354816437,-0.1970219910144806
1772871599452527900,10.88452783203125,-0.1497546136379242,-0.037992656230926514,-0.46822312474250793
1772871599462460700,10.894460693359376,-0.13279186189174652,-0.20092672109603882,-0.6315678358078003
1772871599472393700,10.904393798828124,-0.07843009382486343,-0.12125638872385025,-0.571445107460022
1772871599482326800,10.914326904296875,-0.04061826691031456,0.055879510939121246,-0.3643316328525543
1772871599492259800,10.924259765625,-0.03199548274278641,0.12548388540744781,-0.2771250903606415
1772871599502193000,10.93419287109375,-0.06662429869174957,0.12674835324287415,-0.3194216787815094
1772871599512126000,10.9441259765625,-0.11556414514780045,0.19724862277507782,-0.3875961899757385
1772871599522059000,10.95405908203125,-0.12432088702917099,0.26256105303764343,-0.43735337257385254
1772871599531992000,10.963991943359375,-0.10499059408903122,0.24868625402450562,-0.3985822796821594
1772871599541924900,10.9739248046875,-0.08862999826669693,0.1487940102815628,-0.2947205901145935
1772871599551859000,10.98385888671875,-0.013304620049893856,0.03351694718003273,-0.1677250862121582
1772871599561792000,10.9937919921875,0.0815340057015419,-0.03752953186631203,-0.022786805406212807
1772871599571724800,11.003724853515624,0.12908022105693817,-0.014127003960311413,0.08693996071815491
1772871599581657900,11.013657958984375,0.12136904150247574,0.040296558290719986,0.1657032072544098
1772871599591591000,11.0235908203125,0.08021760731935501,0.08497854322195053,0.1835293471813202
1772871599601524000,11.03352392578125,0.03437954559922218,0.08026314526796341,0.14130252599716187
1772871599611456800,11.043456787109376,0.02328934334218502,0.010587130673229694,0.035540685057640076
1772871599621389800,11.053389892578124,0.037463750690221786,-0.07046590745449066,-0.09211341291666031
1772871599631323000,11.063322998046875,0.044317398220300674,-0.09299039095640182,-0.1883656531572342
1772871599641256000,11.073255859375,0.022223813459277153,-0.09439095109701157,-0.21651925146579742
1772871599651188700,11.083188720703125,-0.0027350664604455233,-0.10653816163539886,-0.2222445160150528
1772871599661121800,11.093121826171876,0.001859685406088829,-0.07707960158586502,-0.2264842689037323
1772871599671054800,11.103054931640624,0.009893110953271389,0.008035555481910706,-0.19036169350147247
1772871599680988000,11.11298779296875,0.024776985868811607,0.10976111888885498,-0.1326616406440735
1772871599690920700,11.122920654296875,0.04152187705039978,0.19371621310710907,-0.07854408025741577
1772871599700853800,11.132853759765625,0.0504264235496521,0.23573556542396545,-0.04905702546238899
1772871599710787800,11.142787841796874,0.0678166002035141,0.23285721242427826,-0.048835717141628265
1772871599720720600,11.152720703125,0.07932092249393463,0.3418761193752289,0.09278586506843567
1772871599730653700,11.16265380859375,0.06639846414327621,0.2722379267215729,0.0644192025065422
1772871599740586800,11.172586669921875,0.006311958190053701,0.07493922114372253,-0.0686858519911766
1772871599750519800,11.182519775390626,-0.05559854581952095,-0.06994899362325668,-0.16806970536708832
1772871599760452900,11.192452880859374,-0.0857900083065033,-0.09309905022382736,-0.12080737948417664
1772871599770385700,11.2023857421875,-0.09614331275224686,-0.019230419769883156,0.013789315707981586
1772871599780319000,11.212319091796875,-0.09213019162416458,0.028174113482236862,0.09746450185775757
1772871599790252000,11.222251953125,-0.06742963939905167,0.07678825408220291,0.11921161413192749
1772871599800185000,11.23218505859375,-0.02394474670290947,0.11698627471923828,0.1112290546298027
1772871599810118000,11.242117919921874,0.004848284646868706,0.06061780825257301,0.07504574954509735
