time,seconds_elapsed,z,y,x
1772871675922409500,0.069409423828125,0.05833879172205925,0.3313847484856844,-0.13951353849992154
1772871675932341500,0.079341552734375,0.00855856950879097,0.16453765124976635,-0.12489786090925335
1772871675942274600,0.089274658203125,0.07683949405252934,-0.08027589824199675,0.013606354417651892
1772871675952207600,0.09920751953125,0.17935937280654907,-0.06304010128080845,0.22787059799730777
1772871675962139400,0.109139404296875,0.0198071087539196,-0.23040099325776098,0.29978790628202256
1772871675972072700,0.11907275390625,-0.18106033150553702,-0.2706166837900877,0.4384891054857522
1772871675982005500,0.129005615234375,-0.3968786726593971,-0.31341829916238784,0.6524623302295803
1772871675991937300,0.138937255859375,-0.5433218642920256,-0.427444491314888,0.9024857963893562
1772871676001870300,0.148870361328125,-0.41844051612615585,-0.45001989573836326,0.9914983241207898
1772871676011803400,0.158803466796875,-0.1763333029836416,-0.33808687647283076,1.186367181552574
1772871676021736400,0.168736328125,-0.08332125728726386,-0.07900748574137688,1.3795675212502478
1772871676031668500,0.17866845703125,-0.37086043430566784,0.19277473469674586,1.64307057364285
1772871676041601500,0.1886015625,-0.50314124507308,0.28323534234464165,1.9531527141198515
1772871676051534300,0.198534423828125,-0.27400281909704205,0.26063714156746864,2.101862243249267
1772871676061466400,0.20846630859375,0.021208207723498344,0.22686814295649527,2.0903765342473983
1772871676071399400,0.2183994140625,0.4017395566940307,0.0805184748262167,2.099151669116318
1772871676081332500,0.22833251953125,0.8142325625926256,-0.10233458531498908,2.140837286070734
1772871676091265500,0.238265625,1.0772259118974208,-0.14773673857450484,2.051947873262316
1772871676101197600,0.248197509765625,1.3393547533273695,-0.08316226733326912,1.6819067925155162
1772871676111130400,0.25813037109375,1.8208008839428425,-0.06492167724370956,1.3995099468216299
1772871676121063400,0.2680634765625,1.9717846416145561,-0.34559389110207556,0.9395770712908357
1772871676130995500,0.277995361328125,1.9134078559696672,-0.5143529594391584,0.46145402068346736
1772871676140928500,0.287928466796875,1.8289082025527954,-0.5211451037973165,0.15953925844058395
1772871676150861600,0.297861572265625,1.628577353388071,-0.6706324854314327,-0.22204817545413968
1772871676160794600,0.307794677734375,1.5001041182100772,-0.7467489259064197,-0.5313991521123796
1772871676170726700,0.3177265625,1.3506757732868193,-0.8298930730611085,-0.6883006093952805
1772871676180659500,0.327659423828125,1.7568237940728664,-0.9182768744349479,-0.6995468105528503
1772871676190592500,0.337592529296875,2.1551064883112905,-1.5570055706053971,-0.6145686529040336
1772871676200524500,0.347524658203125,2.6212393144607544,-2.120588132637739,-0.6365197879493236
1772871676210457600,0.35745751953125,3.393691421422362,-2.335280100110173,-0.8789849476840347
1772871676220390700,0.367390625,4.061930874237418,-2.5244600251853466,-1.255679714166373
1772871676230322700,0.37732275390625,4.291855482155085,-2.6216841356188056,-1.4921310935042797
1772871676240255500,0.38725537109375,4.279622608047723,-2.5627538077443837,-1.5084266870059073
1772871676250188800,0.397188720703125,3.8958191055387257,-2.1932827819705007,-1.328634037348628
1772871676260121900,0.407121826171875,3.3373341589063403,-1.6751602408647537,-1.2359195132941008
1772871676270054000,0.417053955078125,2.810578814011812,-1.2334668594449758,-1.283261256314069
1772871676279987000,0.426987060546875,2.6872341738939283,-1.2770289377957582,-1.6449477656915783
1772871676289919700,0.436919677734375,2.5615263117760416,-1.2357909184783697,-1.9111558392591774
1772871676299851800,0.446851806640625,2.165466554284096,-0.9784738612443208,-2.3174700103923676
1772871676309784800,0.456784912109375,1.5788035609155893,-0.6479770015090703,-2.5021581770062444
1772871676319718000,0.4667177734375,0.5823708491325378,-0.3933984293282032,-2.680658302634954
1772871676329651000,0.47665087890625,-0.276425662329793,-0.07493103008270263,-2.707285320536792
1772871676339583000,0.4865830078125,-0.7841559887588023,0.1573509546160698,-2.8079481732472775
1772871676349516000,0.49651611328125,-1.2420751133143901,0.6255757846087217,-3.1585537550315257
1772871676359448800,0.50644873046875,-1.6162369272530077,1.3482920930206774,-3.287389393781125
1772871676369380900,0.516380859375,-2.076687616112828,1.6842559859901665,-3.0901421898454426
1772871676379314000,0.52631396484375,-2.886990438041091,2.2746441373616455,-2.3247281648270786
1772871676389247000,0.5362470703125,-3.9850171459048984,2.7661685943990943,-0.8702348741911351
1772871676399180000,0.546179931640625,-6.375301340356469,1.6733043838649988,0.2934078498560935
1772871676409112000,0.556112060546875,-9.193573046958447,0.9922516267061233,2.553905899900198
1772871676419044900,0.566044921875,-12.259970204079151,0.32117256655097004,5.634972218364477
1772871676428978000,0.57597802734375,-14.425413377487658,-0.1842763709425926,7.432418530204892
1772871676438909700,0.58590966796875,-14.074999518883228,-0.280135038241744,7.780078706187009
1772871676448842800,0.5958427734375,-10.963123051613568,1.1425982555180787,6.16600801705718
1772871676458775800,0.60577587890625,-7.661665092730522,3.6589556382685897,3.446105207009613
1772871676468707800,0.615707763671875,-5.359267271524668,6.458800876820087,1.366467216658592
1772871676478641000,0.625640869140625,-4.009796197852492,8.487400461590289,0.3273259746141732
1772871676488573700,0.63557373046875,-3.557133678650856,9.773213009822369,0.008489449795335531
1772871676498506800,0.6455068359375,-3.5691450189620255,10.55179382879734,0.0016163491554558277
1772871676508438800,0.655438720703125,-3.482585510405898,10.867487087154387,0.16370470755696295
1772871676518371800,0.665371826171875,-3.013842794018984,10.710009875810146,0.46208223558440803
1772871676528305000,0.675304931640625,-2.2647470127254725,10.509266354191302,0.5746056219585239
1772871676538237000,0.68523681640625,-1.8347510833621024,10.411922416770457,0.6023273032292723
1772871676548169700,0.695169677734375,-1.7983242637187242,10.191023411351441,0.516115146806091
1772871676558102800,0.705102783203125,-2.364925881311297,9.557511573046446,0.554011016088724
1772871676568035800,0.715035888671875,-3.577946165055036,8.2966288834095,0.6743729871340095
1772871676577967900,0.7249677734375,-5.102466931641102,6.790762548410892,0.9756124804638325
1772871676587901000,0.73490087890625,-6.0764452350318425,5.278409189480543,1.1198425260916351
1772871676597834000,0.744833984375,-6.149971074491739,3.4347827257454395,0.6915982627011835
1772871676607766000,0.75476611328125,-5.136262818259,1.3666110090434551,-0.7164258299656212
1772871676617698800,0.76469873046875,-3.3924937360703944,-0.8328507538229226,-2.4578163464546203
1772871676627631900,0.7746318359375,-1.9215072835341094,-3.385126422172785,-3.7878865540862083
1772871676637565000,0.78456494140625,-0.6708879214972258,-5.70557427933216,-3.9347055932939052
1772871676647497000,0.7944970703125,0.9644231240600347,-7.218487610232829,-3.0269629723548888
1772871676657430000,0.804429931640625,2.628289817494154,-8.375776654404401,-2.016014390093833
1772871676667362800,0.81436279296875,4.223695553642511,-8.443168521153927,-2.1706588622301815
1772871676677294800,0.824294921875,5.51799243710339,-7.92981918579936,-3.0852018108338117
1772871676687228000,0.834227783203125,6.909044644442201,-7.92207953145802,-3.601901625660062
1772871676697161000,0.844160888671875,8.335944994753598,-8.983214140254258,-3.9862773750990628
1772871676707092700,0.8540927734375,9.969480262809991,-9.534062892919778,-3.809552150188386
1772871676717025800,0.86402587890625,10.708812774980068,-9.582054478150605,-3.2421623048275707
1772871676726958800,0.873958740234375,11.1905558427155,-8.796423740664125,-2.823876102480292
1772871676736891600,0.8838916015625,10.988768365001677,-8.183076153987646,-2.7606369714960453
1772871676746823700,0.89382373046875,9.805427180206776,-7.9783298264682285,-2.6741303621709345
1772871676756756700,0.9037568359375,8.369040624147653,-7.335715813297033,-2.4104027072422203
1772871676766689800,0.913689697265625,6.844373727089166,-6.733745360681414,-1.7180869439214468
1772871676776621800,0.923621826171875,5.614148041522503,-6.295147607189416,-1.2033243807680905
1772871676786555000,0.933554931640625,4.37721642857641,-6.326562736150622,-0.9162770789198577
1772871676796488000,0.943488037109375,3.355145417667925,-6.724642016771435,-0.39148689661845565
1772871676806420700,0.953420654296875,2.663077345497906,-7.253980363896488,0.3719859312042594
1772871676816352800,0.963352783203125,2.1849492533892394,-7.85469643253684,0.9266004661440849
1772871676826285800,0.973285888671875,2.4435785622656345,-8.251869704228639,0.6793287098452448
1772871676836219000,0.983218994140625,3.0651506641909476,-8.349523438251017,-0.1167033024072647
1772871676846151000,0.99315087890625,3.6336437946185467,-8.178108886969088,-1.1659002206504345
1772871676856084000,1.003083984375,4.088623358590901,-7.867894936805963,-2.151519131343812
1772871676866016800,1.013016845703125,4.354588124921918,-7.364137605661154,-3.029924160248041
1772871676875949800,1.02294970703125,4.484329772600531,-6.762782070073485,-3.7500957526132463
1772871676885881900,1.0328818359375,4.445247470012307,-6.2030772262573235,-4.0864129890650505
1772871676895815000,1.04281494140625,4.15260307880938,-5.797074166899919,-3.793401518115401
1772871676905748000,1.052748046875,3.604305179670453,-5.57959461453557,-2.949457123348117
1772871676915680000,1.062679931640625,2.169623673963547,-5.672876124823093,-2.1962112366378306
1772871676925612800,1.07261279296875,0.9195400262385606,-5.014719090083241,-1.2380367977090179
1772871676935545900,1.0825458984375,0.33046295746564863,-3.201120100343227,-0.7603570338897406
1772871676945478000,1.092477783203125,-0.3931324718683958,-1.3479706059813499,0.21452377129867672
1772871676955411000,1.102410888671875,-1.7843287638530134,0.8394488369137049,1.4827505400881171
1772871676965344000,1.112343994140625,-3.9242248235508796,3.4734885962367055,2.1843837284609675
1772871676975277000,1.122277099609375,-5.59443971696794,6.875162248584628,2.344122162735462
1772871676985208800,1.132208740234375,-7.3547308948904275,11.792509344196318,2.2674076102368534
1772871676995141600,1.1421416015625,-10.854718790996074,15.57287427060604,2.1398267938539384
1772871677005075000,1.152074951171875,-14.280356087255477,17.620417040777205,1.9445880071312187
1772871677015006700,1.1620068359375,-15.029516750478743,19.010608831894398,2.2945853938892484
1772871677024939800,1.171939697265625,-12.125011114013194,18.861739289897677,1.7565173584721983
1772871677034872800,1.181872802734375,-9.3105773781389,17.38568006414175,0.5925283782705665
1772871677044806000,1.191805908203125,-6.9065282777071,16.01651937061548,0.20830528037631882
1772871677054738000,1.201738037109375,-4.463915345603227,14.776656088131665,0.12801900687078013
1772871677064670700,1.211670654296875,-4.729649518048763,12.860627236008643,1.5830179637402295
1772871677074603800,1.221603759765625,-6.740138276588916,10.439272195988893,4.499043942129612
1772871677084535800,1.231535888671875,-9.175583216759563,8.30707253601253,8.210328902572392
1772871677094468900,1.24146875,-10.115831684505938,6.878595730164647,9.721367087250947
1772871677104402000,1.25140185546875,-9.543001401656866,5.778171898031235,8.252787988117337
1772871677114334700,1.261334716796875,-7.837047378599643,6.3533437755703925,5.608047386559844
1772871677124266800,1.271266845703125,-5.30180117098391,7.64083623971343,2.298926784094423
1772871677134199800,1.28119970703125,-3.022389088568091,8.163128175458311,-0.9633948039256036
1772871677144132900,1.2911328125,-1.489751651021838,7.892614952042698,-3.330493499231338
1772871677154065000,1.30106494140625,-0.4375216486930847,6.960934990677237,-4.79345768109262
1772871677163998000,1.310998046875,0.44504123054295774,5.408650603374839,-5.774234558582306
1772871677173931000,1.320930908203125,1.1538900493830442,3.516489533573389,-6.409412868794798
1772871677183863000,1.330863037109375,1.649343954823911,1.4870803859859705,-6.389201270893215
1772871677193795800,1.3407958984375,1.9301342421039938,-0.6404477750480174,-5.509929542157054
1772871677203729000,1.35072900390625,2.090296747009456,-3.2256589137941596,-3.4303543879091736
1772871677213662000,1.360661865234375,2.4237995105624197,-5.975103752407431,-0.8650573254227638
1772871677223594000,1.370593994140625,2.8699864040091634,-8.212286466380954,1.3272288467258213
1772871677233527000,1.380527099609375,3.5606288272902367,-9.521218024393916,2.5340365395650264
1772871677243459800,1.3904599609375,4.57023344759643,-10.18183355820179,2.6151111869692802
1772871677253392100,1.40039208984375,6.1564399782449,-10.660622452306747,2.217802744590491
1772871677263325200,1.4103251953125,7.674359154608846,-11.141052683877945,1.1543600049823521
1772871677273258200,1.42025830078125,9.062235654520988,-10.999764390790462,-0.32614370602704584
1772871677283191300,1.43019140625,9.870575651943684,-10.170966127228736,-1.4002462982721626
1772871677293123300,1.440123291015625,9.476944582903384,-9.208497059845923,-2.092308671353757
1772871677303056100,1.45005615234375,8.098166166204214,-8.177429672533274,-2.526642629921436
1772871677312989200,1.4599892578125,6.6523541946738955,-7.039021854442358,-2.391288695318997
1772871677322921200,1.469921142578125,5.405097879329324,-6.223759364280104,-2.0590143045172096
1772871677332854300,1.479854248046875,4.551718132218718,-5.97547843093872,-1.7921897064864634
1772871677342787300,1.489787353515625,4.066233539867401,-6.10114420748055,-1.6082123184904455
1772871677352719400,1.49971923828125,3.9836575479894876,-6.453786848050355,-1.565129840350151
1772871677362652400,1.50965234375,3.913731778848171,-7.0651476448237895,-1.3230916007906197
1772871677372585200,1.519585205078125,3.7943466900110243,-7.639609912788868,-0.9467636217940598
1772871677382518300,1.529518310546875,3.769935886853933,-8.019164525681733,-0.5230858991341665
1772871677392450300,1.5394501953125,3.82785031568408,-8.139947206357121,-0.2921629643615335
1772871677402383400,1.54938330078125,3.994853480264544,-8.154012556588649,-0.2578556576227769
1772871677412316400,1.55931640625,4.259485828948021,-8.084977598807216,-0.48848658717889337
1772871677422248200,1.569248291015625,4.493239639765024,-7.957791480830311,-0.7574995986320078
1772871677432181000,1.579180908203125,4.698763965919613,-7.854440411949157,-0.8847723719790578
1772871677442114300,1.5891142578125,4.925696990805864,-7.731108631312846,-0.7895954763989895
1772871677452047400,1.59904736328125,4.964098325392603,-7.658910825586318,-0.27548713937066494
1772871677461979100,1.608979248046875,4.463572231253981,-7.6065622141897675,0.5230383701980114
1772871677471912200,1.618912109375,3.758634156116843,-6.976883670437336,0.5194322354648262
1772871677481845200,1.62884521484375,3.293089358988404,-5.506352268192172,-0.3569438448950648
1772871677491777300,1.63877734375,2.992036620402336,-3.2850504294395444,-1.8276115868709981
1772871677501710000,1.6487099609375,2.556277889728546,-0.8869377333194017,-2.8108105769410727
1772871677511643100,1.65864306640625,1.7049205883562564,1.2645102324843407,-2.9884622690469023
1772871677521575200,1.6685751953125,0.8144722165673971,3.8520419231325387,-2.637049462532997
1772871677531508200,1.67850830078125,-0.35820670443773267,7.092628941467404,-1.8338336762562393
1772871677541441300,1.688441162109375,-1.439713654655218,10.478299553519486,-1.3228475629016756
1772871677551374000,1.6983740234375,-3.2022651787251233,12.955835330444573,-1.20374012196213
1772871677561306000,1.70830615234375,-5.917204521146417,14.290239183366298,-0.9558065407536923
1772871677571239200,1.7182392578125,-10.416423235321044,15.054026922357082,1.0974256001655012
1772871677581172200,1.728172119140625,-15.436727432060241,15.007220747518538,4.837956748032569
1772871677591104300,1.738104248046875,-20.229797575139997,14.198487951385975,9.115468647536634
1772871677601037300,1.748037353515625,-20.77850230151415,13.117104919809103,10.688186166536807
1772871677610970400,1.757970458984375,-14.893262359905242,12.524720041662453,8.120900560581683
1772871677620903200,1.767903076171875,-9.671543610417842,11.602467249333857,4.156208117564022
1772871677630835200,1.777835205078125,-6.512937540677189,11.334905861461161,1.0943852095562965
1772871677640768300,1.787768310546875,-5.289824317464232,11.586499280351399,-0.22035379262641072
1772871677650701300,1.797701416015625,-5.320765983694791,11.57329142373204,-0.7278027448307722
1772871677660633300,1.80763330078125,-6.2551768313288685,10.90159277037382,-0.4010385688178241
1772871677670566400,1.81756640625,-8.392576982557774,10.11234325786829,1.6492735199362039
1772871677680499200,1.827499267578125,-10.927473061561583,9.91177859994769,3.3244264542773365
1772871677690431200,1.83743115234375,-11.730174760836363,9.852312850022315,3.182007988116145
1772871677700364300,1.8473642578125,-10.239090984427929,9.861775090372563,1.6870235510073601
1772871677710297300,1.85729736328125,-7.45996704686582,9.425003383263945,-0.07449362504612654
1772871677720230400,1.86723046875,-4.598502095225453,8.364993394583463,-1.1706759106196463
1772871677730162200,1.877162109375,-2.2020938649356365,6.437456475496291,-1.9159185236163436
1772871677740095200,1.88709521484375,-0.20150924529433248,4.094855238717794,-2.3751656819052993
1772871677750028000,1.897028076171875,1.4378718261808157,1.783531183734536,-2.454148179335892
1772871677759960000,1.9069599609375,2.273190431421995,-0.6168564715802669,-2.070089240761101
1772871677769893000,1.91689306640625,2.4600737699925896,-3.163905929714441,-1.1492504068836569
1772871677779826200,1.926826171875,2.605372467765212,-5.2409904361903665,-0.10666585598494857
1772871677789758200,1.93675830078125,2.8485382500499483,-6.777855136042833,0.5401853198319673
1772871677799691300,1.946691162109375,3.6382319991916416,-8.114407106909155,0.8799642410449683
1772871677809624300,1.956624267578125,4.5934781295835965,-9.081033878493308,0.5246814977625385
1772871677819557000,1.96655712890625,5.673032192167639,-9.711325585708021,0.07556304437592626
1772871677829489200,1.9764892578125,6.483197066929936,-9.736773330697417,-0.7373383426781743
1772871677839422200,1.986422119140625,6.991378644257783,-9.261798441922664,-1.6966539875313638
1772871677849355300,1.996355224609375,7.638082557091116,-8.863208873692153,-2.233980410800874
1772871677859287300,2.006287353515625,8.41720055168271,-8.688620953071117,-2.5401065071284767
1772871677869220400,2.016220458984375,9.186585672289132,-8.66123727158308,-2.5940143306657673
1772871677879153200,2.026153076171875,9.734684249463676,-8.678298881021142,-2.7932646911174057
1772871677889086200,2.036086181640625,10.115663342201708,-8.614039467078447,-2.802531116634607
1772871677899018200,2.046018310546875,9.97794998499155,-8.447316288483142,-2.7679779819086194
1772871677908951300,2.055951416015625,9.373797512161731,-8.22450706552863,-2.811304497937858
1772871677918884400,2.06588427734375,8.540800043344497,-7.858630264854431,-2.827396093299985
1772871677928816400,2.07581640625,7.641763291430473,-7.550583137336373,-2.5893931006059048
1772871677938749400,2.08574951171875,6.56358928502798,-7.348521518856287,-2.0555922211140394
1772871677948682200,2.09568212890625,5.318296963232755,-7.227821255767345,-1.1657001680336891
1772871677958614300,2.1056142578125,4.227605420562624,-7.038367774447798,-0.09734893325637094
1772871677968547300,2.11554736328125,3.207275115841627,-6.819826730331778,0.8231712905254215
1772871677978480400,2.12548046875,2.307986434993148,-6.761663295176625,1.4268879292212426
1772871677988413400,2.135413330078125,1.8866887758702038,-6.824216489723324,1.7354760317482054
1772871677998345200,2.14534521484375,2.003489693433046,-6.92773239377737,1.5710615684866904
1772871678008278000,2.155278076171875,2.6033704802930355,-6.956914064598083,1.2172845901247114
1772871678018211000,2.165211181640625,3.3868227046966553,-6.998620870471,0.6739843531426042
1772871678028143000,2.17514306640625,3.9442403143584728,-7.217220951297879,0.2640316611102782
1772871678038076200,2.185076171875,4.218398031756282,-7.202847558030486,0.09741543175447731
1772871678048009200,2.19500927734375,4.161356294107437,-6.95106300048232,-0.009920998702105135
1772871678057941200,2.204941162109375,3.6482045271515844,-6.647764528796077,-0.03770902320733294
1772871678067874300,2.214874267578125,2.608962601211667,-6.276800634115934,0.2601978551010601
1772871678077807000,2.22480712890625,1.184511982139945,-5.846780154833198,0.9440882651049644
1772871678087740200,2.234740234375,0.01424713653922081,-5.142420756366849,0.6797410900384188
1772871678097672200,2.244672119140625,-0.26381226447224615,-3.8275568856954574,0.18713698453810065
1772871678107605200,2.254605224609375,-1.4256132331103086,-2.714859262922406,0.5965565012754872
1772871678117538300,2.264538330078125,-2.457887658125162,-1.2779261788964271,0.04899789446284994
1772871678127470300,2.27447021484375,-3.325978652155399,0.9709422966957092,-1.0617870813556014
1772871678137403100,2.284403076171875,-5.235177365997433,4.1983138596266505,-1.2079751291833818
1772871678147336200,2.294336181640625,-7.542268897977471,8.4841920209378,-0.9430334222897887
1772871678157269200,2.304269287109375,-8.608770586764813,12.35463703124523,0.014966098463535308
1772871678167201300,2.314201171875,-11.238762532001733,14.06466166474223,2.437487405783683
1772871678177134300,2.32413427734375,-12.947536288654803,14.29855459176898,4.436474673230946
1772871678187067400,2.3340673828125,-10.983035374307631,13.996933113384246,3.0301003935977815
1772871678196999400,2.34399951171875,-8.513110072386265,14.218006306326389,-0.059080696130543946
1772871678206932200,2.35393212890625,-6.448315723162889,15.898483358299732,-2.5733973668336865
1772871678216865300,2.363865234375,-6.5901359311699865,18.383504522544143,-2.8479113503232596
1772871678226797300,2.37379736328125,-8.139091466310619,20.528764155101776,-2.225412050550431
1772871678236730400,2.38373046875,-9.710682027107477,20.55728882331848,-0.561128154617548
1772871678246663400,2.393663330078125,-10.97436808372736,17.73803921159506,2.9673756418764587
1772871678256595500,2.403595458984375,-11.572779382556677,12.919367009747027,6.1278802387148135
1772871678266527500,2.413527587890625,-10.049613537710904,9.04734729746878,7.234441550689935
1772871678276460300,2.423460205078125,-7.805477351337671,7.010412430551647,6.185475518593192
1772871678286393300,2.433393310546875,-5.723714916178584,6.552863308352231,3.6031180157124996
1772871678296325400,2.443325439453125,-3.8616689986556767,6.999118298599123,0.5376419920247048
1772871678306258400,2.453258544921875,-2.5904712512314316,7.25854723342061,-1.8475816311016677
1772871678316191500,2.46319140625,-1.8762685041427611,6.85553926422596,-3.0728949947074056
1772871678326124500,2.47312451171875,-1.6855670685887336,5.9593052947729825,-3.310109467372298
1772871678336056600,2.483056640625,-1.8818916047215462,4.933053783309459,-3.272764948362112
1772871678345989400,2.4929892578125,-2.2604595446646214,3.9130204157084223,-3.15958105225265
1772871678355922400,2.50292236328125,-2.1966700863212347,2.8657781386643646,-3.0572792001634834
1772871678365854500,2.5128544921875,-1.4008493787318468,1.4276871167749166,-3.2896436024487015
1772871678375787500,2.52278759765625,-0.4535258580327034,-0.5024415723711252,-3.6894492684707045
1772871678385720600,2.532720458984375,0.8159580712109804,-2.2717378945261237,-3.950761825081706
1772871678395652600,2.542652587890625,2.3939631752252577,-3.8350481182336806,-3.530271975210309
1772871678405585400,2.55258544921875,4.437135475227237,-5.950076278656721,-2.485331253106892
1772871678415518500,2.5625185546875,7.047301607009768,-9.555949730557202,-0.5814496426343918
1772871678425451500,2.572451416015625,9.022165509939192,-12.454723545372484,1.9133774608314036
1772871678435383600,2.582383544921875,9.954945541501045,-10.36532900789976,1.5857907894544303
1772871678445316600,2.592316650390625,9.721566409215331,-9.126669255986808,0.2885430933639407
1772871678455249700,2.602249755859375,9.485544653466343,-8.843978688043356,-0.18636318715400993
1772871678465181700,2.612181640625,9.788277307963371,-9.167104142227767,-0.10117911340324208
1772871678475114500,2.622114501953125,9.968386037832499,-8.796906555745005,-0.4377520599154755
1772871678485047600,2.632047607421875,9.483411733090877,-7.612571683737635,-0.7994444510444998
1772871678494980600,2.641980712890625,8.407143268048763,-7.241267012795806,-0.8423588791415095
1772871678504912400,2.651912353515625,7.754163928207754,-6.878722571414709,-0.5656261966891587
1772871678514845400,2.661845458984375,7.492372355908155,-6.651862027242779,-0.044418311587627976
1772871678524778200,2.6717783203125,6.746871968758106,-7.220926820078492,0.1443076774412766
1772871678534710500,2.68171044921875,5.836347608146071,-7.6252587313532825,0.535621920906566
1772871678544643300,2.691643310546875,4.870983403843641,-7.744006106808781,0.9869180836584418
1772871678554576400,2.701576416015625,3.8711242247432467,-7.667526093718409,1.2040942691620438
1772871678564508400,2.71150830078125,2.9364439125180244,-7.5879843549698585,1.0357201084893197
1772871678574441500,2.72144140625,2.249071889209747,-7.456532980763912,0.7081034803654999
1772871678584374500,2.73137451171875,1.9623048656076192,-7.193063246119022,0.36366054939683523
1772871678594306600,2.741306640625,2.006739050617814,-7.028444346326589,-0.010656418570876122
1772871678604239400,2.7512392578125,2.3187235175848007,-7.176570376479625,-0.3194101234557107
1772871678614172400,2.76117236328125,2.933591445696354,-7.424807470679283,-0.7350793847702444
1772871678624105500,2.77110546875,3.6153555659949776,-7.630052395370602,-1.175558275833726
1772871678634037500,2.78103759765625,4.311208417400717,-7.589897495114803,-1.6119361613191663
1772871678643970600,2.790970458984375,4.924564771905541,-7.464343362253904,-1.9833498455934226
1772871678653903400,2.8009033203125,5.468093556946516,-7.396063606753945,-2.208918011867255
1772871678663835600,2.810835693359375,5.928399284377694,-7.33379975054264,-2.489840839485824
1772871678673768400,2.8207685546875,6.08924392632842,-7.300382049587369,-2.781649072125554
1772871678683701500,2.830701416015625,5.716873671981692,-6.964343922337889,-2.8761843818664548
1772871678693634600,2.840634521484375,4.938626615005731,-5.859179033157229,-3.356703460764885
1772871678703566600,2.850566650390625,4.4546097571194165,-3.89885102058053,-4.441130097821355
1772871678713499600,2.860499755859375,3.5354946782946586,-1.846978696772456,-4.4734716939777135
1772871678723432400,2.870432373046875,1.9524539182007312,-0.03869418005347252,-3.9427503680616613
1772871678733364500,2.880364501953125,0.1397007316350937,2.1601228551685807,-2.620516553144157
1772871678743297500,2.890297607421875,-1.931450293138623,5.322779077082872,-0.8235847666971385
1772871678753230600,2.900230712890625,-5.448737699091434,9.129759038695692,1.4619877380445598
1772871678763162400,2.910162353515625,-12.549154225695132,12.400781527304648,5.195010775303841
1772871678773095400,2.920095458984375,-18.176718213629723,15.071527507734297,8.397529636529088
1772871678783028500,2.930028564453125,-20.12664582822323,16.01581794434786,9.995043743133545
1772871678792961500,2.93996142578125,-16.28129492716193,14.811310052883623,7.34379624390006
1772871678802893300,2.949893310546875,-10.366563518130778,13.6624346167922,3.363939257237315
1772871678812826400,2.959826416015625,-5.764807389545441,12.921197732305526,-0.8167448376744985
1772871678822759400,2.969759521484375,-1.961115363562107,12.874368176591396,-3.0823133959159255
1772871678832691500,2.97969140625,-1.4862415970742702,12.586936551600694,-3.9151983442693945
1772871678842624500,2.98962451171875,-4.169645399025082,12.984751628327368,-2.729684199349582
1772871678852557300,2.999557373046875,-8.539184424841403,13.83276546449065,0.16087136556087062
1772871678862490400,3.009490478515625,-13.455633110308646,14.093241278016567,4.493075389114022
1772871678872422400,3.01942236328125,-17.237113304483888,12.499315551292895,8.826285210442542
1772871678882355500,3.02935546875,-18.0025996640861,10.292581751596927,10.22534186053872
1772871678892288500,3.03928857421875,-14.807189173561333,9.75191186311841,7.783328063371777
1772871678902220500,3.049220458984375,-10.302359633767605,10.337838943427801,3.656443363186717
1772871678912153600,3.059153564453125,-6.3521735627472395,10.888080962371825,0.6882485138818621
1772871678922086400,3.06908642578125,-3.42463542574048,10.68307160000205,-0.6577207622144371
1772871678932018400,3.079018310546875,-1.166697508507967,9.28129400050938,-1.0237323682494461
1772871678941951500,3.088951416015625,0.16551614089310168,7.054974625855684,-0.46428489672783757
1772871678951884500,3.098884521484375,0.5368488688856363,4.743616668602824,0.024886457844823597
1772871678961817600,3.108817626953125,0.6173159057855606,2.2757249183356763,-0.09384687081901356
1772871678971749600,3.11874951171875,0.7373615043580531,-0.18863105902075766,-0.6259434488773346
1772871678981682400,3.128682373046875,0.8926859215825795,-2.215727838012576,-1.1957247194193303
1772871678991615500,3.138615478515625,1.3304746967792511,-3.6381665327399966,-1.748342673714459
1772871679001547500,3.148547607421875,1.9002771562397478,-4.866988781249523,-2.0577491068869826
1772871679011480600,3.15848046875,2.776523984196782,-6.0903153549522155,-2.2453525764256717
1772871679021413600,3.16841357421875,4.049429704582691,-7.000593047326803,-2.2760312078058718
1772871679031345400,3.178345458984375,5.683802007985115,-7.77726131067872,-2.0918904459416865
1772871679041278700,3.18827880859375,7.231293315792083,-8.326624208700656,-2.312459342623502
1772871679051211500,3.19821142578125,8.91038505088687,-7.808063860699534,-2.7448966737896203
1772871679061144600,3.20814453125,9.817844763231276,-7.060171025454998,-3.229784469291568
1772871679071076400,3.218076416015625,10.436512083625793,-7.098165532806515,-3.0619504068449137
1772871679081009400,3.228009521484375,10.89023667910099,-7.439866508123278,-2.146843979139626
1772871679090942500,3.2379423828125,11.243900479412078,-7.93071467333436,-1.045153195810318
1772871679100874500,3.24787451171875,11.14492221878767,-8.572650056591629,-0.3889888327250257
1772871679110807300,3.257807373046875,10.594778399521111,-8.96234261713922,-0.1162424982287921
1772871679120740400,3.267740234375,9.628003159376979,-8.862100620189308,-0.019585437960410488
1772871679130672400,3.27767236328125,8.218882795906067,-8.231554061430693,0.01573365790308453
1772871679140605400,3.28760546875,6.53671472210586,-7.511413740986585,-0.30959990991801023
1772871679150538500,3.29753857421875,5.1362423599928615,-6.859747237309813,-0.42472883914802223
1772871679160471600,3.307471435546875,4.230183162096142,-6.670135350558161,-0.09377120263376272
1772871679170403600,3.317403564453125,3.532030217054486,-6.917988998398184,0.35663017583601175
1772871679180336400,3.32733642578125,2.9975089143335816,-7.142270631992816,0.9223827023185789
1772871679190269400,3.33726953125,2.575431503009796,-7.429722715249657,1.3478658304326236
1772871679200201500,3.347201416015625,2.279117483383417,-7.878280137220025,1.5618255381077526
1772871679210134500,3.357134521484375,2.438621816641092,-8.151812416195868,1.5055620913550256
1772871679220067600,3.367067626953125,3.168120332539081,-8.302796173867582,0.9699958826910704
1772871679229999600,3.37699951171875,4.198168313676119,-8.247437274739145,-0.0903366342083551
1772871679239932400,3.386932373046875,5.2557355853796,-7.933036978802084,-1.1957060147188603
1772871679249865500,3.396865478515625,6.088009416097402,-7.610657959070801,-1.9842720750048755
1772871679259799300,3.40679931640625,6.668041008627414,-7.266039050480723,-2.579087102907896
1772871679269731300,3.4167314453125,6.792677442121505,-6.854390678712726,-3.0108444889858363
1772871679279664400,3.426664306640625,6.6095806363523,-6.318533743473887,-3.350625309894979
1772871679289597200,3.43659716796875,6.126472125482559,-5.712880218431353,-3.5370275869503613
1772871679299529200,3.446529296875,5.437757455393672,-5.149866396197677,-3.4989617679283023
1772871679309462300,3.456462158203125,4.6791947575747965,-4.286377927526831,-3.4344767285361884
1772871679319395300,3.466395263671875,4.375357941228151,-2.96720613052845,-3.99590561966598
1772871679329327400,3.476327392578125,3.897963131830096,-1.3606716821223497,-3.5241330340638757
1772871679339260400,3.486260498046875,2.494626612457633,-0.04052957878708839,-2.19285067416355
1772871679349193200,3.496193115234375,1.0648667810618877,1.3894073627412318,-0.6842055221013724
1772871679359126300,3.506126220703125,0.11986147417724131,3.139758161407709,1.6484139804974198
1772871679369058300,3.516058349609375,-2.463913494285941,4.83965361507833,6.233299930563569
1772871679378991400,3.525991455078125,-10.398777688515185,7.711054854321479,9.313181423157452
1772871679388924400,3.53592431640625,-17.387321401607988,11.483771896326541,8.263892734977603
1772871679398856400,3.5458564453125,-20.75111628193855,16.272077016961575,8.40312175744772
1772871679408789500,3.55578955078125,-20.27550251073837,18.317440689527988,6.147903620567917
1772871679418722300,3.565722412109375,-14.798641125446558,18.3142433547914,2.7864316302269696
1772871679428655400,3.5756552734375,-9.518274956679344,17.876104450982808,-0.8948266599383204
1772871679438587400,3.58558740234375,-5.799651908433437,16.510295405972002,-3.9495124095425007
1772871679448520400,3.5955205078125,-3.6267683558911084,14.804406849366426,-4.535460824900865
1772871679458453500,3.60545361328125,-3.9655332777559753,13.454791398787497,-2.774370021033287
1772871679468385500,3.615385498046875,-6.157273506459593,11.513435213184357,0.880187674537301
1772871679478318300,3.625318359375,-9.14516820475161,8.881061341246962,4.760100185891986
1772871679488251400,3.63525146484375,-11.961712064647674,6.340139426082373,8.352966856703162
1772871679498184400,3.645184326171875,-13.973883077186345,4.143233777439594,10.697746606564522
1772871679508116200,3.6551162109375,-12.502711623471974,3.3435523027688263,10.634557452201843
1772871679518049500,3.665049560546875,-10.32974331525564,5.022001063784956,6.8670461621463295
1772871679527982600,3.674982666015625,-7.788603373426199,8.299508238238095,2.0541012519039215
1772871679537914400,3.684914306640625,-5.849512210145592,10.710500874197482,-1.0198503391843288
1772871679547847200,3.69484716796875,-4.10924266051054,10.19373325483203,-3.2688831384927033
1772871679557780200,3.7047802734375,-1.9541244817614554,8.015711170357465,-4.14947910156995
1772871679567712300,3.714712158203125,-0.1277794076949358,6.160716924911737,-4.175419306251406
1772871679577645300,3.724645263671875,0.4530407048642635,4.379829533684253,-3.984120489326119
1772871679587578400,3.734578369140625,0.16976093885600566,3.2523364928394556,-3.9381957734972235
1772871679597511200,3.74451123046875,-0.1406628546655178,2.38437350910306,-3.9180230463013053
1772871679607443500,3.754443359375,-1.0050205073863268,0.8433470133960247,-4.021152873647213
1772871679617376300,3.764376220703125,-1.431927238562703,-0.6170569625884295,-3.6890240287959575
1772871679627309300,3.774309326171875,-1.2589286329597233,-1.8104390644043682,-2.5829361795514822
1772871679637241300,3.784241455078125,-0.4303396282345056,-3.2446114515453575,-1.261767948038876
1772871679647174400,3.79417431640625,1.4838094014912844,-5.2290749574691056,-0.16234686320722103
1772871679657107500,3.804107421875,3.902503113347292,-7.882121030557155,0.7319172674775123
1772871679667039500,3.81403955078125,5.870100824666023,-11.157814433586596,2.173642992607504
1772871679676972300,3.82397216796875,8.050408389729261,-10.483210706436633,2.424778730858117
1772871679686905300,3.8339052734375,8.87289498592615,-8.054887580969929,0.7477168941557407
1772871679696838400,3.84383837890625,8.686352423617244,-7.146501985952257,-0.9729540018443018
1772871679706770400,3.8537705078125,9.14763021095097,-6.653249682208895,-1.8344921401649712
1772871679716703500,3.863703369140625,10.031578699326515,-6.873598652529716,-1.8950944929048419
1772871679726636300,3.87363623046875,11.149757383859157,-7.253558339092135,-1.5305632616207003
1772871679736568600,3.883568603515625,12.371300581276415,-7.703615644231438,-1.3752568184442817
1772871679746501400,3.89350146484375,12.948407226270437,-8.352324467146396,-1.35821873601228
1772871679756434400,3.903434326171875,12.787428728806972,-8.673441504117847,-1.2520862197190523
1772871679766366200,3.9133662109375,12.152965288865566,-8.585324829247593,-1.0921773973137139
1772871679776299500,3.923299560546875,10.927171448266506,-8.4185782697767,-0.7253647770941257
1772871679786232600,3.933232666015625,9.222060305774212,-8.252135661688447,0.16878014765772967
1772871679796165400,3.943165283203125,7.164968786013126,-7.908457833340764,1.4165268403351305
1772871679806097200,3.95309716796875,4.830568391346931,-7.580939112633466,2.7272917512550947
1772871679816030200,3.9630302734375,2.5472598860144613,-7.335424721395969,3.6829514308840032
1772871679825963300,3.97296337890625,0.9495599014490842,-7.04548783558607,4.080974305142462
1772871679835895300,3.982895263671875,0.17481529963612555,-6.623483489498495,3.8313524785861373
1772871679845828400,3.992828369140625,0.2047942583143711,-6.275602948763966,3.1384120074957607
1772871679855760400,4.002760498046875,1.1218576653063297,-6.257667479100823,2.179122008540481
1772871679865693400,4.012693359375,2.3789853863239285,-6.354707465139031,1.228827070815116
1772871679875626200,4.022626220703125,3.5641280675828453,-6.664955317571759,0.6798505417622626
1772871679885558300,4.032558349609375,4.449545459467172,-7.087072476384043,0.1745087727039121
1772871679895491300,4.0424912109375,5.107447058141231,-7.490952552238106,-0.22611242921836672
1772871679905424400,4.05242431640625,5.406029607221484,-7.707941690737009,-0.3199146754443645
1772871679915356400,4.0623564453125,5.158135042849183,-7.73298553110063,-0.1017428208337631
1772871679925289500,4.07228955078125,4.7507332226097585,-7.504251594272255,-0.014203598791593684
1772871679935222300,4.08222216796875,4.6132542586773635,-6.511069993239641,-0.5327398991968483
1772871679945154300,4.092154296875,4.354198248821497,-4.965234635946154,-0.5578311954313889
1772871679955087400,4.10208740234375,3.147524119234085,-3.780312903961539,-0.014529666107916272
1772871679965020400,4.1120205078125,2.424311551737785,-1.9164958851128815,-0.4720632391117513
1772871679974953500,4.121953369140625,1.5956559115171431,0.5889350299537182,-0.584000861487165
1772871679984885500,4.131885498046875,0.5540946027189493,3.6038954298257826,-0.4221940965060144
1772871679994818600,4.141818603515625,-1.5633230831891298,7.4718644054085015,0.0709163693475537
1772871680004751400,4.15175146484375,-6.047914721596241,12.925406289911269,-0.27829995003538205
1772871680014683100,4.16168310546875,-15.469735383170843,19.648478865408897,0.23023065992584452
1772871680024616200,4.1716162109375,-25.146947686874864,25.914062524461745,1.581569810758531
1772871680034549500,4.181549560546875,-31.634394812464713,28.79597054467201,2.1127990861967203
1772871680044482600,4.191482666015625,-29.48363950510025,27.22929055227041,-0.13186813831329344
1772871680054414300,4.201414306640625,-18.920163421815634,23.489945033991336,-2.4339460799150165
1772871680064347400,4.211347412109375,-10.656105267143248,19.06207247714996,-4.981707047319412
1772871680074280200,4.2212802734375,-5.347132012572884,16.449519157969952,-5.346810525533557
1772871680084212200,4.231212158203125,-2.9757132621109483,14.181038803935051,-4.727390340945124
1772871680094145300,4.241145263671875,-4.387652190133929,12.208686591565609,-4.1999475983083245
1772871680104078300,4.251078369140625,-6.878788037866354,11.127779360806942,-3.194986712154746
1772871680114010400,4.26101025390625,-9.325707727253436,10.014995813316107,-2.801876452118158
1772871680123943400,4.270943359375,-11.148628087568282,9.094453916558622,-2.1561942835479972
1772871680133876200,4.280876220703125,-11.67685701214671,8.327653551748394,-1.3391500245355068
1772871680143809300,4.290809326171875,-11.153079806280136,7.232469958356022,-0.7061516156453639
1772871680153741300,4.3007412109375,-9.112153239378333,6.136148300844431,-0.6447919417321681
1772871680163674400,4.31067431640625,-6.468540765067934,5.184757676836848,-1.4224229126363992
1772871680173607400,4.320607421875,-4.399133369091153,3.994201153835654,-2.352612050922215
1772871680183539500,4.33053955078125,-2.446705754375458,2.6120535529643294,-2.5797122490689155
1772871680193472500,4.340472412109375,-0.3900204773277044,0.7669196072757244,-2.4768375655278563
1772871680203405300,4.3504052734375,1.60269297054708,-1.4648124400764704,-1.771546731430292
1772871680213338400,4.36033837890625,3.900182561445236,-3.5819162377297875,-0.6106378162611276
1772871680223270400,4.3702705078125,6.784699302849173,-5.0792590745329855,0.181170879207924
1772871680233203500,4.380203369140625,9.338848363855481,-6.630443391638994,1.0267974549084902
1772871680243136500,4.390136474609375,11.235733539569377,-8.53436036568582,1.9091662728771566
1772871680253068000,4.400068115234375,13.268469201231001,-9.531379352924228,2.4582202510803937
1772871680263001000,4.4100009765625,14.5426450876832,-9.636535425400734,2.4823574979931116
1772871680272934000,4.419933837890625,14.73461025956273,-9.07013897499144,2.519872697395086
1772871680282866000,4.429865966796875,14.909401009279488,-9.054712857800721,2.7646149352163074
1772871680292799000,4.439799072265625,14.93384922183752,-8.590476220661401,3.118734078079462
1772871680302732000,4.44973193359375,14.471056353765725,-8.005006236469745,3.407567386561632
1772871680312664000,4.4596640625,13.700975652110575,-7.342534845662117,3.590166179680824
1772871680322597000,4.46959716796875,12.552265051192045,-7.1648454518944025,3.3690351190716026
1772871680332530000,4.479530029296875,11.279625288265942,-6.963029332607984,2.6313053659230468
1772871680342463000,4.489462890625,9.909618207043408,-6.407939873632788,1.542906318104267
1772871680352395000,4.49939501953125,8.745836878243088,-5.239484707802534,0.739612790416181
1772871680362328000,4.509328125,7.209560207411647,-4.404215786921978,0.050524830035492775
1772871680372261000,4.51926123046875,5.30439527913034,-4.143510256293416,-0.3939825493590906
1772871680382193200,4.529193115234375,3.2843203615993257,-4.342116765883564,-0.25317765587437896
1772871680392126200,4.539126220703125,1.3233482059001922,-4.973969146543741,0.3636587592985481
1772871680402059000,4.54905908203125,-0.26796061632335183,-6.013968612852692,1.3668046319194138
1772871680411990800,4.55899072265625,-1.4804337875783442,-7.563406378552317,2.4451659775875507
1772871680421923800,4.568923828125,-1.8134049284726381,-8.103776407301426,2.5652643292605877
1772871680431857000,4.57885693359375,-1.1319663868665695,-7.803437369942665,2.0086858007714152
1772871680441790000,4.5887900390625,0.3996230029314756,-7.659682979002595,0.9203435977064073
1772871680451722000,4.598721923828125,2.36797942366302,-7.509174437627196,-0.3011970058949664
1772871680461654800,4.60865478515625,4.447022078469395,-7.418634919524193,-1.3001010396949946
1772871680471587800,4.618587890625,6.186888308000564,-7.389648479014634,-2.0048639043956995
1772871680481519900,4.628519775390625,7.458533214670419,-7.348934775832295,-2.456188452991843
1772871680491453000,4.638452880859375,8.26820475295782,-7.393565944719314,-2.8524069081768393
1772871680501386000,4.648385986328125,8.438884560224414,-7.4832871321767565,-3.127339409339428
1772871680511319000,4.658319091796875,8.093975144255161,-7.305817518639564,-3.2192452473595736
1772871680521251000,4.6682509765625,7.253992054334282,-7.02961865080297,-3.2348750704288483
1772871680531183900,4.678183837890625,5.91917377539277,-6.74145520440638,-2.9029294731900093
1772871680541117000,4.688116943359375,4.815819735026359,-5.9382239282995455,-2.347096794632077
1772871680551049000,4.698049072265625,4.199129852184653,-4.5428620410680765,-1.51927117549479
1772871680560982000,4.70798193359375,3.027551585897803,-3.4198657271206376,-0.09873404007237405
1772871680570915000,4.7179150390625,0.9723632694095372,-2.0291811840504406,2.0083518926419317
1772871680580847000,4.72784716796875,-3.13690277197659,0.5039116449236869,4.350124715772271
1772871680590780000,4.73777978515625,-7.180099719649553,4.272748630625009,5.078240837401151
1772871680600713000,4.747712890625,-9.263871741065383,9.58603741030693,4.497104206238687
1772871680610645000,4.75764501953125,-10.532909095585346,15.126951873314379,2.346535945878923
1772871680620578000,4.767578125,-12.885184169638157,20.062591581463813,-0.9411072765327989
1772871680630511000,4.777510986328125,-17.542163588273525,23.243281472718714,-2.052871271717548
1772871680640444200,4.787444091796875,-19.33766987196207,24.283861369264123,-2.0148603977531194
1772871680650376200,4.797376220703125,-21.751766319155692,21.071752257394788,-0.4787036269742995
1772871680660309000,4.80730908203125,-18.683339702033994,16.99357810436487,0.710845618680492
1772871680670242000,4.817241943359375,-13.0566828920722,13.850975659441946,1.591139310875535
1772871680680173800,4.827173828125,-9.4282024715662,10.57320603466034,1.557881622787565
1772871680690107000,4.83710693359375,-6.923036344915628,8.361598491448163,1.930092741049826
1772871680700040200,4.847040283203125,-5.683403948578238,7.329221190580725,2.025981803487241
1772871680709973000,4.856972900390625,-5.299654222083092,7.631532989317178,1.2695949884027242
1772871680719905000,4.866905029296875,-5.409529139775038,8.546364691734313,0.14973513671695254
1772871680729837800,4.876837890625,-6.142519004920125,8.901469923025369,-0.07356178755611181
1772871680739771000,4.88677099609375,-8.282216327175497,9.038031187590956,0.16629687947463243
1772871680749703000,4.896702880859375,-10.606856959849596,9.446392792773246,-0.12589965836293995
1772871680759636000,4.906635986328125,-11.038284383320807,9.370063586330414,-0.30907036961857226
1772871680769569000,4.916569091796875,-9.794309573864936,7.965705907216668,-0.4827801191655919
1772871680779501000,4.9265009765625,-7.287025139886141,6.0148535789936775,-0.879343771059066
1772871680789433900,4.936433837890625,-4.967720023021101,4.1295284926921125,-1.2232403567239643
1772871680799367000,4.946366943359375,-2.856273228216171,2.5203701255232094,-1.5684639532089233
1772871680809300000,4.956300048828125,-0.7613409303605556,1.3249129709988832,-2.1377363974459467
1772871680819232000,4.96623193359375,1.4101993908792734,0.03919920696616173,-2.8348355956509708
1772871680829165000,4.9761650390625,3.3855256506234404,-1.5795102478802203,-3.1504987511307
1772871680839097900,4.986097900390625,5.055589445132017,-3.5009938582777975,-3.058369333487749
1772871680849030100,4.996030029296875,6.6559045806318515,-4.942897716453671,-2.5208459263414142
1772871680858963000,5.005962890625,7.868604546380043,-6.301616510942578,-1.777260286771506
1772871680868896000,5.01589599609375,8.61599060114622,-7.803347938093543,-0.47580092780273403
1772871680878829000,5.0258291015625,9.66740577996075,-9.53678384231627,1.4865249440602957
1772871680888761000,5.035760986328125,10.62607487053871,-10.043061047327518,2.6090008873954416
1772871680898694100,5.045694091796875,11.010776783192156,-9.454558563572167,2.5844866238638757
1772871680908627000,5.055626953125,11.29065404728055,-8.983183160594105,2.188508407175541
1772871680918559000,5.06555908203125,11.090901874786615,-8.085912249308825,1.3202110769182442
1772871680928492000,5.075491943359375,10.952682321619987,-7.099641450577974,0.5223994147073477
1772871680938425000,5.085425048828125,10.347449652338028,-6.7826371096223586,-0.23636404811432585
1772871680948356900,5.09535693359375,9.623235214322804,-6.542593258750438,-0.7911033236786723
1772871680958290200,5.105290283203125,9.056579820716381,-6.233674609094858,-0.9991022963184862
1772871680968223000,5.115222900390625,8.282351351732014,-6.17287205760777,-1.0784814649164676
1772871680978155000,5.125155029296875,7.568281875634193,-6.184728499618172,-0.8584795544676482
1772871680988087800,5.135087890625,6.96124595632255,-6.19873948931396,-0.3547733689881861
1772871680998020900,5.145020751953125,6.268548354077339,-6.405895216062665,0.18201708424109964
1772871681007954000,5.154953857421875,5.582209765470028,-6.781686092507838,0.8221816949661821
1772871681017886000,5.164885986328125,4.787219078963995,-7.155910450288653,1.3459095817983149
1772871681027819000,5.174819091796875,4.007224886059761,-7.478921922704577,1.7721135715328156
1772871681037751800,5.184751708984375,3.3398516946852204,-7.708168485230207,2.047225520915538
1772871681047683800,5.194683837890625,2.9434628513693806,-7.669291934347152,2.0997382368326187
1772871681057617000,5.204616943359375,2.678847453820705,-7.627695018589496,1.8245868322223424
1772871681067550000,5.214550048828125,2.953544684922695,-7.2807181486964225,1.3313904964499175
1772871681077482000,5.22448193359375,3.6257127093583343,-6.936941536149382,0.6225509568948299
1772871681087415000,5.2344150390625,4.381668439549207,-6.695155810046195,-0.11025810832325368
1772871681097348000,5.24434814453125,4.925671856364607,-6.6222530709207055,-0.7251448507331312
1772871681107281000,5.254281005859375,5.058976164960861,-6.534969924265146,-0.9292200740579515
1772871681117213000,5.264212890625,4.709298219415545,-6.349218220072984,-0.7093832179777324
1772871681127146000,5.27414599609375,3.8862592500329014,-6.3426686522990465,0.1905954361625947
1772871681137079000,5.2840791015625,2.9902748714268204,-6.398079573875665,1.2117321436293422
1772871681147011000,5.294010986328125,2.2856652975916862,-5.541607121446728,1.888575904791057
1772871681156944100,5.303944091796875,1.1165876159489154,-4.085265572595596,2.784491894336045
1772871681166877000,5.313876953125,-0.7139923192083835,-2.1452415123790503,3.763546478077769
1772871681176809000,5.32380908203125,-2.975681697928905,0.03394961587488651,4.214928017558157
1772871681186742000,5.333741943359375,-4.546172188529372,3.1933985661804676,3.3101027453705667
1772871681196675000,5.343675048828125,-6.177660460928082,7.525991716915368,1.6962139886789023
1772871681206608100,5.353608154296875,-9.320458136162161,12.194295662641524,-1.0556265128992497
1772871681216540200,5.3635400390625,-11.77717499694228,17.699706266069413,-4.215889263805747
1772871681226473200,5.37347314453125,-13.509589156901836,21.67992624082565,-5.7312412200301885
1772871681236406000,5.383406005859375,-16.88768611882925,22.78731698936224,-5.32065667810142
1772871681246337800,5.393337890625,-18.937483974450824,22.148815672206876,-3.6401162055030465
1772871681256270800,5.403270751953125,-17.672792540180684,20.200176343858242,-2.0194857194662093
1772871681266204000,5.413203857421875,-16.213360624098776,17.24330806747079,-0.7100143554881214
1772871681276137000,5.423136962890625,-13.101938914859295,14.077350465923548,0.3236285814009607
1772871681286069000,5.433069091796875,-9.92588077505827,10.75194581426382,0.5603435070458799
1772871681296001800,5.443001708984375,-7.815553339672088,8.11199186246097,0.29895211304500696
1772871681305934800,5.452934814453125,-6.673752372011542,6.286866101056337,0.10190525398701429
1772871681315867000,5.462866943359375,-7.0714780168890945,5.441365709018707,0.8058786488104611
1772871681325800000,5.472800048828125,-8.382911913111805,5.221480849078297,2.0435637835375964
1772871681335733000,5.48273291015625,-9.654308397978543,6.180334648573398,3.395011564110219
1772871681345665000,5.4926650390625,-11.629455794024468,8.018567144310474,3.1246509009078145
1772871681355598000,5.50259814453125,-11.583636292135715,9.931440747272967,1.3102017240792512
1772871681365531000,5.51253076171875,-10.319703567278385,11.142642583417892,-0.7953419841617345
1772871681375464000,5.5224638671875,-8.239640337252617,10.187339754402636,-2.5299960320025683
1772871681385396000,5.53239599609375,-5.700004370245337,7.470918648990988,-3.275385067732632
1772871681395329000,5.5423291015625,-3.763278182530403,4.134730737510323,-3.1783839524000883
1772871681405262000,5.552261962890625,-2.4051631991535425,1.1026818401932716,-2.9785628063231706
1772871681415194000,5.562194091796875,-1.0202619156599044,-1.0153408258706331,-2.233902377128601
1772871681425127000,5.572126953125,0.1840507454931736,-3.462353454238176,-1.2951166754111647
1772871681435060000,5.58206005859375,1.899683866521716,-5.760508231046796,-0.14737890158016234
1772871681444992000,5.591991943359375,3.9644735395699735,-7.088839486056566,0.6687994978506118
1772871681454925000,5.601925048828125,5.608541892078518,-7.725868977093696,0.5735287134420126
1772871681464858000,5.611858154296875,8.26938256456554,-8.553279585689305,0.5758277841646224
1772871681474791200,5.621791259765625,10.663520511835813,-5.844771737620234,0.7153253213778138
1772871681484723200,5.63172314453125,10.580849242889881,-2.3912410567849873,-0.6668911069460213
1772871681494656000,5.641656005859375,10.420601397788523,-4.228972032740712,-1.064272468430549
1772871681504589000,5.651589111328125,11.82424771376252,-5.294383003681898,0.007963672355562447
1772871681514520800,5.661520751953125,12.872844912546872,-5.728467663663626,1.5932352602414785
1772871681524454000,5.671453857421875,13.74721951689124,-6.860805221930145,2.65313901206851
1772871681534387000,5.681386962890625,14.358630582547187,-8.0712799128443,2.7241201354816553
1772871681544319000,5.691319091796875,14.791237571191786,-9.136407390668987,1.9397189397901295
1772871681554252000,5.701251953125,15.208050778377055,-9.232660610243677,1.5144137985914945
1772871681564184800,5.711184814453125,15.395167925703525,-8.540697167491912,0.7645046550884842
1772871681574116900,5.721116943359375,15.090201813066004,-7.533249725219607,-0.15074278852269052
1772871681584050000,5.7310498046875,14.096671252465248,-6.347464069882035,-1.1072156111653892
1772871681593983000,5.74098291015625,12.841634950768947,-5.004073777428269,-2.3195453553617
1772871681603916000,5.750916015625,11.325413225972651,-3.7550709106773135,-3.245377467481792
1772871681613848000,5.76084814453125,9.654905779349804,-2.901697593307495,-3.7265795602083203
1772871681623780900,5.77078076171875,8.184031847277284,-2.666053438699245,-3.592827507844567
1772871681633714000,5.7807138671875,7.2399202743619675,-2.9348733022004363,-2.8723917115852236
1772871681643646000,5.79064599609375,7.046742219561338,-3.618262393352389,-1.9135056172557174
1772871681653579000,5.8005791015625,7.195611761558055,-4.709873973476887,-1.0318815532397478
1772871681663512000,5.810511962890625,11.968549801713227,-9.33595790311098,1.7596280378386377
1772871681673444000,5.820444091796875,4.428676274439693,-10.255774408203363,4.593984033279121
1772871681683377200,5.830377197265625,1.0447767637133598,-9.449941425165534,2.6663421925127504
1772871681693310000,5.84031005859375,0.9959545728772878,-8.859799357509612,5.206450453206896
1772871681703243000,5.850242919921875,-1.0847685823619364,-7.2018486101210115,5.073671045267582
1772871681713175000,5.860175048828125,-2.062974148058891,-7.876195732161403,3.0395003823667763
1772871681723108000,5.870108154296875,-0.7635738039791583,-7.182740005025267,1.950426357895881
1772871681733041200,5.880041259765625,0.3532680789917707,-6.294659531411528,0.4725150379998609
1772871681742973200,5.88997314453125,1.5096598820626734,-5.653127468258142,-0.8671702259235083
1772871681752906000,5.899906005859375,2.2850234925568103,-5.270244003203511,-2.0061875542148946
1772871681762839000,5.909839111328125,3.006987521296739,-4.409114664879441,-3.533600535111129
1772871681772770800,5.919770751953125,3.8357624039828777,-2.7395629115462303,-4.393260093143582
1772871681782703900,5.929703857421875,3.2643373117566106,-1.2224047826826572,-4.197878975340724
1772871681792637000,5.939636962890625,2.3319974251776934,1.0367162068545819,-3.528027995675802
1772871681802570000,5.949570068359375,0.8421195174276829,3.609599778947234,-1.6466050313793121
1772871681812502000,5.959501953125,-1.3052864795088768,5.835002623277902,0.4523874651199206
1772871681822434800,5.969434814453125,-3.5410885527789593,8.071362330430746,1.5394006480708717
1772871681832367900,5.979367919921875,-6.561812923005223,10.412820242393016,1.6525681775674224
1772871681842300000,5.9892998046875,-11.995720717233418,13.769481617581844,1.2144776429452002
1772871681852233000,5.99923291015625,-19.46920833992958,19.049407056844235,1.2398460390880703
1772871681862166000,6.009166015625,-23.644623554527758,24.32254502792358,-0.33067762312963606
1772871681872098000,6.01909814453125,-22.586068440830708,25.00210082452297,-2.727712899276614
1772871681882030800,6.02903076171875,-19.55386113808155,22.309998752331733,-4.094810230532288
1772871681891964000,6.0389638671875,-14.550631994783878,18.772302764600514,-3.3098613378301263
1772871681901897000,6.04889697265625,-10.512920785045623,14.076400033330916,-1.8818872208073734
1772871681911829000,6.0588291015625,-6.7447641828238964,10.270991851079463,-0.9275298559486865
1772871681921762000,6.068761962890625,-4.469118759465218,7.904106652393937,-0.3075521836079657
1772871681931695000,6.078695068359375,-4.342545220428705,6.942005249279737,0.6121711633082478
1772871681941627100,6.088627197265625,-5.799312301215529,6.787961519515514,1.9161098084047437
1772871681951560000,6.098559814453125,-7.828528556579351,7.034829663449526,3.3919010308742523
1772871681961493000,6.108492919921875,-9.787820211845636,7.627526091763377,4.330157740281522
1772871681971426000,6.118426025390625,-9.918076238787174,8.09628926641643,4.665902145281434
1772871681981358000,6.128358154296875,-9.534306054025889,8.440558046394585,4.007693380354344
1772871681991291100,6.138291015625,-9.060361677342653,9.007822511810064,1.341084645859897
1772871682001224000,6.148223876953125,-7.048391155812144,9.668925536873935,-0.41367257107198235
1772871682011156000,6.158156005859375,-5.21101323107779,9.127894413867592,-1.4905010080844163
1772871682021089000,6.168089111328125,-3.151047032663226,6.952235551393032,-2.676736160755157
1772871682031022000,6.17802197265625,-1.931536217856407,4.672302075451612,-3.3666745274201033
1772871682040953900,6.187953857421875,-1.5357137762516737,3.0437919420808552,-3.9579590431094167
1772871682050887000,6.197886962890625,-0.8034832050412892,1.7469570645749568,-4.707296231943369
1772871682060820200,6.2078203125,0.06759294227957725,0.06755319479107856,-4.862457567560672
1772871682070752000,6.217751953125,2.269965624156594,-3.591467909929156,-3.275558378472924
1772871682080684800,6.227684814453125,5.45271887768209,-9.644880059897899,0.5334468784224242
1772871682090617900,6.237617919921875,5.472053108227253,-7.698443210029602,0.7641935433126985
1772871682100551000,6.247551025390625,7.425767255622148,-4.394857591468096,-0.5740422159221023
1772871682110483000,6.25748291015625,8.69241859178841,-2.0340824000954627,-2.0263683185867962
1772871682120416000,6.267416015625,8.491493283861875,-0.7934124774038791,-3.5349022653594613
1772871682130348800,6.277348876953125,13.346617439794539,-5.596052997383475,-1.3180110826559364
1772871682140281000,6.287281005859375,17.885694117105007,-9.453390688836574,0.7973457251995801
1772871682150214000,6.2972138671875,19.322515557450053,-11.485604956972598,0.41674631596151734
1772871682160147000,6.30714697265625,20.65025586082935,-11.952834346187114,0.6415915382556617
1772871682170079000,6.317078857421875,20.490199738907812,-11.77755025999546,0.6498253327894955
1772871682180012000,6.327011962890625,18.558961627215147,-11.537283706283569,-0.04964771840739995
1772871682189945000,6.336945068359375,16.989016495537758,-10.162907908457518,-0.35470899851508436
1772871682199878000,6.3468779296875,14.54331611881256,-8.01859461683929,-0.4104313971936702
1772871682209810000,6.356809814453125,10.783200199705362,-6.188042738732695,-0.7806680735778063
1772871682219743000,6.366742919921875,7.343263159936666,-4.475027691248059,-1.3193082828596234
1772871682229676000,6.376676025390625,4.466130683565139,-3.090640787017345,-1.0241010554313659
1772871682239608000,6.386608154296875,1.2931582348197699,-2.6644103476673364,0.3484448966190219
1772871682249541000,6.396541015625,-2.4666040485441685,-3.5304870792657135,2.1538972586520013
1772871682259474200,6.40647412109375,-4.892725864574313,-4.517651611965895,3.9692984755083915
1772871682269406200,6.41640625,-5.516778969660401,-5.48548659029603,4.9728772596538064
1772871682279339300,6.42633935546875,-4.197448767229915,-6.691583212256432,4.396179487721621
1772871682289272300,6.436272216796875,-1.2107412328958511,-7.1213950172245495,2.8420748992547393
1772871682299204400,6.446204345703125,1.8618804978281258,-6.907864494746923,1.3017042371079326
1772871682309137400,6.456137451171875,4.01302568129301,-6.8708613365203135,-0.09065283315121196
1772871682319070500,6.466070556640625,5.625975257438421,-7.05800361828804,-1.136324362880364
1772871682329003300,6.476003173828125,6.9370590250492095,-7.373571788960695,-1.4751660763084888
1772871682338935300,6.485935302734375,7.696781998819112,-7.639245755651593,-1.8366947647757828
1772871682348868400,6.495868408203125,7.709460863128304,-7.723477698042989,-2.3488142660744487
1772871682358801400,6.505801513671875,7.035119001784921,-7.109934296533465,-2.227942153549939
1772871682368733400,6.5157333984375,5.665218888068199,-5.693634250691533,-1.885872637181729
1772871682378666500,6.52566650390625,3.6235973246395585,-4.366737996920943,-1.903799777407944
1772871682388599300,6.535599365234375,1.4508727620512247,-3.175884536799788,-2.0023215264365075
1772871682398531300,6.54553125,-0.30393501602411266,-2.0439824473410844,-1.9679495934963225
1772871682408464400,6.55546435546875,-1.1225333726108073,-0.7539414677590132,-1.4852677836060524
1772871682418397400,6.5653974609375,-1.2279600787222384,0.4418155464947223,-0.8196460390087217
1772871682428330500,6.57533056640625,-1.7544067960590124,2.0398001932203766,0.2301127143682912
1772871682438262500,6.585262451171875,-2.9548832400500773,3.871914498338103,1.2234821295905858
1772871682448195600,6.595195556640625,-4.092800644275546,5.464032298856973,2.0158578843578696
1772871682458128400,6.60512841796875,-5.417983079865574,6.865730403372645,3.116474900975823
1772871682468060200,6.61506005859375,-7.233021162497997,8.575102125918864,4.23949401127696
1772871682477993200,6.6249931640625,-10.335167678391933,10.461105257612466,4.0945425195068115
1772871682487926300,6.63492626953125,-14.874419712269304,12.612917380553483,3.1026790153354407
1772871682497858300,6.6448583984375,-18.606991790890692,15.191029500949382,1.9746828472740947
1772871682507791400,6.654791259765625,-20.29405991169214,17.083802565169332,1.6199971565693616
1772871682517724200,6.66472412109375,-19.570524688112734,17.70110911860466,2.3167785209968685
1772871682527657200,6.6746572265625,-17.26724891502857,16.16388902944326,2.6405098321199416
1772871682537589200,6.68458935546875,-14.41353004747033,13.21373690956831,2.241342171740532
1772871682547522300,6.694522216796875,-12.182955937981605,10.635632972478867,2.3265052575021983
1772871682557455400,6.704455322265625,-10.016614938950537,9.159878282627464,3.001994243054092
1772871682567387400,6.714387451171875,-8.341848081317544,8.066174114137887,3.351685924863815
1772871682577320400,6.724320556640625,-7.066345330175757,6.966328374153375,3.2429590081632136
1772871682587253200,6.734253173828125,-5.533059073331952,5.917391568151116,2.5757398383066055
1772871682597185300,6.744185302734375,-3.6993817566812037,4.800239888578653,1.8182624515064059
1772871682607118300,6.754118408203125,-1.7808593341767787,3.4735651686042543,1.3519058996036648
1772871682617051400,6.764051513671875,-0.18117431327402592,2.1952549588263035,1.1196933999445289
1772871682626984400,6.773984375,1.0376759917974472,1.2597569004774092,1.1328797753844408
1772871682636916500,6.78391650390625,2.2692782264143228,0.6682792003035545,1.4974308073475957
1772871682646849300,6.793849365234375,3.549821894332766,-0.11365502075254917,1.4744874463945625
1772871682656782300,6.8037822265625,4.827899464398622,-1.0040659831404686,1.0163841974437235
1772871682666714400,6.81371435546875,6.021853228622675,-1.6218027446866035,0.5977120645187795
1772871682676647400,6.8236474609375,6.652621905699372,-2.0974042409271,0.45525282795578237
1772871682686580500,6.83358056640625,6.7823021785795685,-2.5828046621263026,0.4925625313809141
1772871682696512500,6.843512451171875,6.9483759533554315,-3.0750767226606603,0.1874607000671327
1772871682706445600,6.853445556640625,7.354597623899578,-3.135099521946907,-0.28669023203887045
1772871682716378400,6.86337841796875,7.726005170693993,-2.859537198448181,-0.6275909968886524
1772871682726310100,6.87331005859375,8.072173062291741,-2.5165432607114315,-0.7771743131779134
1772871682736243200,6.8832431640625,8.344777120506762,-2.2073007859289646,-0.6748758951548487
1772871682746176300,6.89317626953125,7.925648622116446,-1.8801339473992584,-0.19887126147355882
1772871682756109600,6.903109619140625,7.708468344959616,-1.6901432904630898,-0.018207224392786155
1772871682766041300,6.913041259765625,7.087159570145607,-1.2861141615271567,-0.09424206241536885
1772871682775974400,6.922974365234375,6.386364001640677,-0.9727391169846057,-0.2839469977453351
1772871682785907200,6.9329072265625,5.587380446106195,-0.8386918810665607,-0.29233127013314514
1772871682795839200,6.942839111328125,4.522989465862512,-0.6318944662362337,-0.055062290802039206
1772871682805772300,6.952772216796875,3.639232700666785,-0.3762894736170769,0.1413980736048892
1772871682815705300,6.962705322265625,2.8475743734538552,-0.06234802736341953,0.2214757093284279
1772871682825637400,6.972637451171875,2.313345331677794,0.4400561356067657,0.16964407101068646
1772871682835570400,6.9825703125,1.983271665790677,0.7868424513638019,-0.01370396957322955
1772871682845503200,6.992503173828125,1.738491434046626,0.90036887730062,0.007362710787728428
1772871682855436300,7.002436279296875,1.4588690215021372,0.7980459824234247,0.06341079775672405
1772871682865368300,7.012368408203125,1.0920388656258582,0.4989473005145788,0.1913998661469668
1772871682875301400,7.02230126953125,0.7263812606602906,0.1918365770637989,0.29726215066406875
1772871682885234400,7.032234375,0.37732232379615305,-0.14509996033012867,0.23688209890536963
1772871682895166500,7.04216650390625,0.05462883128821849,-0.44919571987390516,0.3336172933107242
1772871682905099300,7.052099365234375,-0.335824192237854,-1.188258767452836,0.8324002335764468
1772871682915032300,7.0620322265625,-0.7444932559341192,-2.033611859974265,1.4486860656619072
1772871682924964400,7.07196435546875,-0.8060983559757471,-2.0407406889408826,1.653452851447463
1772871682934897400,7.0818974609375,-1.0557757121115923,-1.7454641956686971,1.7264356700718402
1772871682944830500,7.09183056640625,-1.5965227574795484,-1.4620166718780994,1.784384439563006
1772871682954762500,7.101762451171875,-2.133165874660015,-1.1486562403827905,1.6593790266260504
1772871682964695600,7.111695556640625,-2.1037872199624776,-1.0181149667590856,1.3023257300071418
1772871682974628400,7.12162841796875,-1.875325085812807,-1.0163801057904958,1.003587186647579
1772871682984561400,7.1315615234375,-1.5187299082249401,-1.0609843866705895,0.9504257244981825
1772871682994493200,7.1414931640625,-1.3535703256845473,-1.172275600901246,0.6418610759120434
1772871683004426200,7.15142626953125,-0.9409054703503846,-1.0637684644311667,-0.05497691407352685
1772871683014359600,7.161359619140625,-0.40201019032895563,-0.794658678072691,-0.7149160829897969
1772871683024291300,7.171291259765625,-0.02352759058177471,-0.6162310331583023,-1.3155705576360226
1772871683034224400,7.181224365234375,0.24623919838070868,-0.5352309122949839,-1.8437350386761129
1772871683044157200,7.1911572265625,0.06521744531989097,-0.35086160237193104,-1.9966022720068692
1772871683054089200,7.201089111328125,-0.47197044626176354,0.09973112481832504,-1.8763272485926745
1772871683064022300,7.211022216796875,-1.0882821434408425,0.5297609564512967,-1.5113696085900068
1772871683073955300,7.220955322265625,-1.4954209288299083,0.6516127276629209,-1.1216364968363195
1772871683083888400,7.230888427734375,-1.6152309650808572,0.5876981816351413,-0.9047800448063761
1772871683093820400,7.2408203125,-1.4083569778829812,0.5132908831655979,-0.6946179027833044
1772871683103753200,7.250753173828125,-1.251226972541213,0.3879869256734848,-0.4501371654424816
1772871683113686300,7.260686279296875,-0.8913947127282619,0.03886836757659912,-0.11992927871644496
1772871683123618300,7.270618408203125,-0.49714112787544723,-0.46791678695678707,0.2137055137183517
1772871683133551400,7.28055126953125,-0.08312836506366729,-0.9017290597379207,0.3938591056425124
1772871683143484400,7.290484375,0.25695406914055346,-1.138811722716689,0.33294118414744733
1772871683153416400,7.30041650390625,0.4137573267459869,-1.0331745887249708,0.15638042908348143
1772871683163349500,7.310349609375,0.4164940582334995,-0.7662222726613283,-0.1211325170263648
1772871683173282300,7.3202822265625,0.37682606471180913,-0.32611177651882167,-0.35196328000351784
1772871683183214300,7.33021435546875,0.3197159380018711,0.11299626458287239,-0.5049640765860677
1772871683193147400,7.3401474609375,0.14653729965686796,0.3536123623847961,-0.6906071327719837
1772871683203080400,7.35008056640625,0.039059506234526635,0.5421878918260336,-0.7513339156091213
1772871683213013500,7.360013427734375,-0.07979600577056407,0.6064385379403829,-0.5852024923618883
1772871683222945500,7.369945556640625,-0.1364806005448103,0.49426820278763767,-0.40536622275859113
1772871683232878300,7.37987841796875,-0.09425298566818237,0.4125029427707195,-0.3095641810175031
1772871683242811400,7.389811279296875,-0.07624503529071808,0.315066650891304,-0.19471271702200174
1772871683252743200,7.3997431640625,-0.019686697244644166,0.1190343757033348,-0.04878916534930467
1772871683262676000,7.409676025390625,0.1905547205597162,-0.0002554360657930374,-0.008650997032597661
1772871683272609000,7.419609130859375,0.43245910460650916,-0.1336608669489622,-0.046858781808614726
1772871683282541000,7.429541015625,0.6261936242461205,-0.2812029597342014,-0.04186119271703064
1772871683292474000,7.43947412109375,0.719907096210122,-0.42823008873462676,0.0115156657487154
1772871683302407000,7.449406982421875,0.781249161401391,-0.444201564848423,0.09048230802305042
1772871683312340000,7.459340087890625,0.8497668173104524,-0.4978618433654308,0.006019041093811393
1772871683322272000,7.46927197265625,0.8791858040183782,-0.5835317096054554,-0.051880409362912175
1772871683332205000,7.479205078125,0.7122790855497121,-0.6456991197049617,0.10343195209763943
1772871683342138000,7.48913818359375,0.33277649510502816,-0.5659235722005367,0.3211703015286475
1772871683352070100,7.499070068359375,-0.13759762187600136,-0.338084538385272,0.3683602880530059
1772871683362003200,7.509003173828125,-0.39395314060151576,-0.08272796756923198,0.25697978810369965
1772871683371936000,7.51893603515625,-0.507852491503954,0.08289163369834422,-0.06157105164155364
1772871683381868000,7.528867919921875,-0.5702379282683133,0.20091770914196966,-0.3371777988038957
1772871683391801000,7.538801025390625,-0.7194371406108141,0.28066169246435163,-0.524816851112619
1772871683401734100,7.548734130859375,-0.7823486470758915,0.23159283339083192,-0.529884436700493
1772871683411666000,7.558666015625,-0.7530009720385075,0.03247428262531757,-0.30378442857228216
1772871683421599000,7.568598876953125,-0.5214081386476754,-0.26963001084029675,-0.016349077254533766
1772871683431532000,7.578531982421875,-0.3206926740795374,-0.593469166252017,0.3321222689799964
1772871683441465000,7.588465087890625,-0.09706044430434703,-0.888054170128703,0.7112612868092953
1772871683451396900,7.59839697265625,0.10660744032859802,-1.0600690253913403,0.8698495281353592
1772871683461330000,7.608329833984375,0.260061972028017,-1.1523925043016672,0.9586432985495775
1772871683471263000,7.618262939453125,0.48415305148661136,-1.2396493474721908,0.983179335521534
1772871683481195000,7.628195068359375,0.7801672113835811,-1.2282587694078684,0.982856679438427
1772871683491128000,7.638128173828125,1.1012123521625996,-1.2729647570967673,0.9045260700453073
1772871683501060900,7.648060791015625,1.3961059835970402,-1.5120488230258224,0.995595238045603
1772871683510993000,7.657992919921875,1.9271528882056475,-1.7945400690048932,1.1698759924136102
1772871683520926000,7.667926025390625,2.4446511599332093,-2.0601205121934414,1.3037597083330155
1772871683530859000,7.67785888671875,3.0394577122688293,-2.2821423841625452,1.3992033650904894
1772871683540791000,7.687791015625,3.586485445341468,-2.596287828555703,1.5043164752081035
1772871683550724000,7.69772412109375,4.10347869015634,-2.7064064918756485,1.719748155131936
1772871683560657200,7.7076572265625,4.531509456926584,-2.7800743701547384,1.912425274673104
1772871683570590000,7.71758984375,4.769761163684725,-2.805664153963327,2.1517827507160603
1772871683580522000,7.72752197265625,4.908614338579774,-2.527937345907092,2.1704390819996595
1772871683590455000,7.737455078125,4.832357612851262,-2.1537270166516302,2.0543452897928653
1772871683600388000,7.74738818359375,4.43308181592226,-1.8166811736643314,2.0882253475628794
1772871683610320100,7.757320068359375,3.753169460970163,-1.3646072680056094,2.129557767165452
1772871683620253200,7.767253173828125,2.9001649769127367,-0.8181646413445472,2.0898397970221936
1772871683630186000,7.77718603515625,2.2598978191286325,-0.4939198277413845,2.0381968496769667
1772871683640118000,7.787117919921875,1.7009844179511069,-0.29293548310399053,1.8016335343971848
1772871683650051000,7.797051025390625,0.933168738618493,-0.008849076887965202,1.4862604479052126
1772871683659984100,7.806984130859375,0.012928455156087875,0.3077601272702217,0.9052500734709202
1772871683669916000,7.816916015625,-1.2189467511832712,0.7080220126271247,0.1757750480463728
1772871683679849000,7.826848876953125,-2.45164379529953,1.5570131693899631,-0.48298674765359606
1772871683689782000,7.836781982421875,-3.8247546877563,2.7729724291950464,-0.9822200620353221
1772871683699715000,7.846715087890625,-5.12966064351499,4.3971910028517245,-1.199684855221957
1772871683709646800,7.856646728515625,-6.669460812297463,6.646187488737702,-1.10621213321127
1772871683719580000,7.866579833984375,-8.424413551801443,9.016815965604781,-0.7932314217485487
1772871683729513000,7.876512939453125,-9.58311187824905,11.290547664296627,-0.2844610116820782
1772871683739445000,7.886445068359375,-10.123244591110945,13.503250601530075,0.5703914383295923
1772871683749378000,7.8963779296875,-10.261943452227115,14.958376929372548,1.379935623910278
1772871683759310800,7.906310791015625,-10.541897873204945,14.921997456002234,1.6182663872539995
1772871683769243000,7.916242919921875,-10.825973173505067,14.217470884275436,1.7931895311787724
1772871683779176000,7.926176025390625,-11.144553969997167,13.419801918470858,2.1471679503969847
1772871683789109000,7.93610888671875,-11.118462081885337,12.16022972691059,2.3125056659832595
1772871683799042000,7.9460419921875,-10.07573114478588,10.85620113850832,2.4838994667381047
1772871683808974000,7.95597412109375,-8.61153595982492,8.859720447054505,2.203655999685824
1772871683818907100,7.9659072265625,-6.557240208262205,6.072849256366491,1.7349027619048951
1772871683828840000,7.97583984375,-3.648962652042508,2.820439113768935,1.0399003898486494
1772871683838772000,7.98577197265625,-0.2760012994378805,-0.3785580030709505,0.6004656010106205
1772871683848705000,7.995705078125,2.81502118037343,-3.611338147047162,-0.4267604545734823
1772871683858638000,8.00563818359375,5.3612756887376305,-6.476296786022186,-2.2475009866312146
1772871683868570000,8.015570068359375,7.1752353284835815,-8.545369835478066,-3.9877404333889483
1772871683878503200,8.025503173828126,7.89552119487822,-10.017976874953508,-4.811618776205182
1772871683888436000,8.03543603515625,7.8792013437181705,-10.971558871525525,-4.946532273563743
1772871683898368000,8.045367919921874,7.838212915247678,-11.254568003898859,-4.608249582257867
1772871683908301000,8.055301025390625,7.968283064228296,-11.068144099533557,-4.425951817911863
1772871683918234000,8.065234130859375,7.995535812813043,-10.729988833999633,-4.38034829686135
1772871683928167200,8.075167236328125,7.996631206834316,-10.486372969859838,-4.133327300453185
1772871683938099000,8.085098876953126,7.829970572081208,-10.344501323926448,-3.64973334415406
1772871683948032300,8.0950322265625,7.481018602722883,-9.94803415467739,-2.8755475452676413
1772871683957965000,8.104965087890625,6.875420607259869,-9.25201179192364,-2.1253416107751426
1772871683967896800,8.114896728515625,6.005988135492801,-8.48771902602017,-1.529336350174248
1772871683977830000,8.124829833984375,5.227863828113675,-7.548561276119947,-1.158409280373156
1772871683987763000,8.134762939453125,4.31140890840888,-6.7428820223391055,-0.9741513218700886
1772871683997695000,8.144695068359376,3.5755887882739303,-5.904125843864679,-0.8678595233619213
1772871684007628000,8.1546279296875,3.0382454138696193,-5.414800358176231,-1.1417296559900045
1772871684017560800,8.164560791015624,2.986219458556175,-5.148384048685431,-1.5110704795129597
1772871684027493000,8.1744931640625,3.3419255783498287,-5.053290520539879,-1.868037705283612
1772871684037426000,8.184426025390625,3.8468127903074025,-5.094202376642823,-2.2190391545176507
1772871684047359000,8.19435888671875,4.238322044888139,-5.209330392557383,-2.3840362399727106
1772871684057292000,8.2042919921875,4.424102975174784,-5.334156211143732,-2.32183901925683
1772871684067224000,8.21422412109375,4.4882688656151295,-5.478599753391743,-2.051448253177106
1772871684077157000,8.2241572265625,4.343292823925614,-5.552702515956759,-1.737880754802376
1772871684087090000,8.23408984375,4.082466297265887,-5.543775697657465,-1.2675433165699244
1772871684097022000,8.24402197265625,3.695876963430643,-5.460020140606165,-0.6630543783273547
1772871684106955000,8.253955078125,3.2174048801898953,-5.256236520639062,-0.1512322160074487
1772871684116888000,8.26388818359375,3.017289135080576,-5.090423442625999,0.14832140659466386
1772871684126820000,8.273820068359376,3.3131986655592915,-4.667202121964097,0.4093091882307082
1772871684136753200,8.283753173828124,3.6984406764388083,-4.016761945211887,0.514142458493635
1772871684146686000,8.29368603515625,3.8470816703766584,-2.9895424654990435,0.5118886516848579
1772871684156618200,8.3036181640625,3.305652487963438,-1.363246501046419,0.7065143845431506
1772871684166551000,8.313551025390625,2.1331541842222213,1.097155185726285,1.3512358913876115
1772871684176484000,8.323484130859375,0.3229571118801832,4.620055170863867,1.5340880747459829
1772871684186417200,8.333417236328126,-2.694941095009446,9.70267583078444,1.197429404445365
1772871684196349200,8.34334912109375,-8.010514186236263,15.879624344050884,1.462311855432391
1772871684206282200,8.3532822265625,-14.84917538089752,21.542128712463377,2.888468986161053
1772871684216215000,8.363215087890625,-22.76037988259792,25.07641927566528,5.775497710385919
1772871684226146800,8.373146728515625,-29.450770670199393,25.36284903013706,9.472221061512828
1772871684236082200,8.383082275390626,-26.654855172312256,24.198930338692662,9.803262111127376
1772871684246014200,8.39301416015625,-18.859112448525426,21.801048528718947,6.129476567995548
1772871684255947300,8.402947265625,-12.272097864246367,19.249220019614697,2.101271291618794
1772871684265880300,8.41288037109375,-7.8765704106926915,17.326617634320257,-0.37954211873747407
1772871684275813400,8.4228134765625,-6.050977616298199,15.760192493462561,-1.4557738319657743
1772871684285745400,8.432745361328125,-5.617768570107221,13.913790719795227,-2.061939252053201
1772871684295678500,8.442678466796876,-5.189477106574177,11.713008521980047,-2.264641506524384
1772871684305611300,8.452611328125,-4.31071975710094,9.563075052392483,-1.892050302903354
1772871684315543300,8.462543212890624,-3.058134355688095,7.285497784188389,-1.5203478648155926
1772871684325476400,8.472476318359375,-2.1362696858942507,4.558474036219716,-1.536976781924814
1772871684335409400,8.482409423828125,-1.2160504452198744,1.8814158039033413,-0.9301439839698373
1772871684345341400,8.492341552734375,-0.08728723830878735,-0.7488380071401596,-0.3569866611234844
1772871684355274500,8.5022744140625,1.50187054336071,-3.2585616509646176,-0.3670804773755371
1772871684365207600,8.51220751953125,3.410916696989536,-5.633811942413449,-0.3418468865934759
1772871684375139600,8.5221396484375,6.116045424014329,-7.351631759831309,-0.815288355255872
1772871684385072400,8.532072265625,8.80168794480264,-8.386509060820936,-1.763262302687764
1772871684395005400,8.54200537109375,10.826741235268114,-8.695490838840604,-2.254852664568275
1772871684404938500,8.5519384765625,11.664278101080656,-8.451296882551908,-1.9711147795289754
1772871684414870300,8.561870361328126,11.511701521259546,-8.150017349472641,-1.6840680622026323
1772871684424803300,8.57180322265625,11.011392869263886,-7.801253596162796,-1.4892118450567124
1772871684434736000,8.581736083984374,10.256977354252339,-7.608563617140054,-0.9358347429573536
1772871684444668400,8.59166845703125,9.68644833408296,-7.569924382144213,-0.026342282676324248
1772871684454601200,8.601601318359375,9.47113268175423,-7.737064909368753,0.7383452546983957
1772871684464534300,8.6115341796875,9.095525345182418,-8.283060961306095,1.0543977017566561
1772871684474466300,8.62146630859375,8.583627962201833,-8.629724527466296,0.9877566533744334
1772871684484399400,8.6313994140625,8.308276066583394,-8.479681850036979,0.5786327585827559
1772871684494332400,8.64133251953125,7.7647993039906025,-8.33327782137096,-0.2373132568642497
1772871684504264400,8.651264404296874,6.983248529294133,-7.784245762738585,-0.9082179103005676
1772871684514197200,8.661197265625,5.815139400422573,-6.971561598631739,-1.4484123632870614
1772871684524130300,8.67113037109375,3.915867621833086,-6.362961498743295,-1.6840094638831913
1772871684534063400,8.6810634765625,1.865992609322071,-6.163961021399498,-1.5632520637795329
1772871684543995400,8.690995361328126,0.4262696023166179,-6.308169001325965,-1.2889613676518201
1772871684553928400,8.700928466796874,-0.15020692808032035,-6.605704671701789,-0.8802526295322924
1772871684563861200,8.710861328125,0.28348084153831005,-7.073043951031566,-0.693608871871233
1772871684573793500,8.72079345703125,1.2587158669918774,-7.618743650370836,-0.6827764391463249
1772871684583726300,8.730726318359375,2.4284867915958164,-8.048743671387433,-0.6613669366970658
1772871684593659400,8.740659423828125,3.400739586368203,-8.173450832030177,-0.6026986207596957
1772871684603591400,8.75059130859375,3.9710271989971395,-7.9172461199522015,-0.7226364481087774
1772871684613524500,8.7605244140625,4.118023348337411,-7.569055198094248,-0.5189287429220975
1772871684623457500,8.77045751953125,3.863824130862951,-7.397638893246651,-0.31937059516292066
1772871684633389600,8.7803896484375,3.74731898137629,-6.973035178315639,-0.21559680735766887
1772871684643322400,8.790322265625,3.6161376562833785,-6.34814562240541,0.1180163212345913
1772871684653255400,8.80025537109375,3.573981353077292,-5.8083396572798485,0.3873481163132936
1772871684663187200,8.810187255859375,3.809166658002138,-5.071290872132778,0.4011776850275695
1772871684673120300,8.820120361328126,4.223640608584881,-3.6294916433751583,0.37129835079889745
1772871684683053300,8.83005322265625,4.420038209953904,-1.4066659560561179,0.008012285853817592
1772871684692986400,8.839986328125,4.293344259408116,1.515811390429735,-0.5603738291189074
1772871684702918400,8.84991845703125,3.352807037848234,5.131839156597852,-0.5185860669642687
1772871684712851200,8.859851318359375,1.376422793483734,9.469578438049554,-0.08872010238980874
1772871684722784300,8.8697841796875,-1.681929588869214,13.810823681795597,-0.07190879618469626
1772871684732716300,8.87971630859375,-4.581035996639728,17.355918547606468,-0.4971516858020797
1772871684742649300,8.8896494140625,-6.603183044269681,20.29652659406662,-0.38409481360577047
1772871684752582400,8.89958251953125,-8.689052914747595,22.18995198471546,-0.3581609655998647
1772871684762514400,8.909514404296875,-10.642404074048995,23.292891014540196,-1.035949021874368
1772871684772447200,8.919447265625,-11.90772679196,24.08009470043182,-1.5784043324649333
1772871684782380300,8.92938037109375,-14.708978974699972,23.19566164340973,0.49728565091267224
1772871684792313300,8.939313232421876,-25.442804610383508,17.529258513993025,9.940397960710525
1772871684802245400,8.949245361328124,-39.90052100558281,9.503703995013236,23.103865987765786
1772871684812178400,8.959178466796875,-35.190988392889494,7.283879243075847,24.54616673630476
1772871684822111500,8.969111572265625,-20.400725804209706,9.425910561236739,13.772816899484395
1772871684832043500,8.97904345703125,-9.819102654337883,10.3853219946146,3.321926161894202
1772871684841976300,8.988976318359375,-0.5351981790691613,10.661948147952556,-2.9199364298313855
1772871684851909400,8.998909423828126,4.603560547658801,9.154339353200793,-6.868694513875246
1772871684861841400,9.00884130859375,5.918445461118221,6.787562291064858,-7.449275556981563
1772871684871774500,9.0187744140625,6.112402099075913,4.850287821817398,-6.9336793194830415
1772871684881707500,9.02870751953125,6.13088935740292,2.759144394850731,-7.002512617212534
1772871684891639600,9.0386396484375,6.2500067352145905,0.6565799946814775,-7.380695357230305
1772871684901572400,9.048572265625,6.396063557878136,-1.0623965915560722,-6.936853273344039
1772871684911505400,9.05850537109375,6.323226285204291,-3.0017279933333394,-5.755821534535288
1772871684921438500,9.0684384765625,6.063045655232668,-5.5297804900526994,-3.9530335694059726
1772871684931370200,9.078370361328124,5.404062106540799,-8.440993515202402,-1.3022802834302185
1772871684941303300,9.08830322265625,4.788898410353064,-11.076339096426963,1.1444395725358276
1772871684951236400,9.098236328125,4.885802202790975,-13.159455868804454,3.1762212214082477
1772871684961168400,9.10816845703125,6.438997275197505,-15.79227105476856,5.031348153322935
1772871684971101200,9.11810107421875,5.295093782299757,-15.312757353520393,4.147762945301831
1772871684981034200,9.1280341796875,5.560783531081676,-12.763814044463635,2.113798764758557
1772871684990966300,9.13796630859375,5.736168739560246,-10.535406173098087,1.0946791510015725
1772871685000899300,9.1478994140625,4.76053916183114,-9.73149042185843,-0.009835530642047523
1772871685010832400,9.157832275390625,3.345626770955324,-8.725639893388747,-0.19682503300085663
1772871685020764400,9.167764404296875,2.0042752908527848,-7.525081616333127,-0.16913316234648226
1772871685030697500,9.177697509765625,1.2783680774450301,-6.733536101844907,-0.5115774303112178
1772871685040630300,9.18763037109375,0.9207003021895885,-6.042569853436946,-0.8100393486864864
1772871685050562300,9.197562255859374,1.3007979359179735,-5.6133320489645,-1.2332082085087894
1772871685060495400,9.207495361328125,2.3145243123292922,-5.406363953742384,-1.6872712421581149
1772871685070428400,9.217428466796875,3.616155191940069,-5.342828762421012,-2.0983400604724882
1772871685080361500,9.227361572265625,4.7709641097337006,-5.412588527345657,-2.264363274104893
1772871685090293500,9.23729345703125,5.333779779046774,-5.574546683496236,-2.2595963519640265
1772871685100226300,9.247226318359376,5.434284810847044,-5.527068308484554,-1.9291408471524714
1772871685110159400,9.257159423828124,5.597767400085925,-5.051615865325927,-1.4340698035493493
1772871685120091400,9.26709130859375,5.551294402724504,-4.523875016525388,-1.1620695564463734
1772871685130024400,9.2770244140625,5.39758852661252,-3.6201679347127675,-1.026466469388455
1772871685139957500,9.28695751953125,5.023946352633834,-2.228950307679176,-1.1149740432724355
1772871685149889500,9.2968896484375,4.347131963697076,-0.8921616054475306,-1.380235775900632
1772871685159822300,9.306822265625,3.090454909056425,0.18849778802990913,-1.6183957127220927
1772871685169755400,9.31675537109375,1.9507669880270957,1.2957640334039926,-1.4582055891573429
1772871685179687200,9.326687255859374,0.929233737257123,2.306428684157133,-0.8319153726689517
1772871685189620200,9.3366201171875,0.501466589859128,2.8380361452579494,-0.19264979314282535
1772871685199553300,9.34655322265625,0.8997381781816483,3.158738171687722,0.8085672303073108
1772871685209486300,9.356486328125,1.3128811724215745,3.119272422739863,1.5338408219866453
1772871685219418400,9.36641845703125,1.7948288228183984,2.8198996000647543,1.7039543736726044
1772871685229351200,9.37635107421875,2.2664853808254004,2.769729501751065,1.8366342667602003
1772871685239284200,9.3862841796875,1.9044073879122734,3.0845506534487006,1.77947693990767
1772871685249216300,9.39621630859375,1.3957839120358229,3.3860037895292043,1.9174319969192146
1772871685259148800,9.406148681640625,1.4060200593680143,4.824506899350881,3.113528033868968
1772871685269081900,9.416081787109375,0.8072866889774799,6.616715310537815,4.147532643677294
1772871685279014000,9.426013916015625,-1.2906582346975803,7.316276368811726,2.717533742828667
1772871685288947000,9.435947021484376,-4.2681700706630945,8.921531298801302,-0.6525808420427143
1772871685298879700,9.445879638671874,-6.743950528353452,11.95925824175477,-3.009718407565355
1772871685308811800,9.455811767578124,-8.157283541083336,14.037461523127556,-3.59514367583245
1772871685318744800,9.465744873046875,-8.218612746793031,13.498319574868678,-2.9671213748544454
1772871685328678000,9.475677978515625,-8.315901154634355,10.6249759693861,-1.6400559019967913
1772871685338610000,9.48560986328125,-9.770612471935152,5.461534636822343,3.5256124589666724
1772871685348543000,9.49554296875,-5.0801200752764935,2.318607197728753,3.925785496996343
1772871685358476000,9.50547607421875,-4.135692860540748,-1.356653678652644,6.837098183128237
1772871685368408800,9.515408935546875,-1.5102899966597556,-2.247674881893396,5.321558595377207
1772871685378340900,9.5253408203125,-0.6583516805291175,-1.450890882229805,2.799090328530967
1772871685388274000,9.53527392578125,0.3911632176220417,-0.08230944989621639,1.0510299788892268
1772871685398207000,9.54520703125,0.8023615075349807,0.2957341739118099,-0.24863398456275462
1772871685408138800,9.555138671875,0.5146043038517236,-1.216679390773177,0.04706541029661893
1772871685418071800,9.56507177734375,0.30795769566893577,-3.6917952470749613,0.98658337181136
1772871685428004900,9.5750048828125,0.5606447550147772,-4.524328020989895,0.5315474014766514
1772871685437937000,9.58493701171875,1.0686439615130423,-4.488424932959676,-0.3966637147344649
1772871685447869700,9.59486962890625,1.560325654938817,-4.201033639979363,-0.901008636508882
1772871685457802800,9.604802734375,1.5158219118237495,-4.356066380780935,-0.9745454357542097
1772871685467734800,9.61473486328125,0.969126187184453,-4.126155801388621,-0.9724937639214097
1772871685477667800,9.624667724609376,1.021476552146673,-3.0795851399958134,-1.0461975902967153
1772871685487601000,9.634600830078124,0.9535334812551737,-1.613797132885456,-1.1933088904492557
1772871685497533700,9.64453369140625,-0.010792612171173095,-0.46907355577647686,-0.9843424610167741
1772871685507465700,9.6544658203125,-0.6494996810317039,-0.21965806544721125,-0.045983314148336646
1772871685517398800,9.664398681640625,-0.013443418940901756,-0.9638111296415328,0.7075071949727832
1772871685527331800,9.674331787109375,1.1493079822897911,-1.7201649192392825,0.5943209607757628
1772871685537263900,9.684263916015626,2.1825778480827807,-2.057324159473181,0.3827840963333845
1772871685547197000,9.694197021484374,2.354463524007797,-1.9684704025000332,0.5832949782401323
1772871685557130000,9.7041298828125,1.9258973351866007,-1.3929109869480132,1.1294912289246917
1772871685567062000,9.71406201171875,1.1399579701423643,-0.771213505077362,1.4150607133053241
1772871685576994800,9.723994873046875,0.32523324011862276,-0.020445406657457352,1.1955389875888824
1772871685586927900,9.733927978515625,-0.46989656259715556,0.738648621559143,0.7454252760872244
1772871685596860000,9.74385986328125,-1.1201771648734806,1.2664379856765269,0.34231384651809926
1772871685606793000,9.75379296875,-1.2938152374237775,1.4794845240294932,0.18546601911857724
1772871685616726000,9.76372607421875,-1.0401824216604232,1.4265180729955433,-0.06616027912795543
1772871685626658000,9.773657958984375,-0.5043675719976425,1.116474803224206,-0.5822103978738188
1772871685636590800,9.7835908203125,0.11277297722101211,1.1013818635106085,-0.8911249558761716
1772871685646524000,9.79352392578125,0.2171159797489643,0.9685194534629583,-0.9993385162271559
1772871685656457000,9.80345703125,0.2736643809229135,0.8088514540761709,-0.8598224935092031
1772871685666388700,9.813388671875,0.4117196834385395,0.5152297422736883,-0.489398989316076
1772871685676321800,9.82332177734375,0.3286421717792749,-0.07842179480791091,0.023430559948086738
1772871685686255000,9.833255126953125,0.0993663831591606,-0.5509732558280229,0.6731849463932216
1772871685696187000,9.843186767578125,-0.2927028433918953,-0.7669733832895755,1.0723993685238062
1772871685706119700,9.85311962890625,-0.7692115176051855,-0.6502981379330158,0.921668124308437
1772871685716052700,9.863052734375,-0.8466846333861351,-0.4310696960747242,0.29506942639276384
1772871685725984800,9.87298486328125,-0.778567374971509,-0.49382221258580683,-0.07222644729912281
1772871685735917800,9.882917724609374,-0.9552548982203006,-0.697532767316699,-0.15661650286167858
1772871685745851000,9.892850830078125,-1.216304712241888,-0.6846499048680067,-0.32506445942297574
1772871685755783000,9.902782958984375,-1.4146376655876636,-0.3181529264688492,-0.5162276672698557
1772871685765715700,9.9127158203125,-1.5443857430070638,-0.3138648738861084,-0.7571835184201597
1772871685775648800,9.922648681640625,-1.2204659235745667,-0.49673196255266666,-0.9223322873055935
1772871685785580800,9.932580810546876,-0.8722492827534675,-0.5574538500189781,-0.9960727924294769
1772871685795513900,9.942513916015624,-0.9501368245542049,-0.5333259554564953,-0.7280798812717199
1772871685805447000,9.952447021484375,-0.9752087219685316,-0.4147907614469528,-0.13560571740642188
1772871685815380000,9.9623798828125,-0.8760375691205262,-0.6185042387872934,0.054376756223291155
1772871685825312000,9.97231201171875,-0.8353764729082583,-0.3564508006811142,0.10403788210153579
1772871685835244800,9.982244873046875,-1.1424527095675467,0.003973579806089401,0.07223667643219232
1772871685845177900,9.992177734375,-1.3112491873055696,0.08609422913193703,-0.01595613241419196
1772871685855110000,10.00210986328125,-1.3408137199640273,0.15038812986612318,-0.1411307644382119
