time,seconds_elapsed,z,y,x
1772882696871675100,0.069675048828125,0.019504910936951635,-0.3020791590243578,0.05077113294675946
1772882696881608200,0.079608154296875,-0.08398761224150657,-0.3239472919613123,-0.007057809557020664
1772882696891540200,0.089540283203125,0.01601473073363304,-0.1909866822361946,-0.052309448429942125
1772882696901473300,0.099473388671875,0.02651391291618347,-0.3038789019227028,-0.11856208201646803
1772882696911405300,0.1094052734375,0.029573300486803053,-0.3502016771584749,-0.1308969551935792
1772882696921337600,0.119337646484375,0.1020464160233736,-0.2930453732192516,-0.15413856844082474
1772882696931269600,0.12926953125,-0.07996200998723506,-0.5445733256578446,-0.22692864097207782
1772882696941202700,0.13920263671875,0.018114333361387253,-0.5231348163098096,-0.23690087667107582
1772882696951134500,0.149134521484375,0.003991115462779998,-0.7211749241888523,-0.20073928383514283
1772882696961067500,0.159067626953125,0.17342121492922305,-0.6969254490733147,-0.12455138555914162
1772882696971000300,0.169000244140625,0.4383154294192791,-0.6946878992795944,-0.16720497076287866
1772882696980932400,0.178932373046875,0.6487316192686557,-0.7335363931119442,-0.23470716601908206
1772882696990865400,0.188865478515625,0.7282032153904437,-0.7254676529467106,-0.23421821345835922
1772882697000797400,0.19879736328125,0.6568839460641145,-0.8871353017181157,-0.18502543574422597
1772882697010730500,0.20873046875,0.6774351511836052,-1.049108655437827,-0.09885901815891265
1772882697020662500,0.21866259765625,0.7488391761839389,-1.1755372330456972,0.01720174856111407
1772882697030595600,0.228595703125,0.7479466112583876,-1.2712632138758897,0.14328458147123455
1772882697040527600,0.238527587890625,0.7427537187904119,-1.1946364857912062,0.4973261290535331
1772882697050460700,0.248460693359375,0.852652601879835,-0.970573463383317,0.6443066424332559
1772882697060392700,0.258392822265625,0.7987854026138782,-0.7208142741829157,0.5208047659270465
1772882697070325500,0.268325439453125,0.5424035804033279,-0.46574879526793955,0.28798297526314853
1772882697080258600,0.278258544921875,0.2733966698974371,-0.26139000576138494,-0.051738224413245916
1772882697090190600,0.288190673828125,0.07472294028997421,-0.1551981604963541,-0.2979761076197028
1772882697100123600,0.29812353515625,-0.08153495839238166,-0.14548808286488055,-0.364834305883944
1772882697110055400,0.308055419921875,0.01617079807817936,-0.15172785403728484,-0.37376536196693777
1772882697119988500,0.317988525390625,0.31116204466819763,-0.19745090981423855,-0.27252953167408706
1772882697129920500,0.32792041015625,0.6295873583376407,-0.1700947008550167,-0.1037327616751194
1772882697139853600,0.337853515625,0.9176543586224317,-0.11391221038401127,0.003934124578535557
1772882697149785600,0.34778564453125,0.9458429267525672,0.055198740130662914,-0.07735007392317056
1772882697159718400,0.357718505859375,0.5436860214293002,0.28614041613638397,-0.17851868419870734
1772882697169650400,0.367650390625,0.04781096796691418,0.5129097748935222,-0.29515213624015446
1772882697179583500,0.37758349609375,-0.6144745448797941,0.5188116924136876,-0.3850451731331646
1772882697189516500,0.3875166015625,-1.458475638270378,0.5405114830464124,-0.5138545083977282
1772882697199448600,0.397448486328125,-1.8415297837167977,0.7922557085841894,-0.5741463338837027
1772882697209381600,0.407381591796875,-1.9413339737713335,0.9736550627857447,-0.7368481480084359
1772882697219313700,0.417313720703125,-1.962560301673412,1.13327103972435,-0.9721734459258615
1772882697229246700,0.427246826171875,-1.879709584507346,1.28383277259171,-1.125658226633072
1772882697239178500,0.437178466796875,-1.833614188286662,1.310246732264757,-1.2055278821617363
1772882697249111300,0.447111328125,-1.8409926081001757,1.319486269775033,-1.2536404634237288
1772882697259043300,0.457043212890625,-1.8003560618072747,1.191900923347473,-1.2422922631964086
1772882697268976400,0.466976318359375,-1.8071382692933082,0.9432897351384162,-1.1760327614776789
1772882697278908400,0.476908447265625,-1.7536375652521847,0.6436889489263296,-1.0070049592018127
1772882697288841500,0.486841552734375,-1.5528554651886224,0.41550387815237044,-0.8580710467319935
1772882697298774500,0.4967744140625,-1.2442863596230744,0.14213058913052082,-0.7083848545901477
1772882697308706600,0.50670654296875,-0.8868950632214546,-0.07417407423555851,-0.5502403384435921
1772882697318639600,0.5166396484375,-0.5686129574149846,-0.25992110225260256,-0.3742875592101365
1772882697328571600,0.526571533203125,-0.30505145283341406,-0.35319793636500835,-0.2220554819777608
1772882697338504400,0.53650439453125,-0.011124036082625388,-0.3607750936210155,-0.13755392886474727
1772882697348436500,0.5464365234375,0.25639701977968216,-0.3192190943956375,-0.15298954453617333
1772882697358369500,0.55636962890625,0.46952656024098394,-0.25180326224863525,-0.1465221020877361
1772882697368301600,0.566301513671875,0.6687398035526275,-0.18123218094110488,-0.07566423972807824
1772882697378234600,0.576234619140625,0.8253443237155675,-0.08011340115666389,-0.011660115720704196
1772882697388167700,0.586167724609375,0.9007961628019809,-0.05262392120659351,-0.044442295251414174
1772882697398099500,0.596099365234375,0.924041429311037,-0.0203168118417263,0.03969517378956079
1772882697408032500,0.606032470703125,0.7950362792134285,-0.04174304623007774,0.1651947999842465
1772882697417964500,0.615964599609375,0.3837199158787727,-0.11941139232218265,0.3477553069196641
1772882697427897300,0.6258974609375,-0.20778116517066955,-0.20913141073584554,0.598216141583398
1772882697437829400,0.635829345703125,-0.6378221027195453,-0.254681448033452,0.8660989434301852
1772882697447762400,0.645762451171875,-0.9150637576073407,-0.31959085031747814,0.9633247343640774
1772882697457694500,0.655694580078125,-0.8679764277398586,-0.3571948970466852,0.896543766054511
1772882697467627500,0.66562744140625,-0.6569593493878841,-0.40787703653573987,0.8222079253859818
1772882697477559600,0.6755595703125,-0.5604372497439384,-0.45192309901118277,0.7282488811630755
1772882697487492600,0.68549267578125,-0.32550387375354767,-0.31991350640058513,0.5772902579326182
1772882697497425700,0.69542578125,0.06297872648239135,-0.25425065540075303,0.331254984626174
1772882697507357700,0.705357666015625,0.4038999495983124,-0.24685060827732086,-0.021343889867141842
1772882697517290500,0.71529052734375,0.5731412484943866,-0.24407120669186114,-0.4064743301309645
1772882697527222500,0.725222412109375,0.5730646761268376,-0.3011222966909408,-0.7456253287039697
1772882697537155600,0.735155517578125,0.3517430613815784,-0.41537236072719097,-0.9230819366291165
1772882697547087400,0.74508740234375,-0.03461187917590141,-0.46156537210345266,-0.9595151860132813
1772882697557020400,0.7550205078125,-0.5070014276325703,-0.43572716649174686,-0.894291749344021
1772882697566952400,0.764952392578125,-0.8996896628648042,-0.3562538168042898,-0.8557679574213921
1772882697576885500,0.774885498046875,-1.1644324861854314,-0.2031213566660881,-0.8502519704788922
1772882697586817500,0.784817626953125,-1.2550304564774035,-0.07951075908839703,-0.7513100963421165
1772882697596750600,0.79475048828125,-1.183948503038287,0.06096972474753856,-0.5327649605728686
1772882697606683400,0.804683349609375,-1.077121282479167,0.10213000265359878,-0.3240083744987845
1772882697616615400,0.814615478515625,-0.983682535803318,0.07627601495087147,-0.07045812245234846
1772882697626548500,0.824548583984375,-0.9413082059323787,0.055717211046814916,0.20744572267122566
1772882697636480500,0.83448046875,-0.9237152660965919,0.059329556325078005,0.4363890644665807
1772882697646413600,0.84441357421875,-0.9493202474743128,0.05861819318532943,0.503210583982244
1772882697656345600,0.854345703125,-0.9626198740303515,0.050340778705477714,0.4430292331334203
1772882697666278700,0.864278564453125,-0.877459126356244,0.0550514406144619,0.39075573279969394
1772882697676210700,0.874210693359375,-0.7174450900107622,0.029887773263454435,0.3367005366809666
1772882697686143700,0.884143798828125,-0.5408861615777015,0.0005044423907995223,0.3544000056311488
1772882697696075500,0.894075439453125,-0.32374738547503945,-0.01828092209994793,0.37778190413191914
1772882697706008300,0.90400830078125,-0.13881342740654945,-0.08093114728033542,0.350800227573514
1772882697715941400,0.91394140625,-0.012273206117749213,-0.2279477548867464,0.30904476025328037
1772882697725873400,0.923873291015625,-0.059982467275857924,-0.435741779538989,0.36352351554632184
1772882697735806500,0.933806396484375,-0.2513672089189291,-0.6320704073250293,0.40378713687360285
1772882697745738500,0.943738525390625,-0.4110299476087093,-0.6825748521596193,0.35388869510814547
1772882697755671600,0.953671630859375,-0.4754489360272884,-0.6238017606735229,0.32828385986089703
1772882697765603600,0.963603515625,-0.3186170368492603,-0.5222644632160663,0.27656565532237287
1772882697775536600,0.97353662109375,-0.040028643527626986,-0.40536125432252884,0.14912293223589657
1772882697785468700,0.98346875,0.3737731068819761,-0.4083902467548847,0.014522446349263191
1772882697795401500,0.9934013671875,0.856259686461091,-0.4472416631966829,0.0054437984891235825
1772882697805333500,1.00333349609375,1.1635264772564171,-0.4665659568697214,0.11353636280894279
1772882697815266600,1.0132666015625,1.1795242568552493,-0.4746960718333721,0.2961917084209621
1772882697825198600,1.023198486328125,1.0055950924038886,-0.41722821772694585,0.48950098838582634
1772882697835131600,1.033131591796875,0.747059891551733,-0.35179859096109867,0.5696889160834252
1772882697845064700,1.043064697265625,0.4900058691680431,-0.2758481547027826,0.5568671361722052
1772882697854996500,1.05299658203125,0.33425650452971456,-0.2104021613240242,0.4832482116013765
1772882697864929500,1.062929443359375,0.21604279755949973,-0.16994097159802912,0.3989493414536118
1772882697874861600,1.072861572265625,0.07974398332238197,-0.03080605715215206,0.22489669675305485
1772882697884794400,1.08279443359375,-0.04298690881133079,0.0368038362622261,0.05041574363783002
1772882697894726400,1.092726318359375,-0.29273733018338677,0.04332768507301807,-0.05871712351515889
1772882697904659500,1.102659423828125,-0.5552735833704471,0.092931381675601,-0.07903568892255425
1772882697914591500,1.112591552734375,-0.8216945690363645,0.038431145203113554,-0.08912848226130009
1772882697924524500,1.122524658203125,-1.0237585256040096,-0.11417758332192897,-0.02944689762815833
1772882697934456600,1.13245654296875,-1.1905506777822972,-0.21821721898913382,-0.008687602715939283
1772882697944389600,1.1423896484375,-1.2961468952417372,-0.27711715172529217,-0.0851388281032443
1772882697954322700,1.15232275390625,-1.3503075244963167,-0.30046470956504345,-0.18712679193764925
1772882697964254700,1.162254638671875,-1.2178203775018452,-0.33390871400535105,-0.34040786676630375
1772882697974187500,1.1721875,-0.8979653232902288,-0.3674029873281717,-0.47365489221736784
1772882697984119600,1.18211962890625,-0.5235223543226719,-0.3794458918213844,-0.525103486034274
1772882697994052600,1.192052490234375,-0.08301262972950935,-0.3824403974622488,-0.5866285065770149
1772882698003984600,1.201984619140625,0.23847733220756054,-0.36525896103680133,-0.5777133787155151
1772882698013917700,1.211917724609375,0.4277221392124891,-0.2892237691044807,-0.5105687647253274
1772882698023849700,1.221849609375,0.5013245510399341,-0.15082242963016032,-0.4960422267228365
1772882698033782800,1.23178271484375,0.4195078530967235,-0.0455833550453186,-0.48471623832732436
1772882698043714800,1.24171484375,0.33252631973624225,0.2538192782461643,-0.5294302631922065
1772882698053648000,1.25164794921875,0.1716945372670889,0.51574879771173,-0.6999101639725267
1772882698063580700,1.26158056640625,0.003262801188230514,0.714603144583106,-0.8014253957286477
1772882698073512400,1.271512451171875,-0.2618266436129808,0.8807827178210019,-0.7338176942713558
1772882698083445500,1.281445556640625,-0.5720838483959436,0.9187333860307931,-0.6145058168008923
1772882698093377500,1.29137744140625,-0.9375731110572815,0.8653922564655542,-0.3573265606023371
1772882698103310600,1.301310546875,-1.237343993139267,0.6621545799434184,-0.09469356904253363
1772882698113242600,1.31124267578125,-1.4792793568462133,0.35601124022006986,0.20830109739154576
1772882698123175700,1.32117578125,-1.555422100806236,0.06363806717395783,0.36576340342760083
1772882698133107700,1.331107666015625,-1.3973936853200197,-0.08358838379085064,0.2136879049964249
1772882698143040800,1.341040771484375,-1.0394973620057106,-0.21613222940862178,-0.09075447602793574
1772882698152972800,1.350972900390625,-0.5872656354367732,-0.27515432721972466,-0.40282647514790293
1772882698162905600,1.360905517578125,-0.09455459896326064,-0.25732991671562194,-0.7562171576060355
1772882698172838700,1.370838623046875,0.38265608603954315,-0.2875695721566677,-1.0586885308183729
1772882698182770700,1.380770751953125,0.7787520838886499,-0.25493279244601724,-1.229207594565302
1772882698192703700,1.390703857421875,0.9791869779497384,-0.31323300572335716,-1.2508533169232308
1772882698202635800,1.4006357421875,1.139389814865589,-0.33804303733110425,-1.2057580376558006
1772882698212568800,1.41056884765625,1.1852823819905518,-0.2634305716782808,-1.1323752599284052
1772882698222500600,1.42050048828125,1.2313748556017874,-0.3181897513478994,-0.9681284083187579
1772882698232433700,1.43043359375,1.1826982107162476,-0.36153204946815964,-0.7129078849725424
1772882698242365700,1.44036572265625,0.9375707729697227,-0.3435316978752613,-0.5040628899626434
1772882698252298500,1.450298583984375,0.6165595344603061,-0.417848979973793,-0.29645284357517954
1772882698262230500,1.46023046875,0.3998416141182184,-0.3336310661077499,-0.1391147484406829
1772882698272163600,1.47016357421875,0.22858196113705634,-0.189404381480813,-0.19548224008977413
1772882698282096600,1.4800966796875,0.10231938774585723,-0.07177987257540226,-0.4598788803212344
1772882698292028700,1.490028564453125,0.018989362630248068,-0.0007698153287172317,-0.6354186948396265
1772882698301961700,1.499961669921875,-0.14642857858538627,0.020008184283971785,-0.662398033310473
1772882698311893800,1.509893798828125,-0.3026397155165672,-0.009595511341094971,-0.6259837808877229
1772882698321826800,1.519826904296875,-0.3791191440850496,-0.03436871806979179,-0.5477060707256197
1772882698331758800,1.5297587890625,-0.38574177709519863,-0.1341267308950424,-0.4194131605505943
1772882698341691600,1.539691650390625,-0.3355360229462385,-0.18594693450331687,-0.40056086830347776
1772882698351623700,1.549623779296875,-0.22583704634308813,-0.14232932657301425,-0.43876171188205476
1772882698361556700,1.559556640625,-0.12500117515325546,-0.04422901782691478,-0.5487789606541394
1772882698371488500,1.569488525390625,-0.0977414123058319,0.0006727846950292587,-0.7095727492004632
1772882698381421600,1.579421630859375,-0.1295347269296646,0.017166238856315612,-0.7895049485713242
1772882698391353600,1.589353515625,-0.18553484657108782,-0.04792085808217525,-0.8594256031461059
1772882698401286700,1.59928662109375,-0.2920744823604822,-0.13718670298755167,-1.0033704020917416
1772882698411219700,1.6092197265625,-0.48497664282917974,-0.13808511313199995,-1.0444051539219916
1772882698421151700,1.61915185546875,-0.704009854376316,-0.1022422308564186,-1.0807577392853795
1772882698431084500,1.62908447265625,-0.8460106796473265,-0.10732231059968471,-1.060242920653522
1772882698441016600,1.6390166015625,-0.8083043415874243,-0.13327099084854124,-1.0025355587027966
1772882698450949600,1.64894970703125,-0.7482160758495331,-0.06785363904237747,-0.9323068610921501
1772882698460881700,1.658881591796875,-0.6211410170316696,-0.03531973518431186,-0.9288442995481192
1772882698470814700,1.668814697265625,-0.4540168564200401,-0.07206219664812087,-0.8571806006982922
1772882698480746800,1.678746826171875,-0.27258301542699337,-0.025551789885759353,-0.7225212242312729
1772882698490679800,1.6886796875,-0.0046223991036415096,-0.028024317479133604,-0.6244318752706051
1772882698500611600,1.698611572265625,0.2925789247512817,-0.06732640029788017,-0.5478937022522091
1772882698510544600,1.708544677734375,0.5687333689242601,-0.1568757383197546,-0.46676396365985273
1772882698520476700,1.7184765625,0.7329974639296531,-0.2560322781205177,-0.36854075918644663
1772882698530409500,1.728409423828125,0.7769125935018062,-0.29063012877106664,-0.267840058683604
1772882698540342500,1.738342529296875,0.6116495505869388,-0.21770342424809933,-0.19213833648934958
1772882698550274600,1.748274658203125,0.4012935664921999,-0.0827267985254526,-0.21280133142024277
1772882698560207600,1.75820751953125,0.2606628605306148,0.022674773144721983,-0.22825872053205964
1772882698570139600,1.7681396484375,0.20909867751002312,0.09820084651112555,-0.18089841894209382
1772882698580072700,1.77807275390625,0.12375263639688491,0.10178396569490432,-0.11467720340713858
1772882698590004700,1.788004638671875,0.1218798282623291,0.17133856343626974,-0.06913476489409803
1772882698599937800,1.797937744140625,0.10565700773596763,0.2621364402145147,-0.12319061859995126
1772882698609869800,1.807869873046875,0.08253156821429729,0.3106143476575613,-0.1467940508969128
1772882698619802600,1.817802734375,0.06426409011781216,0.322549115601182,-0.17614245658665895
1772882698629734700,1.827734619140625,0.1172223578453064,0.27208675634264945,-0.16672361698672175
1772882698639667700,1.837667724609375,0.06384498792290687,0.18274959976673125,-0.04541062882691622
1772882698649599500,1.847599609375,-0.11828443411886691,0.07493219912648201,0.04174421527385711
1772882698659532500,1.857532470703125,-0.3031061639845371,0.043215456870198246,0.015341946038603782
1772882698669465600,1.867465576171875,-0.3102817547023296,0.017664251506328582,-0.11565861565992236
1772882698679397600,1.877397705078125,-0.17861586096286772,0.013754384586215019,-0.2984758738353848
1772882698689330700,1.88733056640625,-0.030437808361649513,0.013359247788786888,-0.41276305501163
1772882698699262700,1.8972626953125,0.07132219193577766,-0.015271803411841391,-0.5385252776652574
1772882698709195500,1.907195556640625,0.08260697153806686,-0.011843582528829574,-0.6158905491575598
1772882698719127600,1.91712744140625,-0.006194178465008735,-0.054332478690147394,-0.6510908957459032
1772882698729060600,1.927060546875,-0.06605448066592216,-0.08097966259717941,-0.6457683855488896
1772882698738992600,1.93699267578125,-0.15597206747829914,-0.10400807148516178,-0.5926274547308683
1772882698748925700,1.94692578125,-0.19118775776624677,-0.1258797115534544,-0.5190598219558596
1772882698758857700,1.956857666015625,-0.23785423187315463,-0.14989303982555865,-0.4530744610033929
1772882698768790800,1.966790771484375,-0.31934593564569946,-0.17830197270810602,-0.4510457316547632
1772882698778722800,1.976722900390625,-0.4316758452743292,-0.18267887261807916,-0.39562677290216086
1772882698788655900,1.98665576171875,-0.5000812729805708,-0.1261614511042833,-0.2694514394029975
1772882698798588700,1.996588623046875,-0.5523275930464268,-0.08456395082473754,-0.1140447507224977
1772882698808520400,2.0065205078125,-0.5197065954267979,-0.008723404681682586,-0.047164048365503544
1772882698818453500,2.01645361328125,-0.4397673817932605,0.04389467130601406,-0.06804112443849444
1772882698828385500,2.026385498046875,-0.3475958785742521,0.08402443712055682,-0.15852394391819835
1772882698838318600,2.036318603515625,-0.2854629552662372,0.0944955622524023,-0.27665158004015683
1772882698848250600,2.046250732421875,-0.23431378278732298,0.07399813314676285,-0.31616891304478045
1772882698858183700,2.05618359375,-0.25892566147446633,0.012105448335409164,-0.3208009567596018
1772882698868115700,2.06611572265625,-0.3045721448838711,-0.07562836469709873,-0.33872210563644767
1772882698878048800,2.076048828125,-0.28986323605179787,-0.13819032707214354,-0.3686079792037606
1772882698887980800,2.085980712890625,-0.1504565189272165,-0.17550269737839697,-0.3592791559748351
1772882698897913600,2.09591357421875,-0.010683306577801704,-0.18238894976079462,-0.3589974164240062
1772882698907845600,2.105845703125,0.09148235191106796,-0.16099837120771407,-0.4122583203598857
1772882698917778700,2.11577880859375,0.1530056188881397,-0.11551613844931125,-0.5092543211258947
1772882698927712000,2.1257119140625,0.15180734901428222,-0.0664274056315422,-0.5515663994155824
1772882698937644000,2.13564404296875,0.10193126521110533,-0.03910217633247375,-0.5588561180323363
1772882698947577000,2.1455771484375,-0.03374737130105495,0.0004851531684398651,-0.4939321027010679
1772882698957508900,2.1555087890625,-0.17252397382855414,0.022665420794487,-0.4417549023486674
1772882698967442000,2.16544189453125,-0.2701934899419546,0.0010363573104143142,-0.3515640515528619
1772882698977374000,2.1753740234375,-0.26565233938097954,-0.00040799627900123595,-0.23709625311270355
1772882698987306800,2.185306640625,-0.21592530865967272,-0.0009089315384626388,-0.22900573950707911
1772882698997238800,2.19523876953125,-0.12469663924872874,-0.022412907338142395,-0.26707638083472846
1772882699007171800,2.205171875,-0.05446458063721656,-0.008218962290883064,-0.34807620943710205
1772882699017104000,2.215103759765625,0.0018786533534526824,0.01105681606531143,-0.4568491572365164
1772882699027037000,2.225036865234375,-0.006382979035377502,0.08716624227762222,-0.5197698699213564
1772882699036969000,2.234968994140625,-0.049046647241711615,0.128636901307106,-0.620148937254399
1772882699046902000,2.244902099609375,-0.03815817348062992,0.1279968498378992,-0.6480158722147346
1772882699056834800,2.254834716796875,0.030466449934244154,0.10598901616930961,-0.5829796286806463
1772882699066767000,2.26476708984375,0.04476502439975738,0.011155015742778777,-0.5024333890646696
1772882699076700000,2.274699951171875,-0.030336101552844046,-0.002297171026468277,-0.4033816248126328
1772882699086632000,2.2846318359375,-0.06993161436021328,-0.03919862244427204,-0.323841493499279
1772882699096565000,2.29456494140625,-0.08479132983982562,-0.038436405900120735,-0.27076033004447814
1772882699106496800,2.304496826171875,-0.05640402426719665,-0.03305471286177635,-0.21530571545660496
1772882699116429800,2.314429931640625,-0.00024900632500648496,0.008365677285194396,-0.21624562665522098
1772882699126361900,2.32436181640625,0.036057986330986024,0.04750117136538028,-0.20379019583836197
1772882699136295000,2.334294921875,0.056039282608032225,0.07516425431668758,-0.16674889755845068
1772882699146227000,2.34422705078125,0.07423603355586528,0.07189502338767051,-0.1526180808752775
1772882699156160000,2.354159912109375,0.12752689423859118,0.07282675127983093,-0.14693419001996516
1772882699166092000,2.364092041015625,0.19094693474769592,0.09481003502905368,-0.14657485518828034
1772882699176024800,2.37402490234375,0.2698620660305023,0.07089315286874771,-0.20751155444905162
1772882699185958000,2.3839580078125,0.2099701996475458,0.04071370318233967,-0.24218919233754277
1772882699195890000,2.393889892578125,0.04197451689839363,0.03885375452935695,-0.24051892103776334
1772882699205823000,2.403822998046875,-0.14089023368060588,0.02096387757360935,-0.22562062711343167
1772882699215755000,2.413755126953125,-0.2602069334566593,-0.029959669455885886,-0.18657412649095056
1772882699225688000,2.42368798828125,-0.2660194191277027,-0.05334989739358425,-0.1490926832281053
1772882699235620000,2.4336201171875,-0.26881343376040456,-0.01768997046947479,-0.1674517851307988
1772882699245553000,2.443552978515625,-0.21077450176775453,-0.00813420661687851,-0.23781579955890772
1772882699255485000,2.45348486328125,-0.1379085875213146,0.047342181411385534,-0.32333558980375526
1772882699265417700,2.463417724609375,-0.10840309157371521,0.07928396459519862,-0.42489027678743
1772882699275349800,2.473349853515625,-0.10834405486285686,0.0160252521276474,-0.45406975565105673
1772882699285282800,2.48328271484375,-0.07641279307305812,-0.04344517397284507,-0.3272616772063076
1772882699295214800,2.49321484375,-0.043968905586004255,-0.08574526956379414,-0.23032354410737751
1772882699305148000,2.50314794921875,-0.08690379194915294,-0.16254676969349383,-0.18080314187407492
1772882699315080000,2.513079833984375,-0.12419979564249514,-0.11789397349655628,-0.14639657601192593
1772882699325013000,2.523012939453125,-0.19299334588348865,-0.06383154391944408,-0.19518354940414429
1772882699334945800,2.53294580078125,-0.27551380818188187,-0.012367314141988753,-0.23087460211887953
1772882699344878000,2.542878173828125,-0.31355566180646416,-0.018436989444494248,-0.2909665211185813
1772882699354811000,2.552810791015625,-0.33575931030809875,-0.0701268446713686,-0.27128084678724407
1772882699364743000,2.562742919921875,-0.25374329040050503,-0.09271101692318916,-0.27697642808035017
1772882699374676000,2.572676025390625,-0.15346037691831588,-0.12596972792446612,-0.37847748518064617
1772882699384607700,2.582607666015625,-0.061891515767574304,-0.14230711474120616,-0.42948885662406683
1772882699394541000,2.592541015625,0.03245791601240635,-0.190929983612895,-0.42733372441679235
1772882699404472800,2.602472900390625,0.09959083956480026,-0.20222996078431604,-0.35606384719014167
1772882699414406000,2.612406005859375,0.13250760526061056,-0.16902327223122118,-0.26895854131951924
1772882699424338000,2.622337890625,0.14571078570485113,-0.1258230129301548,-0.3136915631458163
1772882699434271000,2.63227099609375,0.056254971185326574,-0.11716332113444805,-0.30521205022260545
1772882699444203000,2.642203125,-0.08195230702161789,-0.13471242182850837,-0.2019379921004176
1772882699454135800,2.6521357421875,-0.23516835379004478,-0.10680267063975334,-0.13368760882541536
1772882699464067800,2.66206787109375,-0.31509821507334707,-0.04673661673367023,-0.17215543277710676
1772882699474001000,2.6720009765625,-0.40100422815680503,0.002846621602773666,-0.2636348620787263
1772882699483934000,2.681933837890625,-0.4531646235048771,0.026332126608490942,-0.3719546592831611
1772882699493866000,2.691865966796875,-0.44404491298198695,0.07232581602036953,-0.3937935661256313
1772882699503799000,2.701799072265625,-0.36951544943749903,0.08336684999465942,-0.3675467797130346
1772882699513731000,2.71173095703125,-0.31272739428877827,0.017109540233016012,-0.31666239565014836
1772882699523664000,2.721663818359375,-0.21544132453501225,-0.07005494847893715,-0.2885186895750463
1772882699533596000,2.731595947265625,-0.1173521217048168,-0.1387152277290821,-0.2992433510765433
1772882699543528700,2.74152880859375,-0.07399287244975566,-0.21505378652215001,-0.3592220189601183
1772882699553460700,2.751460693359375,-0.08861527204215526,-0.22992343887388705,-0.41516090993359683
1772882699563393800,2.761393798828125,-0.11443886460661888,-0.19676526563763616,-0.4834413960859179
1772882699573325800,2.771325927734375,-0.12156418644189834,-0.16416764889359473,-0.5193269484594464
1772882699583259000,2.7812587890625,-0.11138941390812396,-0.12201952899396419,-0.5122527722895145
1772882699593191000,2.79119091796875,-0.11794365785717964,-0.06817337251603603,-0.4921802905976772
1772882699603124000,2.8011240234375,-0.17183482252061366,-0.03224515004456043,-0.4774579377621412
1772882699613057000,2.81105712890625,-0.21491233222484588,-0.007207154899835586,-0.36368747393637896
1772882699622989000,2.820989013671875,-0.25129122107326984,0.020458850660920142,-0.26945406975150105
1772882699632921900,2.830921875,-0.2407838555842638,0.003645663025975227,-0.23750673360973595
1772882699642854000,2.84085400390625,-0.2127156989634037,-0.04244681058526039,-0.17410116001740097
1772882699652787000,2.850786865234375,-0.16966741535365581,-0.034090485650300976,-0.11472279611453413
1772882699662719000,2.860718994140625,-0.11438275050520896,-0.06420037723183632,-0.1412178581997752
1772882699672652000,2.870652099609375,-0.08185527638792992,-0.12586568302810192,-0.1999092627517879
1772882699682583800,2.880583740234375,-0.050288756257295605,-0.11591069072484969,-0.19651932805255054
1772882699692516900,2.890516845703125,0.0228004453510046,-0.10726327388882637,-0.22651684530079363
1772882699702449000,2.900448974609375,0.08332534894049168,-0.06982055520117282,-0.27906346348747607
1772882699712382000,2.9103818359375,0.07450608266890049,-0.04602525359392166,-0.3044048254929483
1772882699722314000,2.92031396484375,0.00824701934158802,-0.018326514807343482,-0.2856418189644813
1772882699732246800,2.930246826171875,-0.0882435161203146,0.002791676545143127,-0.29698621979951856
1772882699742178800,2.9401787109375,-0.17161679585576056,-0.00647065731883049,-0.28929814951494337
1772882699752111900,2.95011181640625,-0.17915011397004127,-0.039433600243926045,-0.2541299516305327
1772882699762044000,2.9600439453125,-0.1166775834441185,-0.06423486402332783,-0.2778429817818105
1772882699771977000,2.96997705078125,-0.058282677620649335,-0.10096972670257091,-0.297278188483417
1772882699781910000,2.979909912109375,-0.030040333476662635,-0.12444237222671509,-0.2600327459335327
1772882699791842000,2.989842041015625,-0.07692483424842357,-0.09579612345695496,-0.20435528237521647
1772882699801775000,2.999775146484375,-0.13612228862643241,-0.12074819388389586,-0.19331950909793374
1772882699811707100,3.00970703125,-0.1813315496623516,-0.07453413971960544,-0.20807970972582696
1772882699821640000,3.019639892578125,-0.17649229293763635,-0.049288639304041856,-0.20184315342381595
1772882699831571700,3.02957177734375,-0.23754560431540012,-0.0037906244546175,-0.23558584854975342
1772882699841504800,3.0395048828125,-0.28653496841192244,0.005915946045517921,-0.28215236941352484
1772882699851436800,3.049436767578125,-0.2717448110371828,-0.049665655922889705,-0.31562413864359257
1772882699861369900,3.059369873046875,-0.22333529265522956,-0.07347907770872115,-0.30124460789635776
1772882699871302000,3.069302001953125,-0.13401684077978132,-0.10058335773348807,-0.36942499467507
1772882699881235000,3.07923486328125,-0.022637363743782044,-0.15289865138232708,-0.4187902063466608
1772882699891167000,3.0891669921875,0.019580314260721206,-0.12766016522943974,-0.42529082041233773
1772882699901100000,3.09910009765625,0.0038262802898883816,-0.06187690272033214,-0.45510348261296746
1772882699911032800,3.10903271484375,0.003385550785064697,-0.017937807750701903,-0.458242219030112
1772882699920964900,3.11896484375,-0.05187222605645656,-0.00630289953649044,-0.3092722853988409
1772882699930897200,3.128897216796875,-0.07778700403571129,-0.012846622091531753,-0.11651245601028204
1772882699940829200,3.1388291015625,-0.11511807904243468,-0.019638181927800178,0.009972966351360081
1772882699950762200,3.14876220703125,-0.06712824737727642,0.0010936404556035994,0.04601955450549722
1772882699960694300,3.1586943359375,0.021637831312417984,0.010967384216189384,0.03291092047691345
1772882699970627300,3.16862744140625,0.046328620454669,0.003804652979969978,0.061478989443927996
1772882699980559400,3.178559326171875,0.0853717600762844,0.0038233576804399486,0.09500102755650877
1772882699990492400,3.188492431640625,0.06985270390510559,-0.031176644030213353,0.18799524533525108
1772882700000424400,3.198424560546875,0.0758779555439949,-0.05637888982594013,0.29548472919538615
1772882700010357500,3.208357421875,0.051372459840774536,-0.1206944178700447,0.3192714091047644
1772882700020289300,3.218289306640625,0.03152969525158405,-0.1604220326244831,0.2954325606167316
1772882700030222000,3.22822216796875,-0.026373043140769003,-0.15113573336303232,0.2182785937875509
1772882700040154000,3.238154052734375,-0.06950432885885238,-0.18339958810806273,0.08018266700059175
1772882700050087200,3.248087158203125,-0.11151099446117878,-0.13374094644784926,-0.08776566947549581
1772882700060020200,3.258020263671875,-0.18157880242168903,-0.10123042346537113,-0.26304873275384305
1772882700069952300,3.2679521484375,-0.26643910584449765,-0.059170566371083255,-0.38720103599280115
1772882700079885300,3.27788525390625,-0.3609212240934372,-0.004252396747469901,-0.4347888627283275
1772882700089817300,3.2878173828125,-0.44260815817713733,0.0302291340470314,-0.5011414495579898
1772882700099750400,3.29775048828125,-0.5211106170058251,0.04440086726248264,-0.5404996464781463
1772882700109682400,3.307682373046875,-0.5066179812729359,-0.006706219640374184,-0.5314790124155581
1772882700119615200,3.317615234375,-0.4788666355162859,-0.11670914762616157,-0.45747518018037076
1772882700129547300,3.32754736328125,-0.3549544246435165,-0.1871177318483591,-0.37512627505660057
1772882700139480300,3.337480224609375,-0.26686113064885136,-0.2741056949496269,-0.3191058432795107
1772882700149412400,3.347412353515625,-0.19013211123347282,-0.2709720730990171,-0.31089652559980746
1772882700159345400,3.357345458984375,-0.10370119749307632,-0.2686643806785345,-0.35188363889604807
1772882700169277200,3.367277099609375,-0.047215340161323546,-0.2579050862550735,-0.4376626645989716
1772882700179210200,3.377210205078125,-0.002111293065547943,-0.223573193064332,-0.4837099838942289
1772882700189142300,3.387142333984375,0.05718377646803856,-0.16837094580233097,-0.46160511959195133
1772882700199075300,3.397075439453125,0.028010288953781125,-0.09939911638498306,-0.4468016643442213
1772882700209007400,3.40700732421875,-0.08082885594964027,-0.01211480068564415,-0.4028599390260875
1772882700218940200,3.416940185546875,-0.19771102205514907,0.06344049877524376,-0.3183494719542563
1772882700228873200,3.426873291015625,-0.310928235912323,0.0917903949469328,-0.2788886914424598
1772882700238805200,3.43680517578125,-0.4091887036561966,0.06139876381456852,-0.22456892610341309
1772882700248738300,3.44673828125,-0.4014367743551731,0.02369534836411476,-0.17226006219536066
1772882700258670300,3.45667041015625,-0.2985562455952167,-0.03501812188923359,-0.17499708594381808
1772882700268603400,3.466603271484375,-0.1781330458819866,-0.09421206913590431,-0.2694844648897648
1772882700278535400,3.476535400390625,-0.043137130936980246,-0.12488251720964907,-0.38217897004708645
1772882700288468500,3.486468505859375,0.08941372894346714,-0.1401437992274761,-0.4339942052192986
1772882700298400300,3.496400146484375,0.1399345403909683,-0.13676584722697735,-0.46154038379266854
1772882700308333300,3.506333251953125,0.13772855477929113,-0.10067921932339667,-0.46604397882223125
1772882700318265000,3.51626513671875,0.08623217629790306,-0.07305354577302932,-0.5030054898642004
1772882700328198100,3.5261982421875,-0.01605214013457298,-0.05672375774085522,-0.4587133436731994
1772882700338130200,3.536130126953125,-0.09414426459670067,-0.06848200007379054,-0.3887849441833794
1772882700348063200,3.546063232421875,-0.20060674349665641,-0.07489245163798332,-0.34761297583952544
1772882700357995300,3.555995361328125,-0.2732651524722576,-0.06709902128279209,-0.335193785379827
1772882700367928300,3.56592822265625,-0.24664251848459243,-0.04634674063324928,-0.34054084549620744
1772882700377861400,3.575861328125,-0.20063012437224387,-0.04643851056993007,-0.36886823757514353
1772882700387793400,3.58579345703125,-0.1308300274372101,-0.04565115958452225,-0.3335122620336711
1772882700397726200,3.595726318359375,-0.05975333469510078,-0.03277472687661648,-0.31799890495091676
1772882700407658200,3.605658203125,0.000050268882513046264,-0.024223171630501746,-0.3463847492188215
1772882700417591300,3.61559130859375,0.021959902873635292,-0.008114332872629165,-0.3210242441214621
1772882700427523300,3.6255234375,0.003479658809304237,-0.025589199286699293,-0.2564586868390441
1772882700437456400,3.635456298828125,-0.033143560189008714,-0.06270575475990772,-0.20193170849010347
1772882700447388200,3.64538818359375,-0.055794952458143234,-0.09694763157963752,-0.18498130434155463
1772882700457321200,3.6553212890625,-0.08893792812526226,-0.10509528219997882,-0.1589734412513673
1772882700467253200,3.665253173828125,-0.13226619772017,-0.09654723408520222,-0.16423589182421564
1772882700477186300,3.675186279296875,-0.1496913797736168,-0.0428512997329235,-0.14172931485325097
1772882700487118300,3.685118408203125,-0.08299275598526,-0.020818916144967076,-0.22174948476850986
1772882700497051100,3.695051025390625,-0.06484452035427093,-0.05466565616726875,-0.23920140869840978
1772882700506983200,3.704983154296875,-0.08974164572358131,-0.06872691474556923,-0.175131525978446
1772882700516916200,3.714916259765625,-0.12042729136645793,-0.13629998328089712,-0.15191840817332267
1772882700526848300,3.72484814453125,-0.1572621072888374,-0.13226210606694222,-0.1787089460738003
1772882700536781300,3.73478125,-0.15854221022725104,-0.13287117787599562,-0.23783801139071584
1772882700546714400,3.74471435546875,-0.1052794065952301,-0.1005038627564907,-0.3322429727502167
1772882700556646400,3.754646484375,-0.09377893841564655,-0.0746235715687275,-0.39032092157900333
1772882700566579500,3.764579345703125,-0.17191840915083884,-0.05638122791349887,-0.38844650600925085
1772882700576511500,3.774511474609375,-0.2897872482061386,-0.02642272750139236,-0.3178447373025119
1772882700586444300,3.7844443359375,-0.38713469275832174,-0.04624620286822319,-0.24046762924194334
1772882700596376000,3.7943759765625,-0.3975660704016685,-0.09833470202386378,-0.18388912519067524
1772882700606309000,3.80430908203125,-0.32958792819678784,-0.13679273523390292,-0.1929410311743617
1772882700616241200,3.8142412109375,-0.2384919452548027,-0.16865210083127022,-0.2631416717343032
1772882700626174200,3.82417431640625,-0.17354338000416755,-0.17529986828267574,-0.3784574653059244
1772882700636106200,3.834106201171875,-0.16275895113945008,-0.1722685377627611,-0.407787312425673
1772882700646039300,3.844039306640625,-0.15457622920572756,-0.1711316426873207,-0.3591113981924951
1772882700655971300,3.853971435546875,-0.1287584818601608,-0.15301847836971283,-0.32108342696279285
1772882700665904400,3.863904296875,-0.0948871919184923,-0.14282558565735817,-0.2956976412937045
1772882700675836400,3.87383642578125,-0.08243336853682995,-0.1113093344092369,-0.31269276136681434
1772882700685769200,3.883769287109375,-0.10907587626874446,-0.09102642483711242,-0.27832039003521203
1772882700695701200,3.893701171875,-0.15986732135117054,-0.0779214440703392,-0.2542980016738176
1772882700705634300,3.90363427734375,-0.2074900732696056,-0.0333487273722887,-0.20628990369960665
1772882700715567400,3.9135673828125,-0.24275077174305915,-0.052229953452944754,-0.16007117336019872
1772882700725499400,3.92349951171875,-0.23890812484025953,-0.11267068589031695,-0.07900105600059032
1772882700735432400,3.933432373046875,-0.20134616368710995,-0.12414718867242336,-0.005848579897731542
1772882700745364200,3.9433642578125,-0.14437866031825541,-0.14957447539567947,0.0026177812829613683
1772882700755297300,3.95329736328125,-0.09259703515470027,-0.11999532968997954,-0.06232113935649394
1772882700765229300,3.963229248046875,-0.038944355422258374,-0.09418401208519935,-0.14851181460022925
1772882700775162000,3.973162109375,0.03471300146281719,-0.06988309904336928,-0.24825243789926169
1772882700785094100,3.98309423828125,0.020675708281993863,-0.03910392989814281,-0.30251901174634693
1772882700795026200,3.993026123046875,-0.006233341431617736,-0.05319266100525856,-0.3194119866192341
1772882700804958500,4.00295849609375,-0.11390227351188659,-0.07146364623308181,-0.2799221261434257
1772882700814891300,4.012891357421875,-0.2400029343396425,-0.09905892464518547,-0.21628391283899545
1772882700824823300,4.0228232421875,-0.30038696815371513,-0.1376777013748884,-0.19594825016632675
1772882700834756400,4.03275634765625,-0.30872692647576333,-0.17044132233560083,-0.17133447178304195
1772882700844688100,4.042688232421875,-0.27140228120982646,-0.16454525003433226,-0.18247151347771287
1772882700854621200,4.05262109375,-0.20981588586866853,-0.14458733463287352,-0.22136574614793061
1772882700864553200,4.06255322265625,-0.19991700766682624,-0.15021160425543784,-0.2892396973259747
1772882700874486300,4.072486328125,-0.15544775134325026,-0.06538695666790008,-0.35559330706894393
1772882700884418300,4.082418212890625,-0.07582242596447468,-0.039108021551370616,-0.48902591821998354
1772882700894351400,4.092351318359375,0.0024859715968370438,-0.03823006967306137,-0.48214887205734847
1772882700904283400,4.102283447265625,0.03965396499633789,-0.05249298830330371,-0.4579860523119569
1772882700914216200,4.11221630859375,-0.027914427363872528,-0.08182897290289401,-0.4129838581554591
1772882700924149200,4.122149169921875,-0.08458090195953845,-0.08707388781905173,-0.30433234477862714
1772882700934081800,4.132081787109375,-0.14810206475555895,-0.10690145483911037,-0.24806904415637254
1772882700944014800,4.142014892578125,-0.19104688799083233,-0.09753273799121379,-0.24595088295862078
1772882700953947000,4.15194677734375,-0.16985621592402458,-0.0880903713852167,-0.22049305496662855
1772882700963880000,4.1618798828125,-0.16924305246174334,-0.08227087145149707,-0.1940975077331066
1772882700973812000,4.17181201171875,-0.163050043040514,-0.08218611577749252,-0.1916489455372095
1772882700983744800,4.181744873046875,-0.13213234220743178,-0.08365618833005428,-0.21665596102178095
1772882700993676800,4.1916767578125,-0.07168868716061115,-0.08081658098995685,-0.2368758883602917
1772882701003609900,4.20160986328125,-0.005467033234238625,-0.06439093136787415,-0.2588946818143129
1772882701013542000,4.2115419921875,0.0673030194222927,-0.07081131980419159,-0.2637828922472894
1772882701023475000,4.221474853515625,0.06804127056896686,-0.06596037264168263,-0.2605187758848071
1772882701033407000,4.231406982421875,0.006143909582495689,-0.07846388038396834,-0.23128099096268415
1772882701043340000,4.241340087890625,-0.08638239842355251,-0.0683493136048317,-0.19608751250654458
1772882701053272000,4.25127197265625,-0.18588263709545133,-0.018116671448946,-0.16211130088567732
1772882701063205000,4.261205078125,-0.25694062513709065,-0.010356558841466903,-0.19214491236060857
1772882701073137000,4.271136962890625,-0.28148060763180255,0.014123217898607253,-0.25542642118185754
1772882701083069700,4.281069580078125,-0.30574060414135457,0.009082885643839836,-0.2630205295726657
1772882701093002800,4.291002685546875,-0.3167272775799036,0.015232055923342704,-0.29579262610077856
1772882701102934800,4.300934814453125,-0.2705991481333971,-0.028805238723754883,-0.328565599411726
1772882701112867800,4.310867919921875,-0.15247662657797337,-0.08050386177897453,-0.3427620286770165
1772882701122799900,4.3207998046875,-0.04600713341534138,-0.11948211947083473,-0.3394331765152514
1772882701132733000,4.33073291015625,0.048781274303793906,-0.16499357832372188,-0.371124930460751
1772882701142665000,4.3406650390625,0.12766542592644692,-0.1812175678938627,-0.40446035996004936
1772882701152598000,4.350597900390625,0.13544190514683724,-0.16498539501726625,-0.396105788590759
1772882701162530000,4.360530029296875,0.07507014629244804,-0.18535189121961593,-0.3478875549972057
1772882701172463900,4.3704638671875,-0.020750527083873746,-0.16828151395320892,-0.22743059914484617
1772882701182396000,4.38039599609375,-0.11189970151782035,-0.11127134048640727,-0.09157602154389023
1772882701192329000,4.390328857421875,-0.1902197895169258,-0.07433189514577389,-0.018341566246002913
1772882701202261000,4.400260986328125,-0.2103922244518995,-0.02249357135891914,-0.038757600678503513
1772882701212194000,4.410194091796875,-0.16902794840633867,0.04096270950734615,-0.052934010069072245
1772882701222126800,4.420126953125,-0.14388766193091868,0.019728782820701597,-0.10603241691961884
1772882701232059000,4.430058837890625,-0.13230126903355122,-0.018974749583005903,-0.12851415171027183
1772882701241992000,4.439991943359375,-0.1169651682138443,-0.06586918722689152,-0.10970789056196809
1772882701251923700,4.449923828125,-0.06841594910025596,-0.07983692230284213,-0.11228168657273054
1772882701261856800,4.459856689453125,0.03628244273662567,-0.08154898691773414,-0.15272373320683835
1772882701271788800,4.469788818359375,0.04927519530057907,-0.05872282260358333,-0.17085341026782988
1772882701281721900,4.479721923828125,0.042599955320358276,-0.030221535262465474,-0.19567220970392227
1772882701291654000,4.48965380859375,0.032170331242680546,-0.02239654072523117,-0.21164923877567052
1772882701301587000,4.4995869140625,-0.050691491839289664,-0.0449561630576849,-0.17205796375200152
1772882701311519000,4.50951904296875,-0.10009703552126883,-0.0742529846906662,-0.12845759921744465
1772882701321451800,4.51945166015625,-0.17261515924334525,-0.1393079329252243,-0.1073769633963704
1772882701331384000,4.529384033203125,-0.3013654577970505,-0.1340530811369419,-0.11616130448505281
1772882701341316900,4.53931689453125,-0.4486152896374464,-0.08217091820836067,-0.21800313784703612
1772882701351249000,4.549248779296875,-0.5361673163622618,-0.06633446665108203,-0.338673005797714
1772882701361182000,4.559181884765625,-0.4996557410448789,-0.08129588893949985,-0.4462729642949998
1772882701371114000,4.569114013671875,-0.38243338319957254,-0.10131927079260349,-0.5534319010265171
1772882701381047000,4.579047119140625,-0.235790869602561,-0.1299444767743349,-0.5805228831782937
1772882701390980000,4.58897998046875,-0.10282558370232582,-0.11790098775923251,-0.5456231269717217
1772882701400912000,4.598911865234375,-0.05757657517790794,-0.11051789177060127,-0.4953692958973348
1772882701410845000,4.608844970703125,-0.020040917509794233,-0.1295645375460386,-0.41049759429767724
1772882701420777000,4.61877685546875,-0.010723638588190079,-0.11201017615497112,-0.3132391432031989
1772882701430709800,4.628709716796875,-0.047046413335204124,-0.12657353903651236,-0.2168500222891569
1772882701440641800,4.638641845703125,-0.11359656856358051,-0.1402408298611641,-0.14584376443475483
1772882701450574800,4.648574951171875,-0.17594927210211753,-0.1525964535653591,-0.13056260867267847
1772882701460507000,4.6585068359375,-0.2264619002431631,-0.12392623939812182,-0.15063172936365007
1772882701470440000,4.66843994140625,-0.17358838818967343,-0.07653846527934074,-0.21549948446303605
1772882701480372000,4.6783720703125,-0.09803834942579269,-0.06274374868273734,-0.3052211103118956
1772882701490305000,4.688304931640625,-0.04012508963942527,-0.03860533272624016,-0.32615883053094147
1772882701500237000,4.698237060546875,-0.05226619381010532,-0.04778524900376797,-0.332635040807724
1772882701510169900,4.708169921875,-0.008888239854574202,-0.03356909212470054,-0.33040582045093175
1772882701520102100,4.71810205078125,-0.06621113253235816,0.0009101005822420119,-0.33381562889441846
1772882701530035000,4.728034912109375,-0.12490005286633968,0.0017284312278032302,-0.3266099352993071
1772882701539966700,4.737966796875,-0.200624279153347,0.011057985109090805,-0.3100993838727474
1772882701549899800,4.747899658203125,-0.20319617546796798,-0.02262275069653988,-0.2904265690229833
1772882701559831800,4.757831787109375,-0.17642390387654303,-0.06115209557712078,-0.2869800818309188
1772882701569764900,4.767764892578125,-0.1085819552719593,-0.09338555518388747,-0.26537995218038557
1772882701579698000,4.777697998046875,-0.041133389899134634,-0.06833236247003079,-0.23222630898877977
1772882701589630000,4.7876298828125,0.03512976557016372,-0.019786065965890883,-0.21254341113641856
1772882701599563000,4.79756298828125,0.07326046652197837,0.02035831289589405,-0.20260069379284976
1772882701609495000,4.8074951171875,0.05598842920362949,0.06796937437653541,-0.15854484057575463
1772882701619427800,4.817427734375,0.009562778115272522,0.06784954738914967,-0.16012392646074294
1772882701629359900,4.82735986328125,-0.09468670091032981,0.04257482087910175,-0.1620611781336367
1772882701639293000,4.83729296875,-0.17739830186665057,0.017120646148920057,-0.12695567022189497
1772882701649225000,4.847224853515625,-0.19820903470516205,-0.020544190856814384,-0.1285942312091589
1772882701659158000,4.857157958984375,-0.18099661861956118,-0.046373628640174865,-0.12920154945254325
1772882701669089800,4.86708984375,-0.18256547537148,-0.05096738617122173,-0.18869301834106444
1772882701679022800,4.87702294921875,-0.16266367407143115,-0.04997194539308548,-0.24136691616922615
1772882701688955000,4.886954833984375,-0.10656886188387871,-0.04846446343958378,-0.28482290379703046
1772882701698888000,4.896887939453125,-0.03177110279202461,-0.030150223591923712,-0.33410657466501
1772882701708820000,4.906820068359375,-0.04102057717442512,-0.0341547830581665,-0.3414794415205717
1772882701718752800,4.916752685546875,-0.09314648573100566,-0.045754035437107085,-0.33782340323105453
1772882701728684800,4.926684814453125,-0.14024725960195064,-0.045189387291669846,-0.3330263782128691
1772882701738617900,4.936617919921875,-0.16027239502072332,-0.06689619218707084,-0.3284624312981963
1772882701748551000,4.946551025390625,-0.17852292198240757,-0.07044424005746841,-0.31092136778011914
1772882701758483000,4.95648291015625,-0.18396657434105873,-0.09320669148564338,-0.2392528466247022
1772882701768416000,4.966416015625,-0.11867898639440536,-0.116516255402565,-0.17476240040510893
1772882701778348000,4.97634814453125,-0.11137772347033023,-0.09291910671591758,-0.15891747328042982
1772882701788281000,4.986281005859375,-0.07668518027365208,-0.06964812124371528,-0.19646862077862023
1772882701798213000,4.996213134765625,-0.010527239233255386,-0.06064648414254188,-0.27629005325138567
1772882701808146000,5.00614599609375,-0.038998715957999225,-0.05083996039927006,-0.32207536060959097
1772882701818077700,5.01607763671875,-0.09380115024745464,-0.06268354292809963,-0.30786475668847557
1772882701828010800,5.0260107421875,-0.15283260040879248,-0.05254384170770645,-0.29514965202212334
1772882701837942800,5.03594287109375,-0.21883915027976034,-0.06429916143119335,-0.2800762937918305
1772882701847875800,5.045875732421875,-0.2567407186508179,-0.07656418424248695,-0.24909195746332405
1772882701857808000,5.055807861328125,-0.24318974768221377,-0.0859814164072275,-0.26779446597620843
1772882701867741000,5.065740966796875,-0.12240122178792953,-0.08143266706168652,-0.3460559556558728
1772882701877673000,5.0756728515625,-0.05171674323379993,-0.06212415547966957,-0.3629410394832492
1772882701887606000,5.08560595703125,-0.06463876864910126,-0.08551087628602981,-0.3627900867052376
1772882701897538000,5.0955380859375,-0.06639233431816101,-0.06935936743021011,-0.32977921298518775
1772882701907470800,5.105470947265625,-0.0636480040460825,-0.055826516640186306,-0.26264775073751806
1772882701917403000,5.11540283203125,-0.09118599931299685,-0.05944529165923595,-0.23958339375331997
1772882701927336200,5.125336181640625,-0.1413251179665327,-0.06521861436367035,-0.19888985657617447
1772882701937269200,5.135269287109375,-0.1564525444716215,-0.0654950932174921,-0.16991642167866228
1772882701947201300,5.145201171875,-0.15105740742981433,-0.051770519247651095,-0.19536694314703343
1772882701957134300,5.15513427734375,-0.14388064766824243,-0.0692073917388916,-0.2043378928489983
1772882701967066400,5.16506640625,-0.14021744898557661,-0.06976619466543198,-0.16481252266839147
1772882701976999200,5.174999267578125,-0.1238011517137289,-0.040188802525401114,-0.15589666415452957
1772882701986931200,5.18493115234375,-0.062280807346105575,-0.0011994389176368714,-0.22372063871100545
1772882701996864300,5.1948642578125,-0.028031331741809842,0.006190086811780929,-0.26357334114983677
1772882702006796300,5.20479638671875,-0.017167407900094984,-0.00485854594707489,-0.318357362999767
1772882702016729300,5.214729248046875,-0.02427694764435291,-0.008528758892416954,-0.3052721098467707
1772882702026661400,5.224661376953125,-0.07162906592786311,-0.019255320090055466,-0.2816951271653175
1772882702036594400,5.234594482421875,-0.08015431768894195,-0.061207625156641,-0.27278891326263544
1772882702046526200,5.244526123046875,-0.1059936923444271,-0.09160276342034339,-0.2926557893797755
1772882702056459300,5.254459228515625,-0.09833762463331222,-0.115283498737216,-0.2931114241927862
1772882702066391300,5.264391357421875,-0.07278700379133224,-0.08250234211981296,-0.3328817090451717
1772882702076324400,5.274324462890625,-0.11903846735656261,-0.08311667462587356,-0.3320445275686681
1772882702086256400,5.28425634765625,-0.15063012192845343,-0.09086158966422081,-0.3198153067231178
1772882702096189200,5.294189208984375,-0.17913842353224754,-0.07675766098797321,-0.3567668808929622
1772882702106121200,5.304121337890625,-0.17937223228812216,-0.09227321002781391,-0.37555575251504775
1772882702116054300,5.31405419921875,-0.13847265114486218,-0.08560615335404873,-0.3798630943201482
1772882702125986300,5.323986328125,-0.13196283085942268,-0.06453297018706798,-0.35704540557339787
1772882702135919400,5.33391943359375,-0.17593173644542692,-0.08707154973149299,-0.34426892610862847
1772882702145852400,5.343852294921875,-0.20135551603734492,-0.07733049243986606,-0.3146820354878902
1772882702155784400,5.353784423828125,-0.20563304722607134,-0.05577917036712169,-0.2808754813455045
1772882702165717200,5.36371728515625,-0.20521745216250417,-0.04579319840371608,-0.29739801547080275
1772882702175649300,5.373649169921875,-0.1344581548064947,-0.052608723637461656,-0.2710734876468778
1772882702185582300,5.383582275390625,-0.05550502960085869,-0.06872691474556923,-0.2490625852383673
1772882702195514000,5.39351416015625,0.00623626404106617,-0.07994681241810321,-0.2739322380788624
1772882702205447200,5.403447265625,-0.020839958932995794,-0.09033844257295132,-0.2659384628459811
1772882702215379200,5.413379150390625,-0.08031096955537796,-0.10625322006344795,-0.22992899183183907
1772882702225312300,5.423312255859375,-0.12796470113396644,-0.0957850175410509,-0.19422069572135806
1772882702235244300,5.433244384765625,-0.18054069154560565,-0.08432663493752479,-0.15392068790644406
1772882702245177300,5.44317724609375,-0.21639000356197355,-0.05795826797187328,-0.14375307576581836
1772882702255109400,5.453109375,-0.2077659676015377,-0.031444939577579496,-0.13146964051499963
1772882702265042400,5.46304248046875,-0.21229484320282935,-0.04003390422463417,-0.16927739312276244
1772882702274974500,5.472974365234375,-0.19726853898465632,-0.03196457953751087,-0.18117869718819857
1772882702284907300,5.4829072265625,-0.16684475914835928,-0.07164250993132591,-0.21233590586557982
1772882702294839300,5.49283935546875,-0.10864683720171452,-0.10813479602634907,-0.1795629325546324
1772882702304772400,5.5027724609375,-0.013121347379684447,-0.12998480878472327,-0.15592881285846233
1772882702314704100,5.5127041015625,0.03937280996739864,-0.13665537258982657,-0.16062836885154247
1772882702324637200,5.52263720703125,-0.0017751929789781569,-0.13655600386857986,-0.18055837333276867
1772882702334570200,5.5325703125,-0.06627776802778243,-0.11826689846217632,-0.16924436763599515
1772882702344502300,5.542502197265625,-0.10404723445177078,-0.09535890108346938,-0.14794818936809898
1772882702354435300,5.552435302734375,-0.16689970420598982,-0.0960159036874771,-0.13115005317181347
1772882702364367400,5.562367431640625,-0.19822481679618356,-0.07550152344703674,-0.10852335695251822
1772882702374300200,5.572300048828125,-0.19254501759409903,-0.04533142611086368,-0.10974266961440443
1772882702384232200,5.582232177734375,-0.18964578902125356,0.0019458733707666397,-0.1527450682558119
1772882702394165200,5.592165283203125,-0.17522914113402366,0.03003565730154514,-0.17227555202543735
1772882702404097300,5.60209716796875,-0.13021218779981136,-0.006175473764538765,-0.1857020198315382
1772882702414030300,5.6120302734375,-0.06902794351875782,-0.025723054799437522,-0.2148619172118604
1772882702423962400,5.62196240234375,-0.08728256213366985,-0.028927988320589064,-0.16889014737084507
1772882702433895400,5.6318955078125,-0.037062194937467575,-0.08733633814752101,-0.1851559302560985
1772882702443827500,5.641827392578125,-0.061758244776725764,-0.14565759421288965,-0.20992431467920541
1772882702453760500,5.651760498046875,-0.0010229133069515229,-0.16357377465367315,-0.2592420339472592
1772882702463692300,5.6616923828125,-0.0034498481929302214,-0.18054829033017158,-0.27956586005166173
1772882702473625000,5.671625,-0.0854459943562746,-0.1910129857212305,-0.24559344782307743
1772882702483557000,5.68155712890625,-0.1548269890964031,-0.14514730660319328,-0.20857655333206057
1772882702493490200,5.691490234375,-0.17902970246076583,-0.0950485199600458,-0.22563129463791845
1772882702503422200,5.701422119140625,-0.16452070011496542,-0.020102292308211325,-0.2134312998868525
1772882702513355300,5.711355224609375,-0.1349105747491121,0.03045359045267105,-0.22416136821582913
1772882702523288300,5.721288330078125,-0.12020283496081828,0.05815525184869766,-0.23158377330154178
1772882702533220400,5.731220458984375,-0.13624386917948722,0.03157937961220741,-0.22884748020544646
1772882702543153400,5.7411533203125,-0.1420353120625019,-0.00331657720208168,-0.15446531617715953
1772882702553085400,5.75108544921875,-0.08877367747426032,-0.056819034808874125,-0.1328520347841084
1772882702563018200,5.761018310546875,-0.05521627578735351,-0.11694120281636715,-0.07809124767929315
1772882702572950300,5.7709501953125,-0.007341010412573814,-0.13423720553219318,-0.08315189206972717
1772882702582883300,5.78088330078125,0.025353052443265914,-0.15340192472934722,-0.15172770790681242
1772882702592815400,5.7908154296875,0.005203413861989975,-0.1701473078250885,-0.22208222385421394
1772882702602748400,5.80074853515625,-0.05440729749202728,-0.11859715332984924,-0.28337343564108014
1772882702612680200,5.81068017578125,-0.09487959313392638,-0.07411971369981765,-0.3074799951545894
1772882702622613200,5.82061328125,-0.12005611996650695,-0.04706862516701221,-0.3870182267718017
1772882702632545300,5.830545166015625,-0.1753062980234623,-0.058763154613971705,-0.39859102953523395
1772882702642478300,5.840478271484375,-0.19613047486543655,-0.024930443117022513,-0.37676644347906113
1772882702652410400,5.850410400390625,-0.23230302748680112,-0.0315583368241787,-0.39772622939944263
1772882702662343200,5.86034326171875,-0.2520861708432436,-0.04806465046703815,-0.43913741332665085
1772882702672275200,5.870275146484375,-0.2111252149015665,-0.10927402918934821,-0.39583676239103077
1772882702682208300,5.880208251953125,-0.1674316191256046,-0.11386954028606414,-0.33717750654295087
1772882702692140300,5.890140380859375,-0.12674714203774928,-0.08990706541836262,-0.2717312209032476
1772882702702073300,5.9000732421875,-0.11014672037065029,-0.05570785869657993,-0.24695333799943325
1772882702712005400,5.91000537109375,-0.10165653992295265,-0.03864157308340072,-0.23917349777817726
1772882702721938400,5.9199384765625,-0.09106441875994205,-0.016513327905535696,-0.202167563072592
1772882702731871500,5.92987158203125,-0.09546645311117172,-0.025975568255782126,-0.13217998074144124
1772882702741803300,5.93980322265625,-0.11130407371222972,-0.03752864340543747,-0.07803367227315902
1772882702751736000,5.949736083984375,-0.1421966401040554,-0.042132922330498694,-0.14608634101897477
1772882702761668000,5.959668212890625,-0.10509294411242008,-0.018470891714096067,-0.27729835351109505
1772882702771601200,5.96960107421875,-0.07193710896372794,-0.03199497467577457,-0.3744342011392116
1772882702781533200,5.979533203125,-0.030101708275079724,-0.05893617309331894,-0.3528574523642659
1772882702791466200,5.98946630859375,-0.019381576818227768,-0.08612403974831104,-0.2862488449469209
1772882702801398300,5.999398193359375,-0.055114568978548044,-0.127120651525259,-0.29754560724794865
1772882702811331300,6.009331298828125,-0.12418050642013549,-0.11956219896972178,-0.34458792892992496
1772882702821263400,6.019263427734375,-0.18069792793393133,-0.10671791496574878,-0.39909737162217496
1772882702831196400,6.029196533203125,-0.25712942570745945,-0.07701017444431782,-0.426144514632225
1772882702841128400,6.03912841796875,-0.273639246481657,-0.06808861684203148,-0.4290500268153846
1772882702851061200,6.049061279296875,-0.23429800069630144,-0.06639233431816101,-0.3598910042628646
1772882702860993300,6.0589931640625,-0.16502338894009588,-0.05885901620388031,-0.3212077839948237
1772882702870926300,6.06892626953125,-0.1475777486205101,-0.08974749094247818,-0.326202669672668
1772882702880858000,6.078858154296875,-0.1305804365903139,-0.08017477595508098,-0.26606808057501913
1772882702890791200,6.088791259765625,-0.04732289218902588,-0.0470125110656023,-0.20061974910870192
1772882702900723200,6.09872314453125,-0.00312660758793354,-0.04046645042300224,-0.18983838898390532
1772882702910656300,6.10865625,-0.03669453066885471,-0.014402619361877441,-0.18267536548674104
1772882702920588300,6.11858837890625,-0.10305296271741389,-0.007842530193924904,-0.16370441529601812
1772882702930520300,6.128520263671875,-0.17816461006402967,-0.006677578067779541,-0.11992197219282388
1772882702940453400,6.138453369140625,-0.1943622961491346,-0.05046937352120876,-0.13706819117441774
1772882702950385400,6.148385498046875,-0.12127777071595192,-0.08518120594024657,-0.20669030119404194
1772882702960318200,6.158318115234375,-0.06491700106859206,-0.11012684662640095,-0.30581293872520326
1772882702970250500,6.16825048828125,-0.08168868764936923,-0.08658698108494281,-0.311967954223603
1772882702980183300,6.178183349609375,-0.10596505077183246,-0.0681926617383957,-0.30637568717449903
1772882702990115000,6.188114990234375,-0.14240882155001164,-0.03637771980464458,-0.2695540229946375
1772882703000048400,6.19804833984375,-0.15686112527251242,-0.05800210711359977,-0.24093612353652713
1772882703009980200,6.207980224609375,-0.1771615705013275,-0.08885083436369895,-0.17616949072405694
1772882703019913200,6.217913330078125,-0.18625263945162296,-0.11995675124526023,-0.09257233910486101
1772882703029845200,6.22784521484375,-0.10114975944459438,-0.09289397227466106,-0.07942644180580972
1772882703039778300,6.2377783203125,0.050480479437112806,-0.05965922667086124,-0.1418517721891403
1772882703049710300,6.24771044921875,0.1049871456503868,-0.050073652201890945,-0.13185206396132707
1772882703059643400,6.257643310546875,0.12465455367267131,-0.06278174260556697,-0.07980535812079906
1772882703069575400,6.267575439453125,0.054606034934520715,-0.05722586204409599,-0.06055500646680593
1772882703079508200,6.27750830078125,-0.02199088253378868,-0.0436924267321825,-0.05558408618643879
1772882703089440300,6.287440185546875,-0.12741992673277855,-0.06763736594319343,-0.020917261952906847
1772882703099373300,6.297373291015625,-0.1668225473165512,-0.06167290458083152,0.03133870272412896
1772882703109305300,6.307305419921875,-0.17687223216593265,-0.027411738538742063,0.007001403194665908
1772882703119238400,6.31723828125,-0.21250410203933714,-0.014447627547383308,-0.027133213858306405
1772882703129170200,6.327170166015625,-0.20973639089167118,-0.016388824743032455,-0.03524111699014902
1772882703139103200,6.337103271484375,-0.19116379236876962,-0.022241642424464223,-0.07385697111040353
1772882703149035300,6.34703515625,-0.1129869122326374,0.002336918514966965,-0.12127382519319653
1772882703158968300,6.35696826171875,0.047641456618905065,-0.017371406039595604,-0.1919122726485133
1772882703168901000,6.366901123046875,0.11451719053983687,-0.06315174496173859,-0.24461773465871808
1772882703178833200,6.376833251953125,0.12447685901820658,-0.1239928748935461,-0.21359555053785442
1772882703188766200,6.38676611328125,0.0452782346189022,-0.16413316210210321,-0.16989742471724747
1772882703198698200,6.3966982421875,-0.09197978003919124,-0.15216916806399822,-0.19609262707307934
1772882703208631300,6.40663134765625,-0.16001754347681998,-0.1276706866234541,-0.2802018198676407
1772882703218563300,6.416563232421875,-0.16802198623418807,-0.09469020804166793,-0.3743164199784398
1772882703228496400,6.426496337890625,-0.1453203250825405,-0.04026420584917068,-0.45933001426681874
1772882703238428400,6.436428466796875,-0.11355682107508182,-0.07379998022615909,-0.47589025005400176
1772882703248361500,6.446361572265625,-0.1573193904340267,-0.0855249048113823,-0.428320981888473
1772882703258293500,6.45629345703125,-0.23493512955605983,-0.059603697091341015,-0.37901232270970936
1772882703268226300,6.466226318359375,-0.28499592227637766,-0.03443418452143669,-0.33349984094351526
1772882703278158000,6.476157958984375,-0.28795068042874333,-0.0019417817175388335,-0.36746406986564395
1772882703288091100,6.486091064453125,-0.2245452529668808,-0.020849895805120467,-0.38083369291797275
1772882703298023200,6.496023193359375,-0.1557388432443142,-0.0398059406876564,-0.36858693641573187
1772882703307956200,6.505956298828125,-0.08844283808469772,-0.06979425171613693,-0.3603529226861894
1772882703317888300,6.51588818359375,-0.05254091909825802,-0.08502221598625183,-0.4107708582811057
1772882703327821300,6.5258212890625,-0.024313772523403165,-0.08379764262735843,-0.43173634328991173
1772882703337753300,6.53575341796875,0.028778935238718984,-0.07481587927043437,-0.35855215687453745
1772882703347686400,6.545686279296875,0.04822013328969478,-0.0731283645749092,-0.2594584531769156
1772882703357618400,6.555618408203125,0.04042670293450355,-0.09951660528481006,-0.19224311203807593
1772882703367551200,6.56555126953125,0.0472258615553379,-0.0968657985150814,-0.17491379157453774
1772882703377484300,6.575484375,-0.018668460112810134,-0.06925707609951495,-0.20370573242530227
1772882703387416300,6.585416259765625,-0.10173837298750876,-0.05206161114871501,-0.2371155423350632
1772882703397349400,6.595349365234375,-0.16566110232174394,-0.051041620451211925,-0.22371654705777763
1772882703407281400,6.605281494140625,-0.22700433655679225,-0.03320259689986706,-0.22785203942731022
1772882703417214500,6.61521435546875,-0.28031039480865,-0.05504968704879284,-0.2904218928478658
1772882703427146200,6.625146240234375,-0.2891208932518959,-0.05181143577992916,-0.3230167331129312
1772882703437079300,6.635079345703125,-0.22829496088922022,-0.0612035335034132,-0.3668507602728903
1772882703447011300,6.64501123046875,-0.17158172454237938,-0.05037585001885891,-0.3753574534639716
1772882703456944000,6.654944091796875,-0.11234043102264403,-0.06390986985266209,-0.3361814812429249
1772882703466876200,6.664876220703125,-0.07831716538965701,-0.07479483648240566,-0.27232991744875906
1772882703476809200,6.674809326171875,-0.046744215518236154,-0.07236322542130946,-0.25307225927114485
1772882703486741200,6.6847412109375,-0.056386488610506054,-0.07919102561473845,-0.24348200862705707
1772882703496674300,6.69467431640625,-0.06659808602333069,-0.05544423932433128,-0.19192878539189695
1772882703506606300,6.7046064453125,-0.08502923024892807,-0.013997545692324637,-0.14079568726494907
1772882703516539400,6.714539306640625,-0.13814531888663767,-0.04168459404110908,-0.11007687000483274
1772882703526471400,6.724471435546875,-0.16173194617927072,-0.0241945300579071,-0.0799041423201561
1772882703536404500,6.734404541015625,-0.14279460599720478,-0.031160861939191816,-0.10349559191837907
1772882703546336300,6.744336181640625,-0.099397362819314,-0.06207564016282558,-0.19600173391923306
1772882703556269000,6.75426904296875,-0.05271218401193618,-0.08426935179233551,-0.22926176009476185
1772882703566201000,6.764201171875,-0.009267594560980797,-0.09074234719872475,-0.30883272493779657
1772882703576134100,6.774134033203125,-0.03572247076630592,-0.11372808598875998,-0.35739056574925776
1772882703586066200,6.784066162109375,-0.056954643887281414,-0.11460896047651767,-0.3686215693376958
1772882703595999200,6.793999267578125,-0.09445756832957267,-0.1024865610063076,-0.32034473742470143
1772882703605931300,6.80393115234375,-0.11530512604713439,-0.07943886289596556,-0.3367141268149018
1772882703615864300,6.8138642578125,-0.18453999031484125,-0.09056172993481158,-0.2983792815931141
1772882703625797400,6.82379736328125,-0.1574286960273981,-0.04568623089790344,-0.2326936342395842
1772882703635729400,6.8337294921875,-0.16176526392698287,-0.039644028124213214,-0.19355857855081557
1772882703645662200,6.843662109375,-0.21757599847614764,-0.03854804958105087,-0.17038403919041156
1772882703655594200,6.85359423828125,-0.2413631167769432,-0.06158990247249603,-0.16766148235872386
1772882703665527300,6.86352734375,-0.24013386724293231,-0.07578969273865223,-0.09633826750963925
1772882703675459300,6.873459228515625,-0.180541860589385,-0.06580722790658473,-0.12142112470939755
1772882703685392400,6.883392333984375,-0.13035071948766708,-0.05419570056796073,-0.22470614261701702
1772882703695324200,6.89332421875,-0.04822188685536384,-0.018514146333932877,-0.30939211238622666
1772882703705257200,6.90325732421875,-0.026754735934734344,0.02751695247888565,-0.34453532195985315
1772882703715189200,6.913189208984375,-0.020545359900593755,0.03955810340642929,-0.3534773378282785
1772882703725122300,6.923122314453125,-0.04918634797334671,0.0038701194316148758,-0.3063416387744248
1772882703735054300,6.933054443359375,-0.08821370550394057,-0.08268705103695392,-0.15797244751527906
1772882703744987100,6.942987060546875,-0.11104045433998107,-0.1490589270889759,-0.04929682261049747
1772882703754919200,6.952919189453125,-0.14973288082778452,-0.16874971598684788,-0.021128566616028546
1772882703764852200,6.962852294921875,-0.12330956880450249,-0.1621726756840944,-0.10821984396129845
1772882703774784300,6.9727841796875,-0.1065209310889244,-0.12837737358808518,-0.2332742106065154
1772882703784717300,6.98271728515625,-0.0913590177923441,-0.08992635464072227,-0.3309383198924363
1772882703794649300,6.9926494140625,-0.13219488604962826,-0.07177987257540226,-0.3562191838823259
1772882703804582400,7.00258251953125,-0.10710837558805941,-0.04938216280639171,-0.32838848927915093
1772882703814514400,7.012514404296875,-0.047372576549649235,-0.026239187628030774,-0.3099703506655991
1772882703824447500,7.022447509765625,0.016760580664873122,-0.025226211193203923,-0.3366371160559356
1772882703834379300,7.032379150390625,0.03836450970768928,-0.03167816381156444,-0.3195439424358308
1772882703844312000,7.04231201171875,0.07299158645272255,-0.017648469415307046,-0.25963644009232517
1772882703854244400,7.052244384765625,0.011278934383392333,-0.01930734253823757,-0.17156068175435066
1772882703864177200,7.06217724609375,-0.056983869981765745,-0.05121931510567665,-0.10103080924004315
1772882703874110200,7.072110107421875,-0.10572539679706096,-0.05719429786205291,-0.03236789964139462
1772882703884042200,7.082042236328125,-0.06329670639038086,-0.05308861610889434,0.02323664481118321
1772882703893975300,7.091975341796875,-0.037438627034425735,-0.087062197381258,0.029080110142379996
1772882703903907300,7.1019072265625,-0.0104699560880661,-0.07240005030035972,-0.014086246889084577
1772882703913840400,7.11184033203125,-0.002248071187734604,-0.018560323563218115,-0.07771700753942132
1772882703923772400,7.1217724609375,-0.028186814564466475,-0.009047229808568953,-0.1537190278545022
1772882703933705500,7.13170556640625,-0.08550035489201545,-0.01337093822658062,-0.21134762548059224
1772882703943637500,7.141637451171875,-0.11393909839093684,-0.006440262180566788,-0.2873496457956731
1772882703953570600,7.151570556640625,-0.12527122426629067,-0.021716157245635984,-0.2912156735740602
1772882703963502600,7.161502685546875,-0.180717217156291,-0.05638356600105762,-0.2794578696325421
1772882703973435600,7.171435546875,-0.21146891377270222,-0.07848959934711455,-0.24122166247963903
1772882703983367400,7.181367431640625,-0.19351064775586127,-0.06911503728032112,-0.17757248938977718
1772882703993300500,7.191300537109375,-0.08233341529369353,-0.08604746738076209,-0.15170213507413863
1772882704003232500,7.201232421875,-0.023036592194437978,-0.11734686100780964,-0.20221154834479094
1772882704013165600,7.21116552734375,0.030867431950569152,-0.12693301999866963,-0.20506854521110654
1772882704023097600,7.22109765625,0.047452656048536296,-0.08981529548168182,-0.1601864703029394
1772882704033030400,7.231030517578125,-0.02888239561319351,-0.052369654184579846,-0.1495120776839554
1772882704042962400,7.24096240234375,-0.15344050317406654,-0.04657645773589611,-0.18230419408679008
1772882704052895500,7.2508955078125,-0.23695465268492696,-0.043808746588230134,-0.21264774829372762
1772882704062827500,7.26082763671875,-0.2531926707804203,-0.025589199286699293,-0.2316412025772035
1772882704072760600,7.270760498046875,-0.22792612757682798,-0.06116378601491451,-0.270841724717617
1772882704082692600,7.280692626953125,-0.14269114562273025,-0.05657061300575733,-0.2903929590143263
1772882704092625700,7.290625732421875,-0.07278758831322192,-0.027861820393800734,-0.23961028176024554
1772882704102557400,7.300557373046875,-0.05293956302702427,-0.04765606966614723,-0.2446988370709121
1772882704112490500,7.310490478515625,-0.08807926546931266,-0.032439211311936375,-0.24599530662223695
1772882704122422500,7.320422607421875,-0.11177461383342742,-0.014429507368803024,-0.24619302115142344
1772882704132355300,7.330355224609375,-0.14827566775679588,-0.03637304362952709,-0.22514117303341627
1772882704142287600,7.34028759765625,-0.19728081394433974,-0.032466683840751645,-0.19122209842726587
1772882704152220400,7.350220458984375,-0.17261165211200713,-0.03162380327582359,-0.21118965843990445
1772882704162153500,7.360153564453125,-0.13398527659773826,-0.03947159416675567,-0.2076965556271374
1772882704172085500,7.37008544921875,-0.04106324727237224,-0.0506809704452753,-0.16234072572737931
1772882704182018600,7.3800185546875,0.013753800064325332,-0.07190963643491267,-0.16062617689445613
1772882704191950600,7.38995068359375,0.004888941085338592,-0.08947276565432548,-0.1891869393378496
1772882704201883600,7.399883544921875,-0.06524024167358874,-0.08805530007183551,-0.23246041000559925
1772882704211815700,7.409815673828125,-0.14524667532444,-0.0920031609147787,-0.2915136336073279
1772882704221748500,7.41974853515625,-0.19802607935369013,-0.1097282026976347,-0.3018910891063511
1772882704231680500,7.429680419921875,-0.1908253541946411,-0.11175298652350901,-0.29860870643481613
1772882704241613600,7.439613525390625,-0.1479004047036171,-0.0842307733476162,-0.26945333909913893
1772882704251545300,7.44954541015625,-0.06586275748610496,-0.07534662514626979,-0.2331481000088155
1772882704261478400,7.459478515625,-0.07232756958603859,-0.050101124730706215,-0.1567306307606399
1772882704271410400,7.469410400390625,-0.04858312138319015,-0.026273674419522285,-0.11452858871668577
1772882704281343500,7.479343505859375,-0.08013795107603072,-0.03013151889145374,-0.1216429507665336
1772882704291275500,7.489275634765625,-0.0864963801920414,-0.022333412361145017,-0.13661343314424157
1772882704301208600,7.49920849609375,-0.11433189710080623,-0.03317687793672085,-0.11689984789267181
1772882704311140600,7.509140625,-0.12326865227222442,-0.07050795294344425,-0.09186141435652971
1772882704321073400,7.519073486328125,-0.10652151561081409,-0.06985679555833339,-0.08496756318956614
1772882704331005700,7.529005615234375,-0.09018588235974312,-0.07382277657985686,-0.13123086332306266
1772882704340938500,7.5389384765625,-0.059850365328788756,-0.07411445300281047,-0.17295798133164644
1772882704350870500,7.54887060546875,-0.055640638679265976,-0.07085223633646964,-0.27759616741389037
1772882704360803600,7.558803466796875,-0.04182663286030292,-0.0714642307549715,-0.3546114564247429
1772882704370735600,7.568735595703125,-0.04549450771808624,-0.06181552792191505,-0.3752915486209094
1772882704380668700,7.578668701171875,-0.014339490997791289,-0.06763093620240689,-0.33050913469493387
1772882704390600400,7.588600341796875,-0.024548750323057172,-0.04978606743216514,-0.2638322843469679
1772882704400533500,7.598533447265625,-0.05989011281728744,-0.03769406310021877,-0.2262155242666602
1772882704410465500,7.608465576171875,-0.12331015332639217,-0.007612813091278076,-0.17081746217161417
1772882704420398600,7.618398681640625,-0.1964899558275938,0.001250292322039604,-0.12915493383184073
1772882704430330600,7.62833056640625,-0.21738836694955824,-0.04407938022315502,-0.1532310982070863
1772882704440263400,7.638263427734375,-0.21748890471458435,-0.034443536871671676,-0.19420783623978494
1772882704450195500,7.648195556640625,-0.17502514299452304,-0.04495207140445709,-0.27105317551121116
1772882704460128500,7.65812841796875,-0.10558978771865367,-0.055904258051514624,-0.3211123607963323
1772882704470060500,7.668060546875,-0.05016542213857174,-0.07127893731594086,-0.3011642361365259
1772882704479993600,7.67799365234375,-0.04228022184669971,-0.060737085035443304,-0.2688464592471719
1772882704489926700,7.6879267578125,0.02757657371163368,-0.04095861785411835,-0.2813618035577237
1772882704499858700,7.697858642578125,0.022215338939428328,-0.04268880264759063,-0.27059169547930356
1772882704509791500,7.70779150390625,-0.05436112026274204,-0.07603811454176902,-0.1917811936147511
1772882704519723500,7.7177236328125,-0.14380699791014193,-0.08212240289151668,-0.11290113364532589
1772882704529656600,7.727656494140625,-0.1976753662198782,-0.09086685036122798,-0.09514540446326136
1772882704539588400,7.73758837890625,-0.22666297577321529,-0.0755640672892332,-0.14183701301142573
1772882704549521400,7.747521484375,-0.16686463289260864,-0.03360883961319923,-0.1892874771028757
1772882704559453400,7.757453369140625,-0.11384849749803543,-0.018500702330470083,-0.2537605337962508
1772882704569386500,7.767386474609375,-0.07392331434488296,-0.032247488132119174,-0.28582901209965345
1772882704579318500,7.777318603515625,-0.00277414088845253,-0.04669102402627468,-0.25609993652924895
1772882704589251600,7.78725146484375,-0.019381576818227768,-0.07959668380618094,-0.19629472551643848
1772882704599183600,7.79718359375,-0.04255728522241115,-0.10190379268229006,-0.1852247577086091
1772882704609116700,7.80711669921875,-0.07756254763007163,-0.0828401957720518,-0.18794380740895866
1772882704619048700,7.817048583984375,-0.1043991166293621,-0.10039163455367088,-0.2214440720811486
1772882704628981500,7.8269814453125,-0.1061854155242443,-0.09156944567263126,-0.22373393658399582
1772882704638913500,7.83691357421875,-0.1115185932457447,-0.08809095590710639,-0.2000133076481521
1772882704648846600,7.8468466796875,-0.13086568327248096,-0.07323825469017028,-0.22827552553638814
1772882704658778400,7.8567783203125,-0.1859977879077196,-0.10147358457148074,-0.23743249932974575
1772882704668711400,7.86671142578125,-0.2015384713888168,-0.10100947419106959,-0.21956337290108202
1772882704678643500,7.8766435546875,-0.19514614000320432,-0.1074140805363655,-0.2261797223009169
1772882704688576500,7.886576416015625,-0.13314473412036895,-0.08374620470106602,-0.3087985304072499
1772882704698508500,7.896508544921875,-0.06628419776856899,-0.037812721043825145,-0.36145650001391766
1772882704708441600,7.906441650390625,-0.002472527593374252,-0.007144611057639121,-0.3708392453871667
1772882704718373600,7.91637353515625,-0.007741992428898811,0.01999357123672962,-0.322079160001874
1772882704728306400,7.926306396484375,-0.07495558000206946,0.010783259820938109,-0.20726254812404513
1772882704738238500,7.936238525390625,-0.13015548917651176,-0.004769698619842529,-0.09894289705008268
1772882704748171500,7.946171630859375,-0.14593699567615984,-0.011530278795957565,-0.024774521902948616
1772882704758103600,7.956103515625,-0.11033610546290874,-0.04291033644378185,-0.0621229864358902
1772882704768036600,7.96603662109375,-0.10698387242555618,-0.06590133593082427,-0.11319354072064161
1772882704777968600,7.97596875,-0.023126024043560026,-0.06925882966518401,-0.12627923226505516
1772882704787901700,7.985901611328125,0.0694903003334999,-0.10462240399122237,-0.19028087205439806
1772882704797832400,7.99583251953125,0.09296528394520283,-0.13764847528040408,-0.25518179877102376
1772882704807765500,8.005765625,0.06617723026275635,-0.14060674056410788,-0.2689291690945625
1772882704817697500,8.015697509765625,0.00575695609152317,-0.1251689329355955,-0.25558278078734875
1772882704827630600,8.025630615234375,-0.08757306951284408,-0.07520575537085533,-0.2438952656030655
1772882704837562600,8.035562744140625,-0.15557517711520194,-0.02960486466884613,-0.20770620023831723
1772882704847495700,8.04549560546875,-0.24375381130576132,0.010199322453141212,-0.1786244826607406
1772882704857427700,8.055427734375,-0.30719138747155667,0.012802198427915572,-0.2343874325454235
1772882704867360500,8.065360595703124,-0.2724906609684229,0.007662497451901435,-0.2712080738119781
1772882704877292500,8.07529248046875,-0.22432021203935146,-0.02590834823846817,-0.2975331861577928
1772882704887225600,8.0852255859375,-0.16564473570883273,-0.043404257440567015,-0.31830081050693987
1772882704897157400,8.095157470703125,-0.09316986660659313,-0.07508359029591083,-0.3653102528326213
1772882704907090400,8.10509033203125,-0.02603285140097141,-0.10775018062293529,-0.35312925504297016
1772882704917023500,8.1150234375,0.01375730719566345,-0.13497545667886734,-0.2880613011963665
1772882704926955500,8.12495556640625,0.008572598034143447,-0.11440554685890673,-0.2327908110037446
1772882704936888300,8.134888427734374,0.021381226202845573,-0.08198504024744033,-0.19128888005316255
1772882704946820400,8.1448203125,-0.02161737304627895,-0.040005262652039526,-0.21166487473621964
1772882704956753200,8.154753173828125,-0.07719488336145877,-0.015720131701231002,-0.15390022964030503
1772882704966685200,8.164685302734375,-0.11837561953365802,-0.0012163900524377821,-0.11119520651027559
1772882704976618200,8.1746181640625,-0.1714794332116842,0.0012152210086584091,-0.14045301130712032
1772882704986550000,8.184550048828125,-0.2453103930979967,-0.0025455928295850753,-0.18961817036196588
1772882704996483000,8.194483154296876,-0.2787310166627168,-0.0011760580420494078,-0.1994280551061034
1772882705006415000,8.2044150390625,-0.20955752719342707,-0.029123218631744382,-0.23654651027545331
1772882705016348200,8.21434814453125,-0.08144844915270805,-0.06602934622466564,-0.3087614132672548
1772882705026280200,8.2242802734375,0.05101531696617603,-0.10831541329026222,-0.3201731802500784
1772882705036213200,8.234213134765625,0.09279694164097309,-0.17253098809123038,-0.26232085687071083
1772882705046145300,8.244145263671875,0.07601005749106407,-0.1593932740986347,-0.24472937833964822
1772882705056078000,8.254078125,0.029935704058408737,-0.0969528922766447,-0.2579490715272724
1772882705066010000,8.264010009765625,-0.04373042065501213,-0.05286182161569595,-0.2705954948715866
1772882705075943200,8.273943115234376,-0.15296470235586165,-0.01618599564731121,-0.21946561161503195
1772882705085875200,8.283875244140624,-0.2263736374378204,0.041865211305022236,-0.16971476162672042
1772882705095808300,8.293808349609375,-0.2870423334121704,0.02821311804950237,-0.1542705242574215
1772882705105740300,8.303740234375,-0.31166531801521774,0.012351532050967215,-0.16298925276398657
1772882705115673300,8.31367333984375,-0.2756710445702076,-0.021239771905541417,-0.1810055325783789
1772882705125605000,8.323605224609375,-0.15363690252900122,-0.07487082432806491,-0.2525622639223933
1772882705135538200,8.3335380859375,-0.016005962905287743,-0.1121107139199972,-0.2953359683744609
1772882705145470200,8.34347021484375,0.09469196160733699,-0.1263368076711893,-0.29621669673174617
1772882705155403300,8.3534033203125,0.14849194085597991,-0.13316285429894922,-0.2507340255819261
1772882705165335300,8.363335205078124,0.1204722995519638,-0.11846680494844913,-0.19959362093135713
1772882705175270100,8.373270263671875,-0.08887772237062454,-0.0682791709780693,-0.1320002402603626
1772882705185202200,8.3832021484375,-0.16442951470017433,-0.03687748602032661,-0.0864275527395308
1772882705195135200,8.39313525390625,-0.17502572751641274,0.02277297282218933,-0.1594466117210686
1772882705205067300,8.4030673828125,-0.16549509810507296,0.013984686210751532,-0.26245398173108697
1772882705215000000,8.413,-0.17132804204225538,0.025488076999783515,-0.23305413811504838
1772882705224932000,8.42293212890625,-0.17568740629553795,0.0019978958189487456,-0.14688070626705885
1772882705234865200,8.432865234375,-0.1774134994357824,-0.037813305565714835,-0.13772855477929113
1772882705244797200,8.442797119140625,-0.1544084714233875,-0.08434884676933288,-0.17504677030444143
1772882705254730200,8.452730224609375,-0.11064882467389106,-0.10740414366424084,-0.24108649179264902
1772882705264662300,8.462662353515626,-0.059097501134872436,-0.11540858642160892,-0.28680326395928857
1772882705274595300,8.47259521484375,0.0062765960514545435,-0.09575286883711814,-0.3356454746700823
1772882705284527400,8.48252734375,0.027654899644851683,-0.08176935167014598,-0.3328638811275363
1772882705294460400,8.49246044921875,0.007222936990857124,-0.09706453595757483,-0.2779167776703834
1772882705304392200,8.50239208984375,-0.01543137788772583,-0.0901905585348606,-0.21410130810290573
1772882705314325000,8.512324951171875,-0.03274550078213215,-0.0586240384042263,-0.1873001026779413
1772882705324257000,8.522257080078125,-0.07779460282027721,-0.038728082323074335,-0.15517916353493927
1772882705334190000,8.532190185546876,-0.11744915233850478,-0.016937690797448158,-0.12517945432960986
1772882705344122000,8.5421220703125,-0.1471674142539501,-0.014626491245627402,-0.10953268012553453
1772882705354055200,8.55205517578125,-0.14719488678276538,0.002114215674996376,-0.1321668289989233
1772882705363987200,8.5619873046875,-0.18897943406701087,0.0077186115533113475,-0.1794566957011819
1772882705373920300,8.571920166015625,-0.16480536227524278,0.007881693160533904,-0.1742709636263549
1772882705383852300,8.581852294921875,-0.14519114574491976,0.012644962039589881,-0.19754940175265073
1772882705393785300,8.591785400390625,-0.06385083314180373,-0.00215805481672287,-0.2487627255089581
1772882705403717400,8.60171728515625,0.03293722396194935,-0.007086158868670463,-0.2312983804889023
1772882705413650200,8.611650146484376,0.061896776464581485,-0.04874035777151584,-0.19192805473953484
1772882705423582200,8.621582275390624,0.060895490467548365,-0.12957272085249424,-0.17331673164144157
1772882705433515300,8.631515380859375,0.041598669323325156,-0.14176877008080482,-0.13508300870656967
1772882705443447000,8.641447021484375,0.0344990664511919,-0.13274784375727175,-0.18544380728676915
1772882705453380000,8.651380126953125,-0.008175707671046256,-0.08612754687964916,-0.24470263646319507
1772882705463312100,8.66131201171875,-0.0654910015642643,0.018565584260225296,-0.26790727870091796
1772882705473245200,8.6712451171875,-0.16225333970487116,0.05521159961223602,-0.22952450268417596
1772882705483178200,8.68117822265625,-0.25514088223874565,0.04705927281677723,-0.13027955394759774
1772882705493110300,8.6911103515625,-0.2968102787107229,0.020834698235988616,-0.13406097218245266
1772882705503043000,8.70104296875,-0.2620680511534214,-0.014467501291632651,-0.1662602372586727
1772882705512975000,8.71097509765625,-0.19633213491737841,-0.061865796804428094,-0.20544117791578173
1772882705522908200,8.720908203125,-0.11917349191308022,-0.06866553994715213,-0.23300080049261448
1772882705532840200,8.730840087890625,-0.023389058893918988,-0.08415127837061881,-0.2750992360316217
1772882705542773200,8.740773193359376,0.07241758595705032,-0.10818974108397961,-0.2827925670132041
1772882705552705300,8.750705322265626,0.13774609043598174,-0.1027612862944603,-0.22702464869245886
1772882705562638300,8.760638427734374,0.13105389932096004,-0.11175941626429557,-0.18266586700603366
1772882705572570000,8.770570068359374,0.013210194706916808,-0.09424012618660926,-0.10140008094385265
1772882705582503200,8.780503173828125,-0.1070002390384674,-0.08447744158506393,-0.006243570564687251
1772882705592435200,8.790435302734375,-0.23185820632874965,-0.039267596027255054,-0.024254005160182713
1772882705602368000,8.800367919921875,-0.2793675610005855,-0.003358662778139114,-0.11845452998876571
1772882705612300000,8.810300048828125,-0.26655250309109685,0.05148059639036655,-0.2095861687660217
1772882705622233000,8.820233154296876,-0.1544786140501499,0.03860650177001953,-0.3575849192775786
1772882705632165000,8.8301650390625,-0.11424714142680167,-0.0061240358382463455,-0.38746012532040475
1772882705642098200,8.84009814453125,-0.051021746706962585,-0.030745851397514342,-0.37915728413835165
1772882705652030200,8.8500302734375,-0.0033761984348297117,-0.05238426723182201,-0.3523464341022074
1772882705661963300,8.85996337890625,-0.015026304218173026,-0.0773982969790697,-0.279227714138478
1772882705671895300,8.869895263671875,-0.02413841595649719,-0.12076689858436583,-0.14234963870868086
1772882705681828400,8.879828369140625,0.013826280778646468,-0.11291560056209564,-0.08652633693888782
1772882705691760400,8.889760498046876,0.01477729789316654,-0.11151040993928908,-0.07011456971168517
1772882705701693200,8.899693115234374,-0.013233575582504271,-0.08732114057838916,-0.09971724242344499
1772882705711625200,8.909625244140624,-0.07888181353509426,-0.056796822977066036,-0.18039836046546698
1772882705721558000,8.91955810546875,-0.11620061358213424,0.01650806720852852,-0.2385438215725124
1772882705731490000,8.929489990234375,-0.18229250364899635,0.02756137614250183,-0.2641802210018039
1772882705741423000,8.939423095703125,-0.2029588595807552,0.010227964025735855,-0.27608722415566445
1772882705751355100,8.949355224609375,-0.17906418925225734,-0.02111643778681755,-0.25040917754173275
1772882705761288200,8.9592880859375,-0.11510638860464095,-0.015159575209021567,-0.23914251811802387
1772882705771220200,8.96922021484375,-0.06294657777845859,-0.043460371541976926,-0.25243016197532414
1772882705781153300,8.9791533203125,-0.012031798577308654,-0.07321312024891376,-0.2627813139893114
1772882705791085300,8.989085205078124,-0.01564531289935112,-0.061899114552140234,-0.2340485559798777
1772882705801018000,8.99901806640625,-0.034836920103430744,-0.09195756820738316,-0.2042582517415285
1772882705810950400,9.008950439453125,-0.08810206182301043,-0.10091068999171257,-0.23457535633295773
1772882705820883200,9.01888330078125,-0.14267945518493652,-0.08087327961325645,-0.1968060360394418
1772882705830815200,9.028815185546875,-0.13253858492076395,-0.03930325186252594,-0.2019461754068732
1772882705840748300,9.038748291015626,-0.10332827252745627,-0.0056336219727993,-0.23069369259402153
1772882705850680000,9.04868017578125,-0.0602057546377182,-0.0028898762226104734,-0.2547298172198236
1772882705860613000,9.058613037109374,-0.05505494774580001,-0.01646656615436077,-0.23566724322289226
1772882705870546200,9.068546142578125,-0.053552141967415805,-0.04315232850611209,-0.20694471434652803
1772882705880478200,9.078478271484375,-0.0628852029800415,-0.05430266807377338,-0.19276845108643173
1772882705890411300,9.088411376953125,-0.08783961149454117,-0.08368658346831798,-0.17938479950875041
1772882705900343300,9.09834326171875,-0.12969780853688717,-0.09398761273026465,-0.16898659348264336
1772882705910276000,9.108276123046876,-0.13096972816884517,-0.0906786343127489,-0.21923341029435395
1772882705920208100,9.1182080078125,-0.09528642036914825,-0.0443155270665884,-0.25622137095183134
1772882705930142500,9.128142578125,-0.07757832972109317,-0.046532618594169614,-0.3331989583007991
1772882705940074200,9.13807421875,-0.06709142249822617,-0.05045066882073879,-0.3189443691074848
1772882705950007600,9.148007568359375,-0.06953180138766765,-0.053667292779684066,-0.2778836060531437
1772882705959939300,9.157939208984375,-0.07387479902803898,-0.07893032885193824,-0.25701164454668757
1772882705969872100,9.1678720703125,-0.09036708414554595,-0.08932955779135227,-0.23484905870780348
1772882705979804200,9.17780419921875,-0.08330372163057327,-0.09197627290785312,-0.20607772225365042
1772882705989737200,9.1877373046875,-0.04652794241905212,-0.0674251844972372,-0.20453619190007447
1772882705999669200,9.197669189453125,-0.05001169288158416,-0.08839666085541248,-0.18105536306947467
1772882706009602300,9.207602294921875,-0.08963234013020992,-0.07651333083808422,-0.11947189033776522
1772882706019534300,9.217534423828125,-0.1475380011320114,-0.04833996027708053,-0.08347630171850323
1772882706029467400,9.22746728515625,-0.1738555146932602,-0.03196691762506962,-0.13652473194748163
1772882706039399400,9.2373994140625,-0.19729718055725096,-0.0031651860326528548,-0.17694339770600198
1772882706049332500,9.24733251953125,-0.15367489645183086,0.007620996397733688,-0.217354318549484
1772882706059264500,9.257264404296874,-0.09374386710226536,-0.002481295421719551,-0.261572668851912
1772882706069197300,9.267197265625,-0.07021510747671127,-0.03736088562309742,-0.2548581197746098
1772882706079129300,9.27712939453125,-0.08612813140153884,-0.06982113972306252,-0.22295199242606759
1772882706089062100,9.287062255859375,-0.08479425244927406,-0.10203121845424175,-0.18519801583215592
1772882706098994200,9.296994140625,-0.05797346554100513,-0.12698445792496205,-0.15658537707105277
1772882706108927200,9.30692724609375,-0.030863340297341346,-0.11272212381660937,-0.16524916051998734
1772882706118859300,9.316859375,-0.05209025272130966,-0.12306290056705474,-0.19986191647872328
1772882706128792300,9.326792236328124,-0.07290916886627674,-0.08519991064071655,-0.22582710947096346
1772882706138724400,9.336724365234375,-0.13801730859279632,-0.06582476356327534,-0.22687413430586456
1772882706148657400,9.346657470703125,-0.13899229110479355,-0.04409107066094875,-0.25906287798807026
1772882706158589400,9.35658935546875,-0.117191378185153,-0.006250877088308334,-0.2368266423910856
1772882706168522200,9.366522216796875,-0.05707388635277748,-0.018009703943133355,-0.21998218283504245
1772882706178454300,9.376454345703126,-0.06707447136342524,-0.053639820250868796,-0.2053559838503599
1772882706188387300,9.38638720703125,-0.09557049800753593,-0.07742752307355404,-0.1600236809566617
1772882706198319400,9.3963193359375,-0.12730302235484123,-0.07118833642303943,-0.11683584274575114
1772882706208252400,9.40625244140625,-0.12591536738872527,-0.08503975164294242,-0.13012655534297227
1772882706218184200,9.41618408203125,-0.13464637085497377,-0.07413841840028762,-0.2013390032939613
1772882706228117200,9.4261171875,-0.12199790168404578,-0.04612286874949932,-0.2592046245463192
1772882706238049300,9.43604931640625,-0.0957546224027872,-0.07445639830827712,-0.2785093367360532
1772882706247982300,9.445982421875,-0.07256196286380291,-0.08523498195409775,-0.2302646535269916
1772882706257914400,9.455914306640626,-0.03985913217961788,-0.08256663952767848,-0.12638634590134024
1772882706267847400,9.465847412109374,-0.004647533544898033,-0.08416998307108879,-0.12599968467131256
1772882706277779500,9.475779541015624,-0.025941081464290618,-0.0612947189182043,-0.12299801863729953
1772882706287712300,9.485712158203125,-0.053448681592941284,-0.04389467130601406,-0.18250921513959764
1772882706297645300,9.495645263671875,-0.11984861469566821,-0.03377718191742897,-0.22802637308090923
1772882706307577300,9.505577392578125,-0.15188509042561055,-0.02956219457089901,-0.24823884776532648
1772882706317510400,9.515510498046876,-0.19614859504401683,-0.05556289726793766,-0.28783874448686836
1772882706327442400,9.5254423828125,-0.19797347238361834,-0.05912438914179802,-0.2728042569622397
1772882706337375500,9.53537548828125,-0.18817396290302277,-0.06923018809258938,-0.26264307456240055
1772882706347307300,9.545307373046874,-0.13969780902564524,-0.07587678650021552,-0.21546923545524477
1772882706357240300,9.555240234375,-0.08966215074658393,-0.08422960430383682,-0.17421981796100736
1772882706367172400,9.56517236328125,-0.02091243964731693,-0.058628130057454104,-0.1735324202187359
1772882706377105200,9.575105224609375,0.0750111095815897,-0.031469489496946335,-0.18933789211586116
1772882706387037200,9.585037109375,0.08881225591897964,0.006176058286428451,-0.18868410438224673
1772882706396970200,9.59497021484375,0.06413374173641205,-0.006438508614897727,-0.14285992631837724
1772882706406902300,9.60490234375,-0.0603887099891901,-0.011926000115275382,-0.07219824411794543
1772882706416835300,9.61483544921875,-0.14743454075753687,-0.03701426414251327,-0.03973535966947674
1772882706426767400,9.624767333984375,-0.1829343086838722,-0.049915831291675566,-0.027724019358307123
1772882706436700400,9.634700439453125,-0.18508885636925695,-0.07051262911856174,-0.10677534424141048
1772882706446632400,9.644632568359375,-0.15335691654384134,-0.08392389935553074,-0.17778218661770223
1772882706456565500,9.6545654296875,-0.0787146402746439,-0.07183832476437091,-0.24397139957919714
1772882706466497500,9.66449755859375,0.012642623952031135,-0.04548457084596157,-0.31917773947194217
1772882706476430300,9.674430419921874,0.051266076856851577,-0.04827098669409752,-0.3463739355638623
1772882706486362000,9.684362060546874,-0.008376198679208755,-0.038272739771008486,-0.2730497561559081
1772882706496295200,9.694295166015625,-0.08449497724175453,-0.043802901369333264,-0.18526757393702864
1772882706506227200,9.704227294921875,-0.10154431172013283,-0.08141279331743717,-0.1793555734142661
1772882706516160300,9.71416015625,-0.06971651030480862,-0.09108663059175014,-0.17181772525534034
1772882706526092300,9.72409228515625,-0.040265374892950054,-0.08300736903250217,-0.18628698011264203
1772882706536025300,9.734025390625,-0.058493105500936504,-0.0518576130092144,-0.20430369831845163
1772882706545957400,9.743957275390626,-0.12514964371323584,-0.01671323439180851,-0.17879954696670172
1772882706555890400,9.753890380859374,-0.18675415923297403,-0.0010913023680448532,-0.1738961389645934
1772882706565822500,9.763822509765625,-0.18289222310781478,0.0029109190106391906,-0.18453794448822736
1772882706575755300,9.77375537109375,-0.12125497436225413,-0.01651975764632225,-0.18590645636245606
1772882706585687300,9.783687255859375,-0.04602817620337009,-0.05030570739209651,-0.18829685863032936
1772882706595620400,9.793620361328125,0.006806172883510589,-0.10020049589574337,-0.18909955331534145
1772882706605552400,9.803552490234376,0.019404373171925542,-0.10951134507656096,-0.18521511309742927
1772882706615485400,9.8134853515625,0.014794249027967452,-0.08821838167905807,-0.20367928280979394
1772882706625417200,9.823417236328124,-0.033362171375751495,-0.09171732971072197,-0.22233619861528275
1772882706635350300,9.833350341796875,-0.09926116921901702,-0.0713940881282091,-0.21695772044733166
1772882706645282300,9.8432822265625,-0.16468436624407767,-0.07815759091377258,-0.23400296327248216
1772882706655215400,9.85321533203125,-0.18347732951939105,-0.04887772041559219,-0.23628610577359793
1772882706665147400,9.8631474609375,-0.15659809042215347,-0.07234978141784668,-0.21066870330572127
1772882706675080200,9.873080078125,-0.07480944952964783,-0.06396890656352043,-0.22535247769653796
1772882706685012200,9.88301220703125,-0.03121522247493267,-0.040836452779173846,-0.22787249769344925
1772882706694945300,9.8929453125,-0.03057517100572586,-0.04097498446702957,-0.22306334384605286
1772882706704877300,9.902877197265624,-0.05146656786501407,-0.022296002960205077,-0.19674217702299354
1772882706714810400,9.912810302734375,-0.07269581837654113,-0.04237316082715988,-0.1733878971815109
1772882706724742400,9.922742431640625,-0.07863631434142589,-0.06040273851454257,-0.15578531273454427
1772882706734675500,9.932675537109375,-0.08932429709434508,-0.054200376743078225,-0.1527247561201453
1772882706744607200,9.942607177734375,-0.05213233829736709,-0.021472996139526367,-0.20307605621963737
1772882706754540300,9.952540283203126,-0.037462007910013195,-0.03024140900671482,-0.195598998337239
1772882706764473300,9.962473388671874,0.010173018968105315,-0.05245557890236378,-0.14063026757016778
1772882706774405000,9.972405029296874,0.006374211207032203,-0.03437397876679897,-0.09934358680546283
1772882706784338200,9.982338134765625,-0.04857143094539642,-0.06473053858578205,-0.09939341729655861
1772882706794270200,9.992270263671875,-0.0973059434980154,-0.061764674517512316,-0.10206979689896106
1772882706804203300,10.002203369140625,-0.12457915034890174,-0.04617313763201236,-0.15249182414710521
1772882706814135300,10.01213525390625,-0.10461655877232551,-0.03890226984620094,-0.21202274826318024
1772882706824068400,10.022068359375,-0.07885492552816867,-0.06082768592834472,-0.2681372880645096
1772882706834000400,10.03200048828125,-0.0298936184823513,-0.05389934796988964,-0.27584654726758595
1772882706843933400,10.041933349609375,-0.05414543168544769,-0.06120645611286163,-0.23313319470062852
1772882706853865500,10.051865478515625,-0.09604629882574081,-0.05824585274159908,-0.16780132922083138
1772882706863798300,10.06179833984375,-0.13938508981466294,-0.04200491203665733,-0.1328945587515831
1772882706873730300,10.071730224609375,-0.13304068922400475,-0.020607903742790222,-0.14782047133520246
1772882706883663400,10.081663330078126,-0.1322059919655323,-0.031162615504860876,-0.20208660679087043
1772882706893595100,10.09159521484375,-0.09669394907951355,-0.015500351470708846,-0.2207506829895079
1772882706903528200,10.101528076171874,-0.051152679610252376,-0.017760697618126868,-0.24419570985436437
1772882706913460200,10.111460205078124,-0.05667231981456279,-0.0414092842310667,-0.227980195851624
1772882706923393300,10.121393310546875,-0.01921674164533615,-0.07224632104337216,-0.19442527838274837
1772882706933325600,10.13132568359375,-0.05571136582791805,-0.11876549563407897,-0.17109832493960855
1772882706943258600,10.141258544921875,-0.04373685039579868,-0.10988836169540882,-0.1796877279780805
1772882706953190700,10.151190673828125,-0.052125324034690855,-0.10192658903598785,-0.1524517843976617
1772882706963123500,10.16112353515625,-0.05553776282668113,-0.07956745771169663,-0.1594121249295771
1772882706973055500,10.171055419921874,-0.06468669944405556,-0.0851192466199398,-0.2269574286751449
1772882706982988500,10.180988525390624,-0.08026596136987209,-0.02922843257188797,-0.2406251578912139
1772882706992920600,10.190920654296875,-0.15959961032569409,0.002301262679696083,-0.2827932976655662
1772882707002853600,10.200853515625,-0.24282559054493902,0.020297522619366643,-0.30662688545659184
1772882707012785400,10.210785400390625,-0.3195832515329122,-0.019988895061612128,-0.2703657777689397
1772882707022718500,10.220718505859375,-0.31547523169219494,-0.06334405266344546,-0.22107553102970123
1772882707032650500,10.230650390625,-0.23078970031440257,-0.10104162289500236,-0.2390044248215854
1772882707042583600,10.24058349609375,-0.1178752687960863,-0.1351554894208908,-0.2673655730396509
1772882707052515600,10.250515625,-0.011525018098950386,-0.12728957835137844,-0.2054139976479113
1772882707062448400,10.260448486328125,0.05877367600798607,-0.12048749712109565,-0.17571327138915657
1772882707072380400,10.27038037109375,0.035952772390842436,-0.08112228593826293,-0.13104936927631497
1772882707082313500,10.2803134765625,-0.049583238336443895,-0.07823416328132152,-0.0911620339155197
1772882707092245500,10.29024560546875,-0.07089315286874771,-0.07309563134908675,-0.12910554173216224
1772882707102178600,10.300178466796876,-0.011714403191208839,-0.05643325036168098,-0.08949979979172348
