time,seconds_elapsed,z,y,x
1772882696860502300,0.058502197265625,-0.73883056640625,0.6221771240234375,0.14971923828125
1772882696870434300,0.068434326171875,-0.747528076171875,0.6207733154296875,0.1431427001953125
1772882696880367400,0.078367431640625,-0.7501983642578125,0.62664794921875,0.138946533203125
1772882696890299400,0.08829931640625,-0.73614501953125,0.635162353515625,0.1322479248046875
1772882696900232200,0.098232177734375,-0.74346923828125,0.6160430908203125,0.1285400390625
1772882696910164500,0.10816455078125,-0.730621337890625,0.6282806396484375,0.126617431640625
1772882696920096500,0.118096435546875,-0.7413787841796875,0.612030029296875,0.1203155517578125
1772882696930028500,0.128028564453125,-0.7442626953125,0.6034393310546875,0.1146697998046875
1772882696939961300,0.13796142578125,-0.7377777099609375,0.5959320068359375,0.1155242919921875
1772882696949893400,0.147893310546875,-0.732666015625,0.5850372314453125,0.1214752197265625
1772882696959826400,0.157826416015625,-0.7075347900390625,0.591156005859375,0.121490478515625
1772882696969759500,0.167759521484375,-0.6809844970703125,0.5871124267578125,0.1135711669921875
1772882696979691500,0.17769140625,-0.665283203125,0.58782958984375,0.1092071533203125
1772882696989624600,0.18762451171875,-0.665557861328125,0.582489013671875,0.1114501953125
1772882696999556600,0.197556640625,-0.6694793701171875,0.563720703125,0.1183319091796875
1772882697009489700,0.20748974609375,-0.6624755859375,0.5511322021484375,0.130767822265625
1772882697019421700,0.217421630859375,-0.6540985107421875,0.5396270751953125,0.1400146484375
1772882697029354500,0.2273544921875,-0.658416748046875,0.5391693115234375,0.1674652099609375
1772882697039286500,0.23728662109375,-0.6485137939453125,0.5587615966796875,0.198150634765625
1772882697049219600,0.247219482421875,-0.639251708984375,0.586029052734375,0.1978759765625
1772882697059151600,0.257151611328125,-0.6550140380859375,0.6141357421875,0.17926025390625
1772882697069084700,0.267084716796875,-0.681488037109375,0.64202880859375,0.152313232421875
1772882697079017700,0.277017822265625,-0.7021026611328125,0.6594085693359375,0.1204986572265625
1772882697088949500,0.286949462890625,-0.719879150390625,0.6658935546875,0.109527587890625
1772882697098882600,0.296882568359375,-0.7243499755859375,0.6661529541015625,0.1064605712890625
1772882697108814600,0.306814697265625,-0.7002105712890625,0.6645965576171875,0.11456298828125
1772882697118747400,0.316747314453125,-0.6664581298828125,0.662445068359375,0.1310882568359375
1772882697128679400,0.326679443359375,-0.632171630859375,0.670318603515625,0.1495513916015625
1772882697138612500,0.336612548828125,-0.607574462890625,0.684326171875,0.1521453857421875
1772882697148544500,0.34654443359375,-0.6221923828125,0.7101898193359375,0.14208984375
1772882697158477600,0.3564775390625,-0.668121337890625,0.7414398193359375,0.13104248046875
1772882697168409600,0.36640966796875,-0.71331787109375,0.7633056640625,0.1190338134765625
1772882697178342700,0.3763427734375,-0.7931365966796875,0.7639923095703125,0.1067657470703125
1772882697188275500,0.386275390625,-0.8531494140625,0.7862701416015625,0.0907135009765625
1772882697198207700,0.396207763671875,-0.869293212890625,0.81640625,0.0817108154296875
1772882697208140500,0.406140625,-0.8712615966796875,0.8333892822265625,0.0520172119140625
1772882697218072300,0.416072265625,-0.866180419921875,0.854522705078125,0.02996826171875
1772882697228005600,0.426005615234375,-0.8560028076171875,0.8645782470703125,0.0152130126953125
1772882697237937400,0.4359375,-0.854095458984375,0.8676605224609375,0.00689697265625
1772882697247870500,0.445870361328125,-0.8530731201171875,0.864013671875,0.0030059814453125
1772882697257802500,0.455802490234375,-0.8479766845703125,0.8456268310546875,0.002532958984375
1772882697267735600,0.465735595703125,-0.850555419921875,0.8150177001953125,0.014434814453125
1772882697277667600,0.47566748046875,-0.8378753662109375,0.787200927734375,0.0286712646484375
1772882697287600600,0.4856005859375,-0.8140716552734375,0.7610321044921875,0.042205810546875
1772882697297533400,0.495533447265625,-0.7798919677734375,0.7331695556640625,0.056243896484375
1772882697307465500,0.505465576171875,-0.7479095458984375,0.7112884521484375,0.072418212890625
1772882697317398500,0.5153984375,-0.7203521728515625,0.695068359375,0.0877685546875
1772882697327330600,0.52533056640625,-0.695037841796875,0.6881103515625,0.09918212890625
1772882697337263600,0.535263671875,-0.6664886474609375,0.689697265625,0.0998992919921875
1772882697347195600,0.545195556640625,-0.64508056640625,0.6928253173828125,0.09686279296875
1772882697357128700,0.555128662109375,-0.624908447265625,0.699615478515625,0.099761962890625
1772882697367060500,0.565060546875,-0.605865478515625,0.7088165283203125,0.1062469482421875
1772882697376993500,0.57499365234375,-0.5953216552734375,0.7160186767578125,0.10577392578125
1772882697386926300,0.58492626953125,-0.5871734619140625,0.7187347412109375,0.1054534912109375
1772882697396858400,0.5948583984375,-0.5921173095703125,0.720611572265625,0.1186981201171875
1772882697406791400,0.60479150390625,-0.6150665283203125,0.7188568115234375,0.132080078125
1772882697416723500,0.614723388671875,-0.6693115234375,0.7093353271484375,0.1559295654296875
1772882697426656500,0.624656494140625,-0.7226409912109375,0.7053375244140625,0.18524169921875
1772882697436588500,0.634588623046875,-0.7568206787109375,0.6997833251953125,0.20703125
1772882697446521600,0.644521484375,-0.7711181640625,0.693939208984375,0.2079010009765625
1772882697456453600,0.65445361328125,-0.7514495849609375,0.6908111572265625,0.20220947265625
1772882697466386400,0.664386474609375,-0.738311767578125,0.6832275390625,0.1963653564453125
1772882697476318700,0.674318603515625,-0.722625732421875,0.6877899169921875,0.1848297119140625
1772882697486251500,0.68425146484375,-0.6900482177734375,0.6996002197265625,0.1698150634765625
1772882697496184600,0.6941845703125,-0.6490631103515625,0.702239990234375,0.1392364501953125
1772882697506116600,0.70411669921875,-0.6228790283203125,0.7026824951171875,0.1048126220703125
1772882697516049700,0.714049560546875,-0.6106414794921875,0.703338623046875,0.066864013671875
1772882697525981400,0.7239814453125,-0.620361328125,0.69403076171875,0.043365478515625
1772882697535914500,0.73391455078125,-0.6492462158203125,0.6873626708984375,0.0338592529296875
1772882697545846500,0.743846435546875,-0.6922607421875,0.6886138916015625,0.0369720458984375
1772882697555779600,0.753779541015625,-0.735595703125,0.695770263671875,0.0435943603515625
1772882697565711600,0.763711669921875,-0.7679595947265625,0.710968017578125,0.0429840087890625
1772882697575644400,0.77364453125,-0.785003662109375,0.726898193359375,0.0462646484375
1772882697585576400,0.783576416015625,-0.78363037109375,0.7410888671875,0.0616607666015625
1772882697595509500,0.793509521484375,-0.7726287841796875,0.7529754638671875,0.0825347900390625
1772882697605442600,0.803442626953125,-0.7612762451171875,0.753509521484375,0.1036224365234375
1772882697615374600,0.81337451171875,-0.75494384765625,0.7509613037109375,0.1298675537109375
1772882697625307600,0.8233076171875,-0.74981689453125,0.75079345703125,0.1567535400390625
1772882697635239700,0.83323974609375,-0.7503509521484375,0.7518310546875,0.172943115234375
1772882697645172500,0.84317236328125,-0.753631591796875,0.7516937255859375,0.170928955078125
1772882697655104500,0.8531044921875,-0.749725341796875,0.75128173828125,0.1660919189453125
1772882697665037600,0.86303759765625,-0.7375030517578125,0.74957275390625,0.160308837890625
1772882697674969300,0.87296923828125,-0.719970703125,0.746307373046875,0.159027099609375
1772882697684902400,0.88290234375,-0.7003631591796875,0.7433929443359375,0.1631011962890625
1772882697694834400,0.89283447265625,-0.6788177490234375,0.73992919921875,0.1633148193359375
1772882697704767500,0.902767578125,-0.6614837646484375,0.7296142578125,0.1617584228515625
1772882697714700500,0.912700439453125,-0.656768798828125,0.7103118896484375,0.16522216796875
1772882697724632600,0.922632568359375,-0.668670654296875,0.6890869140625,0.174957275390625
1772882697734565400,0.9325654296875,-0.6885223388671875,0.675323486328125,0.178802490234375
1772882697744497700,0.94249755859375,-0.6988983154296875,0.6775054931640625,0.1786041259765625
1772882697754430500,0.952430419921875,-0.695892333984375,0.68359375,0.1804351806640625
1772882697764362500,0.962362548828125,-0.6722412109375,0.69622802734375,0.175445556640625
1772882697774295600,0.972295654296875,-0.6384124755859375,0.70025634765625,0.164581298828125
1772882697784227600,0.9822275390625,-0.5885772705078125,0.6971282958984375,0.158935546875
1772882697794160600,0.99216064453125,-0.5462493896484375,0.6931304931640625,0.167694091796875
1772882697804092700,1.0020927734375,-0.5276641845703125,0.691986083984375,0.185211181640625
1772882697814025700,1.012025634765625,-0.5359954833984375,0.6961517333984375,0.2091827392578125
1772882697823957500,1.02195751953125,-0.5569610595703125,0.704132080078125,0.2255706787109375
1772882697833890600,1.031890625,-0.58172607421875,0.713623046875,0.2310638427734375
1772882697843823400,1.0418232421875,-0.6023712158203125,0.7214813232421875,0.226806640625
1772882697853755400,1.05175537109375,-0.609649658203125,0.728973388671875,0.2212982177734375
1772882697863688400,1.0616884765625,-0.6226806640625,0.7394256591796875,0.2094573974609375
1772882697873620500,1.071620361328125,-0.629974365234375,0.7554473876953125,0.1906890869140625
1772882697883553500,1.081553466796875,-0.6480560302734375,0.7586822509765625,0.176666259765625
1772882697893485600,1.091485595703125,-0.6717376708984375,0.763824462890625,0.16998291015625
1772882697903418600,1.101418701171875,-0.69586181640625,0.7680816650390625,0.169158935546875
1772882697913350700,1.1113505859375,-0.7200775146484375,0.756622314453125,0.1719818115234375
1772882697923283500,1.121283447265625,-0.7364654541015625,0.7442169189453125,0.1797332763671875
1772882697933215700,1.1312158203125,-0.7490234375,0.736236572265625,0.1767120361328125
1772882697943148500,1.1411484375,-0.7580108642578125,0.7311859130859375,0.1704254150390625
1772882697953081600,1.15108154296875,-0.755706787109375,0.7282867431640625,0.158721923828125
1772882697963013600,1.161013671875,-0.731842041015625,0.72314453125,0.144287109375
1772882697972946700,1.17094677734375,-0.6962432861328125,0.7205047607421875,0.138092041015625
1772882697982878700,1.180878662109375,-0.6574554443359375,0.717559814453125,0.1346435546875
1772882697992811800,1.190811767578125,-0.6139984130859375,0.71759033203125,0.1325531005859375
1772882698002743800,1.200743896484375,-0.5912322998046875,0.7188568115234375,0.139556884765625
1772882698012676600,1.210676513671875,-0.5758514404296875,0.7349700927734375,0.146881103515625
1772882698022608600,1.220608642578125,-0.577484130859375,0.742095947265625,0.1472320556640625
1772882698032541700,1.230541748046875,-0.58477783203125,0.76470947265625,0.149871826171875
1772882698042473500,1.240473388671875,-0.5976104736328125,0.7963714599609375,0.1378021240234375
1772882698052406500,1.250406494140625,-0.6110382080078125,0.8206024169921875,0.1211395263671875
1772882698062339600,1.260339599609375,-0.63232421875,0.8410186767578125,0.12060546875
1772882698072271600,1.270271728515625,-0.6602020263671875,0.8531494140625,0.12847900390625
1772882698082204700,1.28020458984375,-0.6945648193359375,0.85418701171875,0.14691162109375
1772882698092136700,1.29013671875,-0.728271484375,0.8421630859375,0.1745758056640625
1772882698102069500,1.300069580078125,-0.75665283203125,0.815460205078125,0.2022857666015625
1772882698112001500,1.31000146484375,-0.7756195068359375,0.7822113037109375,0.2306060791015625
1772882698121934600,1.3199345703125,-0.77264404296875,0.758087158203125,0.230560302734375
1772882698131866600,1.32986669921875,-0.7471923828125,0.741424560546875,0.20703125
1772882698141799700,1.339799560546875,-0.7071380615234375,0.7278594970703125,0.176910400390625
1772882698151731700,1.349731689453125,-0.6607208251953125,0.7256011962890625,0.1448822021484375
1772882698161664800,1.359664794921875,-0.61370849609375,0.721527099609375,0.1117401123046875
1772882698171597800,1.369597900390625,-0.5699920654296875,0.7194976806640625,0.0881500244140625
1772882698181529900,1.37952978515625,-0.5417327880859375,0.71881103515625,0.0798187255859375
1772882698191462700,1.389462646484375,-0.5254669189453125,0.7091827392578125,0.08349609375
1772882698201394400,1.39939453125,-0.515106201171875,0.713409423828125,0.0900726318359375
1772882698211327500,1.409327392578125,-0.513153076171875,0.7153167724609375,0.1006622314453125
1772882698221259500,1.419259521484375,-0.510162353515625,0.70770263671875,0.124298095703125
1772882698231192600,1.429192626953125,-0.5243682861328125,0.70989990234375,0.1466217041015625
1772882698241124600,1.43912451171875,-0.5559844970703125,0.7052001953125,0.1674957275390625
1772882698251057700,1.4490576171875,-0.5827178955078125,0.704925537109375,0.1876983642578125
1772882698260989700,1.45898974609375,-0.599822998046875,0.719207763671875,0.194366455078125
1772882698270922800,1.4689228515625,-0.6157379150390625,0.73455810546875,0.1760406494140625
1772882698280855600,1.47885546875,-0.623931884765625,0.744293212890625,0.1505279541015625
1772882698290787600,1.48878759765625,-0.6356658935546875,0.7503814697265625,0.1408843994140625
1772882698300720600,1.498720703125,-0.652374267578125,0.7492828369140625,0.1422576904296875
1772882698310652700,1.508652587890625,-0.6643524169921875,0.7479705810546875,0.1467437744140625
1772882698320585700,1.518585693359375,-0.6686859130859375,0.74298095703125,0.1570892333984375
1772882698330517800,1.528517822265625,-0.6650390625,0.7337188720703125,0.1662445068359375
1772882698340450800,1.538450927734375,-0.6573638916015625,0.7321624755859375,0.1617889404296875
1772882698350382600,1.548382568359375,-0.6448974609375,0.74176025390625,0.15716552734375
1772882698360315600,1.558315673828125,-0.63873291015625,0.748931884765625,0.1397247314453125
1772882698370247700,1.56824755859375,-0.63897705078125,0.7518768310546875,0.1284637451171875
1772882698380180500,1.578180419921875,-0.6424407958984375,0.75067138671875,0.12335205078125
1772882698390112500,1.588112548828125,-0.650238037109375,0.7405853271484375,0.1129608154296875
1772882698400045600,1.598045654296875,-0.66375732421875,0.737579345703125,0.10296630859375
1772882698409978600,1.607978515625,-0.6860198974609375,0.7389678955078125,0.103668212890625
1772882698419910700,1.61791064453125,-0.704864501953125,0.743408203125,0.1008453369140625
1772882698429843700,1.62784375,-0.7110595703125,0.736846923828125,0.1074676513671875
1772882698439775700,1.637775634765625,-0.7050323486328125,0.7389678955078125,0.1163787841796875
1772882698449708800,1.647708740234375,-0.6982269287109375,0.7452392578125,0.1197967529296875
1772882698459640800,1.657640869140625,-0.6831207275390625,0.7415008544921875,0.122283935546875
1772882698469573600,1.66757373046875,-0.6678314208984375,0.740753173828125,0.133056640625
1772882698479505700,1.677505615234375,-0.64697265625,0.743560791015625,0.14544677734375
1772882698489438700,1.687438720703125,-0.6186676025390625,0.738037109375,0.15478515625
1772882698499370500,1.69737060546875,-0.5895843505859375,0.7318115234375,0.1620025634765625
1772882698509303600,1.707303466796875,-0.5674285888671875,0.7204132080078125,0.1718902587890625
1772882698519235600,1.717235595703125,-0.554901123046875,0.714019775390625,0.1817474365234375
1772882698529168600,1.727168701171875,-0.56121826171875,0.7144775390625,0.1923980712890625
1772882698539101700,1.737101806640625,-0.5819854736328125,0.72869873046875,0.196044921875
1772882698549033700,1.74703369140625,-0.600860595703125,0.7408599853515625,0.1920623779296875
1772882698558966500,1.756966552734375,-0.6081390380859375,0.751312255859375,0.1950225830078125
1772882698568898600,1.766898681640625,-0.6142578125,0.755615234375,0.19927978515625
1772882698578831600,1.77683154296875,-0.620513916015625,0.7576904296875,0.205902099609375
1772882698588763600,1.786763671875,-0.6186065673828125,0.7686767578125,0.2025299072265625
1772882698598696700,1.79669677734375,-0.6208953857421875,0.7768096923828125,0.197845458984375
1772882698608628700,1.806628662109375,-0.6228790283203125,0.7803955078125,0.1950531005859375
1772882698618561800,1.816561767578125,-0.62005615234375,0.7791290283203125,0.1914825439453125
1772882698628493600,1.82649365234375,-0.6163177490234375,0.7727508544921875,0.1984100341796875
1772882698638426600,1.836426513671875,-0.6287384033203125,0.7628173828125,0.212646484375
1772882698648358700,1.846358642578125,-0.6493682861328125,0.7552337646484375,0.2136993408203125
1772882698658291500,1.85629150390625,-0.6592254638671875,0.7544708251953125,0.20672607421875
1772882698668224500,1.866224609375,-0.6506500244140625,0.752655029296875,0.1888275146484375
1772882698678156500,1.876156494140625,-0.6361236572265625,0.7543487548828125,0.1737060546875
1772882698688089600,1.886089599609375,-0.6209259033203125,0.75244140625,0.161224365234375
1772882698698021600,1.896021728515625,-0.61444091796875,0.7533111572265625,0.1505279541015625
1772882698707954700,1.90595458984375,-0.6182708740234375,0.75018310546875,0.1440582275390625
1772882698717886700,1.91588671875,-0.6267242431640625,0.7481536865234375,0.1413421630859375
1772882698727819800,1.92581982421875,-0.6319732666015625,0.745697021484375,0.1446380615234375
1772882698737751800,1.935751708984375,-0.6396484375,0.7435760498046875,0.149322509765625
1772882698747684600,1.9456845703125,-0.6410675048828125,0.743927001953125,0.1578521728515625
1772882698757616600,1.95561669921875,-0.64801025390625,0.7407073974609375,0.160552978515625
1772882698767549700,1.9655498046875,-0.6562347412109375,0.7395782470703125,0.1609954833984375
1772882698777481500,1.9754814453125,-0.6670379638671875,0.74322509765625,0.171417236328125
1772882698787414500,1.98541455078125,-0.6717529296875,0.7480010986328125,0.1854095458984375
1772882698797347600,1.99534765625,-0.6734466552734375,0.755035400390625,0.19891357421875
1772882698807279600,2.005279541015625,-0.666717529296875,0.761688232421875,0.198944091796875
1772882698817212700,2.015212646484375,-0.65936279296875,0.765411376953125,0.1957244873046875
1772882698827144700,2.025144775390625,-0.650238037109375,0.7679290771484375,0.1819000244140625
1772882698837077500,2.035077392578125,-0.645416259765625,0.7674713134765625,0.1743011474609375
1772882698847009500,2.045009521484375,-0.642425537109375,0.763153076171875,0.1710052490234375
1772882698856942600,2.054942626953125,-0.6491546630859375,0.754425048828125,0.1712646484375
1772882698866874600,2.06487451171875,-0.650634765625,0.7459259033203125,0.1686553955078125
1772882698876807700,2.0748076171875,-0.6445465087890625,0.7411651611328125,0.1676483154296875
1772882698886739700,2.08473974609375,-0.6281585693359375,0.737945556640625,0.168853759765625
1772882698896672800,2.0946728515625,-0.6170654296875,0.738250732421875,0.16656494140625
1772882698906604800,2.104604736328125,-0.60870361328125,0.741485595703125,0.1579742431640625
1772882698916537900,2.114537841796875,-0.6051483154296875,0.7464447021484375,0.1493072509765625
1772882698926471000,2.124470947265625,-0.6087646484375,0.7509613037109375,0.1466827392578125
1772882698936402700,2.134402587890625,-0.61663818359375,0.7544708251953125,0.14935302734375
1772882698946335700,2.144335693359375,-0.6329345703125,0.75885009765625,0.1554107666015625
1772882698956267800,2.154267822265625,-0.64532470703125,0.7577362060546875,0.1614227294921875
1772882698966200800,2.164200927734375,-0.6505279541015625,0.756134033203125,0.1722869873046875
1772882698976132900,2.1741328125,-0.6478271484375,0.757476806640625,0.1773834228515625
1772882698986066000,2.18406591796875,-0.6403656005859375,0.756134033203125,0.1754913330078125
1772882698995998000,2.193998046875,-0.6318511962890625,0.755096435546875,0.1690826416015625
1772882699005931000,2.203930908203125,-0.62640380859375,0.7568206787109375,0.15850830078125
1772882699015863000,2.213863037109375,-0.6210479736328125,0.759796142578125,0.14862060546875
1772882699025795800,2.2237958984375,-0.627716064453125,0.76898193359375,0.1416778564453125
1772882699035728000,2.233727783203125,-0.6289520263671875,0.7692413330078125,0.132232666015625
1772882699045661000,2.243660888671875,-0.6239776611328125,0.76934814453125,0.13446044921875
1772882699055594000,2.253593994140625,-0.6179656982421875,0.76324462890625,0.1414947509765625
1772882699065526000,2.263526123046875,-0.6226654052734375,0.756591796875,0.151031494140625
1772882699075459000,2.273458984375,-0.6284027099609375,0.7546539306640625,0.1609344482421875
1772882699085390800,2.283390869140625,-0.6321868896484375,0.752105712890625,0.165924072265625
1772882699095324000,2.293323974609375,-0.6307220458984375,0.7529296875,0.1721038818359375
1772882699105256000,2.303255859375,-0.6271514892578125,0.7553558349609375,0.17510986328125
1772882699115188700,2.313188720703125,-0.62188720703125,0.7587127685546875,0.173583984375
1772882699125120800,2.323120849609375,-0.6193389892578125,0.7633209228515625,0.177001953125
1772882699135053800,2.3330537109375,-0.61767578125,0.76416015625,0.1794586181640625
1772882699144985900,2.34298583984375,-0.6141510009765625,0.7633209228515625,0.1788482666015625
1772882699154919000,2.3529189453125,-0.6092987060546875,0.766326904296875,0.1807861328125
1772882699164851000,2.362850830078125,-0.599212646484375,0.7663726806640625,0.17626953125
1772882699174784000,2.372783935546875,-0.5966949462890625,0.7628326416015625,0.170196533203125
1772882699184717000,2.382717041015625,-0.609100341796875,0.762115478515625,0.1690216064453125
1772882699194649000,2.392649169921875,-0.626617431640625,0.762298583984375,0.16949462890625
1772882699204582000,2.402581787109375,-0.6439361572265625,0.758636474609375,0.171142578125
1772882699214514000,2.412513916015625,-0.648651123046875,0.7546234130859375,0.1759185791015625
1772882699224447000,2.422447021484375,-0.648681640625,0.755035400390625,0.1768341064453125
1772882699234378800,2.432378662109375,-0.647552490234375,0.7581024169921875,0.1717987060546875
1772882699244311800,2.442311767578125,-0.639404296875,0.75994873046875,0.16351318359375
1772882699254243800,2.452243896484375,-0.63311767578125,0.7674102783203125,0.15350341796875
1772882699264177000,2.462177001953125,-0.6332855224609375,0.7660369873046875,0.1445770263671875
1772882699274109000,2.47210888671875,-0.630706787109375,0.7577056884765625,0.15020751953125
1772882699284042000,2.4820419921875,-0.6267547607421875,0.7540283203125,0.16400146484375
1772882699293974000,2.49197412109375,-0.6265106201171875,0.7476043701171875,0.16961669921875
1772882699303906800,2.50190673828125,-0.6325531005859375,0.7447357177734375,0.1752471923828125
1772882699313838800,2.5118388671875,-0.635986328125,0.7509613037109375,0.1750335693359375
1772882699323772000,2.52177197265625,-0.64434814453125,0.7561492919921875,0.1701507568359375
1772882699333705000,2.531705078125,-0.651153564453125,0.760772705078125,0.1652069091796875
1772882699343637000,2.541636962890625,-0.653717041015625,0.7553558349609375,0.1634521484375
1772882699353570000,2.551570068359375,-0.651611328125,0.7517852783203125,0.166259765625
1772882699363501800,2.561501708984375,-0.640655517578125,0.749053955078125,0.1618194580078125
1772882699373435100,2.57143505859375,-0.6317901611328125,0.7459259033203125,0.151214599609375
1772882699383367000,2.581366943359375,-0.621826171875,0.74383544921875,0.1509246826171875
1772882699393299700,2.5912998046875,-0.61260986328125,0.7390594482421875,0.1528167724609375
1772882699403231700,2.601231689453125,-0.6081695556640625,0.7402496337890625,0.164276123046875
1772882699413164800,2.611164794921875,-0.6043853759765625,0.7462005615234375,0.165130615234375
1772882699423096800,2.621096923828125,-0.6089019775390625,0.7489776611328125,0.1605377197265625
1772882699433030000,2.63102978515625,-0.618438720703125,0.748687744140625,0.1670379638671875
1772882699442962000,2.6409619140625,-0.635498046875,0.7484130859375,0.177703857421875
1772882699452895000,2.65089501953125,-0.6468658447265625,0.7541046142578125,0.1786041259765625
1772882699462827000,2.660826904296875,-0.6534576416015625,0.75982666015625,0.171630859375
1772882699472760000,2.670760009765625,-0.6615447998046875,0.763397216796875,0.1625823974609375
1772882699482692900,2.68069287109375,-0.66448974609375,0.766815185546875,0.15289306640625
1772882699492625000,2.690625,-0.660186767578125,0.77105712890625,0.1555633544921875
1772882699502558000,2.700557861328125,-0.652679443359375,0.7672271728515625,0.158050537109375
1772882699512489700,2.71048974609375,-0.6456756591796875,0.758697509765625,0.1641082763671875
1772882699522422800,2.7204228515625,-0.6361846923828125,0.75103759765625,0.1646575927734375
1772882699532354800,2.730354736328125,-0.6273040771484375,0.742889404296875,0.161590576171875
1772882699542288000,2.740287841796875,-0.6265716552734375,0.7370452880859375,0.15521240234375
1772882699552220000,2.750219970703125,-0.6298828125,0.739013671875,0.148529052734375
1772882699562153000,2.760153076171875,-0.6316375732421875,0.74285888671875,0.14422607421875
1772882699572085000,2.7700849609375,-0.63067626953125,0.7451934814453125,0.14178466796875
1772882699582017800,2.780017822265625,-0.629486083984375,0.751953125,0.1442108154296875
1772882699591949800,2.78994970703125,-0.6340484619140625,0.756134033203125,0.145263671875
1772882699601883000,2.7998828125,-0.637847900390625,0.7586669921875,0.1515655517578125
1772882699611816000,2.80981591796875,-0.643463134765625,0.761627197265625,0.1620025634765625
1772882699621748000,2.819748046875,-0.6448211669921875,0.7625274658203125,0.16851806640625
1772882699631681000,2.829680908203125,-0.64324951171875,0.7577972412109375,0.1726837158203125
1772882699641613000,2.839613037109375,-0.6396026611328125,0.755950927734375,0.1798553466796875
1772882699651546000,2.849546142578125,-0.6343536376953125,0.755706787109375,0.1818389892578125
1772882699661478000,2.859477783203125,-0.6309356689453125,0.749298095703125,0.1758575439453125
1772882699671410700,2.86941064453125,-0.6279144287109375,0.7469024658203125,0.17236328125
1772882699681342700,2.8793427734375,-0.622894287109375,0.7473907470703125,0.1741485595703125
1772882699691275800,2.88927587890625,-0.6154937744140625,0.750030517578125,0.16845703125
1772882699701207800,2.899207763671875,-0.612945556640625,0.7537689208984375,0.1631622314453125
1772882699711140900,2.909140869140625,-0.61614990234375,0.755706787109375,0.1635894775390625
1772882699721073000,2.919072998046875,-0.625579833984375,0.758819580078125,0.1644439697265625
1772882699731006000,2.929005859375,-0.63458251953125,0.75860595703125,0.163543701171875
1772882699740938000,2.93893798828125,-0.6403656005859375,0.7572479248046875,0.1659393310546875
1772882699750871000,2.94887109375,-0.6367034912109375,0.7537994384765625,0.168060302734375
1772882699760803000,2.958802978515625,-0.630401611328125,0.7520751953125,0.16259765625
1772882699770735900,2.96873583984375,-0.6255645751953125,0.7470703125,0.1653594970703125
1772882699780669000,2.9786689453125,-0.6259613037109375,0.7487945556640625,0.1698760986328125
1772882699790601000,2.98860107421875,-0.6314239501953125,0.7493743896484375,0.1735992431640625
1772882699800534000,2.998533935546875,-0.6381683349609375,0.749786376953125,0.173095703125
1772882699810465800,3.0084658203125,-0.63848876953125,0.7535400390625,0.1722412109375
1772882699820398800,3.01839892578125,-0.6412811279296875,0.75689697265625,0.171539306640625
1772882699830331000,3.028330810546875,-0.6473388671875,0.761138916015625,0.1661224365234375
1772882699840264000,3.038263916015625,-0.64990234375,0.757293701171875,0.16162109375
1772882699850196000,3.048196044921875,-0.64697265625,0.752777099609375,0.1623077392578125
1772882699860128800,3.058128662109375,-0.640228271484375,0.75146484375,0.1590728759765625
1772882699870060800,3.068060791015625,-0.6291046142578125,0.746429443359375,0.1510467529296875
1772882699879993900,3.077993896484375,-0.619903564453125,0.7441864013671875,0.148590087890625
1772882699889926000,3.08792578125,-0.6196441650390625,0.74957275390625,0.1479644775390625
1772882699899859000,3.09785888671875,-0.619842529296875,0.7561492919921875,0.144012451171875
1772882699909792000,3.1077919921875,-0.6240997314453125,0.7591400146484375,0.1520538330078125
1772882699919724000,3.11772412109375,-0.6282806396484375,0.758544921875,0.1705474853515625
1772882699929656300,3.12765625,-0.6317138671875,0.7573394775390625,0.187347412109375
1772882699939588400,3.13758837890625,-0.633148193359375,0.7579803466796875,0.195831298828125
1772882699949521400,3.147521484375,-0.6227569580078125,0.7599334716796875,0.194793701171875
1772882699959453400,3.157453369140625,-0.6188812255859375,0.759307861328125,0.195404052734375
1772882699969386200,3.16738623046875,-0.615631103515625,0.75921630859375,0.197601318359375
1772882699979318300,3.177318359375,-0.6137237548828125,0.7581939697265625,0.204132080078125
1772882699989251300,3.187251220703125,-0.614715576171875,0.7559967041015625,0.215667724609375
1772882699999183000,3.19718310546875,-0.613983154296875,0.75067138671875,0.2217864990234375
1772882700009116200,3.2071162109375,-0.6164398193359375,0.745391845703125,0.2218475341796875
1772882700019048200,3.217048095703125,-0.6194305419921875,0.744720458984375,0.2173309326171875
1772882700028981200,3.226981201171875,-0.6254730224609375,0.743988037109375,0.2062530517578125
1772882700038913300,3.236913330078125,-0.628631591796875,0.7445220947265625,0.1904754638671875
1772882700048846300,3.246846435546875,-0.6336822509765625,0.7495880126953125,0.1734619140625
1772882700058779100,3.256779052734375,-0.6415252685546875,0.75335693359375,0.1573944091796875
1772882700068711200,3.266711181640625,-0.6505889892578125,0.758453369140625,0.15081787109375
1772882700078644200,3.276644287109375,-0.6577606201171875,0.7639923095703125,0.145477294921875
1772882700088576300,3.286576171875,-0.6671905517578125,0.7662353515625,0.138763427734375
1772882700098509300,3.29650927734375,-0.67169189453125,0.765045166015625,0.13897705078125
1772882700108441300,3.30644140625,-0.6675262451171875,0.7558441162109375,0.1418304443359375
1772882700118374400,3.31637451171875,-0.661468505859375,0.745819091796875,0.152557373046875
1772882700128306400,3.326306396484375,-0.6491851806640625,0.7375335693359375,0.1586761474609375
1772882700138239500,3.336239501953125,-0.6426239013671875,0.7315216064453125,0.1636505126953125
1772882700148171300,3.346171142578125,-0.633819580078125,0.733734130859375,0.16265869140625
1772882700158104000,3.35610400390625,-0.6269989013671875,0.732696533203125,0.1541900634765625
1772882700168036000,3.3660361328125,-0.6234893798828125,0.73541259765625,0.1466064453125
1772882700177969200,3.37596923828125,-0.61651611328125,0.7398529052734375,0.14532470703125
1772882700187901200,3.385901123046875,-0.61480712890625,0.746185302734375,0.1494293212890625
1772882700197834200,3.395834228515625,-0.6215667724609375,0.7545623779296875,0.1505889892578125
1772882700207766300,3.405766357421875,-0.6344451904296875,0.763275146484375,0.1577606201171875
1772882700217699300,3.41569921875,-0.644012451171875,0.7685699462890625,0.165008544921875
1772882700227632400,3.42563232421875,-0.6575775146484375,0.768157958984375,0.1696624755859375
1772882700237564400,3.435564453125,-0.6626129150390625,0.764251708984375,0.1756439208984375
1772882700247497200,3.445497314453125,-0.6568450927734375,0.7584228515625,0.1789093017578125
1772882700257429200,3.45542919921875,-0.645294189453125,0.752349853515625,0.17474365234375
1772882700267362300,3.4653623046875,-0.63348388671875,0.7470703125,0.1627197265625
1772882700277294300,3.47529443359375,-0.6186065673828125,0.74334716796875,0.153900146484375
1772882700287227400,3.485227294921875,-0.609832763671875,0.7433624267578125,0.1509552001953125
1772882700297159200,3.4951591796875,-0.6069793701171875,0.74505615234375,0.149993896484375
1772882700307092200,3.50509228515625,-0.61041259765625,0.748504638671875,0.148040771484375
1772882700317024300,3.515024169921875,-0.617950439453125,0.7511749267578125,0.147186279296875
1772882700326957300,3.524957275390625,-0.626617431640625,0.752349853515625,0.155364990234375
1772882700336889300,3.534889404296875,-0.6365966796875,0.7500152587890625,0.160736083984375
1772882700346822100,3.544822265625,-0.646697998046875,0.7506866455078125,0.162017822265625
1772882700356754200,3.554754150390625,-0.649566650390625,0.7523345947265625,0.1635284423828125
1772882700366687200,3.564687255859375,-0.643951416015625,0.754241943359375,0.161102294921875
1772882700376620300,3.574620361328125,-0.639923095703125,0.7521514892578125,0.161163330078125
1772882700386552300,3.58455224609375,-0.6316680908203125,0.7540435791015625,0.164398193359375
1772882700396485400,3.5944853515625,-0.625762939453125,0.7530670166015625,0.1640625
1772882700406417400,3.60441748046875,-0.6201019287109375,0.7561187744140625,0.161865234375
1772882700416350500,3.6143505859375,-0.620147705078125,0.7559356689453125,0.16912841796875
1772882700426282200,3.6242822265625,-0.624267578125,0.7535400390625,0.17388916015625
1772882700436215000,3.634215087890625,-0.6268157958984375,0.7487640380859375,0.1779632568359375
1772882700446147300,3.644147216796875,-0.629547119140625,0.7482147216796875,0.1800384521484375
1772882700456080100,3.654080078125,-0.6331634521484375,0.7474822998046875,0.1808319091796875
1772882700466012200,3.66401220703125,-0.6365203857421875,0.750762939453125,0.1820831298828125
1772882700475945200,3.6739453125,-0.6342315673828125,0.75677490234375,0.1808319091796875
1772882700485877200,3.683877197265625,-0.627655029296875,0.753875732421875,0.171051025390625
1772882700495810300,3.693810302734375,-0.6300811767578125,0.7521514892578125,0.17657470703125
1772882700505742300,3.703742431640625,-0.630889892578125,0.74774169921875,0.1814117431640625
1772882700515675400,3.71367529296875,-0.635162353515625,0.7443084716796875,0.1812286376953125
1772882700525607400,3.723607421875,-0.638397216796875,0.7451934814453125,0.1764984130859375
1772882700535540200,3.733540283203125,-0.6335296630859375,0.7453765869140625,0.1691131591796875
1772882700545473300,3.743473388671875,-0.6292266845703125,0.75079345703125,0.1595611572265625
1772882700555405300,3.7534052734375,-0.633270263671875,0.751678466796875,0.1567840576171875
1772882700565338400,3.76333837890625,-0.6439971923828125,0.7555389404296875,0.162384033203125
1772882700575270100,3.773270263671875,-0.655303955078125,0.755645751953125,0.1695404052734375
1772882700585203200,3.783203125,-0.6615753173828125,0.7516021728515625,0.1768646240234375
1772882700595135200,3.79313525390625,-0.6582794189453125,0.74627685546875,0.1799774169921875
1772882700605068300,3.803068359375,-0.6491546630859375,0.7431793212890625,0.176361083984375
1772882700615000300,3.813000244140625,-0.6409912109375,0.7405853271484375,0.1661529541015625
1772882700624933000,3.82293310546875,-0.6367340087890625,0.7408599853515625,0.1572723388671875
1772882700634865400,3.832865478515625,-0.63653564453125,0.739990234375,0.160125732421875
1772882700644798200,3.842798095703125,-0.6347503662109375,0.7424163818359375,0.16534423828125
1772882700654730200,3.852730224609375,-0.6317901611328125,0.7437286376953125,0.1685791015625
1772882700664663300,3.862663330078125,-0.6288604736328125,0.7450408935546875,0.168548583984375
1772882700674595300,3.87259521484375,-0.6301422119140625,0.748504638671875,0.1696014404296875
1772882700684528400,3.8825283203125,-0.6340484619140625,0.7494049072265625,0.1736907958984375
1772882700694460400,3.89246044921875,-0.637847900390625,0.7530670166015625,0.175537109375
1772882700704393500,3.9023935546875,-0.64410400390625,0.7551422119140625,0.1827545166015625
1772882700714326300,3.912326171875,-0.6448211669921875,0.7495574951171875,0.187225341796875
1772882700724258300,3.92225830078125,-0.6426544189453125,0.746307373046875,0.197540283203125
1772882700734191000,3.932191162109375,-0.6375732421875,0.7447509765625,0.201751708984375
1772882700744123100,3.942123046875,-0.6330413818359375,0.7435760498046875,0.2001495361328125
1772882700754056200,3.95205615234375,-0.6273040771484375,0.747467041015625,0.191253662109375
1772882700763988200,3.96198828125,-0.620513916015625,0.74810791015625,0.1820068359375
1772882700773921300,3.97192138671875,-0.6169891357421875,0.75244140625,0.1745452880859375
1772882700783853300,3.981853271484375,-0.619537353515625,0.752960205078125,0.1713714599609375
1772882700793784300,3.991784423828125,-0.6245574951171875,0.751922607421875,0.1708984375
1772882700803717400,4.00171728515625,-0.6382598876953125,0.749114990234375,0.178009033203125
1772882700813649200,4.011649169921875,-0.6478118896484375,0.745880126953125,0.1827850341796875
1772882700823582200,4.021582275390625,-0.65069580078125,0.7416534423828125,0.184906005859375
1772882700833514200,4.03151416015625,-0.650360107421875,0.7403106689453125,0.18682861328125
1772882700843447300,4.041447265625,-0.644744873046875,0.741943359375,0.1828765869140625
1772882700853379300,4.05137939453125,-0.6407470703125,0.7425079345703125,0.1787567138671875
1772882700863312100,4.06131201171875,-0.6400146484375,0.7459716796875,0.1732635498046875
1772882700873244200,4.071244140625,-0.631622314453125,0.7522430419921875,0.161376953125
1772882700883177200,4.08117724609375,-0.6261444091796875,0.753875732421875,0.15411376953125
1772882700893109200,4.091109130859375,-0.6156768798828125,0.752716064453125,0.157318115234375
1772882700903042300,4.101042236328125,-0.619110107421875,0.7502593994140625,0.160675048828125
1772882700912974300,4.110974365234375,-0.62451171875,0.7487030029296875,0.1681365966796875
1772882700922907400,4.120907470703125,-0.6320648193359375,0.74822998046875,0.17926025390625
1772882700932840000,4.13083984375,-0.6367340087890625,0.746612548828125,0.180084228515625
1772882700942773000,4.14077294921875,-0.638031005859375,0.74853515625,0.18243408203125
1772882700952705800,4.150705810546875,-0.636474609375,0.749298095703125,0.184722900390625
1772882700962637800,4.160637939453125,-0.635986328125,0.7488555908203125,0.1868896484375
1772882700972571000,4.17057080078125,-0.636077880859375,0.7500762939453125,0.185333251953125
1772882700982503000,4.1805029296875,-0.6289825439453125,0.7485809326171875,0.1829071044921875
1772882700992436000,4.19043603515625,-0.6229248046875,0.750701904296875,0.1807708740234375
1772882701002368000,4.200367919921875,-0.6151123046875,0.7506866455078125,0.17926025390625
1772882701012301000,4.210301025390625,-0.610260009765625,0.7509918212890625,0.178955078125
1772882701022233000,4.220233154296875,-0.6143951416015625,0.750823974609375,0.179840087890625
1772882701032166000,4.230165771484375,-0.6210479736328125,0.7495269775390625,0.1841278076171875
1772882701042098000,4.240097900390625,-0.6313323974609375,0.75543212890625,0.188507080078125
1772882701052030700,4.25003076171875,-0.6401519775390625,0.75732421875,0.188507080078125
1772882701061962800,4.259962646484375,-0.644744873046875,0.7601776123046875,0.183563232421875
1772882701071895800,4.269895751953125,-0.646942138671875,0.7600555419921875,0.1796112060546875
1772882701081827800,4.279827880859375,-0.6485595703125,0.7613677978515625,0.1801605224609375
1772882701091761000,4.289760986328125,-0.6488494873046875,0.7590484619140625,0.1750946044921875
1772882701101693000,4.29969287109375,-0.6394195556640625,0.752685546875,0.173370361328125
1772882701111626000,4.3096259765625,-0.6267852783203125,0.749481201171875,0.1739044189453125
1772882701121558800,4.319558837890625,-0.616485595703125,0.7437591552734375,0.1731109619140625
1772882701131491000,4.329490966796875,-0.6076507568359375,0.741241455078125,0.1681060791015625
1772882701141423900,4.339423828125,-0.6026153564453125,0.7414398193359375,0.166229248046875
1772882701151356000,4.34935595703125,-0.60595703125,0.7411346435546875,0.169921875
1772882701161289000,4.3592890625,-0.612152099609375,0.74066162109375,0.1764068603515625
1772882701171223000,4.36922314453125,-0.623321533203125,0.7460174560546875,0.192108154296875
1772882701181155000,4.379155029296875,-0.63055419921875,0.7505340576171875,0.202392578125
1772882701191087900,4.389087890625,-0.63641357421875,0.7559967041015625,0.2042083740234375
1772882701201020000,4.39902001953125,-0.6341094970703125,0.761810302734375,0.2023162841796875
1772882701210953000,4.408952880859375,-0.630889892578125,0.7655029296875,0.19873046875
1772882701220886000,4.418885986328125,-0.6300201416015625,0.7602691650390625,0.19415283203125
1772882701230817800,4.42881787109375,-0.627777099609375,0.7570648193359375,0.194305419921875
1772882701240750800,4.438750732421875,-0.6247711181640625,0.75335693359375,0.19622802734375
1772882701250683000,4.448682861328125,-0.6160888671875,0.7527618408203125,0.192352294921875
1772882701260616000,4.458615966796875,-0.609619140625,0.7540130615234375,0.189727783203125
1772882701270548000,4.4685478515625,-0.6094970703125,0.756256103515625,0.186981201171875
1772882701280480800,4.478480712890625,-0.609527587890625,0.759918212890625,0.1837158203125
1772882701290412800,4.488412841796875,-0.61407470703125,0.7592620849609375,0.184967041015625
1772882701300345900,4.498345947265625,-0.62152099609375,0.75787353515625,0.189849853515625
1772882701310278000,4.50827783203125,-0.625518798828125,0.7520904541015625,0.1935577392578125
1772882701320211000,4.5182109375,-0.6368408203125,0.748321533203125,0.1955413818359375
1772882701330143000,4.52814306640625,-0.64898681640625,0.7527008056640625,0.189422607421875
1772882701340076000,4.538075927734375,-0.663665771484375,0.75628662109375,0.17767333984375
1772882701350008000,4.548008056640625,-0.665435791015625,0.756622314453125,0.1661224365234375
1772882701359941000,4.557941162109375,-0.657928466796875,0.754425048828125,0.1549224853515625
1772882701369873000,4.567872802734375,-0.6434326171875,0.751434326171875,0.147674560546875
1772882701379805700,4.5778056640625,-0.62847900390625,0.750030517578125,0.1490936279296875
1772882701389738800,4.58773876953125,-0.620086669921875,0.7520904541015625,0.15203857421875
1772882701399670800,4.5976708984375,-0.616241455078125,0.751068115234375,0.1599884033203125
1772882701409603800,4.607603759765625,-0.6131134033203125,0.750701904296875,0.16986083984375
1772882701419536000,4.617535888671875,-0.6145172119140625,0.7522125244140625,0.178863525390625
1772882701429469000,4.627468994140625,-0.619842529296875,0.7501068115234375,0.1883392333984375
1772882701439401000,4.63740087890625,-0.6258544921875,0.7492523193359375,0.1927947998046875
1772882701449334000,4.647333984375,-0.632537841796875,0.7487640380859375,0.1920013427734375
1772882701459266000,4.65726611328125,-0.6331329345703125,0.7539825439453125,0.1884918212890625
1772882701469198800,4.66719873046875,-0.6246795654296875,0.7566375732421875,0.1803741455078125
1772882701479131000,4.677130859375,-0.6181488037109375,0.758331298828125,0.1724395751953125
1772882701489064000,4.68706396484375,-0.6158905029296875,0.7598876953125,0.173004150390625
1772882701498996000,4.696995849609375,-0.6138458251953125,0.7602081298828125,0.17236328125
1772882701508929000,4.706928955078125,-0.6135101318359375,0.7629547119140625,0.172821044921875
1772882701518860800,4.71686083984375,-0.620849609375,0.7648468017578125,0.1719970703125
1772882701528793900,4.7267939453125,-0.6264190673828125,0.765899658203125,0.173248291015625
1772882701538726000,4.736725830078125,-0.6318206787109375,0.7652740478515625,0.17529296875
1772882701548659000,4.746658935546875,-0.629791259765625,0.7611846923828125,0.176483154296875
1772882701558591000,4.756591064453125,-0.6246337890625,0.75640869140625,0.17742919921875
1772882701568523800,4.766523681640625,-0.617828369140625,0.7557220458984375,0.1801910400390625
1772882701578456800,4.776456787109375,-0.61004638671875,0.7612457275390625,0.182952880859375
1772882701588388900,4.786388916015625,-0.603912353515625,0.7653350830078125,0.183868408203125
1772882701598322000,4.796322021484375,-0.6027069091796875,0.770355224609375,0.1863555908203125
1772882701608254000,4.80625390625,-0.6053466796875,0.772674560546875,0.1896820068359375
1772882701618187000,4.81618701171875,-0.61468505859375,0.7719268798828125,0.1874542236328125
1772882701628119000,4.826119140625,-0.6236114501953125,0.7700347900390625,0.189483642578125
1772882701638052000,4.836052001953125,-0.629974365234375,0.7657928466796875,0.1919708251953125
1772882701647983900,4.84598388671875,-0.6282806396484375,0.7626800537109375,0.1906280517578125
1772882701657917000,4.8559169921875,-0.628326416015625,0.7608642578125,0.1882476806640625
1772882701667848700,4.8658486328125,-0.626068115234375,0.7614898681640625,0.1811370849609375
1772882701677781800,4.87578173828125,-0.6231536865234375,0.7612152099609375,0.17742919921875
1772882701687713800,4.8857138671875,-0.61578369140625,0.762664794921875,0.17254638671875
1772882701697646800,4.895646728515625,-0.6121673583984375,0.7628021240234375,0.1695556640625
1772882701707579000,4.905578857421875,-0.6159820556640625,0.7623138427734375,0.1702423095703125
1772882701717512000,4.915511962890625,-0.6206512451171875,0.762725830078125,0.169158935546875
1772882701727444000,4.92544384765625,-0.625,0.7613525390625,0.16925048828125
1772882701737377000,4.935376953125,-0.6258392333984375,0.7597503662109375,0.170684814453125
1772882701747309800,4.945309814453125,-0.6291656494140625,0.7578277587890625,0.1738739013671875
1772882701757241900,4.955241943359375,-0.6240692138671875,0.7560272216796875,0.1832427978515625
1772882701767175000,4.9651748046875,-0.6203460693359375,0.7556915283203125,0.1865692138671875
1772882701777107000,4.97510693359375,-0.61962890625,0.7581787109375,0.1851806640625
1772882701787040000,4.9850400390625,-0.6136474609375,0.7603759765625,0.1783294677734375
1772882701796971800,4.9949716796875,-0.611419677734375,0.7608795166015625,0.1715087890625
1772882701806904800,5.00490478515625,-0.615386962890625,0.7613677978515625,0.169830322265625
1772882701816836900,5.0148369140625,-0.6224822998046875,0.7599334716796875,0.1721649169921875
1772882701826770000,5.02477001953125,-0.627960205078125,0.7604827880859375,0.173004150390625
1772882701836702000,5.034701904296875,-0.634521484375,0.7586822509765625,0.1751556396484375
1772882701846634800,5.044634765625,-0.6354827880859375,0.75799560546875,0.177764892578125
1772882701856566800,5.05456689453125,-0.6287994384765625,0.757171630859375,0.1692352294921875
1772882701866499800,5.064499755859375,-0.618255615234375,0.75921630859375,0.166015625
1772882701876432000,5.074431884765625,-0.61529541015625,0.75927734375,0.1638946533203125
1772882701886365000,5.084364990234375,-0.617156982421875,0.757720947265625,0.1666717529296875
1772882701896297000,5.094296875,-0.6161651611328125,0.7599334716796875,0.1718292236328125
1772882701906230000,5.10422998046875,-0.6176605224609375,0.759857177734375,0.1767730712890625
1772882701916162000,5.114162109375,-0.6232147216796875,0.7601776123046875,0.178497314453125
1772882701926095400,5.124095458984375,-0.6267547607421875,0.7594757080078125,0.1836090087890625
1772882701936028200,5.134028076171875,-0.6266326904296875,0.76031494140625,0.18389892578125
1772882701945960200,5.143960205078125,-0.626220703125,0.760498046875,0.1801605224609375
1772882701955893200,5.153893310546875,-0.626129150390625,0.7574310302734375,0.181793212890625
1772882701965825300,5.1638251953125,-0.6256256103515625,0.759429931640625,0.1867218017578125
1772882701975758300,5.17375830078125,-0.62176513671875,0.7632598876953125,0.1829986572265625
1772882701985690400,5.1836904296875,-0.6162872314453125,0.765380859375,0.1766204833984375
1772882701995623400,5.19362353515625,-0.6141815185546875,0.7648468017578125,0.172698974609375
1772882702005555500,5.203555419921875,-0.61273193359375,0.7635650634765625,0.1685943603515625
1772882702015488500,5.213488525390625,-0.6167449951171875,0.7644805908203125,0.1726226806640625
1772882702025420300,5.223420166015625,-0.6197967529296875,0.7606964111328125,0.1746673583984375
1772882702035353000,5.23335302734375,-0.6208038330078125,0.7579345703125,0.172607421875
1772882702045285000,5.24328515625,-0.6225128173828125,0.753753662109375,0.1724395751953125
1772882702055218200,5.25321826171875,-0.6202545166015625,0.7549896240234375,0.169525146484375
1772882702065150200,5.263150146484375,-0.6206512451171875,0.757049560546875,0.167510986328125
1772882702075083300,5.273083251953125,-0.625579833984375,0.7555694580078125,0.1688232421875
1772882702085015300,5.283015380859375,-0.627105712890625,0.7562713623046875,0.167877197265625
1772882702094948400,5.2929482421875,-0.63043212890625,0.7573394775390625,0.1634979248046875
1772882702104880400,5.30288037109375,-0.626983642578125,0.75518798828125,0.1623077392578125
1772882702114813400,5.3128134765625,-0.6244354248046875,0.7585601806640625,0.163726806640625
1772882702124745500,5.322745361328125,-0.6267242431640625,0.758026123046875,0.1654052734375
1772882702134678300,5.33267822265625,-0.6310882568359375,0.757080078125,0.1669464111328125
1772882702144611300,5.342611328125,-0.63116455078125,0.758148193359375,0.17095947265625
1772882702154543400,5.35254345703125,-0.6325836181640625,0.7603607177734375,0.1722869873046875
1772882702164476400,5.362476318359375,-0.629974365234375,0.76116943359375,0.1711883544921875
1772882702174408200,5.372408203125,-0.62115478515625,0.7597198486328125,0.1766815185546875
1772882702184341200,5.38234130859375,-0.61346435546875,0.75830078125,0.173553466796875
1772882702194273300,5.392273193359375,-0.610870361328125,0.7568206787109375,0.1728057861328125
1772882702204206300,5.402206298828125,-0.6164093017578125,0.755218505859375,0.1764678955078125
1772882702214138400,5.412138427734375,-0.6224365234375,0.7552490234375,0.1795654296875
1772882702224071200,5.4220712890625,-0.62628173828125,0.757171630859375,0.1836090087890625
1772882702234003200,5.432003173828125,-0.63201904296875,0.7574615478515625,0.1849517822265625
1772882702243936300,5.441936279296875,-0.6327972412109375,0.7622833251953125,0.1874237060546875
1772882702253868300,5.451868408203125,-0.6329498291015625,0.761688232421875,0.1851348876953125
1772882702263801300,5.46180126953125,-0.632781982421875,0.761810302734375,0.183013916015625
1772882702273733400,5.4717333984375,-0.630218505859375,0.761810302734375,0.1796722412109375
1772882702283666400,5.48166650390625,-0.625823974609375,0.755035400390625,0.1810150146484375
1772882702293598200,5.49159814453125,-0.617431640625,0.7528076171875,0.18487548828125
1772882702303531300,5.50153125,-0.6086578369140625,0.7514495849609375,0.1844940185546875
1772882702313463300,5.51146337890625,-0.608612060546875,0.750213623046875,0.1832275390625
1772882702323396000,5.52139599609375,-0.61572265625,0.75250244140625,0.182403564453125
1772882702333329200,5.5313291015625,-0.620697021484375,0.754119873046875,0.184600830078125
1772882702343261200,5.54126123046875,-0.624969482421875,0.7557830810546875,0.1867218017578125
1772882702353194200,5.5511943359375,-0.6314849853515625,0.755340576171875,0.188385009765625
1772882702363126300,5.561126220703125,-0.6313629150390625,0.7591552734375,0.190643310546875
1772882702373059300,5.571059326171875,-0.6309814453125,0.7624053955078125,0.187530517578125
1772882702382991400,5.580991455078125,-0.6316986083984375,0.7662506103515625,0.1836090087890625
1772882702392924400,5.59092431640625,-0.6280670166015625,0.7659759521484375,0.1819000244140625
1772882702402856400,5.6008564453125,-0.6230926513671875,0.7615966796875,0.1797332763671875
1772882702412789200,5.610789306640625,-0.621337890625,0.7616424560546875,0.179534912109375
1772882702422721300,5.62072119140625,-0.6192626953125,0.757904052734375,0.183197021484375
1772882702432654300,5.630654296875,-0.6173095703125,0.75152587890625,0.1790313720703125
1772882702442586000,5.640586181640625,-0.618316650390625,0.748260498046875,0.1759796142578125
1772882702452519200,5.650519287109375,-0.6118011474609375,0.7467041015625,0.170196533203125
1772882702462451200,5.660451171875,-0.6186065673828125,0.744110107421875,0.1717987060546875
1772882702472384300,5.67038427734375,-0.6265106201171875,0.7472076416015625,0.1756744384765625
1772882702482316300,5.68031640625,-0.63189697265625,0.7512054443359375,0.176727294921875
1772882702492249300,5.690249267578125,-0.6317901611328125,0.7587738037109375,0.1763153076171875
1772882702502181400,5.700181396484375,-0.629486083984375,0.764617919921875,0.1763153076171875
1772882702512114200,5.7101142578125,-0.627288818359375,0.768829345703125,0.1750030517578125
1772882702522047200,5.720047119140625,-0.6273956298828125,0.7685546875,0.174591064453125
1772882702531979300,5.729979248046875,-0.629364013671875,0.7647857666015625,0.1772613525390625
1772882702541912300,5.739912353515625,-0.6277313232421875,0.7609100341796875,0.184112548828125
1772882702551844400,5.74984423828125,-0.622222900390625,0.7541351318359375,0.1861419677734375
1772882702561777400,5.75977734375,-0.6200408935546875,0.7496337890625,0.1903228759765625
1772882702571709400,5.76970947265625,-0.6133880615234375,0.7486572265625,0.18499755859375
1772882702581642500,5.779642578125,-0.61370849609375,0.7462921142578125,0.179046630859375
1772882702591574300,5.78957421875,-0.6169891357421875,0.7480316162109375,0.1714630126953125
1772882702601507000,5.799507080078125,-0.6231842041015625,0.7536773681640625,0.168182373046875
1772882702611439000,5.809439208984375,-0.624908447265625,0.7580108642578125,0.163360595703125
1772882702621372200,5.8193720703125,-0.6296844482421875,0.7571258544921875,0.155670166015625
1772882702631304200,5.82930419921875,-0.6337738037109375,0.75958251953125,0.158172607421875
1772882702641237200,5.8392373046875,-0.6371917724609375,0.76123046875,0.1584014892578125
1772882702651169300,5.849169189453125,-0.6401824951171875,0.7601165771484375,0.1536865234375
1772882702661102300,5.859102294921875,-0.639129638671875,0.7559356689453125,0.15264892578125
1772882702671034400,5.869034423828125,-0.6344757080078125,0.7515106201171875,0.1585235595703125
1772882702680967400,5.878967529296875,-0.630126953125,0.7520751953125,0.1656036376953125
1772882702690899500,5.8888994140625,-0.6278076171875,0.7560272216796875,0.170196533203125
1772882702700832300,5.898832275390625,-0.6263580322265625,0.7580413818359375,0.1712646484375
1772882702710764300,5.908764404296875,-0.6253509521484375,0.761138916015625,0.17376708984375
1772882702720697000,5.918697021484375,-0.6247100830078125,0.760772705078125,0.1795196533203125
1772882702730630400,5.92863037109375,-0.62628173828125,0.759185791015625,0.1861724853515625
1772882702740562200,5.938562255859375,-0.630096435546875,0.7584381103515625,0.187225341796875
1772882702750495200,5.9484951171875,-0.62890625,0.7588653564453125,0.1754608154296875
1772882702760427300,5.95842724609375,-0.6250762939453125,0.7614288330078125,0.1622467041015625
1772882702770360300,5.9683603515625,-0.6212921142578125,0.757049560546875,0.1587677001953125
1772882702780292400,5.978292236328125,-0.6172637939453125,0.755462646484375,0.1644134521484375
1772882702790225200,5.98822509765625,-0.619598388671875,0.7510223388671875,0.1680450439453125
1772882702800157200,5.9981572265625,-0.624908447265625,0.750152587890625,0.1646728515625
1772882702810090200,6.00809033203125,-0.63092041015625,0.75225830078125,0.159332275390625
1772882702820022300,6.018022216796875,-0.6380615234375,0.7538909912109375,0.1543426513671875
1772882702829955300,6.027955322265625,-0.643218994140625,0.7558441162109375,0.1520538330078125
1772882702839887400,6.037887451171875,-0.6418304443359375,0.755615234375,0.156494140625
1772882702849820400,6.0478203125,-0.635528564453125,0.7570037841796875,0.162750244140625
1772882702859752200,6.057752197265625,-0.6316375732421875,0.75634765625,0.163177490234375
1772882702869685200,6.067685302734375,-0.631134033203125,0.75323486328125,0.1661224365234375
1772882702879617300,6.0776171875,-0.6255340576171875,0.756195068359375,0.172943115234375
1772882702889550300,6.08755029296875,-0.61773681640625,0.7583770751953125,0.1775970458984375
1772882702899482400,6.097482421875,-0.6168365478515625,0.7597808837890625,0.17755126953125
1772882702909415200,6.107415283203125,-0.6228485107421875,0.7628021240234375,0.17864990234375
1772882702919347200,6.11734716796875,-0.6302032470703125,0.7625885009765625,0.1820068359375
1772882702929279200,6.127279296875,-0.6361083984375,0.760162353515625,0.1844940185546875
1772882702939212300,6.13721240234375,-0.633331298828125,0.7563629150390625,0.1808624267578125
1772882702949144300,6.147144287109375,-0.623870849609375,0.751800537109375,0.170562744140625
1772882702959077400,6.157077392578125,-0.6229705810546875,0.752227783203125,0.16583251953125
1772882702969009400,6.167009521484375,-0.6242523193359375,0.7542572021484375,0.165924072265625
1772882702978942500,6.1769423828125,-0.630035400390625,0.7570037841796875,0.16790771484375
1772882702988874200,6.186874267578125,-0.63128662109375,0.758514404296875,0.1709747314453125
1772882702998807300,6.196807373046875,-0.6331939697265625,0.754241943359375,0.1770782470703125
1772882703008739300,6.2067392578125,-0.63568115234375,0.7508544921875,0.184661865234375
1772882703018672000,6.216672119140625,-0.632568359375,0.7497100830078125,0.1909637451171875
1772882703028604200,6.226604248046875,-0.6185150146484375,0.7538299560546875,0.186614990234375
1772882703038537200,6.236537109375,-0.60845947265625,0.7554168701171875,0.1837005615234375
1772882703048469200,6.24646923828125,-0.6041717529296875,0.75592041015625,0.1874237060546875
1772882703058402300,6.25640234375,-0.6071624755859375,0.7551422119140625,0.1929168701171875
1772882703068334300,6.266334228515625,-0.61541748046875,0.756744384765625,0.1928253173828125
1772882703078267400,6.276267333984375,-0.623779296875,0.7566680908203125,0.1943511962890625
1772882703088199400,6.286199462890625,-0.633392333984375,0.754302978515625,0.201629638671875
1772882703098132500,6.296132568359375,-0.633270263671875,0.7569122314453125,0.2020416259765625
1772882703108064300,6.306064208984375,-0.636688232421875,0.758941650390625,0.1998291015625
1772882703117997000,6.3159970703125,-0.6392059326171875,0.76025390625,0.1977081298828125
1772882703127929000,6.32592919921875,-0.637451171875,0.7582550048828125,0.1962890625
1772882703137862100,6.335862060546875,-0.634552001953125,0.759429931640625,0.1909942626953125
1772882703147794200,6.345794189453125,-0.620269775390625,0.759735107421875,0.1858367919921875
1772882703157727200,6.355727294921875,-0.609161376953125,0.7566070556640625,0.1782684326171875
1772882703167660300,6.365660400390625,-0.603668212890625,0.7517852783203125,0.1789093017578125
1772882703177592300,6.37559228515625,-0.6073760986328125,0.744110107421875,0.1827392578125
1772882703187525400,6.385525390625,-0.618865966796875,0.744110107421875,0.18701171875
1772882703197457400,6.39545751953125,-0.630218505859375,0.7467193603515625,0.1789398193359375
1772882703207390200,6.40539013671875,-0.635284423828125,0.7487640380859375,0.1705780029296875
1772882703217322200,6.415322265625,-0.6334228515625,0.7545013427734375,0.159698486328125
1772882703227255300,6.42525537109375,-0.6295623779296875,0.75537109375,0.154205322265625
1772882703237187300,6.435187255859375,-0.628570556640625,0.75177001953125,0.1565704345703125
1772882703247120400,6.445120361328125,-0.6371917724609375,0.7534332275390625,0.16204833984375
1772882703257052200,6.45505224609375,-0.643280029296875,0.755096435546875,0.1688232421875
1772882703266985200,6.464985107421875,-0.6479034423828125,0.758880615234375,0.1683502197265625
1772882703276917200,6.474917236328125,-0.6435089111328125,0.759368896484375,0.1656494140625
1772882703286850300,6.484850341796875,-0.636688232421875,0.757049560546875,0.1648712158203125
1772882703296782300,6.4947822265625,-0.6298828125,0.7550048828125,0.1680450439453125
1772882703306715100,6.504715087890625,-0.6255340576171875,0.7507781982421875,0.1649627685546875
1772882703316647200,6.514647216796875,-0.62249755859375,0.7512969970703125,0.159820556640625
1772882703326580200,6.524580322265625,-0.6177215576171875,0.7510528564453125,0.161407470703125
1772882703336512300,6.53451220703125,-0.6142425537109375,0.7517547607421875,0.1730499267578125
1772882703346445300,6.5444453125,-0.61419677734375,0.7501220703125,0.1799774169921875
1772882703356377300,6.55437744140625,-0.613372802734375,0.7490692138671875,0.185546875
1772882703366310400,6.564310302734375,-0.6157684326171875,0.7505340576171875,0.184661865234375
1772882703376243500,6.574243408203125,-0.6243438720703125,0.7536468505859375,0.1799163818359375
1772882703386175500,6.584175537109375,-0.63134765625,0.75360107421875,0.1796417236328125
1772882703396108300,6.5941083984375,-0.6381988525390625,0.7564544677734375,0.18109130859375
1772882703406040000,6.6040400390625,-0.643707275390625,0.7551727294921875,0.1766815185546875
1772882703415973000,6.61397314453125,-0.648040771484375,0.7540435791015625,0.1714324951171875
1772882703425905200,6.6239052734375,-0.6451416015625,0.7529754638671875,0.168609619140625
1772882703435838200,6.633838134765625,-0.6384124755859375,0.753143310546875,0.163665771484375
1772882703445770200,6.643770263671875,-0.634033203125,0.75323486328125,0.16595458984375
1772882703455703300,6.653703369140625,-0.6283111572265625,0.751190185546875,0.172149658203125
1772882703465635300,6.66363525390625,-0.623992919921875,0.75146484375,0.17730712890625
1772882703475568400,6.673568359375,-0.6249847412109375,0.7506103515625,0.17724609375
1772882703485500400,6.68350048828125,-0.6251983642578125,0.75128173828125,0.1805419921875
1772882703495433200,6.69343310546875,-0.627197265625,0.7558135986328125,0.1864166259765625
1772882703505365200,6.703365234375,-0.6307373046875,0.7565765380859375,0.1911163330078125
1772882703515298300,6.71329833984375,-0.63525390625,0.7550506591796875,0.1926727294921875
1772882703525230000,6.72322998046875,-0.635467529296875,0.7570953369140625,0.1951446533203125
1772882703535163100,6.7331630859375,-0.6315155029296875,0.7530364990234375,0.1873779296875
1772882703545095200,6.74309521484375,-0.6274261474609375,0.75006103515625,0.18023681640625
1772882703555028200,6.7530283203125,-0.6241302490234375,0.7498779296875,0.175811767578125
1772882703564960300,6.762960205078125,-0.62115478515625,0.7464752197265625,0.168243408203125
1772882703574893300,6.772893310546875,-0.624298095703125,0.7464599609375,0.1653594970703125
1772882703584825300,6.782825439453125,-0.6273193359375,0.745849609375,0.1671295166015625
1772882703594758400,6.79275830078125,-0.6298370361328125,0.7503662109375,0.1705780029296875
1772882703604690400,6.8026904296875,-0.6352691650390625,0.749725341796875,0.1674652099609375
1772882703614623200,6.812623291015625,-0.63714599609375,0.7522430419921875,0.176422119140625
1772882703624556300,6.822556396484375,-0.6348419189453125,0.7547149658203125,0.1811065673828125
1772882703634488300,6.83248828125,-0.639251708984375,0.75445556640625,0.1834564208984375
1772882703644421400,6.84242138671875,-0.643829345703125,0.7534637451171875,0.1842803955078125
1772882703654353400,6.852353515625,-0.646026611328125,0.750396728515625,0.1890411376953125
1772882703664286500,6.862286376953125,-0.6420745849609375,0.749603271484375,0.1927490234375
1772882703674218200,6.87221826171875,-0.6369171142578125,0.7510528564453125,0.1858673095703125
1772882703684151300,6.8821513671875,-0.63006591796875,0.75262451171875,0.1749267578125
1772882703694083300,6.892083251953125,-0.6233062744140625,0.7582550048828125,0.169586181640625
1772882703704016100,6.90201611328125,-0.623443603515625,0.76055908203125,0.1669464111328125
1772882703713948200,6.9119482421875,-0.6246490478515625,0.760009765625,0.1686248779296875
1772882703723881200,6.921881103515625,-0.6277618408203125,0.752777099609375,0.1784210205078125
1772882703733813200,6.931813232421875,-0.6310272216796875,0.745208740234375,0.1942901611328125
1772882703743746300,6.941746337890625,-0.6357879638671875,0.739776611328125,0.200531005859375
1772882703753678300,6.95167822265625,-0.635711669921875,0.7397308349609375,0.19757080078125
1772882703763611400,6.961611328125,-0.632904052734375,0.7404022216796875,0.18682861328125
1772882703773543400,6.97154345703125,-0.630767822265625,0.745513916015625,0.174835205078125
1772882703783476500,6.9814765625,-0.633758544921875,0.7481536865234375,0.167938232421875
1772882703793408500,6.991408447265625,-0.6350250244140625,0.748870849609375,0.17022705078125
1772882703803341300,7.00134130859375,-0.6297149658203125,0.7522125244140625,0.1730499267578125
1772882703813273000,7.011273193359375,-0.6230926513671875,0.753692626953125,0.1705169677734375
1772882703823206100,7.0212060546875,-0.6199951171875,0.75262451171875,0.1704559326171875
1772882703833138200,7.03113818359375,-0.615264892578125,0.754058837890625,0.1738128662109375
1772882703843071200,7.0410712890625,-0.615631103515625,0.7542266845703125,0.182037353515625
1772882703853003300,7.051003173828125,-0.624664306640625,0.7525482177734375,0.189697265625
1772882703862936300,7.060936279296875,-0.6299591064453125,0.7505340576171875,0.1966400146484375
1772882703872869400,7.070869384765625,-0.630950927734375,0.7507476806640625,0.2046356201171875
1772882703882801400,7.080801513671875,-0.625823974609375,0.7504119873046875,0.2067413330078125
1772882703892734200,7.090734130859375,-0.6238861083984375,0.747467041015625,0.2047119140625
1772882703902666200,7.100666259765625,-0.6211395263671875,0.752685546875,0.1994171142578125
1772882703912599300,7.110599365234375,-0.6217803955078125,0.755889892578125,0.19158935546875
1772882703922531300,7.12053125,-0.6272125244140625,0.755828857421875,0.1857757568359375
1772882703932464600,7.130464599609375,-0.631866455078125,0.7553558349609375,0.1779937744140625
1772882703942396700,7.140396728515625,-0.6331329345703125,0.7564239501953125,0.17462158203125
1772882703952329700,7.150329833984375,-0.6354522705078125,0.753265380859375,0.173065185546875
1772882703962261500,7.160261474609375,-0.641754150390625,0.750335693359375,0.1774139404296875
1772882703972194600,7.170194580078125,-0.641448974609375,0.74951171875,0.18280029296875
1772882703982126600,7.180126708984375,-0.6357269287109375,0.7495880126953125,0.1877288818359375
1772882703992059400,7.190059326171875,-0.6257476806640625,0.74603271484375,0.185455322265625
1772882704001991400,7.199991455078125,-0.6201324462890625,0.7451629638671875,0.1808624267578125
1772882704011924500,7.209924560546875,-0.615478515625,0.746673583984375,0.1846923828125
1772882704021856500,7.2198564453125,-0.6181182861328125,0.7502899169921875,0.1887664794921875
1772882704031789600,7.22978955078125,-0.6297760009765625,0.7529144287109375,0.1875762939453125
1772882704041721600,7.2397216796875,-0.6404876708984375,0.7537841796875,0.1823883056640625
1772882704051654700,7.249654541015625,-0.6461944580078125,0.7540130615234375,0.1808929443359375
1772882704061586700,7.259586669921875,-0.64459228515625,0.7537384033203125,0.1776123046875
1772882704071519500,7.26951953125,-0.6399993896484375,0.7504119873046875,0.1739959716796875
1772882704081451500,7.279451416015625,-0.6299591064453125,0.754150390625,0.1769866943359375
1772882704091384600,7.289384521484375,-0.626007080078125,0.754486083984375,0.1785125732421875
1772882704101316400,7.29931640625,-0.6274566650390625,0.75274658203125,0.1785125732421875
1772882704111249400,7.30924951171875,-0.630218505859375,0.7552490234375,0.17755126953125
1772882704121181400,7.319181396484375,-0.633087158203125,0.7548980712890625,0.178680419921875
1772882704131114500,7.329114501953125,-0.6383514404296875,0.7532958984375,0.1822967529296875
1772882704141046500,7.339046630859375,-0.6403045654296875,0.7534637451171875,0.181976318359375
1772882704150979600,7.3489794921875,-0.636871337890625,0.7535247802734375,0.1814422607421875
1772882704160912600,7.35891259765625,-0.629150390625,0.752685546875,0.18267822265625
1772882704170844700,7.3688447265625,-0.6230010986328125,0.7505340576171875,0.186981201171875
1772882704180777500,7.378777587890625,-0.619110107421875,0.7482757568359375,0.1838226318359375
1772882704190709500,7.38870947265625,-0.6239471435546875,0.749298095703125,0.181793212890625
1772882704200642600,7.398642578125,-0.631195068359375,0.7480010986328125,0.175933837890625
1772882704210574600,7.40857470703125,-0.6390533447265625,0.748138427734375,0.1717987060546875
1772882704220507600,7.418507568359375,-0.64129638671875,0.7444915771484375,0.1715545654296875
1772882704230439400,7.428439453125,-0.639251708984375,0.7472076416015625,0.1736907958984375
1772882704240372500,7.43837255859375,-0.6310577392578125,0.748565673828125,0.1752777099609375
1772882704250304500,7.448304443359375,-0.6284332275390625,0.751068115234375,0.1825714111328125
1772882704260237600,7.458237548828125,-0.6279449462890625,0.7532806396484375,0.188934326171875
1772882704270169600,7.468169677734375,-0.6275787353515625,0.754302978515625,0.1905517578125
1772882704280102400,7.478102294921875,-0.6304779052734375,0.754241943359375,0.1884765625
1772882704290034400,7.488034423828125,-0.6318817138671875,0.7552490234375,0.1883087158203125
1772882704299967500,7.497967529296875,-0.6345367431640625,0.75128173828125,0.1913299560546875
1772882704309899500,7.5078994140625,-0.633758544921875,0.7494049072265625,0.1936492919921875
1772882704319832600,7.51783251953125,-0.6325836181640625,0.7487335205078125,0.1905975341796875
1772882704329764600,7.5277646484375,-0.6298370361328125,0.7489471435546875,0.1877899169921875
1772882704339697700,7.53769775390625,-0.628021240234375,0.7488250732421875,0.1797027587890625
1772882704349629700,7.547629638671875,-0.626800537109375,0.7490234375,0.1685333251953125
1772882704359562800,7.557562744140625,-0.627838134765625,0.7501373291015625,0.164703369140625
1772882704369494500,7.56749462890625,-0.6243438720703125,0.7502288818359375,0.164306640625
1772882704379427300,7.57742724609375,-0.6231689453125,0.750640869140625,0.1723175048828125
1772882704389359400,7.587359375,-0.62554931640625,0.7519989013671875,0.176910400390625
1772882704399292400,7.59729248046875,-0.63031005859375,0.754730224609375,0.1808319091796875
1772882704409224400,7.607224365234375,-0.6380615234375,0.7578277587890625,0.187164306640625
1772882704419157500,7.617157470703125,-0.6437530517578125,0.755401611328125,0.1880645751953125
1772882704429089500,7.627089599609375,-0.6432952880859375,0.75244140625,0.18304443359375
1772882704439022600,7.637022705078125,-0.643157958984375,0.75311279296875,0.178192138671875
1772882704448954600,7.64695458984375,-0.63653564453125,0.751434326171875,0.1706390380859375
1772882704458887700,7.6568876953125,-0.62872314453125,0.7504730224609375,0.16912841796875
1772882704468819700,7.66681982421875,-0.627471923828125,0.7499542236328125,0.17291259765625
1772882704478752500,7.67675244140625,-0.623138427734375,0.7509613037109375,0.1744842529296875
1772882704488685600,7.686685546875,-0.6178741455078125,0.7533416748046875,0.1717681884765625
1772882704498617600,7.69661767578125,-0.6234283447265625,0.7506103515625,0.177001953125
1772882704508550700,7.706550537109375,-0.6322479248046875,0.7483367919921875,0.1862030029296875
1772882704518482400,7.716482421875,-0.6394805908203125,0.7492218017578125,0.1916046142578125
1772882704528415500,7.72641552734375,-0.6446533203125,0.747100830078125,0.1893463134765625
1772882704538347500,7.736347412109375,-0.6421966552734375,0.75128173828125,0.1838226318359375
1772882704548280600,7.746280517578125,-0.6351776123046875,0.754119873046875,0.1785888671875
1772882704558212600,7.756212646484375,-0.632354736328125,0.75360107421875,0.172576904296875
1772882704568145400,7.7661455078125,-0.6250457763671875,0.7526092529296875,0.1730804443359375
1772882704578077400,7.776077392578125,-0.6221771240234375,0.749847412109375,0.1783599853515625
1772882704588010500,7.786010498046875,-0.626739501953125,0.7468414306640625,0.1807708740234375
1772882704597942500,7.795942626953125,-0.62799072265625,0.747406005859375,0.1831512451171875
1772882704607875600,7.80587548828125,-0.6320037841796875,0.7475738525390625,0.181182861328125
1772882704617807600,7.8158076171875,-0.6334686279296875,0.7456207275390625,0.1768341064453125
1772882704627740700,7.82574072265625,-0.6334381103515625,0.7481231689453125,0.1804046630859375
1772882704637672400,7.83567236328125,-0.634490966796875,0.74853515625,0.1800537109375
1772882704647605500,7.84560546875,-0.637542724609375,0.7490997314453125,0.177001953125
1772882704657537500,7.85553759765625,-0.642578125,0.7449798583984375,0.177947998046875
1772882704667470300,7.86547021484375,-0.64300537109375,0.7464599609375,0.1790008544921875
1772882704677402600,7.875402587890625,-0.6399688720703125,0.7459716796875,0.174530029296875
1772882704687335400,7.88533544921875,-0.6318817138671875,0.7508544921875,0.16650390625
1772882704697267500,7.895267333984375,-0.6262969970703125,0.7541351318359375,0.1627044677734375
1772882704707200500,7.905200439453125,-0.62139892578125,0.7571563720703125,0.1636962890625
1772882704717132500,7.915132568359375,-0.6278533935546875,0.7586212158203125,0.174530029296875
1772882704727065600,7.925065673828125,-0.631683349609375,0.756683349609375,0.1841888427734375
1772882704736997600,7.93499755859375,-0.6382904052734375,0.7555999755859375,0.195648193359375
1772882704746930700,7.9449306640625,-0.6355743408203125,0.75347900390625,0.1974029541015625
1772882704756862700,7.95486279296875,-0.63427734375,0.7503204345703125,0.19049072265625
1772882704766795500,7.96479541015625,-0.6307525634765625,0.749298095703125,0.189544677734375
1772882704776727600,7.9747275390625,-0.6198577880859375,0.74822998046875,0.1847686767578125
1772882704786660400,7.984660400390625,-0.6138763427734375,0.742950439453125,0.177459716796875
1772882704796591600,7.994591552734375,-0.614990234375,0.743377685546875,0.1732025146484375
1772882704806523600,8.004523681640626,-0.61724853515625,0.742279052734375,0.173095703125
1772882704816456400,8.01445654296875,-0.6273345947265625,0.74688720703125,0.1751708984375
1772882704826388500,8.024388427734374,-0.6338043212890625,0.7528533935546875,0.176788330078125
1772882704836321500,8.034321533203125,-0.64154052734375,0.7569580078125,0.18255615234375
1772882704846253600,8.044253662109375,-0.650909423828125,0.7586669921875,0.1794281005859375
1772882704856186600,8.0541865234375,-0.6512298583984375,0.758514404296875,0.174591064453125
1772882704866118400,8.064118408203125,-0.647430419921875,0.7561492919921875,0.1713714599609375
1772882704876051500,8.074051513671876,-0.64129638671875,0.7538909912109375,0.170196533203125
1772882704885983500,8.0839833984375,-0.63580322265625,0.75103759765625,0.1650848388671875
1772882704895916500,8.09391650390625,-0.6281280517578125,0.747283935546875,0.163909912109375
1772882704905848600,8.1038486328125,-0.6221466064453125,0.7437744140625,0.1674652099609375
1772882704915781400,8.113781494140625,-0.621917724609375,0.7432098388671875,0.1734619140625
1772882704925713700,8.123713623046875,-0.6192626953125,0.747467041015625,0.1786346435546875
1772882704935646200,8.133646240234375,-0.621826171875,0.7501983642578125,0.17889404296875
1772882704945578000,8.143577880859375,-0.6264190673828125,0.75494384765625,0.1808319091796875
1772882704955511000,8.153510986328126,-0.6317291259765625,0.756591796875,0.1876220703125
1772882704965444000,8.163444091796874,-0.635650634765625,0.758270263671875,0.1874237060546875
1772882704975376100,8.173376220703124,-0.6430511474609375,0.756683349609375,0.1833038330078125
1772882704985309200,8.18330908203125,-0.648834228515625,0.7580413818359375,0.1800079345703125
1772882704995241200,8.1932412109375,-0.6477508544921875,0.75579833984375,0.1793212890625
1772882705005174300,8.20317431640625,-0.637237548828125,0.7529754638671875,0.17181396484375
1772882705015106300,8.213106201171875,-0.6225738525390625,0.7490692138671875,0.1670684814453125
1772882705025039000,8.2230390625,-0.6134490966796875,0.7421722412109375,0.1692657470703125
1772882705034971100,8.23297119140625,-0.612152099609375,0.739501953125,0.1756134033203125
1772882705044904200,8.242904296875,-0.6160736083984375,0.7452545166015625,0.1730804443359375
1772882705054836200,8.252836181640625,-0.622222900390625,0.75018310546875,0.1727294921875
1772882705064769300,8.262769287109375,-0.63140869140625,0.754302978515625,0.1729736328125
1772882705074701300,8.272701416015625,-0.640777587890625,0.75927734375,0.1803436279296875
1772882705084634400,8.28263427734375,-0.646820068359375,0.7614288330078125,0.183380126953125
1772882705094566100,8.292566162109376,-0.6523284912109375,0.760040283203125,0.1836700439453125
1772882705104499200,8.302499267578124,-0.652618408203125,0.757080078125,0.1825714111328125
1772882705114431200,8.31243115234375,-0.6448516845703125,0.7523345947265625,0.177520751953125
1772882705124364000,8.322364013671875,-0.629852294921875,0.747650146484375,0.1706390380859375
1772882705134296000,8.332296142578125,-0.618072509765625,0.74444580078125,0.1690521240234375
1772882705144229000,8.34222900390625,-0.6081695556640625,0.7432098388671875,0.17022705078125
1772882705154161200,8.3521611328125,-0.6071319580078125,0.7445831298828125,0.176513671875
1772882705164094200,8.36209423828125,-0.6137542724609375,0.7449951171875,0.180572509765625
1772882705174026200,8.372026123046876,-0.625885009765625,0.748504638671875,0.1839599609375
1772882705183959300,8.381959228515624,-0.635833740234375,0.7504119873046875,0.1885528564453125
1772882705193891300,8.391891357421875,-0.6402587890625,0.7574462890625,0.1884307861328125
1772882705203824400,8.401824462890625,-0.63824462890625,0.759521484375,0.17633056640625
1772882705213756200,8.411756103515625,-0.6396942138671875,0.76007080078125,0.171966552734375
1772882705223689000,8.42168896484375,-0.6385650634765625,0.76043701171875,0.1800079345703125
1772882705233621200,8.431621337890626,-0.6406402587890625,0.75543212890625,0.184906005859375
1772882705243554000,8.441553955078126,-0.6388397216796875,0.7513885498046875,0.1826629638671875
1772882705253486000,8.451486083984374,-0.63623046875,0.7480316162109375,0.1784515380859375
1772882705263419100,8.461419189453125,-0.630340576171875,0.7450408935546875,0.1705474853515625
1772882705273351200,8.47135107421875,-0.626129150390625,0.7458648681640625,0.1673431396484375
1772882705283284200,8.4812841796875,-0.6199951171875,0.748382568359375,0.1627349853515625
1772882705293216300,8.49121630859375,-0.6208038330078125,0.7494659423828125,0.166351318359375
1772882705303149300,8.5011494140625,-0.62249755859375,0.746063232421875,0.174102783203125
1772882705313081300,8.511081298828126,-0.6240081787109375,0.7501220703125,0.1768951416015625
1772882705323014100,8.52101416015625,-0.627777099609375,0.75189208984375,0.18048095703125
1772882705332947200,8.530947265625,-0.6329345703125,0.7548065185546875,0.184295654296875
1772882705342879200,8.540879150390625,-0.636260986328125,0.7562713623046875,0.1857452392578125
1772882705352812300,8.550812255859375,-0.6366119384765625,0.7566680908203125,0.1861724853515625
1772882705362744000,8.560744140625,-0.6392974853515625,0.7579345703125,0.1810150146484375
1772882705372677000,8.570677001953126,-0.64056396484375,0.7583770751953125,0.17962646484375
1772882705382609200,8.580609130859376,-0.638031005859375,0.75836181640625,0.17926025390625
1772882705392542200,8.590542236328124,-0.6339874267578125,0.7584991455078125,0.175201416015625
1772882705402474200,8.60047412109375,-0.6239166259765625,0.756103515625,0.172149658203125
1772882705412407000,8.610406982421875,-0.616973876953125,0.7545928955078125,0.1759033203125
1772882705422339300,8.62033935546875,-0.6162261962890625,0.747833251953125,0.17999267578125
1772882705432272100,8.630272216796875,-0.618377685546875,0.74249267578125,0.182525634765625
1772882705442204200,8.6402041015625,-0.6180419921875,0.7431182861328125,0.1829986572265625
1772882705452137200,8.65013720703125,-0.62127685546875,0.7456512451171875,0.1764068603515625
1772882705462069200,8.6600693359375,-0.6251983642578125,0.754364013671875,0.171112060546875
1772882705472002300,8.670002197265624,-0.6342315673828125,0.762054443359375,0.1711273193359375
1772882705481934300,8.679934326171875,-0.643951416015625,0.763946533203125,0.1800994873046875
1772882705491867400,8.689867431640625,-0.65032958984375,0.7606048583984375,0.1857147216796875
1772882705501799200,8.699799072265625,-0.650970458984375,0.7593994140625,0.1821746826171875
1772882705511732200,8.709732177734375,-0.64459228515625,0.75299072265625,0.17950439453125
1772882705521664300,8.719664306640626,-0.63916015625,0.750885009765625,0.176727294921875
1772882705531597000,8.72959716796875,-0.62957763671875,0.7495574951171875,0.1714019775390625
1772882705541529000,8.739529052734374,-0.6203155517578125,0.7474212646484375,0.169677734375
1772882705551462100,8.749462158203125,-0.610443115234375,0.7469635009765625,0.1719207763671875
1772882705561394200,8.759394287109375,-0.6066131591796875,0.7460479736328125,0.1773681640625
1772882705571327200,8.7693271484375,-0.6139068603515625,0.7465362548828125,0.183135986328125
1772882705581259300,8.77925927734375,-0.6265869140625,0.747802734375,0.19427490234375
1772882705591192300,8.7891923828125,-0.6392059326171875,0.751373291015625,0.1974029541015625
1772882705601124400,8.799124267578126,-0.6492156982421875,0.754974365234375,0.1916351318359375
1772882705611057400,8.809057373046874,-0.6506195068359375,0.7605438232421875,0.1822509765625
1772882705620989200,8.8189892578125,-0.6434173583984375,0.762359619140625,0.1708526611328125
1772882705630922000,8.828921875,-0.635040283203125,0.758697509765625,0.1586456298828125
1772882705640854000,8.83885400390625,-0.630401611328125,0.7545166015625,0.160369873046875
1772882705650787000,8.848787109375,-0.624237060546875,0.752899169921875,0.1609039306640625
1772882705660719000,8.858718994140625,-0.6225738525390625,0.75006103515625,0.16558837890625
1772882705670652200,8.868652099609376,-0.6243133544921875,0.7464752197265625,0.1776275634765625
1772882705680584200,8.878584228515624,-0.622802734375,0.744659423828125,0.18798828125
1772882705690517200,8.888517333984375,-0.6211395263671875,0.7458343505859375,0.1906585693359375
1772882705700450300,8.8984501953125,-0.62188720703125,0.7472076416015625,0.191650390625
1772882705710382300,8.90838232421875,-0.6271209716796875,0.7498016357421875,0.18408203125
1772882705720315100,8.918315185546875,-0.6322021484375,0.7552642822265625,0.177215576171875
1772882705730247200,8.9282470703125,-0.6373138427734375,0.759979248046875,0.1727142333984375
1772882705740180200,8.93818017578125,-0.642578125,0.75909423828125,0.170989990234375
1772882705750112300,8.9481123046875,-0.64239501953125,0.7565460205078125,0.1730499267578125
1772882705760045300,8.95804541015625,-0.63739013671875,0.7547149658203125,0.1747283935546875
1772882705769977000,8.96797705078125,-0.6304168701171875,0.7549591064453125,0.174774169921875
1772882705779910100,8.97791015625,-0.6258392333984375,0.7504730224609375,0.1733551025390625
1772882705789842200,8.98784228515625,-0.623199462890625,0.7499542236328125,0.1731414794921875
1772882705799775200,8.997775146484376,-0.6253814697265625,0.7494659423828125,0.1788482666015625
1772882705809707300,9.007707275390626,-0.627960205078125,0.7464599609375,0.176666259765625
1772882705819640000,9.01764013671875,-0.6346893310546875,0.7473602294921875,0.1777801513671875
1772882705829572000,9.027572021484374,-0.6366119384765625,0.75048828125,0.1797943115234375
1772882705839505200,9.037505126953125,-0.634765625,0.7553863525390625,0.1785736083984375
1772882705849437200,9.047437255859375,-0.6301727294921875,0.7566680908203125,0.174530029296875
1772882705859370200,9.057370361328125,-0.6289215087890625,0.7561492919921875,0.174896240234375
1772882705869302300,9.06730224609375,-0.6280517578125,0.752288818359375,0.1775360107421875
1772882705879235300,9.0772353515625,-0.6287689208984375,0.7524261474609375,0.1785736083984375
1772882705889167400,9.08716748046875,-0.630218505859375,0.749359130859375,0.1804046630859375
1772882705899100400,9.097100341796875,-0.6343994140625,0.747161865234375,0.18267822265625
1772882705909032200,9.1070322265625,-0.6362457275390625,0.7475433349609375,0.1795806884765625
1772882705918965000,9.116965087890625,-0.6343994140625,0.750152587890625,0.1752166748046875
1772882705928897000,9.12689697265625,-0.6309051513671875,0.7529754638671875,0.1696014404296875
1772882705938831400,9.136831298828126,-0.629486083984375,0.75213623046875,0.16534423828125
1772882705948763400,9.146763427734374,-0.629150390625,0.7518157958984375,0.169891357421875
1772882705958696400,9.156696533203124,-0.630096435546875,0.749969482421875,0.1724853515625
1772882705968628500,9.16662841796875,-0.631011962890625,0.7478485107421875,0.173583984375
1772882705978561300,9.176561279296875,-0.6320037841796875,0.7468109130859375,0.177154541015625
1772882705988493300,9.186493408203125,-0.629852294921875,0.7490081787109375,0.17822265625
1772882705998426400,9.19642626953125,-0.626495361328125,0.7484893798828125,0.1785125732421875
1772882706008358100,9.206358154296876,-0.63031005859375,0.7475738525390625,0.1829986572265625
1772882706018291200,9.216291259765624,-0.6350555419921875,0.7512054443359375,0.189208984375
1772882706028223200,9.22622314453125,-0.64013671875,0.753143310546875,0.18878173828125
1772882706038156300,9.23615625,-0.640899658203125,0.755126953125,0.1815643310546875
1772882706048088300,9.24608837890625,-0.640777587890625,0.757476806640625,0.1785888671875
1772882706058021400,9.256021484375,-0.6351470947265625,0.7578582763671875,0.1732177734375
1772882706067953400,9.265953369140625,-0.63031005859375,0.7550048828125,0.172607421875
1772882706077886500,9.275886474609376,-0.63079833984375,0.75079345703125,0.1735687255859375
1772882706087818500,9.285818603515626,-0.632476806640625,0.747772216796875,0.1777496337890625
1772882706097751300,9.295751220703124,-0.63165283203125,0.7449798583984375,0.1806640625
1772882706107684400,9.305684326171875,-0.627105712890625,0.7444000244140625,0.1827239990234375
1772882706117616400,9.315616455078125,-0.628173828125,0.743927001953125,0.17974853515625
1772882706127549400,9.325549560546875,-0.6292877197265625,0.7460784912109375,0.1750946044921875
1772882706137481200,9.335481201171875,-0.63446044921875,0.74945068359375,0.1754608154296875
1772882706147414300,9.345414306640626,-0.638580322265625,0.7504730224609375,0.1728057861328125
1772882706157346300,9.35534619140625,-0.6370391845703125,0.7538299560546875,0.172149658203125
1772882706167279400,9.365279296875,-0.6321868896484375,0.756744384765625,0.1749725341796875
1772882706177211400,9.37521142578125,-0.6282501220703125,0.7520294189453125,0.1756439208984375
1772882706187144200,9.385144287109375,-0.63165283203125,0.7494659423828125,0.1789703369140625
1772882706197076200,9.395076171875,-0.6347198486328125,0.7490234375,0.1839752197265625
1772882706207009300,9.40500927734375,-0.6361083984375,0.74798583984375,0.1851043701171875
1772882706216941300,9.41494140625,-0.6369171142578125,0.7485809326171875,0.1807098388671875
1772882706226874400,9.424874267578126,-0.6371307373046875,0.7507781982421875,0.1736602783203125
1772882706236806400,9.434806396484374,-0.6343994140625,0.750396728515625,0.169097900390625
1772882706246739500,9.444739501953125,-0.633148193359375,0.748291015625,0.170318603515625
1772882706256671500,9.45467138671875,-0.6305389404296875,0.747467041015625,0.18011474609375
1772882706266604500,9.4646044921875,-0.6251068115234375,0.7476806640625,0.184478759765625
1772882706276536300,9.474536376953125,-0.62554931640625,0.7483367919921875,0.183807373046875
1772882706286469000,9.48446923828125,-0.6265411376953125,0.7517242431640625,0.181884765625
1772882706296401200,9.494401123046876,-0.632659912109375,0.75225830078125,0.176116943359375
1772882706306334200,9.504334228515624,-0.6370849609375,0.754058837890625,0.1729736328125
1772882706316266200,9.514266357421874,-0.6410675048828125,0.75140380859375,0.169281005859375
1772882706326199300,9.52419921875,-0.6443328857421875,0.75042724609375,0.1681671142578125
1772882706336131300,9.53413134765625,-0.6436309814453125,0.75042724609375,0.169921875
1772882706346064400,9.544064453125,-0.6412811279296875,0.74822998046875,0.1711273193359375
1772882706355996400,9.553996337890625,-0.635498046875,0.7482147216796875,0.17694091796875
1772882706365929500,9.563929443359376,-0.6304473876953125,0.7488250732421875,0.1790008544921875
1772882706375861500,9.573861572265624,-0.6211700439453125,0.7502593994140625,0.178741455078125
1772882706385794300,9.583794189453124,-0.6148223876953125,0.7550811767578125,0.1760406494140625
1772882706395726000,9.59372607421875,-0.616485595703125,0.7558746337890625,0.179046630859375
1772882706405659400,9.603659423828125,-0.6241607666015625,0.7549285888671875,0.1855010986328125
1772882706415591200,9.613591064453125,-0.6366729736328125,0.75372314453125,0.1916351318359375
1772882706425524200,9.623524169921875,-0.64105224609375,0.7503509521484375,0.1934051513671875
1772882706435456300,9.633456298828126,-0.644378662109375,0.750091552734375,0.1905975341796875
1772882706445389300,9.643389404296874,-0.6426544189453125,0.7468414306640625,0.1817169189453125
1772882706455321300,9.6533212890625,-0.6374969482421875,0.7476043701171875,0.1759490966796875
1772882706465254400,9.66325439453125,-0.628753662109375,0.74957275390625,0.1673583984375
1772882706475186400,9.6731865234375,-0.62042236328125,0.7512054443359375,0.1610870361328125
1772882706485119200,9.683119140625,-0.621429443359375,0.74993896484375,0.1641387939453125
1772882706495051300,9.69305126953125,-0.631011962890625,0.7518463134765625,0.174163818359375
1772882706504984300,9.702984375,-0.634765625,0.7503814697265625,0.17779541015625
1772882706514916400,9.712916259765626,-0.634002685546875,0.7454071044921875,0.1784820556640625
1772882706524849400,9.722849365234374,-0.630340576171875,0.747344970703125,0.1787872314453125
1772882706534782500,9.732782470703125,-0.629119873046875,0.7486114501953125,0.175628662109375
1772882706544714200,9.74271435546875,-0.6339874267578125,0.752532958984375,0.1765289306640625
1772882706554647300,9.752647216796875,-0.641632080078125,0.7544708251953125,0.178436279296875
1772882706564579300,9.762579345703125,-0.6456756591796875,0.7570648193359375,0.1779022216796875
1772882706574512000,9.77251220703125,-0.6404876708984375,0.754608154296875,0.17645263671875
1772882706584444200,9.782444091796876,-0.63470458984375,0.752838134765625,0.1774139404296875
1772882706594377200,9.792377197265624,-0.626373291015625,0.7471923828125,0.177032470703125
1772882706604309200,9.802309326171875,-0.6240234375,0.7444305419921875,0.1772613525390625
1772882706614242300,9.8122421875,-0.623138427734375,0.745147705078125,0.1765289306640625
1772882706624174300,9.82217431640625,-0.6262359619140625,0.7465972900390625,0.1746978759765625
1772882706634107400,9.832107421875,-0.631561279296875,0.7475433349609375,0.1739654541015625
1772882706644039400,9.842039306640626,-0.6385955810546875,0.747955322265625,0.173309326171875
1772882706653972500,9.851972412109374,-0.6432952880859375,0.74932861328125,0.1713104248046875
1772882706663904500,9.861904541015624,-0.6431427001953125,0.75,0.173614501953125
1772882706673837300,9.87183740234375,-0.6376800537109375,0.7479400634765625,0.174530029296875
1772882706683769300,9.881769287109375,-0.6308135986328125,0.7501220703125,0.171966552734375
1772882706693702100,9.8917021484375,-0.62774658203125,0.75048828125,0.1732330322265625
1772882706703634200,9.90163427734375,-0.6295166015625,0.7523956298828125,0.174072265625
1772882706713567200,9.911567138671876,-0.630767822265625,0.7523651123046875,0.1771240234375
1772882706723499300,9.921499267578126,-0.633331298828125,0.7499542236328125,0.1791229248046875
1772882706733432300,9.931432373046874,-0.6342010498046875,0.7498016357421875,0.181396484375
1772882706743364400,9.9413642578125,-0.6324310302734375,0.7514190673828125,0.177032470703125
1772882706753297400,9.95129736328125,-0.6299896240234375,0.7534637451171875,0.1747283935546875
1772882706763229400,9.9612294921875,-0.62664794921875,0.7501373291015625,0.179168701171875
1772882706773162200,9.971162353515625,-0.623321533203125,0.7511444091796875,0.1850128173828125
1772882706783094500,9.981094482421875,-0.62689208984375,0.75018310546875,0.1851348876953125
1772882706793027300,9.99102734375,-0.6328887939453125,0.748565673828125,0.1856842041015625
1772882706802959400,10.00095947265625,-0.63671875,0.7507476806640625,0.1838836669921875
1772882706812892400,10.010892333984375,-0.6373138427734375,0.7509002685546875,0.17681884765625
1772882706822824200,10.02082421875,-0.6350250244140625,0.750732421875,0.17156982421875
1772882706832757200,10.03075732421875,-0.63018798828125,0.7486114501953125,0.167022705078125
1772882706842689300,10.040689208984375,-0.6292266845703125,0.7504119873046875,0.16986083984375
1772882706852622300,10.050622314453125,-0.6319580078125,0.748931884765625,0.175201416015625
1772882706862554400,10.060554443359376,-0.6371002197265625,0.750946044921875,0.1823272705078125
1772882706872487400,10.0704873046875,-0.638824462890625,0.753204345703125,0.181365966796875
1772882706882419500,10.08041943359375,-0.638702392578125,0.7528228759765625,0.17913818359375
1772882706892352300,10.090352294921875,-0.6373443603515625,0.7529296875,0.1739501953125
1772882706902284300,10.1002841796875,-0.6313934326171875,0.754974365234375,0.1720428466796875
1772882706912217300,10.11021728515625,-0.6308746337890625,0.7520599365234375,0.173004150390625
1772882706922149400,10.1201494140625,-0.6283416748046875,0.750213623046875,0.1735382080078125
1772882706932082400,10.13008251953125,-0.6290130615234375,0.744781494140625,0.17913818359375
1772882706942014500,10.140014404296876,-0.629638671875,0.7440948486328125,0.17816162109375
1772882706951947500,10.149947509765624,-0.6311798095703125,0.743896484375,0.179901123046875
1772882706961880300,10.15988037109375,-0.6298980712890625,0.7463226318359375,0.181243896484375
1772882706971812600,10.1698125,-0.6313629150390625,0.7463531494140625,0.17816162109375
1772882706981745400,10.179745361328125,-0.631805419921875,0.7490081787109375,0.1742095947265625
1772882706991677400,10.189677490234375,-0.63592529296875,0.754608154296875,0.1705169677734375
1772882707001610500,10.199610595703126,-0.6450042724609375,0.7575836181640625,0.1669769287109375
1772882707011542500,10.20954248046875,-0.6541290283203125,0.7570343017578125,0.1667938232421875
1772882707021475600,10.2194755859375,-0.6575164794921875,0.75091552734375,0.1733856201171875
1772882707031407600,10.22940771484375,-0.65252685546875,0.7472991943359375,0.1739349365234375
1772882707041340700,10.239340576171875,-0.6426544189453125,0.7426605224609375,0.1710357666015625
1772882707051272700,10.249272705078125,-0.6306915283203125,0.7428741455078125,0.172760009765625
1772882707061205500,10.25920556640625,-0.6214752197265625,0.74224853515625,0.17791748046875
1772882707071137500,10.269137451171876,-0.6195220947265625,0.744537353515625,0.1804962158203125
1772882707081070300,10.2790703125,-0.625640869140625,0.7474212646484375,0.186370849609375
1772882707091002400,10.28900244140625,-0.6331329345703125,0.747344970703125,0.1847686767578125
1772882707100935400,10.298935302734375,-0.628753662109375,0.7483673095703125,0.1845550537109375
1772882707110867500,10.308867431640625,-0.6258544921875,0.7504119873046875,0.1856536865234375
