time,seconds_elapsed,z,y,x
1772882696871675100,0.069675048828125,0.055312030017375946,-0.06674785166978836,-0.08845040202140808
1772882696881608200,0.079608154296875,0.05675514414906502,-0.06708552688360214,-0.11554640531539917
1772882696891540200,0.089540283203125,0.046997055411338806,-0.08874208480119705,-0.10692575573921204
1772882696901473300,0.099473388671875,0.048337794840335846,-0.08136462420225143,-0.11988959461450577
1772882696911405300,0.1094052734375,0.032634198665618896,-0.09543650597333908,-0.12873288989067078
1772882696921337600,0.119337646484375,0.015794767066836357,-0.08486934751272202,-0.10649256408214569
1772882696931269600,0.12926953125,-0.006549420766532421,-0.07529181987047195,-0.10983536392450333
1772882696941202700,0.13920263671875,-0.033486708998680115,-0.09804881364107132,-0.10306406021118164
1772882696951134500,0.149134521484375,-0.036622580140829086,-0.15230166912078857,-0.10587209463119507
1772882696961067500,0.159067626953125,-0.03061683475971222,-0.16388024389743805,-0.1184871643781662
1772882696971000300,0.169000244140625,-0.022938938811421394,-0.13708831369876862,-0.12984155118465424
1772882696980932400,0.178932373046875,-0.02436910942196846,-0.07177837193012238,-0.11947362869977951
1772882696990865400,0.188865478515625,-0.0336851142346859,0.011191610246896744,-0.09081428498029709
1772882697000797400,0.19879736328125,-0.0530242957174778,0.0838799998164177,-0.08793028444051743
1772882697010730500,0.20873046875,-0.08122503757476807,0.1417747288942337,-0.1301533579826355
1772882697020662500,0.21866259765625,-0.088601253926754,0.16032183170318604,-0.17354290187358856
1772882697030595600,0.228595703125,-0.024362878873944283,0.0885792151093483,-0.2226390689611435
1772882697040527600,0.238527587890625,0.0828937515616417,-0.007289410103112459,-0.314936101436615
1772882697050460700,0.248460693359375,0.1637105643749237,-0.05146672576665878,-0.3991103768348694
1772882697060392700,0.258392822265625,0.2050238698720932,-0.03155025839805603,-0.4079682528972626
1772882697070325500,0.268325439453125,0.1996687948703766,0.03765730932354927,-0.3717191815376282
1772882697080258600,0.278258544921875,0.16399648785591125,0.13527725636959076,-0.296749085187912
1772882697090190600,0.288190673828125,0.1049392968416214,0.21354995667934418,-0.19885848462581635
1772882697100123600,0.29812353515625,0.06512204557657242,0.26349887251853943,-0.11761805415153503
1772882697110055400,0.308055419921875,0.04594888910651207,0.29470258951187134,-0.09689679741859436
1772882697119988500,0.317988525390625,0.06077832728624344,0.2762291431427002,-0.14773061871528625
1772882697129920500,0.32792041015625,0.1019100546836853,0.1991676241159439,-0.3136468827724457
1772882697139853600,0.337853515625,0.1493193805217743,0.08735433220863342,-0.5421928763389587
1772882697149785600,0.34778564453125,0.17382152378559113,-0.0015763374976813793,-0.728742241859436
1772882697159718400,0.357718505859375,0.17928020656108856,-0.15521763265132904,-0.9274432063102722
1772882697169650400,0.367650390625,0.15549683570861816,-0.3680470585823059,-1.0542123317718506
1772882697179583500,0.37758349609375,0.09586654603481293,-0.5004528760910034,-1.005200982093811
1772882697189516500,0.3875166015625,0.0754222571849823,-0.5790547132492065,-0.8701075315475464
1772882697199448600,0.397448486328125,0.06234527751803398,-0.588097870349884,-0.6893413662910461
1772882697209381600,0.407381591796875,0.035284098237752914,-0.5384005904197693,-0.5102595090866089
1772882697219313700,0.417313720703125,-0.0001886200625449419,-0.4629325568675995,-0.38130447268486023
1772882697229246700,0.427246826171875,-0.03833360970020294,-0.39802253246307373,-0.29135754704475403
1772882697239178500,0.437178466796875,-0.07748761773109436,-0.3214326500892639,-0.21113136410713196
1772882697249111300,0.447111328125,-0.10748253017663956,-0.25113531947135925,-0.15038704872131348
1772882697259043300,0.457043212890625,-0.13901227712631226,-0.18033406138420105,-0.05470925197005272
1772882697268976400,0.466976318359375,-0.16652698814868927,-0.1129038855433464,0.059994425624608994
1772882697278908400,0.476908447265625,-0.19165994226932526,-0.054639894515275955,0.16247762739658356
1772882697288841500,0.486841552734375,-0.20913374423980713,-0.010730229318141937,0.2416723221540451
1772882697298774500,0.4967744140625,-0.2287152111530304,0.020224284380674362,0.2828591763973236
1772882697308706600,0.50670654296875,-0.23779979348182678,0.02430424652993679,0.3033343553543091
1772882697318639600,0.5166396484375,-0.2384602129459381,0.0077359676361083984,0.31082937121391296
1772882697328571600,0.526571533203125,-0.23394881188869476,-0.012823102995753288,0.29631298780441284
1772882697338504400,0.53650439453125,-0.22391124069690704,-0.010950339026749134,0.2633718252182007
1772882697348436500,0.5464365234375,-0.20947371423244476,-0.01101425476372242,0.22020810842514038
1772882697358369500,0.55636962890625,-0.19515161216259003,-0.0050598857924342155,0.15924124419689178
1772882697368301600,0.566301513671875,-0.1853375881910324,-0.011479435488581657,0.08448977023363113
1772882697378234600,0.576234619140625,-0.1788540780544281,0.00006785057485103607,0.004768070299178362
1772882697388167700,0.586167724609375,-0.1566755324602127,0.04336845129728317,-0.08167201280593872
1772882697398099500,0.596099365234375,-0.14339521527290344,0.0957379937171936,-0.1732797920703888
1772882697408032500,0.606032470703125,-0.12469076365232468,0.15394484996795654,-0.22905944287776947
1772882697417964500,0.615964599609375,-0.09756022691726685,0.2094254344701767,-0.21810239553451538
1772882697427897300,0.6258974609375,-0.055394139140844345,0.22519907355308533,-0.1707167625427246
1772882697437829400,0.635829345703125,-0.0014889886369928718,0.23383520543575287,-0.08435577154159546
1772882697447762400,0.645762451171875,0.04571501165628433,0.23055870831012726,-0.018445458263158798
1772882697457694500,0.655694580078125,0.08012378960847855,0.203535258769989,-0.0006304151029326022
1772882697467627500,0.66562744140625,0.10985638946294785,0.155979186296463,0.02173001691699028
1772882697477559600,0.6755595703125,0.1657416969537735,0.12003025412559509,0.040847040712833405
1772882697487492600,0.68549267578125,0.23488135635852814,0.08367331326007843,0.019065042957663536
1772882697497425700,0.69542578125,0.2923642098903656,0.06166248023509979,-0.0368206612765789
1772882697507357700,0.705357666015625,0.3080768585205078,0.04799113795161247,-0.12017893046140671
1772882697517290500,0.71529052734375,0.28612110018730164,0.054631274193525314,-0.21874086558818817
1772882697527222500,0.725222412109375,0.2488909214735031,0.044039350003004074,-0.3012751638889313
1772882697537155600,0.735155517578125,0.1872462034225464,0.0016583353281021118,-0.3620207905769348
1772882697547087400,0.74508740234375,0.11960456520318985,-0.06377899646759033,-0.3742058277130127
1772882697557020400,0.7550205078125,0.04073484614491463,-0.11693494766950607,-0.3447778820991516
1772882697566952400,0.764952392578125,-0.028848227113485336,-0.14403501152992249,-0.2827257215976715
1772882697576885500,0.774885498046875,-0.07947497814893723,-0.14349466562271118,-0.2141944169998169
1772882697586817500,0.784817626953125,-0.1082586869597435,-0.12982678413391113,-0.1619192212820053
1772882697596750600,0.79475048828125,-0.11694085597991943,-0.12266159057617188,-0.12261546403169632
1772882697606683400,0.804683349609375,-0.10020475089550018,-0.09329864382743835,-0.09725285321474075
1772882697616615400,0.814615478515625,-0.06371433287858963,-0.07129865139722824,-0.08576411008834839
1772882697626548500,0.824548583984375,-0.00841485895216465,-0.06755637377500534,-0.081572026014328
1772882697636480500,0.83448046875,0.04140915721654892,-0.07698626071214676,-0.06160463020205498
1772882697646413600,0.84441357421875,0.08585305511951447,-0.0831565335392952,-0.03256046026945114
1772882697656345600,0.854345703125,0.12184946238994598,-0.08817729353904724,-0.008159610442817211
1772882697666278700,0.864278564453125,0.14654548466205597,-0.08982125669717789,0.010765344835817814
1772882697676210700,0.874210693359375,0.17272327840328217,-0.09149405360221863,0.0220439862459898
1772882697686143700,0.884143798828125,0.20263244211673737,-0.08653684705495834,0.012644360773265362
1772882697696075500,0.894075439453125,0.2287263125181198,-0.048492610454559326,-0.0006445738836191595
1772882697706008300,0.90400830078125,0.2388995885848999,0.03640177473425865,-0.034019578248262405
1772882697715941400,0.91394140625,0.2420060634613037,0.15844790637493134,-0.061419203877449036
1772882697725873400,0.923873291015625,0.24860325455665588,0.2999853193759918,-0.0694212093949318
1772882697735806500,0.933806396484375,0.25400248169898987,0.41270139813423157,-0.04642590135335922
1772882697745738500,0.943738525390625,0.26616406440734863,0.44382521510124207,0.0010590592864900827
1772882697755671600,0.953671630859375,0.27149927616119385,0.4046381115913391,0.06557749956846237
1772882697765603600,0.963603515625,0.26203176379203796,0.3373914361000061,0.11241770535707474
1772882697775536600,0.97353662109375,0.24158629775047302,0.26962780952453613,0.11427018791437149
1772882697785468700,0.98346875,0.21900561451911926,0.22335591912269592,0.0507332943379879
1772882697795401500,0.9934013671875,0.2184639871120453,0.19142529368400574,-0.05163315311074257
1772882697805333500,1.00333349609375,0.22645720839500427,0.15119852125644684,-0.15567061305046082
1772882697815266600,1.0132666015625,0.2554466724395752,0.09916181862354279,-0.23961405456066132
1772882697825198600,1.023198486328125,0.2849257290363312,0.0396454893052578,-0.3003740906715393
1772882697835131600,1.033131591796875,0.29099857807159424,-0.019208624958992004,-0.3243780732154846
1772882697845064700,1.043064697265625,0.3206462264060974,-0.10658907145261765,-0.36607626080513
1772882697854996500,1.05299658203125,0.3413050174713135,-0.1829967349767685,-0.40117406845092773
1772882697864929500,1.062929443359375,0.3542546331882477,-0.25117579102516174,-0.4266924560070038
1772882697874861600,1.072861572265625,0.3618740439414978,-0.30597999691963196,-0.44869184494018555
1772882697884794400,1.08279443359375,0.36183568835258484,-0.34603554010391235,-0.45206817984580994
1772882697894726400,1.092726318359375,0.36172014474868774,-0.37129727005958557,-0.42636579275131226
1772882697904659500,1.102659423828125,0.3570585548877716,-0.36142173409461975,-0.3889875113964081
1772882697914591500,1.112591552734375,0.3680805563926697,-0.32572466135025024,-0.33215564489364624
1772882697924524500,1.122524658203125,0.38506752252578735,-0.2886497378349304,-0.26705119013786316
1772882697934456600,1.13245654296875,0.39569196105003357,-0.25378358364105225,-0.1841682344675064
1772882697944389600,1.1423896484375,0.3955060839653015,-0.20223410427570343,-0.08212443441152573
1772882697954322700,1.15232275390625,0.3853610157966614,-0.16190041601657867,0.014644316397607327
1772882697964254700,1.162254638671875,0.3691956102848053,-0.12937521934509277,0.08287316560745239
1772882697974187500,1.1721875,0.345180869102478,-0.10924497991800308,0.11864100396633148
1772882697984119600,1.18211962890625,0.32794302701950073,-0.08072119206190109,0.1118861585855484
1772882697994052600,1.192052490234375,0.31127873063087463,-0.03988320380449295,0.08263050019741058
1772882698003984600,1.201984619140625,0.3019091784954071,-0.03651164099574089,0.018952718004584312
1772882698013917700,1.211917724609375,0.29827210307121277,-0.06053175777196884,-0.034594129770994186
1772882698023849700,1.221849609375,0.2811024487018585,-0.10485794395208359,-0.09793022274971008
1772882698033782800,1.23178271484375,0.24811716377735138,-0.13771599531173706,-0.1583927571773529
1772882698043714800,1.24171484375,0.1968151032924652,-0.13889656960964203,-0.20104354619979858
1772882698053648000,1.25164794921875,0.14020822942256927,-0.14838697016239166,-0.24109694361686707
1772882698063580700,1.26158056640625,0.08447492122650146,-0.18175530433654785,-0.2653578221797943
1772882698073512400,1.271512451171875,0.05062805861234665,-0.22186031937599182,-0.2586519122123718
1772882698083445500,1.281445556640625,0.04803893342614174,-0.2429208755493164,-0.22157032787799835
1772882698093377500,1.29137744140625,0.08707171678543091,-0.23704980313777924,-0.1538403481245041
1772882698103310600,1.301310546875,0.1639619767665863,-0.2182244509458542,-0.05923156440258026
1772882698113242600,1.31124267578125,0.2429024875164032,-0.20380213856697083,0.05482495576143265
1772882698123175700,1.32117578125,0.2985564172267914,-0.1678646355867386,0.17541688680648804
1772882698133107700,1.331107666015625,0.322240948677063,-0.12208537012338638,0.2665460407733917
1772882698143040800,1.341040771484375,0.31486716866493225,-0.08813326060771942,0.32815638184547424
1772882698152972800,1.350972900390625,0.2842617630958557,-0.052663080394268036,0.3553619682788849
1772882698162905600,1.360905517578125,0.23666706681251526,0.0034723621793091297,0.3449111878871918
1772882698172838700,1.370838623046875,0.17386600375175476,0.05245450884103775,0.29919034242630005
1772882698182770700,1.380770751953125,0.13278993964195251,0.06505392491817474,0.24183809757232666
1772882698192703700,1.390703857421875,0.08794710040092468,0.034237463027238846,0.16797104477882385
1772882698202635800,1.4006357421875,0.05661660432815552,-0.012612598016858101,0.10309803485870361
1772882698212568800,1.41056884765625,0.03297620266675949,-0.05435093492269516,0.022375240921974182
1772882698222500600,1.42050048828125,0.01094546914100647,-0.0833602100610733,-0.05159245803952217
1772882698232433700,1.43043359375,0.01330950390547514,-0.08870835602283478,-0.09582538902759552
1772882698242365700,1.44036572265625,0.03061365894973278,-0.10017885267734528,-0.1170869991183281
1772882698252298500,1.450298583984375,0.0535462461411953,-0.10661376267671585,-0.13116486370563507
1772882698262230500,1.46023046875,0.06678055971860886,-0.09045423567295074,-0.13111107051372528
1772882698272163600,1.47016357421875,0.057697951793670654,-0.03664114326238632,-0.13173645734786987
1772882698282096600,1.4800966796875,0.0407613143324852,-0.012521427124738693,-0.13776080310344696
1772882698292028700,1.490028564453125,0.017887799069285393,-0.03349059820175171,-0.13810940086841583
1772882698301961700,1.499961669921875,0.00655737891793251,-0.0758202075958252,-0.12159194052219391
1772882698311893800,1.509893798828125,-0.0012069068616256118,-0.11110872030258179,-0.10233329981565475
1772882698321826800,1.519826904296875,0.009235082194209099,-0.14150124788284302,-0.08123093843460083
1772882698331758800,1.5297587890625,0.030994171276688576,-0.15379205346107483,-0.052428968250751495
1772882698341691600,1.539691650390625,0.054702162742614746,-0.1441817730665207,-0.04221681132912636
1772882698351623700,1.549623779296875,0.07487054914236069,-0.13336259126663208,-0.04254696145653725
1772882698361556700,1.559556640625,0.08576527237892151,-0.09524582326412201,-0.04336481913924217
1772882698371488500,1.569488525390625,0.09767450392246246,-0.032876309007406235,-0.050034210085868835
1772882698381421600,1.579421630859375,0.10548209398984909,0.04158913716673851,-0.06184985861182213
1772882698391353600,1.589353515625,0.0986766517162323,0.10617435723543167,-0.08087539672851562
1772882698401286700,1.59928662109375,0.09425819665193558,0.14134246110916138,-0.07401829212903976
1772882698411219700,1.6092197265625,0.07633230835199356,0.1488487720489502,-0.034540995955467224
1772882698421151700,1.61915185546875,0.071920245885849,0.12536129355430603,0.02536894381046295
1772882698431084500,1.62908447265625,0.0684073194861412,0.08929824829101562,0.07695157825946808
1772882698441016600,1.6390166015625,0.04733159765601158,0.07246574014425278,0.12874527275562286
1772882698450949600,1.64894970703125,0.022036736831068993,0.05760382488369942,0.1753634661436081
1772882698460881700,1.658881591796875,-0.0021016232203692198,0.02838762290775776,0.208565354347229
1772882698470814700,1.668814697265625,-0.024194302037358284,-0.004435912240296602,0.23130708932876587
1772882698480746800,1.678746826171875,-0.034368645399808884,-0.01788727194070816,0.23602114617824554
1772882698490679800,1.6886796875,-0.04668022319674492,0.0098359864205122,0.21366183459758759
1772882698500611600,1.698611572265625,-0.05069786682724953,0.0689387246966362,0.16383782029151917
1772882698510544600,1.708544677734375,-0.04930732399225235,0.13064584136009216,0.09145721048116684
1772882698520476700,1.7184765625,-0.04096417501568794,0.15611499547958374,0.009760483168065548
1772882698530409500,1.728409423828125,-0.03928893804550171,0.1418333351612091,-0.039505213499069214
1772882698540342500,1.738342529296875,-0.0422852598130703,0.09949494898319244,-0.060509297996759415
1772882698550274600,1.748274658203125,-0.05117899551987648,0.05585789680480957,-0.06415608525276184
1772882698560207600,1.75820751953125,-0.06722480058670044,0.0049494425766170025,-0.07000784575939178
1772882698570139600,1.7681396484375,-0.06982623785734177,-0.04060280695557594,-0.07825563848018646
1772882698580072700,1.77807275390625,-0.06004897505044937,-0.07464147359132767,-0.08268500864505768
1772882698590004700,1.788004638671875,-0.05417872592806816,-0.08229856193065643,-0.08389008045196533
1772882698599937800,1.797937744140625,-0.05340907350182533,-0.08670102804899216,-0.08472045511007309
1772882698609869800,1.807869873046875,-0.060074806213378906,-0.06891999393701553,-0.0956408679485321
1772882698619802600,1.817802734375,-0.06188096106052399,-0.02461005561053753,-0.11696373671293259
1772882698629734700,1.827734619140625,-0.04634897783398628,0.015776552259922028,-0.138955220580101
1772882698639667700,1.837667724609375,-0.02845892682671547,0.029158402234315872,-0.1356355845928192
1772882698649599500,1.847599609375,-0.0023551026824861765,0.02463916689157486,-0.10711299628019333
1772882698659532500,1.857532470703125,0.010457632131874561,0.00802823156118393,-0.0781407356262207
1772882698669465600,1.867465576171875,0.010653959587216377,-0.007622752338647842,-0.06378695368766785
1772882698679397600,1.877397705078125,-0.001281795441173017,-0.02163763716816902,-0.06765572726726532
1772882698689330700,1.88733056640625,-0.016664374619722366,-0.030080465599894524,-0.0777883306145668
1772882698699262700,1.8972626953125,-0.0401981957256794,-0.022072605788707733,-0.09163090586662292
1772882698709195500,1.907195556640625,-0.06304944306612015,-0.012099005281925201,-0.09605830162763596
1772882698719127600,1.91712744140625,-0.09022168070077896,0.009825735352933407,-0.09699013829231262
1772882698729060600,1.927060546875,-0.10900858044624329,0.02941511571407318,-0.08668540418148041
1772882698738992600,1.93699267578125,-0.11691257357597351,0.044586874544620514,-0.08440760523080826
1772882698748925700,1.94692578125,-0.11734171211719513,0.056559618562459946,-0.08194205909967422
1772882698758857700,1.956857666015625,-0.11881470680236816,0.06503806263208389,-0.08027971535921097
1772882698768790800,1.966790771484375,-0.11648683995008469,0.08199993520975113,-0.06862103193998337
1772882698778722800,1.976722900390625,-0.09507954865694046,0.07201947271823883,-0.052502524107694626
1772882698788655900,1.98665576171875,-0.06066511943936348,0.04146525636315346,-0.028526315465569496
1772882698798588700,1.996588623046875,-0.019594384357333183,0.0038110874593257904,-0.010010420344769955
1772882698808520400,2.0065205078125,0.02526688389480114,-0.03559109568595886,0.010397940874099731
1772882698818453500,2.01645361328125,0.04929126054048538,-0.07365352660417557,0.017753325402736664
1772882698828385500,2.026385498046875,0.06421273946762085,-0.09273193031549454,0.02539604716002941
1772882698838318600,2.036318603515625,0.06310805678367615,-0.09086212515830994,0.020260408520698547
1772882698848250600,2.046250732421875,0.060546524822711945,-0.07398639619350433,0.02327038161456585
1772882698858183700,2.05618359375,0.05276210606098175,-0.06343948841094971,0.03459946811199188
1772882698868115700,2.06611572265625,0.043334782123565674,-0.04747217521071434,0.055773306638002396
1772882698878048800,2.076048828125,0.04396701604127884,-0.03724031150341034,0.06346824765205383
1772882698887980800,2.085980712890625,0.04741207882761955,-0.04033210128545761,0.054851628839969635
1772882698897913600,2.09591357421875,0.046959877014160156,-0.052025772631168365,0.03532693162560463
1772882698907845600,2.105845703125,0.043183088302612305,-0.05516165867447853,0.014064031653106213
1772882698917778700,2.11577880859375,0.02841399423778057,-0.05762268602848053,-0.008988291025161743
1772882698927712000,2.1257119140625,0.011500099673867226,-0.06319888681173325,-0.02762116678059101
1772882698937644000,2.13564404296875,-0.007875729352235794,-0.07539349794387817,-0.038060758262872696
1772882698947577000,2.1455771484375,-0.020991690456867218,-0.08207981288433075,-0.03056224063038826
1772882698957508900,2.1555087890625,-0.024399736896157265,-0.09770164638757706,-0.013136113062500954
1772882698967442000,2.16544189453125,-0.02247491292655468,-0.11180280148983002,0.004003150388598442
1772882698977374000,2.1753740234375,-0.006567051634192467,-0.112177774310112,0.017155438661575317
1772882698987306800,2.185306640625,0.005791826639324427,-0.1029660552740097,0.015659669414162636
1772882698997238800,2.19523876953125,0.019614432007074356,-0.09257599711418152,0.01231660321354866
1772882699007171800,2.205171875,0.023774873465299606,-0.08714886009693146,-0.00006775785004720092
1772882699017104000,2.215103759765625,0.019082916900515556,-0.06104268878698349,0.0003154710284434259
1772882699027037000,2.225036865234375,0.0020766104571521282,-0.049096085131168365,0.007333364337682724
1772882699036969000,2.234968994140625,-0.023364033550024033,-0.03273895010352135,0.013953715562820435
1772882699046902000,2.244902099609375,-0.04523588344454765,0.0018534241244196892,0.009933860041201115
1772882699056834800,2.254834716796875,-0.06143642216920853,0.025135044008493423,0.002340389182791114
1772882699066767000,2.26476708984375,-0.06965968012809753,0.02963852509856224,0.0031504661310464144
1772882699076700000,2.274699951171875,-0.07296305894851685,0.02832185849547386,0.011770320124924183
1772882699086632000,2.2846318359375,-0.07099456340074539,0.0242436695843935,0.015375853516161442
1772882699096565000,2.29456494140625,-0.06801848113536835,0.020785287022590637,0.021138133481144905
1772882699106496800,2.304496826171875,-0.06084680184721947,0.018158860504627228,0.018431510776281357
1772882699116429800,2.314429931640625,-0.054989978671073914,0.023358149453997612,0.01553692203015089
1772882699126361900,2.32436181640625,-0.047939419746398926,0.018197301775217056,0.012921552173793316
1772882699136295000,2.334294921875,-0.04145462065935135,-0.0065772864036262035,0.004605565685778856
1772882699146227000,2.34422705078125,-0.028153304010629654,-0.03751635178923607,-0.001357409986667335
1772882699156160000,2.354159912109375,-0.020405368879437447,-0.04698628559708595,-0.01708710566163063
1772882699166092000,2.364092041015625,-0.01303645595908165,-0.03504255786538124,-0.0441599115729332
1772882699176024800,2.37402490234375,-0.009224407374858856,-0.02475529909133911,-0.06986474245786667
1772882699185958000,2.3839580078125,-0.012614505365490913,-0.02908780239522457,-0.07450509816408157
1772882699195890000,2.393889892578125,-0.016306711360812187,-0.03623705729842186,-0.06827197223901749
1772882699205823000,2.403822998046875,-0.013932077214121819,-0.044755637645721436,-0.05421201139688492
1772882699215755000,2.413755126953125,-0.003452538512647152,-0.04616338387131691,-0.03947647660970688
1772882699225688000,2.42368798828125,0.005581756122410297,-0.038543835282325745,-0.024907173588871956
1772882699235620000,2.4336201171875,0.009464911185204983,-0.03243427723646164,-0.014120838604867458
1772882699245553000,2.443552978515625,0.010693694464862347,-0.035620417445898056,-0.012435478158295155
1772882699255485000,2.45348486328125,0.002977983560413122,-0.029586227610707283,-0.008131276816129684
1772882699265417700,2.463417724609375,-0.011505511589348316,-0.03377322107553482,-0.0138908876106143
1772882699275349800,2.473349853515625,-0.014328195713460445,-0.03906439244747162,-0.022317660972476006
1772882699285282800,2.48328271484375,-0.010649784468114376,-0.007965179160237312,-0.028942402452230453
1772882699295214800,2.49321484375,0.0018718661740422249,0.01323331706225872,-0.03423064202070236
1772882699305148000,2.50314794921875,0.01613501086831093,0.028885457664728165,-0.03690021485090256
1772882699315080000,2.513079833984375,0.02919994667172432,0.04331473261117935,-0.0320841521024704
1772882699325013000,2.523012939453125,0.03167860582470894,0.04898148775100708,-0.023440571501851082
1772882699334945800,2.53294580078125,0.02932943031191826,0.04946218430995941,-0.011585243046283722
1772882699344878000,2.542878173828125,0.033488381654024124,0.04124700650572777,0.007494090590626001
1772882699354811000,2.552810791015625,0.03864160180091858,0.036770764738321304,0.015246818773448467
1772882699364743000,2.562742919921875,0.029971253126859665,0.03320518881082535,0.019380396232008934
1772882699374676000,2.572676025390625,0.015260748565196991,0.025497199967503548,0.020878955721855164
1772882699384607700,2.582607666015625,0.0016771894879639149,0.008121011778712273,0.004950771573930979
1772882699394541000,2.592541015625,-0.003963652066886425,-0.012459897436201572,-0.008536540903151035
1772882699404472800,2.602472900390625,-0.004642704501748085,-0.03908107429742813,-0.028713921085000038
1772882699414406000,2.612406005859375,-0.010217233560979366,-0.03827440366148949,-0.048743024468421936
1772882699424338000,2.622337890625,-0.01377031672745943,-0.026718223467469215,-0.07026276737451553
1772882699434271000,2.63227099609375,-0.004372820258140564,-0.029439441859722137,-0.0750921443104744
1772882699444203000,2.642203125,0.012656870298087597,-0.026968596503138542,-0.0691952034831047
1772882699454135800,2.6521357421875,0.0335826575756073,-0.010783501900732517,-0.05454222857952118
1772882699464067800,2.66206787109375,0.03985866531729698,-0.006422777660191059,-0.034923940896987915
1772882699474001000,2.6720009765625,0.03658643737435341,-0.004298374056816101,-0.01761392503976822
1772882699483934000,2.681933837890625,0.03331202641129494,-0.0011995653621852398,0.003330710344016552
1772882699493866000,2.691865966796875,0.031314924359321594,-0.009098234586417675,0.015441435389220715
1772882699503799000,2.701799072265625,0.03493916615843773,-0.028010185807943344,0.024237530305981636
1772882699513731000,2.71173095703125,0.03987213969230652,-0.03744816035032272,0.026941437274217606
1772882699523664000,2.721663818359375,0.043488554656505585,-0.029144665226340294,0.024435676634311676
1772882699533596000,2.731595947265625,0.048536840826272964,-0.023300359025597572,0.010602951981127262
1772882699543528700,2.74152880859375,0.04328060895204544,-0.021761704236268997,0.006062399595975876
1772882699553460700,2.751460693359375,0.029129905626177788,-0.017764564603567123,0.008608381263911724
1772882699563393800,2.761393798828125,0.016044357791543007,-0.008374553173780441,0.009764186106622219
1772882699573325800,2.771325927734375,0.002064625732600689,-0.005158785730600357,0.009994282387197018
1772882699583259000,2.7812587890625,-0.012622227892279625,0.006678184028714895,0.011187165044248104
1772882699593191000,2.79119091796875,-0.025084756314754486,0.010989576578140259,0.011752021498978138
1772882699603124000,2.8011240234375,-0.031576476991176605,0.010221188887953758,0.016015630215406418
1772882699613057000,2.81105712890625,-0.0368918813765049,0.0004793456755578518,0.02680862322449684
1772882699622989000,2.820989013671875,-0.03513243794441223,0.0022884677164256573,0.035328976809978485
1772882699632921900,2.830921875,-0.02994033880531788,0.002893804106861353,0.03799320384860039
1772882699642854000,2.84085400390625,-0.01626921445131302,0.00395798496901989,0.04090398922562599
1772882699652787000,2.850786865234375,-0.005514037795364857,0.010913895443081856,0.03896147757768631
1772882699662719000,2.860718994140625,-0.0004620748804882169,0.014220429584383965,0.034325119107961655
1772882699672652000,2.870652099609375,0.009719989262521267,0.007629107218235731,0.02973676100373268
1772882699682583800,2.880583740234375,0.010060607455670834,-0.0031704797875136137,0.02488805539906025
1772882699692516900,2.890516845703125,0.011649449355900288,0.0019379961304366589,0.006796136032789946
1772882699702449000,2.900448974609375,0.012762331403791904,0.007634487934410572,-0.006169026717543602
1772882699712382000,2.9103818359375,0.013081111945211887,0.0006735175848007202,-0.015637630596756935
1772882699722314000,2.92031396484375,0.009397800080478191,-0.009013638831675053,-0.013056373223662376
1772882699732246800,2.930246826171875,0.006556473206728697,-0.019904369488358498,-0.006303661968559027
1772882699742178800,2.9401787109375,0.005397412460297346,-0.03927997499704361,-0.004409415647387505
1772882699752111900,2.95011181640625,0.0012474083341658115,-0.0414336733520031,-0.003358799032866955
1772882699762044000,2.9600439453125,-0.0027904766611754894,-0.028010113164782524,-0.01221441850066185
1772882699771977000,2.96997705078125,-0.0021997876465320587,-0.033670395612716675,-0.023191168904304504
1772882699781910000,2.979909912109375,0.008262920193374157,-0.03317519649863243,-0.03150569647550583
1772882699791842000,2.989842041015625,0.013711747713387012,-0.03714516758918762,-0.030979454517364502
1772882699801775000,2.999775146484375,0.023503391072154045,-0.0376560278236866,-0.024112075567245483
1772882699811707100,3.00970703125,0.03105265460908413,-0.03326740488409996,-0.024239374324679375
1772882699821640000,3.019639892578125,0.03131002187728882,-0.03772624582052231,-0.018112916499376297
1772882699831571700,3.02957177734375,0.03096727281808853,-0.03572860732674599,-0.007675455883145332
1772882699841504800,3.0395048828125,0.027014557272195816,-0.04097544774413109,0.009662117809057236
1772882699851436800,3.049436767578125,0.02674291469156742,-0.05519432947039604,0.015380989760160446
1772882699861369900,3.059369873046875,0.020152390003204346,-0.048039112240076065,0.01656990312039852
1772882699871302000,3.069302001953125,0.01482207328081131,-0.027178039774298668,0.009563923813402653
1772882699881235000,3.07923486328125,0.005168966017663479,-0.013217603787779808,0.00487822899594903
1772882699891167000,3.0891669921875,-0.013998868875205517,0.0054679326713085175,0.002927197143435478
1772882699901100000,3.09910009765625,-0.03786148503422737,0.02072151005268097,0.006117021199315786
1772882699911032800,3.10903271484375,-0.05459705367684364,0.03522694855928421,0.015322770923376083
1772882699920964900,3.11896484375,-0.061690595000982285,0.04017368704080582,0.023775478824973106
1772882699930897200,3.128897216796875,-0.060732658952474594,0.04433008283376694,0.03648488223552704
1772882699940829200,3.1388291015625,-0.060905713587999344,0.04490041360259056,0.04171573370695114
1772882699950762200,3.14876220703125,-0.06098853796720505,0.04019354283809662,0.03611776977777481
1772882699960694300,3.1586943359375,-0.06418602913618088,0.02956264466047287,0.019967708736658096
1772882699970627300,3.16862744140625,-0.05877581983804703,0.013001243583858013,-0.0018228088738396764
1772882699980559400,3.178559326171875,-0.04333827644586563,-0.01167251169681549,-0.019101474434137344
1772882699990492400,3.188492431640625,-0.01666565239429474,-0.03298285976052284,-0.036566752940416336
1772882700000424400,3.198424560546875,0.017928384244441986,-0.04253532737493515,-0.05436837673187256
1772882700010357500,3.208357421875,0.04892891272902489,-0.052906740456819534,-0.0723567008972168
1772882700020289300,3.218289306640625,0.07963930815458298,-0.05946054309606552,-0.08328338712453842
1772882700030222000,3.22822216796875,0.10359896719455719,-0.05846371874213219,-0.09081906825304031
1772882700040154000,3.238154052734375,0.11848855018615723,-0.0583503395318985,-0.08972324430942535
1772882700050087200,3.248087158203125,0.11862623691558838,-0.046606600284576416,-0.09293528646230698
1772882700060020200,3.258020263671875,0.11297313868999481,-0.039322156459093094,-0.0837533175945282
1772882700069952300,3.2679521484375,0.10848651081323624,-0.040113646537065506,-0.07269320636987686
1772882700079885300,3.27788525390625,0.0990806519985199,-0.043893396854400635,-0.050112463533878326
1772882700089817300,3.2878173828125,0.08395949006080627,-0.04262493550777435,-0.027739781886339188
1772882700099750400,3.29775048828125,0.0672331377863884,-0.045683134347200394,-0.0037994147278368473
1772882700109682400,3.307682373046875,0.056618839502334595,-0.04024975374341011,0.022001022472977638
1772882700119615200,3.317615234375,0.055734723806381226,-0.03300477936863899,0.032050635665655136
1772882700129547300,3.32754736328125,0.05827990919351578,-0.031229782849550247,0.04201192036271095
1772882700139480300,3.337480224609375,0.06162313371896744,-0.0347130224108696,0.04539242014288902
1772882700149412400,3.347412353515625,0.05830563232302666,-0.04274405166506767,0.04301474988460541
1772882700159345400,3.357345458984375,0.04514797031879425,-0.04388073459267616,0.03898319602012634
1772882700169277200,3.367277099609375,0.03189794346690178,-0.03627394884824753,0.027928678318858147
1772882700179210200,3.377210205078125,0.024390172213315964,-0.031120577827095985,0.007368102669715881
1772882700189142300,3.387142333984375,0.016986317932605743,-0.01567184552550316,-0.011094793677330017
1772882700199075300,3.397075439453125,0.014843165874481201,-0.00416861567646265,-0.017440050840377808
1772882700209007400,3.40700732421875,0.015929467976093292,-0.009081615135073662,-0.019813992083072662
1772882700218940200,3.416940185546875,0.01873026229441166,-0.008333448320627213,-0.006400548852980137
1772882700228873200,3.426873291015625,0.02920021302998066,-0.012236044742166996,0.0192430280148983
1772882700238805200,3.43680517578125,0.04144692048430443,-0.018187401816248894,0.03693835809826851
1772882700248738300,3.44673828125,0.05233711749315262,-0.015488022938370705,0.051830489188432693
1772882700258670300,3.45667041015625,0.06284147500991821,-0.017410878092050552,0.05948386713862419
1772882700268603400,3.466603271484375,0.06068618223071098,-0.01396767795085907,0.05334261432290077
1772882700278535400,3.476535400390625,0.053176864981651306,-0.005162734538316727,0.03775034099817276
1772882700288468500,3.486468505859375,0.0482870377600193,-0.0014414996840059757,0.020707175135612488
1772882700298400300,3.496400146484375,0.038211338222026825,-0.004373613279312849,-0.0012931906385347247
1772882700308333300,3.506333251953125,0.02494293823838234,-0.005828232038766146,-0.014576772227883339
1772882700318265000,3.51626513671875,0.00997080560773611,-0.0058859484270215034,-0.021068423986434937
1772882700328198100,3.5261982421875,0.005939312279224396,0.003826600033789873,-0.023462872952222824
1772882700338130200,3.536130126953125,0.005605725571513176,0.0013443944044411182,-0.015177161432802677
1772882700348063200,3.546063232421875,0.0048525831662118435,0.0015281522646546364,-0.001119665801525116
1772882700357995300,3.555995361328125,0.0020374618470668793,0.0013234484940767288,0.01196989230811596
1772882700367928300,3.56592822265625,-0.0009000049903988838,0.007619427051395178,0.01870342716574669
1772882700377861400,3.575861328125,0.0017683759797364473,0.013089863583445549,0.02222210168838501
1772882700387793400,3.58579345703125,0.0006764798890799284,0.015312271192669868,0.02102341316640377
1772882700397726200,3.595726318359375,-0.0029867514967918396,0.01361013576388359,0.012775695882737637
1772882700407658200,3.605658203125,-0.0067191715352237225,0.017486367374658585,0.004470362327992916
1772882700417591300,3.61559130859375,-0.009978560730814934,0.00892561487853527,-0.002216888125985861
1772882700427523300,3.6255234375,-0.008005424402654171,0.000821349211037159,-0.008333902806043625
1772882700437456400,3.635456298828125,-0.002140611410140991,-0.0038746024947613478,-0.015400866977870464
1772882700447388200,3.64538818359375,0.006495486944913864,-0.0074435044080019,-0.014673024415969849
1772882700457321200,3.6553212890625,0.011009864509105682,-0.011814438737928867,-0.014531438238918781
1772882700467253200,3.665253173828125,0.021081406623125076,-0.027010967954993248,-0.011579323559999466
1772882700477186300,3.675186279296875,0.019755952060222626,-0.041732922196388245,-0.01755545660853386
1772882700487118300,3.685118408203125,0.021080873906612396,-0.03591578081250191,-0.027816083282232285
1772882700497051100,3.695051025390625,0.025159824639558792,-0.04321658983826637,-0.0368378609418869
1772882700506983200,3.704983154296875,0.039082299917936325,-0.046064842492341995,-0.03634091466665268
1772882700516916200,3.714916259765625,0.04686687886714935,-0.045965228229761124,-0.032580841332674026
1772882700526848300,3.72484814453125,0.0482967309653759,-0.041406963020563126,-0.03314010426402092
1772882700536781300,3.73478125,0.046639710664749146,-0.025995351374149323,-0.031797681003808975
1772882700546714400,3.74471435546875,0.042002346366643906,-0.013844411820173264,-0.04240771755576134
1772882700556646400,3.754646484375,0.03624827042222023,-0.01792878285050392,-0.04506249353289604
1772882700566579500,3.764579345703125,0.033265262842178345,-0.027984613552689552,-0.03566313162446022
1772882700576511500,3.774511474609375,0.03278152644634247,-0.04257173836231232,-0.017598841339349747
1772882700586444300,3.7844443359375,0.03994809091091156,-0.04757395386695862,0.001968200784176588
1772882700596376000,3.7943759765625,0.041902799159288406,-0.03989257663488388,0.013311988674104214
1772882700606309000,3.80430908203125,0.03887132182717323,-0.024638257920742035,0.016306180506944656
1772882700616241200,3.8142412109375,0.02686174586415291,0.001899195834994316,0.011365878395736217
1772882700626174200,3.82417431640625,0.015874341130256653,0.022341886535286903,0.009033482521772385
1772882700636106200,3.834106201171875,0.012618094682693481,0.025031745433807373,0.002828962402418256
1772882700646039300,3.844039306640625,0.013072961941361427,0.02128654159605503,0.006654060445725918
1772882700655971300,3.853971435546875,0.01501935999840498,0.027411287650465965,0.002879518549889326
1772882700665904400,3.863904296875,0.014231597073376179,0.03455574810504913,-0.004860426299273968
1772882700675836400,3.87383642578125,0.012047218158841133,0.033902063965797424,-0.006590552628040314
1772882700685769200,3.883769287109375,0.008955022320151329,0.025128811597824097,-0.009542666375637054
1772882700695701200,3.893701171875,0.005608174484223127,0.02009635604918003,-0.0047744144685566425
1772882700705634300,3.90363427734375,0.002579361665993929,0.014268293976783752,0.0018778956728056073
1772882700715567400,3.9135673828125,0.008900534361600876,0.012319134548306465,0.009312864392995834
1772882700725499400,3.92349951171875,0.023356972262263298,0.002200720366090536,0.013960879296064377
1772882700735432400,3.933432373046875,0.035633984953165054,0.005791985429823399,0.017319703474640846
1772882700745364200,3.9433642578125,0.04636785387992859,0.006926758214831352,0.016348181292414665
1772882700755297300,3.95329736328125,0.05254308879375458,0.001929443795233965,0.01146317645907402
1772882700765229300,3.963229248046875,0.050121475011110306,-0.0045380424708127975,-0.003052382729947567
1772882700775162000,3.973162109375,0.046030595898628235,-0.007544484920799732,-0.015994012355804443
1772882700785094100,3.98309423828125,0.03631431609392166,-0.004616871941834688,-0.029426997527480125
1772882700795026200,3.993026123046875,0.0333653949201107,-0.005822786130011082,-0.033674437552690506
1772882700804958500,4.00295849609375,0.03053903765976429,-0.014329640194773674,-0.028446361422538757
1772882700814891300,4.012891357421875,0.03356598690152168,-0.019865287467837334,-0.01501311082392931
1772882700824823300,4.0228232421875,0.035114776343107224,-0.02232973650097847,-0.004772086162120104
1772882700834756400,4.03275634765625,0.04285631701350212,-0.022902581840753555,0.007493368349969387
1772882700844688100,4.042688232421875,0.05145161598920822,-0.01676107943058014,0.009135909378528595
1772882700854621200,4.05262109375,0.060795851051807404,-0.020348358899354935,0.013538380153477192
1772882700864553200,4.06255322265625,0.05829833820462227,-0.026354685425758362,0.01813358999788761
1772882700874486300,4.072486328125,0.04619000852108002,-0.005382024683058262,0.014358291402459145
1772882700884418300,4.082418212890625,0.02994142286479473,0.009451553225517273,-0.002588362665846944
1772882700894351400,4.092351318359375,0.016418958082795143,0.032633837312459946,-0.018851222470402718
1772882700904283400,4.102283447265625,0.006019579712301493,0.03999145328998566,-0.029411910101771355
1772882700914216200,4.11221630859375,0.0026368326507508755,0.027926800772547722,-0.03321037441492081
1772882700924149200,4.122149169921875,-0.0019601560197770596,0.01781432144343853,-0.02898360602557659
1772882700934081800,4.132081787109375,-0.0018083559116348624,0.011180121451616287,-0.024505499750375748
1772882700944014800,4.142014892578125,0.0023135782685130835,0.01213979534804821,-0.015743786469101906
1772882700953947000,4.15194677734375,0.004596972372382879,0.009032418951392174,-0.006985713727772236
1772882700963880000,4.1618798828125,0.007805761881172657,0.00688836257904768,-0.001478280290029943
1772882700973812000,4.17181201171875,0.009551730006933212,0.0021085208281874657,0.0022773095406591892
1772882700983744800,4.181744873046875,0.007251611445099115,-0.0013351663947105408,0.002543153241276741
1772882700993676800,4.1916767578125,0.005620425101369619,-0.010934263467788696,-0.006952347233891487
1772882701003609900,4.20160986328125,-0.0002661194885149598,-0.009956158697605133,-0.022641630843281746
1772882701013542000,4.2115419921875,-0.0018179434118792415,-0.0006249742582440376,-0.04292399808764458
1772882701023475000,4.221474853515625,-0.00194327172357589,-0.003557721385732293,-0.053310126066207886
1772882701033407000,4.231406982421875,0.007306952029466629,0.0010101324878633022,-0.05694294720888138
1772882701043340000,4.241340087890625,0.01921282708644867,0.003037485759705305,-0.053513236343860626
1772882701053272000,4.25127197265625,0.028695810586214066,0.005699315574020147,-0.048862822353839874
1772882701063205000,4.261205078125,0.03609524294734001,0.008158138021826744,-0.03476465120911598
1772882701073137000,4.271136962890625,0.040938735008239746,0.007663589436560869,-0.018172889947891235
1772882701083069700,4.281069580078125,0.03710804507136345,-0.0009627221152186394,0.0007932295557111502
1772882701093002800,4.291002685546875,0.03421425074338913,-0.004321234300732613,0.014844332821667194
1772882701102934800,4.300934814453125,0.02914322167634964,-0.0018505798652768135,0.02540919929742813
1772882701112867800,4.310867919921875,0.022393440827727318,0.0031774681992828846,0.020910322666168213
1772882701122799900,4.3207998046875,0.006011218298226595,0.007810356095433235,0.010383926331996918
1772882701132733000,4.33073291015625,-0.01212038192898035,0.013395270332694054,-0.006098643410950899
1772882701142665000,4.3406650390625,-0.02958613820374012,0.02078302763402462,-0.027602465823292732
1772882701152598000,4.350597900390625,-0.04526709392666817,0.01862160488963127,-0.04481580853462219
1772882701162530000,4.360530029296875,-0.0477646067738533,0.02034137398004532,-0.04850170016288757
1772882701172463900,4.3704638671875,-0.03730237856507301,0.00927860289812088,-0.04463372379541397
1772882701182396000,4.38039599609375,-0.01754438877105713,-0.004707252606749535,-0.033521153032779694
1772882701192329000,4.390328857421875,-0.005514943040907383,-0.01672401651740074,-0.023574572056531906
1772882701202261000,4.400260986328125,0.005835183430463076,-0.017278485000133514,-0.017373934388160706
1772882701212194000,4.410194091796875,0.00662406487390399,-0.018059976398944855,-0.016541825607419014
1772882701222126800,4.420126953125,0.006166267674416304,-0.026069698855280876,-0.014396916143596172
1772882701232059000,4.430058837890625,0.008463403210043907,-0.03349808230996132,-0.011876242235302925
1772882701241992000,4.439991943359375,0.014775361865758896,-0.04578297585248947,-0.01791442558169365
1772882701251923700,4.449923828125,0.02180594578385353,-0.05004234239459038,-0.029161633923649788
1772882701261856800,4.459856689453125,0.022020330652594566,-0.05866645649075508,-0.041061703115701675
1772882701271788800,4.469788818359375,0.027172215282917023,-0.07550808787345886,-0.05508202686905861
1772882701281721900,4.479721923828125,0.03029290772974491,-0.08455777168273926,-0.07231001555919647
1772882701291654000,4.48965380859375,0.02957278862595558,-0.09701897203922272,-0.0807434469461441
1772882701301587000,4.4995869140625,0.035191792994737625,-0.07060334086418152,-0.08968767523765564
1772882701311519000,4.50951904296875,0.04845241829752922,-0.046242259442806244,-0.09018019586801529
1772882701321451800,4.51945166015625,0.06531742215156555,-0.034701719880104065,-0.08617506921291351
1772882701331384000,4.529384033203125,0.06773354113101959,-0.01778952032327652,-0.05875625088810921
1772882701341316900,4.53931689453125,0.0651681199669838,-0.014513297937810421,-0.024556472897529602
1772882701351249000,4.549248779296875,0.05218025669455528,-0.011757632717490196,0.0004973370814695954
1772882701361182000,4.559181884765625,0.03446437790989876,-0.010599156841635704,0.022781072184443474
1772882701371114000,4.569114013671875,0.019275784492492676,-0.010046332143247128,0.02615230530500412
1772882701381047000,4.579047119140625,0.007652950473129749,-0.0010288688354194164,0.019453657791018486
1772882701390980000,4.58897998046875,-0.001991101773455739,0.0012465831823647022,0.008435421623289585
1772882701400912000,4.598911865234375,-0.009429576806724072,-0.015066876076161861,-0.004413798451423645
1772882701410845000,4.608844970703125,-0.00811045989394188,-0.01226821355521679,-0.01597033627331257
1772882701420777000,4.61877685546875,-0.006349312141537666,-0.0024986739736050367,-0.02506156824529171
1772882701430709800,4.628709716796875,-0.0011753748403862119,0.007076342590153217,-0.029371270909905434
1772882701440641800,4.638641845703125,0.0080282436683774,0.00215801689773798,-0.021086176857352257
1772882701450574800,4.648574951171875,0.01492369920015335,-0.0012968359515070915,-0.011315190233290195
1772882701460507000,4.6585068359375,0.0180507842451334,-0.007582961115986109,-0.004437310621142387
1772882701470440000,4.66843994140625,0.01578320749104023,-0.015046710148453712,-0.0030396757647395134
1772882701480372000,4.6783720703125,0.004868242423981428,-0.021319253370165825,-0.01033487357199192
1772882701490305000,4.688304931640625,-0.002139013959094882,-0.016973726451396942,-0.024431724101305008
1772882701500237000,4.698237060546875,-0.0035393040161579847,-0.01263517141342163,-0.03299964219331741
1772882701510169900,4.708169921875,-0.007095103617757559,0.0009500267915427685,-0.03747095540165901
1772882701520102100,4.71810205078125,-0.009902074933052063,0.001003289595246315,-0.03787549212574959
1772882701530035000,4.728034912109375,-0.014964797534048557,0.006810497492551804,-0.025736559182405472
1772882701539966700,4.737966796875,-0.020565958693623543,0.00847097858786583,-0.00848486740142107
1772882701549899800,4.747899658203125,-0.027688048779964447,0.019313175231218338,-0.0013695467496290803
1772882701559831800,4.757831787109375,-0.03100448288023472,0.026592660695314407,0.006760817486792803
1772882701569764900,4.767764892578125,-0.03155389428138733,0.022064752876758575,0.0044907392002642155
1772882701579698000,4.777697998046875,-0.0307160634547472,0.010640058666467667,-0.0006297206273302436
1772882701589630000,4.7876298828125,-0.029574153944849968,-0.003136353800073266,-0.012309150770306587
1772882701599563000,4.79756298828125,-0.02242090366780758,-0.008190767839550972,-0.02653415873646736
1772882701609495000,4.8074951171875,-0.01700136996805668,-0.01678904891014099,-0.033894337713718414
1772882701619427800,4.817427734375,-0.016131315380334854,-0.02225891500711441,-0.038290418684482574
1772882701629359900,4.82735986328125,-0.010547465644776821,-0.020981663838028908,-0.030935298651456833
1772882701639293000,4.83729296875,-0.0012980409665033221,-0.02381366863846779,-0.022353794425725937
1772882701649225000,4.847224853515625,0.008677148260176182,-0.01701660454273224,-0.014566841535270214
1772882701659158000,4.857157958984375,0.013397601433098316,-0.010036458261311054,-0.007224506698548794
1772882701669089800,4.86708984375,0.017470693215727806,-0.01588631048798561,-0.0009668161510489881
1772882701679022800,4.87702294921875,0.021028677001595497,-0.02165764756500721,0.0003908633370883763
1772882701688955000,4.886954833984375,0.020585473626852036,-0.02290741540491581,-0.007133083883672953
1772882701698888000,4.896887939453125,0.01929756999015808,-0.019197897985577583,-0.014316427521407604
1772882701708820000,4.906820068359375,0.014125443063676357,-0.028951825574040413,-0.01357614528387785
1772882701718752800,4.916752685546875,0.004727680701762438,-0.032096486538648605,-0.006901997607201338
1772882701728684800,4.926684814453125,-0.004408826120197773,-0.025125395506620407,-0.004543502349406481
1772882701738617900,4.936617919921875,-0.011419331654906273,-0.01967576891183853,0.004255049396306276
1772882701748551000,4.946551025390625,-0.007000667043030262,-0.024692844599485397,0.00835979450494051
1772882701758483000,4.95648291015625,-0.0011544959852471948,-0.025720825418829918,0.008909737691283226
1772882701768416000,4.966416015625,0.00882032047957182,-0.02326234243810177,0.011092593893408775
1772882701778348000,4.97634814453125,0.015964781865477562,-0.028135128319263458,0.005734047386795282
1772882701788281000,4.986281005859375,0.018071556463837624,-0.0316331721842289,-0.004920940846204758
1772882701798213000,4.996213134765625,0.01407867856323719,-0.027653608471155167,-0.01239190623164177
1772882701808146000,5.00614599609375,0.011619621887803078,-0.0318303182721138,-0.015285765752196312
1772882701818077700,5.01607763671875,0.009571384638547897,-0.02900097332894802,-0.013678548857569695
1772882701828010800,5.0260107421875,0.009012920781970024,-0.02500193938612938,-0.0030182183254510164
1772882701837942800,5.03594287109375,0.01031440682709217,-0.020208248868584633,0.010157771408557892
1772882701847875800,5.045875732421875,0.008989164605736732,-0.023179884999990463,0.023190991953015327
1772882701857808000,5.055807861328125,0.00695877056568861,-0.017217598855495453,0.023044250905513763
1772882701867741000,5.065740966796875,-0.000022440101020038128,-0.001782283652573824,0.017168710008263588
1772882701877673000,5.0756728515625,-0.004848620854318142,-0.0016869422979652882,0.01227701548486948
1772882701887606000,5.08560595703125,-0.009686412289738655,-0.0024091650266200304,0.00947058480232954
1772882701897538000,5.0955380859375,-0.00740221980959177,0.00006677582859992981,0.006218597758561373
1772882701907470800,5.105470947265625,-0.006139880977571011,-0.0012883413583040237,0.007388980593532324
1772882701917403000,5.11540283203125,-0.004896451253443956,-0.0027778472285717726,0.00605686753988266
1772882701927336200,5.125336181640625,0.0018389505567029119,-0.00846339575946331,0.012438562698662281
1772882701937269200,5.135269287109375,0.0007129660807549953,-0.0059453765861690044,0.0157677810639143
1772882701947201300,5.145201171875,0.004112704191356897,-0.004560679197311401,0.015409980900585651
1772882701957134300,5.15513427734375,0.01346838939934969,-0.01689431071281433,0.01917222887277603
1772882701967066400,5.16506640625,0.02181425504386425,-0.02889663353562355,0.02488267607986927
1772882701976999200,5.174999267578125,0.02898108772933483,-0.026501653715968132,0.02326027862727642
1772882701986931200,5.18493115234375,0.023132413625717163,-0.018378037959337234,0.012971301563084126
1772882701996864300,5.1948642578125,0.017910486087203026,-0.01023142784833908,0.004190326668322086
1772882702006796300,5.20479638671875,0.01564573496580124,-0.008430066518485546,0.0009985280921682715
1772882702016729300,5.214729248046875,0.009528454393148422,-0.0199170783162117,-0.00836967397481203
1772882702026661400,5.224661376953125,0.007107215002179146,-0.028679119423031807,-0.013029931113123894
1772882702036594400,5.234594482421875,0.007039304822683334,-0.027464184910058975,-0.015910940244793892
1772882702046526200,5.244526123046875,0.0069904625415802,-0.014848883263766766,-0.017663421109318733
1772882702056459300,5.254459228515625,0.006031724624335766,0.0034797899425029755,-0.019665850326418877
1772882702066391300,5.264391357421875,0.005664047785103321,0.009722333401441574,-0.017897391691803932
1772882702076324400,5.274324462890625,-0.00005189457442611456,0.009138301014900208,-0.013126070611178875
1772882702086256400,5.28425634765625,-0.0027969744987785816,0.006834594067186117,-0.005289255641400814
1772882702096189200,5.294189208984375,-0.011854119598865509,0.005223647225648165,0.0026544209104031324
1772882702106121200,5.304121337890625,-0.021700091660022736,0.015044651925563812,-0.0006693574832752347
1772882702116054300,5.31405419921875,-0.026438120752573013,0.025545230135321617,-0.00000489876856590854
1772882702125986300,5.323986328125,-0.03258277848362923,0.032489802688360214,0.00384175730869174
1772882702135919400,5.33391943359375,-0.0320136621594429,0.03059469722211361,0.004133639857172966
1772882702145852400,5.343852294921875,-0.030657101422548294,0.03507715091109276,0.0137811079621315
1772882702155784400,5.353784423828125,-0.027965975925326347,0.031868573278188705,0.018755093216896057
1772882702165717200,5.36371728515625,-0.02470456436276436,0.025916337966918945,0.019955579191446304
1772882702175649300,5.373649169921875,-0.015842363238334656,0.014650100842118263,0.015609565190970898
1772882702185582300,5.383582275390625,-0.01720382273197174,0.02035863883793354,0.0025494396686553955
1772882702195514000,5.39351416015625,-0.019075758755207062,0.018765801563858986,-0.008961541578173637
1772882702205447200,5.403447265625,-0.02152554877102375,0.019640332087874413,-0.011499283835291862
1772882702215379200,5.413379150390625,-0.0212112944573164,0.014230119064450264,-0.009068883024156094
1772882702225312300,5.423312255859375,-0.01960013434290886,0.018093286082148552,-0.004058509599417448
1772882702235244300,5.433244384765625,-0.013213341124355793,0.014795761555433273,0.005458296276628971
1772882702245177300,5.44317724609375,-0.005131820682436228,0.018995173275470734,0.008350139483809471
1772882702255109400,5.453109375,-0.0016904837684705853,0.021155795082449913,0.016846954822540283
1772882702265042400,5.46304248046875,-0.002660940168425441,0.013707101345062256,0.019085532054305077
1772882702274974500,5.472974365234375,-0.0044812108390033245,0.007036414463073015,0.022676272317767143
1772882702284907300,5.4829072265625,-0.0018100586021319032,0.0007135705091059208,0.02105809561908245
1772882702294839300,5.49283935546875,0.004378861282020807,-0.0020649051293730736,0.009562295861542225
1772882702304772400,5.5027724609375,0.00579582154750824,-0.0009577884338796139,0.0013047389220446348
1772882702314704100,5.5127041015625,0.006594769656658173,-0.006869739852845669,-0.007961729541420937
1772882702324637200,5.52263720703125,0.0007165868883021176,-0.012602807953953743,-0.004858106374740601
1772882702334570200,5.5325703125,0.002297173021361232,-0.021210942417383194,-0.006908474024385214
1772882702344502300,5.542502197265625,0.006604250520467758,-0.02857266552746296,0.00008926426380639896
1772882702354435300,5.552435302734375,0.017665157094597816,-0.041308168321847916,0.004598528612405062
1772882702364367400,5.562367431640625,0.03271745145320892,-0.05003718286752701,0.009152010083198547
1772882702374300200,5.572300048828125,0.04021238535642624,-0.05257304757833481,0.015859181061387062
1772882702384232200,5.582232177734375,0.0464734248816967,-0.06003224104642868,0.020141292363405228
1772882702394165200,5.592165283203125,0.041024863719940186,-0.06965557485818863,0.014862374402582645
1772882702404097300,5.60209716796875,0.03780147805809975,-0.0730188861489296,0.012503658421337605
1772882702414030300,5.6120302734375,0.03876474127173424,-0.08087654411792755,0.01142640970647335
1772882702423962400,5.62196240234375,0.04003310203552246,-0.08295463025569916,0.0014675107086077332
1772882702433895400,5.6318955078125,0.0358724445104599,-0.09220272302627563,0.003977007232606411
1772882702443827500,5.641827392578125,0.025846334174275398,-0.0668729618191719,-0.006388935726135969
1772882702453760500,5.651760498046875,0.01592073403298855,-0.048945095390081406,-0.013456698507070541
1772882702463692300,5.6616923828125,0.012441206723451614,-0.037997931241989136,-0.01690097153186798
1772882702473625000,5.671625,0.014464144594967365,-0.03698752820491791,-0.008816948160529137
1772882702483557000,5.68155712890625,0.018201731145381927,-0.039278820157051086,0.004637729376554489
1772882702493490200,5.691490234375,0.02001481130719185,-0.04448183625936508,0.007065200712531805
1772882702503422200,5.701422119140625,0.025741619989275932,-0.048997607082128525,0.010182257741689682
1772882702513355300,5.711355224609375,0.02741674892604351,-0.050630658864974976,0.007320690434426069
1772882702523288300,5.721288330078125,0.02453233115375042,-0.06583166867494583,0.0070099602453410625
1772882702533220400,5.731220458984375,0.02959313616156578,-0.07181898504495621,0.008755396120250225
1772882702543153400,5.7411533203125,0.032228175550699234,-0.0740484893321991,0.008135532960295677
1772882702553085400,5.75108544921875,0.03775450214743614,-0.07116454839706421,0.004003905225545168
1772882702563018200,5.761018310546875,0.04715806990861893,-0.07021811604499817,-0.001877480186522007
1772882702572950300,5.7709501953125,0.05186547338962555,-0.059769999235868454,-0.012754629366099834
1772882702582883300,5.78088330078125,0.04957462102174759,-0.060551803559064865,-0.02110595814883709
1772882702592815400,5.7908154296875,0.04820762202143669,-0.06017496436834335,-0.02484956383705139
1772882702602748400,5.80074853515625,0.045046500861644745,-0.059227000921964645,-0.030598660930991173
1772882702612680200,5.81068017578125,0.03509453684091568,-0.048806849867105484,-0.029283590614795685
1772882702622613200,5.82061328125,0.030240017920732498,-0.04061978682875633,-0.023361526429653168
1772882702632545300,5.830545166015625,0.02193921059370041,-0.036850616335868835,-0.016143029555678368
1772882702642478300,5.840478271484375,0.009089885279536247,-0.03436281904578209,-0.0012147645466029644
1772882702652410400,5.850410400390625,-0.0069844224490225315,-0.03143440559506416,0.008263425901532173
1772882702662343200,5.86034326171875,-0.015739457681775093,-0.02052297443151474,0.0146299097687006
1772882702672275200,5.870275146484375,-0.019740857183933258,-0.006762422155588865,0.01921667344868183
1772882702682208300,5.880208251953125,-0.017879892140626907,0.0021999673917889595,0.021811405196785927
1772882702692140300,5.890140380859375,-0.01474855002015829,0.006566752679646015,0.01991017535328865
1772882702702073300,5.9000732421875,-0.009039903059601784,0.008558704517781734,0.020242683589458466
1772882702712005400,5.91000537109375,-0.005250757094472647,0.013093534857034683,0.016980044543743134
1772882702721938400,5.9199384765625,0.005197515711188316,0.011819452047348022,0.008086676709353924
1772882702731871500,5.92987158203125,0.01826511323451996,0.003118638414889574,0.009298414923250675
1772882702741803300,5.93980322265625,0.022108696401119232,-0.0005534673109650612,0.008577048778533936
1772882702751736000,5.949736083984375,0.016786634922027588,-0.006823347415775061,0.007568509317934513
1772882702761668000,5.959668212890625,0.0006755748763680458,0.0020611239597201347,0.002163547556847334
1772882702771601200,5.96960107421875,-0.006212691310793161,0.005376759916543961,-0.009031848981976509
1772882702781533200,5.979533203125,-0.00804702378809452,0.013347115367650986,-0.017445778474211693
1772882702791466200,5.98946630859375,-0.008626261726021767,0.021957913413643837,-0.02199525758624077
1772882702801398300,5.999398193359375,-0.01332215964794159,0.030507074669003487,-0.020435573533177376
1772882702811331300,6.009331298828125,-0.02096303552389145,0.041566114872694016,-0.01047242060303688
1772882702821263400,6.019263427734375,-0.035591140389442444,0.04477338865399361,-0.0013255204539746046
1772882702831196400,6.029196533203125,-0.047511979937553406,0.04588152840733528,0.01663190685212612
1772882702841128400,6.03912841796875,-0.05299393832683563,0.048532843589782715,0.028367042541503906
1772882702851061200,6.049061279296875,-0.05327889695763588,0.05535027012228966,0.03320121392607689
1772882702860993300,6.0589931640625,-0.060354169458150864,0.05982470139861107,0.03503561392426491
1772882702870926300,6.06892626953125,-0.05413275957107544,0.049027178436517715,0.03396236151456833
1772882702880858000,6.078858154296875,-0.04769478365778923,0.04826706275343895,0.02465566247701645
1772882702890791200,6.088791259765625,-0.037132419645786285,0.04627155512571335,0.009775250218808651
1772882702900723200,6.09872314453125,-0.03008558601140976,0.0517018660902977,-0.0006605292437598109
1772882702910656300,6.10865625,-0.0170344989746809,0.04900781437754631,-0.001362804789096117
1772882702920588300,6.11858837890625,-0.01062442921102047,0.04067118093371391,0.005876815877854824
1772882702930520300,6.128520263671875,-0.0020823399536311626,0.0327054001390934,0.015952885150909424
1772882702940453400,6.138453369140625,-0.0009164632065221667,0.04175650700926781,0.022225862368941307
1772882702950385400,6.148385498046875,-0.007351459003984928,0.05745504051446915,0.01833738014101982
1772882702960318200,6.158318115234375,-0.01446316484361887,0.0630086287856102,0.015347526408731937
1772882702970250500,6.16825048828125,-0.021382855251431465,0.061366528272628784,0.014936600811779499
1772882702980183300,6.178183349609375,-0.02930043265223503,0.0532822348177433,0.01912016049027443
1772882702990115000,6.188114990234375,-0.03162270784378052,0.05223241448402405,0.025061139836907387
1772882703000048400,6.19804833984375,-0.029289089143276215,0.05610382556915283,0.0336437001824379
1772882703009980200,6.207980224609375,-0.024664776399731636,0.0520012266933918,0.042239584028720856
1772882703019913200,6.217913330078125,-0.018536947667598724,0.0425531342625618,0.0464172437787056
1772882703029845200,6.22784521484375,-0.01729751192033291,0.05152346193790436,0.03896278887987137
1772882703039778300,6.2377783203125,-0.01915821060538292,0.05308019369840622,0.019314691424369812
1772882703049710300,6.24771044921875,-0.009940478019416332,0.03694090247154236,-0.0006156059098429978
1772882703059643400,6.257643310546875,-0.00613114470615983,0.031752586364746094,-0.007791477721184492
1772882703069575400,6.267575439453125,-0.0006969647947698832,0.02842842973768711,-0.010367020964622498
1772882703079508200,6.27750830078125,0.006351410411298275,0.024186594411730766,-0.011141140945255756
1772882703089440300,6.287440185546875,0.018013393506407738,0.01686156913638115,-0.004761805292218924
1772882703099373300,6.297373291015625,0.02883930318057537,0.02542157471179962,0.007858717814087868
1772882703109305300,6.307305419921875,0.03251126781105995,0.022178376093506813,0.013388771563768387
1772882703119238400,6.31723828125,0.04280635342001915,0.015313472598791122,0.02196221612393856
1772882703129170200,6.327170166015625,0.049938034266233444,0.006260056514292955,0.030225206166505814
1772882703139103200,6.337103271484375,0.05563773214817047,-0.008575715124607086,0.029457606375217438
1772882703149035300,6.34703515625,0.05525556951761246,-0.02049921825528145,0.01773463934659958
1772882703158968300,6.35696826171875,0.05313250049948692,-0.014056732878088951,-0.0030527024064213037
1772882703168901000,6.366901123046875,0.05588274449110031,-0.017433088272809982,-0.024789955466985703
1772882703178833200,6.376833251953125,0.06397636234760284,-0.02555885910987854,-0.0373048335313797
1772882703188766200,6.38676611328125,0.06724832206964493,-0.0380040779709816,-0.03767953813076019
1772882703198698200,6.3966982421875,0.06635711342096329,-0.05111687630414963,-0.027131224051117897
1772882703208631300,6.40663134765625,0.06283535063266754,-0.06910386681556702,-0.016692165285348892
1772882703218563300,6.416563232421875,0.047990839928388596,-0.06008877977728844,-0.014740548096597195
1772882703228496400,6.426496337890625,0.03821543976664543,-0.04885157197713852,-0.02069058269262314
1772882703238428400,6.436428466796875,0.03406708687543869,-0.038106534630060196,-0.016186431050300598
1772882703248361500,6.446361572265625,0.03485191985964775,-0.028293851763010025,-0.007482688408344984
1772882703258293500,6.45629345703125,0.03894583880901337,-0.027509890496730804,0.008540685288608074
1772882703268226300,6.466226318359375,0.03960230574011803,-0.028709910809993744,0.0233481265604496
1772882703278158000,6.476157958984375,0.035396646708250046,-0.01795853115618229,0.03243311867117882
1772882703288091100,6.486091064453125,0.027258291840553284,-0.012295585125684738,0.027621055021882057
1772882703298023200,6.496023193359375,0.02235455811023712,-0.012642940506339073,0.028690557926893234
1772882703307956200,6.505956298828125,0.011697386391460896,-0.008069493807852268,0.027001313865184784
1772882703317888300,6.51588818359375,-0.006014338694512844,-0.0027941314037889242,0.02144583687186241
1772882703327821300,6.5258212890625,-0.014869614504277706,-0.0007714605890214443,0.01259136013686657
1772882703337753300,6.53575341796875,-0.016174616292119026,-0.005626283586025238,0.003692803205922246
1772882703347686400,6.545686279296875,-0.009106322191655636,-0.009117954410612583,-0.00500135263428092
1772882703357618400,6.555618408203125,0.004555533640086651,-0.010964430868625641,-0.011361544951796532
1772882703367551200,6.56555126953125,0.011321826837956905,-0.01817227713763714,-0.020364094525575638
1772882703377484300,6.575484375,0.00934980995953083,-0.015105132013559341,-0.02334076166152954
1772882703387416300,6.585416259765625,0.013035091571509838,-0.014428690075874329,-0.022722110152244568
1772882703397349400,6.595349365234375,0.014196392148733139,-0.011805270798504353,-0.011598512530326843
1772882703407281400,6.605281494140625,0.010004309937357903,-0.007379629649221897,0.005396716296672821
1772882703417214500,6.61521435546875,0.003465876216068864,0.0022804285399615765,0.01511911116540432
1772882703427146200,6.625146240234375,-0.004669548012316227,0.00609007989987731,0.026151256635785103
1772882703437079300,6.635079345703125,-0.01129261776804924,0.021567128598690033,0.031444188207387924
1772882703447011300,6.64501123046875,-0.013470550999045372,0.02587718889117241,0.03268469125032425
1772882703456944000,6.654944091796875,-0.010174675844609737,0.021100230515003204,0.02742488496005535
1772882703466876200,6.664876220703125,-0.012043416500091553,0.0204717218875885,0.019340593367815018
1772882703476809200,6.674809326171875,-0.01298548374325037,0.005294873379170895,0.016346395015716553
1772882703486741200,6.6847412109375,-0.012244858779013157,-0.007704015355557203,0.005268709268420935
1772882703496674300,6.69467431640625,-0.01108984462916851,-0.008852803148329258,-0.0011054903734475374
1772882703506606300,6.7046064453125,-0.0023741177283227444,-0.012527165934443474,0.0030450462363660336
1772882703516539400,6.714539306640625,0.008301911875605583,-0.02391715534031391,0.008556966669857502
1772882703526471400,6.724471435546875,0.016239196062088013,-0.030754288658499718,0.012172740884125233
1772882703536404500,6.734404541015625,0.021531270816922188,-0.020563973113894463,0.0107674365863204
1772882703546336300,6.744336181640625,0.02413717284798622,-0.02060205675661564,0.008512538857758045
1772882703556269000,6.75426904296875,0.019619014114141464,-0.020337264984846115,0.00020887100254185498
1772882703566201000,6.764201171875,0.011157351545989513,-0.004808373749256134,-0.00581892766058445
1772882703576134100,6.774134033203125,0.005273362621665001,-0.0029115034267306328,-0.006640322506427765
1772882703586066200,6.784066162109375,-0.004235720261931419,-0.010903649032115936,-0.006224869284778833
1772882703595999200,6.793999267578125,-0.01661696843802929,-0.010528797283768654,-0.008273769170045853
1772882703605931300,6.80393115234375,-0.023404300212860107,-0.010069668292999268,-0.002964490558952093
1772882703615864300,6.8138642578125,-0.020364727824926376,-0.016547614708542824,-0.004969653207808733
1772882703625797400,6.82379736328125,-0.015283416956663132,-0.011899598874151707,-0.003240196267142892
1772882703635729400,6.8337294921875,-0.008304763585329056,0.0018307873979210854,0.010709905065596104
1772882703645662200,6.843662109375,0.0000927158398553729,0.009467401541769505,0.022915437817573547
1772882703655594200,6.85359423828125,0.01212514378130436,0.013001583516597748,0.03780509904026985
1772882703665527300,6.86352734375,0.02446543239057064,0.016720687970519066,0.048592496663331985
1772882703675459300,6.873459228515625,0.02725008875131607,0.024883687496185303,0.050006769597530365
1772882703685392400,6.883392333984375,0.0212372038513422,0.02901744656264782,0.039774637669324875
1772882703695324200,6.89332421875,0.008377649821341038,0.01728557050228119,0.031695544719696045
1772882703705257200,6.90325732421875,-0.006491044536232948,0.006651301868259907,0.019586417824029922
1772882703715189200,6.913189208984375,-0.011992602609097958,0.00477643683552742,0.009414209052920341
1772882703725122300,6.923122314453125,-0.006212211679667234,0.005646225064992905,-0.0003878215211443603
1772882703735054300,6.933054443359375,0.01201574131846428,0.001045367680490017,0.0012354281498119235
1772882703744987100,6.942987060546875,0.026556067168712616,0.0027865427546203136,0.009885109029710293
1772882703754919200,6.952919189453125,0.035420507192611694,0.011928966268897057,0.013179941102862358
1772882703764852200,6.962852294921875,0.03088168241083622,0.023003188893198967,0.01454427931457758
1772882703774784300,6.9727841796875,0.01819688454270363,0.038862843066453934,0.017367808148264885
1772882703784717300,6.98271728515625,0.0049356743693351746,0.038631681352853775,0.026264097541570663
1772882703794649300,6.9926494140625,-0.006810251157730818,0.026665417477488518,0.0324275828897953
1772882703804582400,7.00258251953125,-0.019940966740250587,0.01716778613626957,0.02910076081752777
1772882703814514400,7.012514404296875,-0.03219321370124817,0.016730567440390587,0.01740901730954647
1772882703824447500,7.022447509765625,-0.04152918979525566,0.017187565565109253,0.002159758238121867
1772882703834379300,7.032379150390625,-0.04286646842956543,0.028270218521356583,-0.010217670351266861
1772882703844312000,7.04231201171875,-0.03581494837999344,0.024715697392821312,-0.02074461430311203
1772882703854244400,7.052244384765625,-0.030264124274253845,0.024404972791671753,-0.01950586400926113
1772882703864177200,7.06217724609375,-0.022316453978419304,0.01277867704629898,-0.010966969653964043
1772882703874110200,7.072110107421875,-0.011630360037088394,0.01722133532166481,-0.005006290972232819
1772882703884042200,7.082042236328125,-0.00040167418774217367,0.01631186529994011,-0.009343781508505344
1772882703893975300,7.091975341796875,0.011179295368492603,0.012379862368106842,-0.014613286592066288
1772882703903907300,7.1019072265625,0.012926063500344753,-0.0006856066174805164,-0.022261086851358414
1772882703913840400,7.11184033203125,0.01483155507594347,-0.011635726317763329,-0.027578353881835938
1772882703923772400,7.1217724609375,0.009633064270019531,-0.0201951265335083,-0.029243096709251404
1772882703933705500,7.13170556640625,-0.0004170670872554183,-0.022027121856808662,-0.026428621262311935
1772882703943637500,7.141637451171875,-0.004417135380208492,-0.014383848756551743,-0.02447172999382019
1772882703953570600,7.151570556640625,-0.01049036718904972,0.0013244668953120708,-0.01372008491307497
1772882703963502600,7.161502685546875,-0.009422972798347473,0.003908798564225435,0.0013752441154792905
1772882703973435600,7.171435546875,-0.003181108506396413,0.0019417409785091877,0.014123203232884407
1772882703983367400,7.181367431640625,0.0009553133277222514,-0.0031840449664741755,0.01260839682072401
1772882703993300500,7.191300537109375,-0.005645008757710457,0.004460037220269442,0.005215901881456375
1772882704003232500,7.201232421875,-0.007291108835488558,0.0014943405985832214,-0.002861998276785016
1772882704013165600,7.21116552734375,-0.004718870390206575,0.006063568405807018,-0.02143903821706772
1772882704023097600,7.22109765625,0.00044579809764400125,0.004829459823668003,-0.025162935256958008
1772882704033030400,7.231030517578125,0.002253818092867732,0.0026283571496605873,-0.02217140793800354
1772882704042962400,7.24096240234375,0.002185907680541277,-0.004233810119330883,-0.010270804166793823
1772882704052895500,7.2508955078125,-0.0021563759073615074,-0.002620101673528552,0.002055445918813348
1772882704062827500,7.26082763671875,-0.008411342278122902,0.002080377656966448,0.010256117209792137
1772882704072760600,7.270760498046875,-0.009633414447307587,0.002341215033084154,0.013580184429883957
1772882704082692600,7.280692626953125,-0.0060285599902272224,0.0020906119607388973,0.00794333778321743
1772882704092625700,7.290625732421875,-0.008051176555454731,0.002568995114415884,0.0034202474635094404
1772882704102557400,7.300557373046875,-0.009014175273478031,0.002869932446628809,0.0011235374258831143
1772882704112490500,7.310490478515625,-0.008720642887055874,0.008282488211989403,-0.0027332676108926535
1772882704122422500,7.320422607421875,-0.015087994746863842,0.010523803532123566,-0.0017990305786952376
1772882704132355300,7.330355224609375,-0.019136426970362663,0.0029925783164799213,0.011118297465145588
1772882704142287600,7.34028759765625,-0.015841830521821976,-0.010535746812820435,0.019551729783415794
1772882704152220400,7.350220458984375,-0.016202155500650406,-0.013304835185408592,0.020790746435523033
1772882704162153500,7.360153564453125,-0.008756755851209164,-0.013263557106256485,0.015828479081392288
1772882704172085500,7.37008544921875,0.001089803990907967,-0.0063186525367200375,0.005244642496109009
1772882704182018600,7.3800185546875,0.010893432423472404,0.005329481791704893,-0.00780884176492691
1772882704191950600,7.38995068359375,0.009431783109903336,0.009818045422434807,-0.005486230365931988
1772882704201883600,7.399883544921875,0.0024889223277568817,0.012462299317121506,0.0003868385683745146
1772882704211815700,7.409815673828125,-0.007790667470544577,0.0098186656832695,0.011502507142722607
1772882704221748500,7.41974853515625,-0.017004672437906265,0.004078221973031759,0.021770058199763298
1772882704231680500,7.429680419921875,-0.023875359445810318,0.0019192309118807316,0.024121325463056564
1772882704241613600,7.439613525390625,-0.02462157793343067,0.0027309623546898365,0.017863163724541664
1772882704251545300,7.44954541015625,-0.01770353876054287,0.002390264067798853,0.012526432052254677
1772882704261478400,7.459478515625,-0.00904000923037529,-0.004434086382389069,0.006304222624748945
1772882704271410400,7.469410400390625,-0.0014241673052310944,-0.012409787625074387,0.005970414727926254
1772882704281343500,7.479343505859375,0.005191657692193985,-0.021425919607281685,0.004914205055683851
1772882704291275500,7.489275634765625,0.006251009181141853,-0.016999458894133568,0.0024218058679252863
1772882704301208600,7.49920849609375,0.013504395261406898,-0.020733743906021118,0.002983200130984187
1772882704311140600,7.509140625,0.023680971935391426,-0.019274037331342697,0.005435446742922068
1772882704321073400,7.519073486328125,0.02809622697532177,-0.013010550290346146,0.001291567925363779
1772882704331005700,7.529005615234375,0.029500726610422134,-0.006670408882200718,-0.0014717888552695513
1772882704340938500,7.5389384765625,0.02285400778055191,-0.009339163079857826,0.003410584293305874
1772882704350870500,7.54887060546875,0.008616216480731964,-0.006873874459415674,-0.0024576911237090826
1772882704360803600,7.558803466796875,-0.0038284689653664827,-0.0022125435061752796,-0.0023799268528819084
1772882704370735600,7.568735595703125,-0.012822495773434639,-0.0020979284308850765,-0.0063130734488368034
1772882704380668700,7.578668701171875,-0.015950646251440048,-0.009253576397895813,-0.013494287617504597
1772882704390600400,7.588600341796875,-0.012277026660740376,-0.015696149319410324,-0.020048722624778748
1772882704400533500,7.598533447265625,-0.00625908188521862,-0.018899932503700256,-0.01856108009815216
1772882704410465500,7.608465576171875,0.002496058354154229,-0.015884466469287872,-0.014020352624356747
1772882704420398600,7.618398681640625,0.011799545027315617,-0.014668201096355915,-0.0031770262867212296
1772882704430330600,7.62833056640625,0.01936281844973564,-0.008010460063815117,0.01184376422315836
1772882704440263400,7.638263427734375,0.013200263492763042,0.002690121065825224,0.020977342501282692
1772882704450195500,7.648195556640625,0.005596457980573177,0.012069189921021461,0.021924881264567375
1772882704460128500,7.65812841796875,0.0009830640628933907,0.009104559198021889,0.01815011538565159
1772882704470060500,7.668060546875,-0.002036159858107567,0.00017304765060544014,0.011616467498242855
1772882704479993600,7.67799365234375,-0.008088725619018078,-0.008183418773114681,-0.0009901379235088825
1772882704489926700,7.6879267578125,-0.015764009207487106,0.00008731521666049957,-0.014940787106752396
1772882704499858700,7.697858642578125,-0.011680053547024727,-0.001890614628791809,-0.018802637234330177
1772882704509791500,7.70779150390625,-0.002748397644609213,-0.00568373454734683,-0.015416108071804047
1772882704519723500,7.7177236328125,0.010624932125210762,-0.012209810316562653,-0.0052819810807704926
1772882704529656600,7.727656494140625,0.0157955139875412,-0.01386169157922268,0.008385916240513325
1772882704539588400,7.73758837890625,0.016905253753066063,-0.014349315315485,0.012075725942850113
1772882704549521400,7.747521484375,0.013170275837182999,-0.010127479210495949,0.015175310894846916
1772882704559453400,7.757453369140625,0.007200268097221851,-0.009727206081151962,0.0063930051401257515
1772882704569386500,7.767386474609375,0.003776825964450836,-0.0038636105600744486,0.0010111978044733405
1772882704579318500,7.777318603515625,0.008121772669255733,-0.009222157299518585,-0.003260246245190501
1772882704589251600,7.78725146484375,0.009727819822728634,-0.008943949826061726,-0.003211365779861808
1772882704599183600,7.79718359375,0.011962478049099445,-0.01453898474574089,-0.0006896185223013163
1772882704609116700,7.80711669921875,0.01247098483145237,-0.019967347383499146,-0.004778743721544743
1772882704619048700,7.817048583984375,0.015305653214454651,-0.021726099774241447,-0.006563061848282814
1772882704628981500,7.8269814453125,0.014688704162836075,-0.022243723273277283,-0.011125733144581318
1772882704638913500,7.83691357421875,0.01336431410163641,-0.02331138588488102,-0.018583115190267563
1772882704648846600,7.8468466796875,0.011287953704595566,-0.014340599998831749,-0.014834253117442131
1772882704658778400,7.8567783203125,0.016402022913098335,-0.011709130369126797,-0.0034689470194280148
1772882704668711400,7.86671142578125,0.014316871762275696,-0.008065566420555115,0.010800658725202084
1772882704678643500,7.8766435546875,0.009736768901348114,-0.0046953363344073296,0.01562071405351162
1772882704688576500,7.886576416015625,-0.000424311263486743,-0.0004374878481030464,0.014784570783376694
1772882704698508500,7.896508544921875,-0.008916066959500313,0.0006884965114295483,0.005184141453355551
1772882704708441600,7.906441650390625,-0.017792169004678726,0.008747808635234833,-0.002177884802222252
1772882704718373600,7.91637353515625,-0.01384296827018261,-0.00222015380859375,-0.005004563834518194
1772882704728306400,7.926306396484375,-0.004091055132448673,-0.00010924739763140678,0.00018271818407811224
1772882704738238500,7.936238525390625,0.004604964517056942,-0.008091540075838566,0.003985978662967682
1772882704748171500,7.946171630859375,0.010375874117016792,-0.006854673847556114,0.006048186682164669
1772882704758103600,7.956103515625,0.013980994932353497,-0.010342350229620934,0.00975796952843666
1772882704768036600,7.96603662109375,0.01608973927795887,-0.02182745188474655,0.006054372526705265
1772882704777968600,7.97596875,0.011424945667386055,-0.01669687032699585,-0.008646276779472828
1772882704787901700,7.985901611328125,0.010211720131337643,-0.007945401594042778,-0.024794653058052063
1772882704797832400,7.99583251953125,0.003860131371766329,-0.005264813546091318,-0.03852520138025284
1772882704807765500,8.005765625,-0.00002675224095582962,-0.0011606160551309586,-0.044106386601924896
1772882704817697500,8.015697509765625,0.005782293621450663,-0.011843912303447723,-0.041430987417697906
1772882704827630600,8.025630615234375,0.009575966745615005,-0.015311082825064659,-0.03804131597280502
1772882704837562600,8.035562744140625,0.016634035855531693,-0.016921157017350197,-0.02106119506061077
1772882704847495700,8.04549560546875,0.021148892119526863,-0.016190385445952415,-0.003839864395558834
1772882704857427700,8.055427734375,0.01578262448310852,-0.011919906362891197,0.0042309206910431385
1772882704867360500,8.065360595703124,0.011582553386688232,-0.006352035794407129,0.015573590993881226
1772882704877292500,8.07529248046875,0.006316418759524822,-0.0047187190502882,0.02233029529452324
1772882704887225600,8.0852255859375,-0.00429121870547533,0.004342685919255018,0.02324535697698593
1772882704897157400,8.095157470703125,-0.014913930557668209,-0.0022741430439054966,0.00944075733423233
1772882704907090400,8.10509033203125,-0.0223513413220644,0.006011750549077988,0.0008632474346086383
1772882704917023500,8.1150234375,-0.019001295790076256,-0.007234732620418072,-0.006535523105412722
1772882704926955500,8.12495556640625,-0.019173869863152504,-0.0063015613704919815,-0.01679242216050625
1772882704936888300,8.134888427734374,-0.01643395610153675,-0.00673274789005518,-0.02102743461728096
1772882704946820400,8.1448203125,-0.004764782264828682,-0.009450503624975681,-0.019871622323989868
1772882704956753200,8.154753173828125,0.0033347406424582005,0.0013708989135921001,-0.019449755549430847
1772882704966685200,8.164685302734375,0.011250188574194908,0.010971860960125923,-0.015966074541211128
1772882704976618200,8.1746181640625,0.011313147842884064,0.006482729222625494,-0.0022012139670550823
1772882704986550000,8.184550048828125,0.008804982528090477,0.003155109006911516,0.013454977422952652
1772882704996483000,8.194483154296876,0.002781976480036974,-0.006425711326301098,0.02654566988348961
1772882705006415000,8.2044150390625,-0.006665853783488274,-0.008295516483485699,0.026474030688405037
1772882705016348200,8.21434814453125,-0.016210144385695457,0.004099920857697725,0.01004610862582922
1772882705026280200,8.2242802734375,-0.016620272770524025,0.005791027564555407,-0.008781109005212784
1772882705036213200,8.234213134765625,-0.01406885590404272,0.002173949033021927,-0.019525356590747833
1772882705046145300,8.244145263671875,-0.012554315850138664,0.006109301932156086,-0.02769726701080799
1772882705056078000,8.254078125,-0.012117822654545307,0.0016419482417404652,-0.031873561441898346
1772882705066010000,8.264010009765625,-0.008203775621950626,0.0015383516438305378,-0.026271069422364235
1772882705075943200,8.273943115234376,-0.004784969612956047,0.0029367036186158657,-0.01737431436777115
1772882705085875200,8.283875244140624,0.0015749254962429404,0.0016903444193303585,0.00005367714402382262
1772882705095808300,8.293808349609375,0.008184785023331642,-0.004381322767585516,0.021797122433781624
1772882705105740300,8.303740234375,0.0038555501960217953,-0.0028124547097831964,0.03881525620818138
1772882705115673300,8.31367333984375,-0.0011127885663881898,-0.0028324497397989035,0.04530905559659004
1772882705125605000,8.323605224609375,-0.015081069432199001,0.0052254763431847095,0.03615443781018257
1772882705135538200,8.3335380859375,-0.022003795951604843,0.016364289447665215,0.02029043808579445
1772882705145470200,8.34347021484375,-0.023450959473848343,0.017577359452843666,-0.00023241480812430382
1772882705155403300,8.3534033203125,-0.017839519307017326,0.015077590942382812,-0.018228277564048767
1772882705165335300,8.363335205078124,-0.012550216168165207,0.011663684621453285,-0.023764455690979958
1772882705175270100,8.373270263671875,-0.004836742300540209,0.004431676585227251,-0.022617630660533905
1772882705185202200,8.3832021484375,0.0035514160990715027,-0.007566130254417658,-0.013530924916267395
1772882705195135200,8.39313525390625,0.004298807587474585,-0.01440863125026226,-0.007504564709961414
1772882705205067300,8.4030673828125,-0.004227302968502045,-0.007842606864869595,-0.0013859521131962538
1772882705215000000,8.413,-0.011606814339756966,-0.008839303627610207,-0.00019730080384761095
1772882705224932000,8.42293212890625,-0.00891861878335476,-0.008936775848269463,0.007611620239913464
1772882705234865200,8.432865234375,-0.0008398696081712842,-0.003949723672121763,0.014557510614395142
1772882705244797200,8.442797119140625,0.002114641247317195,-0.000014370307326316833,0.017183123156428337
1772882705254730200,8.452730224609375,0.0037509403191506863,-0.0032330204267054796,0.020310265943408012
1772882705264662300,8.462662353515626,-0.0017471556784585118,0.00010525202378630638,0.019833559170365334
1772882705274595300,8.47259521484375,-0.007864647544920444,-0.002629469381645322,0.013249450363218784
1772882705284527400,8.48252734375,-0.013726265169680119,0.002065416891127825,0.004866085015237331
1772882705294460400,8.49246044921875,-0.016693027690052986,-0.0032408328261226416,-0.0007584357517771423
1772882705304392200,8.50239208984375,-0.016914602369070053,-0.006677908357232809,-0.00392173882573843
1772882705314325000,8.512324951171875,-0.01643321104347706,-0.004174927715212107,-0.005329035222530365
1772882705324257000,8.522257080078125,-0.015792453661561012,-0.0025930101983249187,-0.008987952023744583
1772882705334190000,8.532190185546876,-0.014007175341248512,-0.0049542635679244995,-0.0067651341669261456
1772882705344122000,8.5421220703125,-0.00815887376666069,-0.0034826009068638086,-0.003476130310446024
1772882705354055200,8.55205517578125,-0.005919637158513069,0.005621963646262884,0.002911028452217579
1772882705363987200,8.5619873046875,-0.0037624763790518045,0.006987899076193571,0.008036814630031586
1772882705373920300,8.571920166015625,0.004014008212834597,0.005157853942364454,0.013089386746287346
1772882705383852300,8.581852294921875,0.007273983675986528,0.005210051778703928,0.018964052200317383
1772882705393785300,8.591785400390625,0.010361439548432827,0.0028291335329413414,0.020430374890565872
1772882705403717400,8.60171728515625,0.007144606206566095,0.008740019053220749,0.01162836141884327
1772882705413650200,8.611650146484376,0.005804610904306173,0.009285460226237774,0.001169602619484067
1772882705423582200,8.621582275390624,0.005152935162186623,0.0038438234478235245,-0.006425466388463974
1772882705433515300,8.631515380859375,0.002999875694513321,-0.0020810835994780064,-0.01868227683007717
1772882705443447000,8.641447021484375,0.001065088901668787,-0.0023703030310571194,-0.02511381171643734
1772882705453380000,8.651380126953125,-0.006085976026952267,-0.0028019221499562263,-0.034896910190582275
1772882705463312100,8.66131201171875,-0.015188660472631454,0.005474649835377932,-0.03774542734026909
1772882705473245200,8.6712451171875,-0.009076492860913277,0.002008665818721056,-0.029263930395245552
1772882705483178200,8.68117822265625,-0.003251095302402973,0.0038646231405436993,-0.016300193965435028
1772882705493110300,8.6911103515625,0.00740341329947114,0.003981269430369139,0.00310972286388278
1772882705503043000,8.70104296875,0.012496177107095718,0.020232677459716797,0.018723037093877792
1772882705512975000,8.71097509765625,0.011384520679712296,0.020221445709466934,0.028287187218666077
1772882705522908200,8.720908203125,0.005418773274868727,0.020353803411126137,0.03369952738285065
1772882705532840200,8.730840087890625,-0.002632017247378826,0.01644749939441681,0.03179116174578667
1772882705542773200,8.740773193359376,-0.00978127308189869,0.004418267868459225,0.01759890839457512
1772882705552705300,8.750705322265626,-0.010112409479916096,-0.002943602157756686,-0.00110432633664459
1772882705562638300,8.760638427734374,-0.006062540225684643,-0.0026762208435684443,-0.024891946464776993
1772882705572570000,8.770570068359374,0.002580536063760519,-0.006814360618591309,-0.03393164277076721
1772882705582503200,8.780503173828125,0.01776028797030449,-0.017981527373194695,-0.02959069237112999
1772882705592435200,8.790435302734375,0.033700477331876755,-0.014409137889742851,-0.01742190308868885
1772882705602368000,8.800367919921875,0.03976422920823097,-0.015069069340825081,-0.00017260867753066123
1772882705612300000,8.810300048828125,0.04259873554110527,-0.011839191429316998,0.012955755926668644
1772882705622233000,8.820233154296876,0.026441073045134544,-0.0005857381038367748,0.016370462253689766
1772882705632165000,8.8301650390625,0.013190675526857376,0.003494563978165388,0.019048871472477913
1772882705642098200,8.84009814453125,0.001951869111508131,0.004827209282666445,0.014568635262548923
1772882705652030200,8.8500302734375,-0.012536579743027687,0.007597815245389938,0.009217942133545876
1772882705661963300,8.85996337890625,-0.019253870472311974,0.0016994467005133629,0.004075910430401564
1772882705671895300,8.869895263671875,-0.016513479873538017,-0.00577002065256238,0.0010701906867325306
1772882705681828400,8.879828369140625,-0.004179047886282206,-0.004334310535341501,-0.006062286905944347
1772882705691760400,8.889760498046876,0.006553757935762405,-0.004601592663675547,-0.010998913086950779
1772882705701693200,8.899693115234374,0.013912871479988098,0.00020967377349734306,-0.017729520797729492
1772882705711625200,8.909625244140624,0.017307016998529434,0.006891695782542229,-0.01682102493941784
1772882705721558000,8.91955810546875,0.016528576612472534,0.010998822748661041,-0.013227355666458607
1772882705731490000,8.929489990234375,0.010353397578001022,0.013171305879950523,-0.0021710593719035387
1772882705741423000,8.939423095703125,0.0035093394108116627,0.01742996647953987,0.0077761136926710606
1772882705751355100,8.949355224609375,0.0016871518455445766,0.012894822284579277,0.01766623556613922
1772882705761288200,8.9592880859375,-0.0011091672349721193,0.003064295742660761,0.01579722762107849
1772882705771220200,8.96922021484375,0.00007087935227900743,0.006374071817845106,0.009238393977284431
1772882705781153300,8.9791533203125,-0.001492129871621728,-0.00017810333520174026,0.0006318567902781069
1772882705791085300,8.989085205078124,-0.0006403452716767788,-0.0020866957493126392,-0.0030253403820097446
1772882705801018000,8.99901806640625,-0.0002387405838817358,0.004182119388133287,-0.008208651095628738
1772882705810950400,9.008950439453125,0.004604431334882975,0.0050313533283770084,-0.005342883989214897
1772882705820883200,9.01888330078125,0.0069711823016405106,-0.00011999858543276787,0.004416536074131727
1772882705830815200,9.028815185546875,0.01737136021256447,-0.0067983088083565235,0.01068755704909563
1772882705840748300,9.038748291015626,0.011369394138455391,-0.005223315674811602,0.014243942685425282
1772882705850680000,9.04868017578125,0.007000156678259373,-0.005196229089051485,0.010093117132782936
1772882705860613000,9.058613037109374,-0.0016836125869303942,-0.00930548645555973,0.005420601461082697
1772882705870546200,9.068546142578125,-0.005471211392432451,-0.013486498966813087,0.0003316572692710906
1772882705880478200,9.078478271484375,-0.0027904738672077656,-0.006212607026100159,-0.005063108168542385
1772882705890411300,9.088411376953125,-0.0030220092739909887,0.0006529968231916428,-0.007508429698646069
1772882705900343300,9.09834326171875,0.005729670636355877,0.006191039923578501,-0.0024446952156722546
1772882705910276000,9.108276123046876,0.009670564904808998,0.008206572383642197,0.002525576390326023
1772882705920208100,9.1182080078125,0.005811111070215702,0.007354094181209803,0.0036433052737265825
1772882705930142500,9.128142578125,0.0008594957180321217,0.011879336088895798,0.0016754954122006893
1772882705940074200,9.13807421875,-0.006270052865147591,0.0065831090323626995,0.0027897621039301157
1772882705950007600,9.148007568359375,-0.008724636398255825,0.0013299724087119102,0.004428657237440348
1772882705959939300,9.157939208984375,-0.011510036885738373,0.005619525443762541,0.004912820179015398
1772882705969872100,9.1678720703125,-0.015997249633073807,-0.0009317989461123943,0.009448730386793613
1772882705979804200,9.17780419921875,-0.017676105722784996,-0.01097218319773674,0.005778627935796976
1772882705989737200,9.1877373046875,-0.02087205834686756,-0.01168971136212349,-0.002036220394074917
1772882705999669200,9.197669189453125,-0.019497601315379143,-0.009369831532239914,-0.008915165439248085
1772882706009602300,9.207602294921875,-0.011507372371852398,-0.007749177515506744,-0.011409618891775608
1772882706019534300,9.217534423828125,0.003677173051983118,-0.005754736252129078,-0.008078004233539104
1772882706029467400,9.22746728515625,0.011213172227144241,-0.008585462346673012,-0.00022435687424149364
1772882706039399400,9.2373994140625,0.014921889640390873,-0.009977230802178383,0.002803390845656395
1772882706049332500,9.24733251953125,0.01810101419687271,-0.016527583822607994,0.010560538619756699
1772882706059264500,9.257264404296874,0.011084383353590965,-0.010248648934066296,0.009822576306760311
1772882706069197300,9.267197265625,0.0068187955766916275,-0.01523528154939413,0.009328523650765419
1772882706079129300,9.27712939453125,0.005672304891049862,-0.013957496732473373,0.005836054682731628
1772882706089062100,9.287062255859375,0.0043474892154335976,-0.018722398206591606,0.008247820660471916
1772882706098994200,9.296994140625,0.0046391054056584835,-0.026494033634662628,0.003016040427610278
1772882706108927200,9.30692724609375,0.005346921272575855,-0.02223079465329647,0.0011523751309141517
1772882706118859300,9.316859375,0.004609758500009775,-0.010751239024102688,-0.006051475647836924
1772882706128792300,9.326792236328124,0.004688959568738937,-0.006436557974666357,-0.0098903002217412
1772882706138724400,9.336724365234375,0.0011794461170211434,-0.01110161654651165,-0.0042417352087795734
1772882706148657400,9.346657470703125,0.00118919275701046,-0.017032502219080925,0.002211362821981311
1772882706158589400,9.35658935546875,-0.0036476405803114176,-0.013559473678469658,0.006622622720897198
1772882706168522200,9.366522216796875,-0.005719152744859457,-0.017765764147043228,0.001303102821111679
1772882706178454300,9.376454345703126,-0.004625126253813505,-0.013019479811191559,0.002644270658493042
1772882706188387300,9.38638720703125,-0.001893149921670556,-0.012513384222984314,0.0025296106468886137
1772882706198319400,9.3963193359375,0.0017881377134472132,-0.011913107708096504,0.002330672461539507
1772882706208252400,9.40625244140625,0.0038108627777546644,-0.011699010618031025,0.004089903086423874
1772882706218184200,9.41618408203125,0.0027551858220249414,-0.00564910750836134,0.00984339602291584
1772882706228117200,9.4261171875,-0.0008811471052467823,-0.000324430875480175,0.010814323090016842
1772882706238049300,9.43604931640625,-0.010548687539994717,0.006051443051546812,0.008920549415051937
1772882706247982300,9.445982421875,-0.009080435149371624,0.002703897189348936,0.01080852560698986
1772882706257914400,9.455914306640626,-0.002720806049183011,-0.006353513803333044,0.00066241470631212
1772882706267847400,9.465847412109374,0.0068797823041677475,-0.0016653109341859818,-0.004555790219455957
1772882706277779500,9.475779541015624,0.013737688772380352,-0.008281135931611061,-0.010262145660817623
1772882706287712300,9.485712158203125,0.015657242387533188,-0.018452495336532593,-0.01468750648200512
1772882706297645300,9.495645263671875,0.008491475135087967,-0.016527563333511353,-0.0160750113427639
1772882706307577300,9.505577392578125,-0.00015474320389330387,-0.014430057257413864,-0.006966735702008009
1772882706317510400,9.515510498046876,-0.009852910414338112,-0.006730325520038605,-0.0010214948561042547
1772882706327442400,9.5254423828125,-0.010182717815041542,-0.002368558431044221,0.012320782989263535
1772882706337375500,9.53537548828125,-0.01296865101903677,0.0037862733006477356,0.022072212770581245
1772882706347307300,9.545307373046874,-0.011478929780423641,0.007498604711145163,0.02798824943602085
1772882706357240300,9.555240234375,-0.009445873089134693,0.004186964128166437,0.033075954765081406
1772882706367172400,9.56517236328125,-0.005818489473313093,0.0019955895841121674,0.02675778605043888
1772882706377105200,9.575105224609375,-0.0018897941336035728,0.0003047487698495388,0.013592449948191643
1772882706387037200,9.585037109375,0.0005017797229811549,0.0032657296396791935,-0.0019598561339080334
1772882706396970200,9.59497021484375,-0.001345655182376504,-0.0001369914971292019,-0.0135725699365139
1772882706406902300,9.60490234375,0.003017082577571273,-0.007170447148382664,-0.016567889600992203
1772882706416835300,9.61483544921875,0.0075420597568154335,-0.016576198861002922,-0.0098082534968853
1772882706426767400,9.624767333984375,0.014550220221281052,-0.02366655133664608,-0.0026600011624395847
1772882706436700400,9.634700439453125,0.020841404795646667,-0.025302531197667122,0.0066948845051229
1772882706446632400,9.644632568359375,0.02271627075970173,-0.02801133133471012,0.01627206988632679
1772882706456565500,9.6545654296875,0.020897064357995987,-0.02487093210220337,0.014647540636360645
1772882706466497500,9.66449755859375,0.013418374583125114,-0.016011860221624374,0.004901817534118891
1772882706476430300,9.674430419921874,0.004656841047108173,0.0024078944697976112,-0.0019446370424702764
1772882706486362000,9.684362060546874,-0.0008931305492296815,0.00882655568420887,-0.0060609872452914715
1772882706496295200,9.694295166015625,-0.000036658020690083504,-0.00008970731869339943,-0.006127300206571817
1772882706506227200,9.704227294921875,0.00310267461463809,-0.008890054188668728,0.0019243499264121056
1772882706516160300,9.71416015625,0.003968468401581049,-0.012921014800667763,0.00005507715468411334
1772882706526092300,9.72409228515625,0.0017070719040930271,-0.009788000024855137,-0.007108491379767656
1772882706536025300,9.734025390625,-0.002237069420516491,-0.0030816274229437113,-0.010461145080626011
1772882706545957400,9.743957275390626,-0.002592281671240926,0.00046558305621147156,-0.008996003307402134
1772882706555890400,9.753890380859374,0.004470687825232744,-0.0015158089809119701,0.003834041766822338
1772882706565822500,9.763822509765625,0.0029747358057647943,-0.00591346574947238,0.013520278036594391
1772882706575755300,9.77375537109375,0.004408582113683224,-0.0022247214801609516,0.019515851512551308
1772882706585687300,9.783687255859375,0.003946791402995586,-0.0033547692000865936,0.010472442023456097
1772882706595620400,9.793620361328125,0.004830694291740656,0.003114315215498209,0.0059613133780658245
1772882706605552400,9.803552490234376,0.005087474826723337,0.000490251462906599,-0.0020415002945810556
1772882706615485400,9.8134853515625,0.0030938326381146908,0.002837561536580324,-0.009280238300561905
1772882706625417200,9.823417236328124,-0.00023298920132219791,0.002187018748372793,-0.009107017889618874
1772882706635350300,9.833350341796875,-0.0007278044940903783,0.004527670796960592,-0.005916018970310688
1772882706645282300,9.8432822265625,-0.006864046677947044,-0.0010184086859226227,-0.0024446493480354548
1772882706655215400,9.85321533203125,-0.010615109466016293,-0.002584880217909813,0.005303285550326109
1772882706665147400,9.8631474609375,-0.0022943811491131783,-0.007511942181736231,0.013972954824566841
1772882706675080200,9.873080078125,-0.00447311345487833,-0.005302051082253456,0.011937234550714493
1772882706685012200,9.88301220703125,-0.0079205222427845,0.0022917333990335464,0.00695665180683136
1772882706694945300,9.8929453125,-0.009944790974259377,0.005809769034385681,0.0030532563105225563
1772882706704877300,9.902877197265624,-0.011637920513749123,0.010877721011638641,0.0027556736022233963
1772882706714810400,9.912810302734375,-0.009420571848750114,0.013238348066806793,0.001585480640642345
1772882706724742400,9.922742431640625,-0.008996917866170406,0.013948900625109673,0.0006995010771788657
1772882706734675500,9.932675537109375,-0.009510908275842667,0.01327725313603878,0.007593625690788031
1772882706744607200,9.942607177734375,-0.015468452125787735,0.011829579249024391,0.005442644469439983
1772882706754540300,9.952540283203126,-0.015948621556162834,0.004107742570340633,0.003638086374849081
1772882706764473300,9.962473388671874,-0.012152285315096378,-0.0025444000493735075,-0.006610365584492683
1772882706774405000,9.972405029296874,-0.006316500715911388,-0.0006823176518082619,-0.013901302590966225
1772882706784338200,9.982338134765625,0.00748048722743988,0.0020223725587129593,-0.014431104063987732
1772882706794270200,9.992270263671875,0.015091534703969955,0.00014351215213537216,-0.00858466699719429
1772882706804203300,10.002203369140625,0.016556432470679283,-0.0019461968913674355,-0.0032652008812874556
1772882706814135300,10.01213525390625,0.012366216629743576,-0.007180906366556883,-0.0011160299181938171
1772882706824068400,10.022068359375,0.007475531660020351,-0.004939135164022446,0.0001281771983485669
1772882706834000400,10.03200048828125,0.00007647118763998151,0.002559793647378683,-0.0012617266038432717
1772882706843933400,10.041933349609375,-0.004928404465317726,0.0024546291679143906,-0.0068046036176383495
1772882706853865500,10.051865478515625,-0.0012132949195802212,0.005517531186342239,-0.006894351914525032
1772882706863798300,10.06179833984375,0.007413853891193867,0.0033611650578677654,-0.0017418870702385902
1772882706873730300,10.071730224609375,0.006733948364853859,0.008547404780983925,0.0006741326069459319
1772882706883663400,10.081663330078126,0.008885941468179226,0.011921871453523636,0.005729870405048132
1772882706893595100,10.09159521484375,0.0030514884274452925,0.008107958361506462,0.008980791084468365
1772882706903528200,10.101528076171874,0.0025416547432541847,0.005726030096411705,0.004649378824979067
1772882706913460200,10.111460205078124,0.0025379261933267117,0.013251591473817825,0.006209458690136671
1772882706923393300,10.121393310546875,0.0036003119312226772,0.009451543912291527,-0.0014270554529502988
1772882706933325600,10.13132568359375,0.002903096377849579,0.01909085549414158,0.0007205175934359431
1772882706943258600,10.141258544921875,0.0080189798027277,0.02615390531718731,0.0031024240888655186
1772882706953190700,10.151190673828125,0.013168467208743095,0.0276761706918478,0.0004174250934738666
1772882706963123500,10.16112353515625,0.018627092242240906,0.026788195595145226,-0.0027075493708252907
1772882706973055500,10.171055419921874,0.015135422348976135,0.025899766013026237,-0.01262569334357977
1772882706982988500,10.180988525390624,0.006284619215875864,0.004976226482540369,-0.02858216129243374
1772882706992920600,10.190920654296875,-0.0042151594534516335,-0.008297767490148544,-0.027598921209573746
1772882707002853600,10.200853515625,-0.007005032151937485,-0.000727389007806778,-0.01841738447546959
1772882707012785400,10.210785400390625,-0.010816015303134918,0.001187157817184925,-0.0009893932146951556
1772882707022718500,10.220718505859375,-0.010753325186669827,-0.0034636924974620342,0.01822170801460743
1772882707032650500,10.230650390625,-0.012409012764692307,0.0003669983707368374,0.03135082498192787
1772882707042583600,10.24058349609375,-0.01272992417216301,-0.001288886647671461,0.03431344032287598
1772882707052515600,10.250515625,-0.014886818826198578,-0.006444233935326338,0.021422408521175385
1772882707062448400,10.260448486328125,-0.015248154290020466,-0.00920106004923582,0.0038655423559248447
1772882707072380400,10.27038037109375,-0.00955857802182436,-0.016958316788077354,-0.0037063572090119123
1772882707082313500,10.2803134765625,-0.003785698674619198,-0.01608993671834469,-0.0019167347345501184
1772882707092245500,10.29024560546875,0.00814206711947918,-0.00021589919924736023,0.004136097617447376
1772882707102178600,10.300178466796876,0.015001893974840641,-0.005885591730475426,-0.0025936132296919823
