time,seconds_elapsed,z,y,x
1772807474140033800,0.06103369140625,-0.07305908203125,0.97442626953125,0.1998748779296875
1772807474149965800,0.0709658203125,-0.07415771484375,0.973052978515625,0.1996002197265625
1772807474159897900,0.08089794921875,-0.0756378173828125,0.970550537109375,0.2006683349609375
1772807474169830000,0.090829833984375,-0.0786895751953125,0.967620849609375,0.2017669677734375
1772807474179762000,0.100761962890625,-0.0819091796875,0.96630859375,0.2012786865234375
1772807474189693700,0.110693603515625,-0.0802764892578125,0.9677886962890625,0.2014312744140625
1772807474199625700,0.120625732421875,-0.077789306640625,0.9713897705078125,0.2004241943359375
1772807474209557800,0.130557861328125,-0.0757598876953125,0.97412109375,0.200897216796875
1772807474219489800,0.14048974609375,-0.073394775390625,0.975860595703125,0.1984710693359375
1772807474229420800,0.1504208984375,-0.0721893310546875,0.9769134521484375,0.1982574462890625
1772807474239352600,0.1603525390625,-0.0731353759765625,0.976593017578125,0.198211669921875
1772807474249284900,0.170284912109375,-0.0742034912109375,0.97576904296875,0.20208740234375
1772807474259217000,0.180216796875,-0.072479248046875,0.972503662109375,0.200714111328125
1772807474269149000,0.19014892578125,-0.0712432861328125,0.97076416015625,0.2017974853515625
1772807474279081000,0.2000810546875,-0.07196044921875,0.9694976806640625,0.2010498046875
1772807474289012700,0.2100126953125,-0.07470703125,0.964599609375,0.20166015625
1772807474298944800,0.21994482421875,-0.076324462890625,0.9626922607421875,0.2033538818359375
1772807474308876800,0.229876708984375,-0.074493408203125,0.9637603759765625,0.2052001953125
1772807474318808800,0.239808837890625,-0.073516845703125,0.9708099365234375,0.20269775390625
1772807474328740900,0.249740966796875,-0.072784423828125,0.980316162109375,0.2016448974609375
1772807474338673000,0.2596728515625,-0.0732574462890625,0.976837158203125,0.201385498046875
1772807474348604700,0.269604736328125,-0.073272705078125,0.969970703125,0.2067413330078125
1772807474358536700,0.27953662109375,-0.074066162109375,0.969390869140625,0.2080230712890625
1772807474368467700,0.2894677734375,-0.0737457275390625,0.9682159423828125,0.2026519775390625
1772807474378399700,0.299399658203125,-0.072113037109375,0.9690704345703125,0.200653076171875
1772807474388331800,0.309331787109375,-0.0756378173828125,0.97174072265625,0.197021484375
1772807474398263800,0.319263916015625,-0.0761566162109375,0.97003173828125,0.1988067626953125
1772807474408195800,0.32919580078125,-0.078582763671875,0.9679718017578125,0.19647216796875
1772807474418128000,0.3391279296875,-0.0803375244140625,0.966339111328125,0.1971588134765625
1772807474428060000,0.349059814453125,-0.081878662109375,0.9673309326171875,0.197235107421875
1772807474437992000,0.358991943359375,-0.0789642333984375,0.9684906005859375,0.1974029541015625
1772807474447924000,0.368924072265625,-0.0758056640625,0.9696044921875,0.200469970703125
1772807474457855700,0.378855712890625,-0.074951171875,0.9709014892578125,0.2042999267578125
1772807474467787800,0.388787841796875,-0.06976318359375,0.9667816162109375,0.202392578125
1772807474477719800,0.3987197265625,-0.07098388671875,0.958526611328125,0.2013092041015625
1772807474487651800,0.40865185546875,-0.07830810546875,0.952850341796875,0.203887939453125
1772807474497583900,0.418583984375,-0.0852813720703125,0.9539794921875,0.205963134765625
1772807474507514600,0.4285146484375,-0.0933380126953125,0.9585723876953125,0.2059326171875
1772807474517446700,0.43844677734375,-0.0969085693359375,0.9618682861328125,0.2036895751953125
1772807474527378700,0.448378662109375,-0.09515380859375,0.9647369384765625,0.1984710693359375
1772807474537310700,0.458310791015625,-0.0918731689453125,0.96905517578125,0.1991424560546875
1772807474547242800,0.46824267578125,-0.090606689453125,0.969696044921875,0.19317626953125
1772807474557174800,0.4781748046875,-0.0889739990234375,0.9664459228515625,0.2013702392578125
1772807474567106800,0.48810693359375,-0.078887939453125,0.9686737060546875,0.207427978515625
1772807474577038800,0.498038818359375,-0.0735626220703125,0.9716949462890625,0.215423583984375
1772807474586971000,0.507970947265625,-0.0789642333984375,0.9752197265625,0.2166290283203125
1772807474596903000,0.51790283203125,-0.0697784423828125,0.9777069091796875,0.2220458984375
1772807474606835000,0.5278349609375,-0.066925048828125,0.975738525390625,0.2230682373046875
1772807474616766700,0.5377666015625,-0.0761260986328125,0.9765472412109375,0.2176513671875
1772807474626698800,0.54769873046875,-0.0800323486328125,0.9766082763671875,0.21722412109375
1772807474636630800,0.557630859375,-0.0794830322265625,0.97357177734375,0.216461181640625
1772807474646561800,0.567561767578125,-0.0758514404296875,0.9725799560546875,0.21221923828125
1772807474656493800,0.577493896484375,-0.07086181640625,0.9757232666015625,0.2074432373046875
1772807474666425600,0.587425537109375,-0.0615386962890625,0.9781494140625,0.203826904296875
1772807474676357600,0.597357666015625,-0.0553741455078125,0.97796630859375,0.2009735107421875
1772807474686289700,0.60728955078125,-0.0533905029296875,0.9798431396484375,0.1948089599609375
1772807474696222000,0.617221923828125,-0.0560150146484375,0.984344482421875,0.193817138671875
1772807474706154000,0.627154052734375,-0.0562896728515625,0.9810333251953125,0.1918487548828125
1772807474716085800,0.637085693359375,-0.0514678955078125,0.9781036376953125,0.1938934326171875
1772807474726017800,0.647017822265625,-0.041107177734375,0.9777984619140625,0.1953125
1772807474735949800,0.65694970703125,-0.0326080322265625,0.9768829345703125,0.1965179443359375
1772807474745881900,0.6668818359375,-0.0258941650390625,0.9780426025390625,0.197479248046875
1772807474755814000,0.67681396484375,-0.02069091796875,0.9797821044921875,0.2032928466796875
1772807474765746000,0.686745849609375,-0.0228729248046875,0.98114013671875,0.2069549560546875
1772807474775676700,0.6966767578125,-0.0242156982421875,0.9825897216796875,0.2102508544921875
1772807474785608700,0.706608642578125,-0.0204620361328125,0.979248046875,0.212554931640625
1772807474795540700,0.716540771484375,-0.018096923828125,0.974700927734375,0.214263916015625
1772807474805472800,0.72647265625,-0.014068603515625,0.9745025634765625,0.21771240234375
1772807474815404800,0.73640478515625,-0.01190185546875,0.971405029296875,0.2181549072265625
1772807474825336600,0.746336669921875,-0.0099945068359375,0.9686279296875,0.2189483642578125
1772807474835268600,0.7562685546875,-0.0109100341796875,0.9693145751953125,0.217803955078125
1772807474845201000,0.766200927734375,-0.0119171142578125,0.9683990478515625,0.2154998779296875
1772807474855133000,0.7761328125,-0.0140228271484375,0.9628753662109375,0.2104644775390625
1772807474865065000,0.78606494140625,-0.0128326416015625,0.9615936279296875,0.2073516845703125
1772807474874997000,0.7959970703125,-0.0115203857421875,0.96112060546875,0.2040863037109375
1772807474884928800,0.8059287109375,-0.00946044921875,0.9663238525390625,0.2040557861328125
1772807474894860800,0.81586083984375,-0.0085906982421875,0.968475341796875,0.20733642578125
1772807474904792800,0.825792724609375,-0.0132904052734375,0.9688873291015625,0.215240478515625
1772807474914724900,0.835724853515625,-0.0159454345703125,0.9705810546875,0.21893310546875
1772807474924655600,0.845655517578125,-0.00897216796875,0.972137451171875,0.2169952392578125
1772807474934587600,0.855587646484375,-0.0150299072265625,0.9719390869140625,0.2163543701171875
1772807474944519700,0.865519775390625,-0.0216827392578125,0.9764556884765625,0.2180633544921875
1772807474954451700,0.87545166015625,-0.0206298828125,0.976776123046875,0.2195892333984375
1772807474964383700,0.8853837890625,-0.01220703125,0.9757232666015625,0.21820068359375
1772807474974315800,0.895315673828125,-0.0224761962890625,0.976287841796875,0.218597412109375
1772807474984247800,0.905247802734375,-0.0270843505859375,0.97900390625,0.2259521484375
1772807474994179800,0.915179931640625,-0.0192413330078125,0.9723052978515625,0.2238922119140625
1772807475004112000,0.92511181640625,-0.014190673828125,0.97509765625,0.2253265380859375
1772807475014044000,0.9350439453125,-0.0110626220703125,0.9792938232421875,0.23040771484375
1772807475023976000,0.944975830078125,-0.010009765625,0.9771728515625,0.238433837890625
1772807475033908000,0.954907958984375,-0.0140533447265625,0.96905517578125,0.243927001953125
1772807475043840000,0.964840087890625,-0.0181121826171875,0.966552734375,0.2436370849609375
1772807475053772000,0.97477197265625,-0.0203857421875,0.963592529296875,0.24273681640625
1772807475063702800,0.984702880859375,-0.0198974609375,0.9702301025390625,0.2401123046875
1772807475073634800,0.994634765625,-0.0206298828125,0.9694366455078125,0.23577880859375
1772807475083566800,1.00456689453125,-0.0142822265625,0.9698944091796875,0.229461669921875
1772807475093499000,1.014498779296875,-0.019561767578125,0.971099853515625,0.2313079833984375
1772807475103431000,1.024430908203125,-0.0225830078125,0.9683837890625,0.23583984375
1772807475113363000,1.034363037109375,-0.0282440185546875,0.9664764404296875,0.2372283935546875
1772807475123294700,1.044294677734375,-0.0284881591796875,0.968414306640625,0.2377471923828125
1772807475133226800,1.054226806640625,-0.0328369140625,0.9715118408203125,0.243621826171875
1772807475143159000,1.064158935546875,-0.0373687744140625,0.97259521484375,0.2414398193359375
1772807475153091000,1.074091064453125,-0.0313568115234375,0.9744110107421875,0.2366943359375
1772807475163023000,1.084023193359375,-0.0292510986328125,0.973907470703125,0.2360076904296875
1772807475172955000,1.093954833984375,-0.0319671630859375,0.9703826904296875,0.2325286865234375
1772807475182887000,1.103886962890625,-0.03375244140625,0.9673919677734375,0.23345947265625
1772807475192819000,1.11381884765625,-0.0333251953125,0.9700164794921875,0.2365264892578125
1772807475202750000,1.12375,-0.0340576171875,0.9718475341796875,0.237396240234375
1772807475212682000,1.133681884765625,-0.03131103515625,0.97174072265625,0.24237060546875
1772807475222613800,1.14361376953125,-0.02679443359375,0.9696197509765625,0.2421417236328125
1772807475232545800,1.1535458984375,-0.020904541015625,0.9710693359375,0.2371673583984375
1772807475242477800,1.163477783203125,-0.0185546875,0.97247314453125,0.238037109375
1772807475252409900,1.173409912109375,-0.0199127197265625,0.972930908203125,0.2402496337890625
1772807475262342000,1.183341796875,-0.0221710205078125,0.969268798828125,0.241180419921875
1772807475272274000,1.19327392578125,-0.0218048095703125,0.9622344970703125,0.243072509765625
1772807475282205700,1.203205810546875,-0.0170745849609375,0.957550048828125,0.244964599609375
1772807475292138000,1.213137939453125,-0.012420654296875,0.9578857421875,0.2446746826171875
1772807475302070000,1.223070068359375,-0.0135040283203125,0.959259033203125,0.2464599609375
1772807475312002000,1.233001953125,-0.0132293701171875,0.96246337890625,0.248291015625
1772807475321934000,1.24293408203125,-0.01031494140625,0.96875,0.2468719482421875
1772807475331866000,1.2528662109375,-0.0142974853515625,0.9713592529296875,0.24896240234375
1772807475341796900,1.262796875,-0.0142669677734375,0.9685516357421875,0.2461700439453125
1772807475351729000,1.27272900390625,-0.0135650634765625,0.9685821533203125,0.2479400634765625
1772807475361661000,1.282660888671875,-0.011688232421875,0.9683685302734375,0.248077392578125
1772807475371593000,1.292593017578125,-0.0135345458984375,0.9669647216796875,0.2473907470703125
1772807475381524700,1.302524658203125,-0.0178375244140625,0.96734619140625,0.2471771240234375
1772807475391456800,1.312456787109375,-0.0167236328125,0.9673004150390625,0.247406005859375
1772807475401388800,1.322388916015625,-0.0195465087890625,0.9662628173828125,0.2459716796875
1772807475411320800,1.33232080078125,-0.0185699462890625,0.9617919921875,0.2476959228515625
1772807475421252900,1.3422529296875,-0.0171966552734375,0.9600677490234375,0.2466278076171875
1772807475431185000,1.352184814453125,-0.0158843994140625,0.9619293212890625,0.245025634765625
1772807475441117000,1.362116943359375,-0.018768310546875,0.9637908935546875,0.245391845703125
1772807475451049000,1.372049072265625,-0.01861572265625,0.9615020751953125,0.2407073974609375
1772807475460981000,1.38198095703125,-0.022857666015625,0.9618072509765625,0.247344970703125
1772807475470913000,1.3919130859375,-0.020843505859375,0.9627227783203125,0.245635986328125
1772807475480844000,1.401843994140625,-0.020477294921875,0.96478271484375,0.2483673095703125
1772807475490775800,1.41177587890625,-0.020751953125,0.9626922607421875,0.2505035400390625
1772807475500707800,1.421707763671875,-0.0220184326171875,0.9614410400390625,0.2466278076171875
1772807475510639900,1.431639892578125,-0.02325439453125,0.9656982421875,0.2411346435546875
1772807475520572000,1.441572021484375,-0.025634765625,0.965606689453125,0.2311859130859375
1772807475530504000,1.45150390625,-0.0284576416015625,0.967132568359375,0.2213592529296875
1772807475540435700,1.461435791015625,-0.030853271484375,0.96929931640625,0.217681884765625
1772807475550367700,1.47136767578125,-0.0303497314453125,0.97161865234375,0.21759033203125
1772807475560299800,1.4812998046875,-0.0294036865234375,0.9735870361328125,0.2197723388671875
1772807475570231800,1.491231689453125,-0.030364990234375,0.9754180908203125,0.2230224609375
1772807475580163800,1.501163818359375,-0.031768798828125,0.970977783203125,0.2318115234375
1772807475590096000,1.511095947265625,-0.032806396484375,0.9679107666015625,0.2390899658203125
1772807475600028000,1.52102783203125,-0.03192138671875,0.96356201171875,0.242645263671875
1772807475609960000,1.5309599609375,-0.02984619140625,0.9620208740234375,0.2412567138671875
1772807475619891000,1.540890869140625,-0.0277557373046875,0.96197509765625,0.2441253662109375
1772807475629823000,1.550822998046875,-0.0316009521484375,0.961639404296875,0.244842529296875
1772807475639755000,1.560755126953125,-0.03564453125,0.9628753662109375,0.2456512451171875
1772807475649686800,1.570686767578125,-0.031158447265625,0.9613037109375,0.24627685546875
1772807475659618800,1.580618896484375,-0.029449462890625,0.96368408203125,0.2412872314453125
1772807475669550800,1.59055078125,-0.027069091796875,0.9671630859375,0.23736572265625
1772807475679483000,1.60048291015625,-0.028961181640625,0.9685516357421875,0.233123779296875
1772807475689415000,1.610414794921875,-0.0252838134765625,0.96881103515625,0.2303009033203125
1772807475699347000,1.620346923828125,-0.0243682861328125,0.9684295654296875,0.230560302734375
1772807475709278700,1.63027880859375,-0.023529052734375,0.966094970703125,0.2313079833984375
1772807475719210800,1.640210693359375,-0.0259246826171875,0.964202880859375,0.2311859130859375
1772807475729142800,1.650142822265625,-0.0276031494140625,0.9601287841796875,0.2352447509765625
1772807475739075000,1.660074951171875,-0.029083251953125,0.9563446044921875,0.237548828125
1772807475749007000,1.670007080078125,-0.032073974609375,0.9553985595703125,0.2380828857421875
1772807475758937900,1.679937744140625,-0.031494140625,0.9560546875,0.2394561767578125
1772807475768870000,1.689869873046875,-0.0343780517578125,0.9581298828125,0.2367095947265625
1772807475778802000,1.699802001953125,-0.0357513427734375,0.9611053466796875,0.2330474853515625
1772807475788734000,1.70973388671875,-0.034332275390625,0.9640655517578125,0.23126220703125
1772807475798666000,1.719666015625,-0.0338897705078125,0.968719482421875,0.2302703857421875
1772807475808597800,1.72959765625,-0.0286865234375,0.972564697265625,0.2269439697265625
1772807475818529800,1.73952978515625,-0.025421142578125,0.9702301025390625,0.226898193359375
1772807475828461800,1.7494619140625,-0.0322113037109375,0.9684600830078125,0.2302703857421875
1772807475838393900,1.759393798828125,-0.0413360595703125,0.9681854248046875,0.2324676513671875
1772807475848326000,1.769325927734375,-0.041778564453125,0.967498779296875,0.23199462890625
1772807475858258000,1.7792578125,-0.039581298828125,0.96868896484375,0.23187255859375
1772807475868189700,1.789189697265625,-0.0349884033203125,0.9699859619140625,0.2301483154296875
1772807475878121700,1.799121826171875,-0.030609130859375,0.97198486328125,0.2294158935546875
1772807475888054000,1.809053955078125,-0.0286712646484375,0.9712677001953125,0.2283172607421875
1772807475897986000,1.818986083984375,-0.029083251953125,0.969512939453125,0.2305145263671875
1772807475907917000,1.8289169921875,-0.029510498046875,0.970703125,0.230377197265625
1772807475917848800,1.838848876953125,-0.029388427734375,0.9744415283203125,0.2310333251953125
1772807475927780900,1.84878076171875,-0.02874755859375,0.97381591796875,0.2335357666015625
1772807475937713000,1.858712890625,-0.022857666015625,0.97314453125,0.2373809814453125
1772807475947645000,1.86864501953125,-0.02130126953125,0.974151611328125,0.23944091796875
1772807475957577000,1.878576904296875,-0.0196075439453125,0.9737548828125,0.241851806640625
1772807475967508700,1.8885087890625,-0.0196990966796875,0.974578857421875,0.2408599853515625
1772807475977440800,1.898440673828125,-0.0203857421875,0.97296142578125,0.23858642578125
1772807475987372800,1.908372802734375,-0.020538330078125,0.97283935546875,0.2392120361328125
1772807475997304800,1.918304931640625,-0.0178680419921875,0.972564697265625,0.2373199462890625
1772807476007236900,1.92823681640625,-0.016387939453125,0.971710205078125,0.2377166748046875
1772807476017168600,1.938168701171875,-0.013336181640625,0.9703216552734375,0.242706298828125
1772807476027100700,1.9481005859375,-0.01318359375,0.9667816162109375,0.2455291748046875
1772807476037032700,1.95803271484375,-0.0114898681640625,0.964874267578125,0.24774169921875
1772807476046964700,1.96796484375,-0.0102691650390625,0.9648284912109375,0.2490386962890625
1772807476056895500,1.9778955078125,-0.01202392578125,0.9637451171875,0.2464752197265625
1772807476066827500,1.98782763671875,-0.0171661376953125,0.96026611328125,0.242034912109375
1772807476076759600,1.997759521484375,-0.020782470703125,0.9590301513671875,0.237518310546875
1772807476086691600,2.007691650390625,-0.0207366943359375,0.96063232421875,0.2348785400390625
1772807476096623600,2.01762353515625,-0.02166748046875,0.9657440185546875,0.2371368408203125
1772807476106555400,2.027555419921875,-0.019287109375,0.9663543701171875,0.238006591796875
1772807476116487400,2.0374873046875,-0.019073486328125,0.96246337890625,0.2395477294921875
1772807476126419500,2.04741943359375,-0.021392822265625,0.959991455078125,0.2427825927734375
1772807476136351500,2.0573515625,-0.022247314453125,0.96112060546875,0.2428741455078125
1772807476146283500,2.067283447265625,-0.0247955322265625,0.961517333984375,0.23785400390625
1772807476156215600,2.077215576171875,-0.0247650146484375,0.96307373046875,0.231964111328125
1772807476166147600,2.087147705078125,-0.03118896484375,0.9683837890625,0.235107421875
1772807476176079600,2.09707958984375,-0.02685546875,0.971038818359375,0.233001708984375
1772807476186011600,2.10701171875,-0.0261688232421875,0.9680328369140625,0.235992431640625
1772807476195942700,2.116942626953125,-0.0236968994140625,0.9669342041015625,0.23895263671875
1772807476205874700,2.126874755859375,-0.023284912109375,0.9680023193359375,0.239959716796875
1772807476215806500,2.136806396484375,-0.02374267578125,0.9701385498046875,0.2383575439453125
1772807476225738500,2.146738525390625,-0.0267791748046875,0.97216796875,0.238739013671875
1772807476235670500,2.15667041015625,-0.0286712646484375,0.974029541015625,0.23883056640625
1772807476245602600,2.1666025390625,-0.032135009765625,0.9759063720703125,0.238800048828125
1772807476255534600,2.17653466796875,-0.033721923828125,0.9752349853515625,0.239715576171875
1772807476265466600,2.186466552734375,-0.0398406982421875,0.972076416015625,0.243865966796875
1772807476275398400,2.1963984375,-0.034027099609375,0.9702301025390625,0.23931884765625
1772807476285330400,2.206330322265625,-0.0323638916015625,0.966033935546875,0.23565673828125
1772807476295262500,2.216262451171875,-0.0371551513671875,0.9676055908203125,0.234375
1772807476305194500,2.226194580078125,-0.036956787109375,0.9685516357421875,0.2303924560546875
1772807476315126800,2.236126708984375,-0.0367431640625,0.96954345703125,0.2278594970703125
1772807476325058600,2.24605859375,-0.0341949462890625,0.9696807861328125,0.2264862060546875
1772807476334989600,2.255989501953125,-0.03466796875,0.9676361083984375,0.2313385009765625
1772807476344921600,2.265921630859375,-0.031097412109375,0.96728515625,0.2338714599609375
1772807476354853600,2.275853515625,-0.0322265625,0.9674835205078125,0.23760986328125
1772807476364785700,2.28578564453125,-0.0331268310546875,0.96734619140625,0.237060546875
1772807476374717400,2.295717529296875,-0.0370330810546875,0.9644012451171875,0.236328125
1772807476384649500,2.3056494140625,-0.0395050048828125,0.9653472900390625,0.2335357666015625
1772807476394581500,2.31558154296875,-0.0373382568359375,0.9673004150390625,0.2289581298828125
1772807476404513500,2.325513427734375,-0.0335845947265625,0.9671173095703125,0.230926513671875
1772807476414445600,2.335445556640625,-0.03045654296875,0.97161865234375,0.231719970703125
1772807476424377600,2.345377685546875,-0.0319976806640625,0.9710540771484375,0.2344818115234375
1772807476434309400,2.355309326171875,-0.028839111328125,0.969696044921875,0.2368927001953125
1772807476444241400,2.365241455078125,-0.029876708984375,0.9715118408203125,0.2368316650390625
1772807476454173400,2.37517333984375,-0.0308074951171875,0.9725189208984375,0.238861083984375
1772807476464105700,2.385105712890625,-0.0314788818359375,0.9693450927734375,0.2397613525390625
1772807476474037800,2.395037841796875,-0.0335845947265625,0.9679107666015625,0.23992919921875
1772807476483969800,2.4049697265625,-0.0330657958984375,0.9642181396484375,0.2398223876953125
1772807476493900500,2.414900634765625,-0.03314208984375,0.960174560546875,0.2406005859375
1772807476503832600,2.42483251953125,-0.0279693603515625,0.9610443115234375,0.24188232421875
1772807476513764600,2.4347646484375,-0.0277862548828125,0.9651031494140625,0.24072265625
1772807476523696600,2.444696533203125,-0.028167724609375,0.9662322998046875,0.2414093017578125
1772807476533628400,2.45462841796875,-0.0306243896484375,0.9665374755859375,0.23828125
1772807476543560400,2.464560546875,-0.0290679931640625,0.96563720703125,0.239471435546875
1772807476553492500,2.474492431640625,-0.0287933349609375,0.9662017822265625,0.244171142578125
1772807476563424500,2.484424560546875,-0.02618408203125,0.966888427734375,0.2431793212890625
1772807476573356500,2.4943564453125,-0.0244140625,0.9681243896484375,0.2437744140625
1772807476583288600,2.50428857421875,-0.0241241455078125,0.9673614501953125,0.2438201904296875
1772807476593220400,2.514220458984375,-0.02374267578125,0.9665374755859375,0.240753173828125
1772807476603152600,2.524152587890625,-0.0247955322265625,0.965606689453125,0.240875244140625
1772807476613084700,2.534084716796875,-0.0225067138671875,0.9648284912109375,0.2419891357421875
1772807476623016700,2.5440166015625,-0.0231475830078125,0.966766357421875,0.239532470703125
1772807476632947700,2.55394775390625,-0.024383544921875,0.96392822265625,0.239959716796875
1772807476642879500,2.56387939453125,-0.0224456787109375,0.9630126953125,0.2375640869140625
1772807476652811500,2.5738115234375,-0.0276031494140625,0.96435546875,0.2389068603515625
1772807476662743600,2.58374365234375,-0.022918701171875,0.964080810546875,0.2371063232421875
1772807476672675600,2.593675537109375,-0.0206756591796875,0.9638824462890625,0.23748779296875
1772807476682607600,2.603607666015625,-0.02642822265625,0.9644622802734375,0.23846435546875
1772807476692539600,2.61353955078125,-0.033416748046875,0.9663543701171875,0.241058349609375
1772807476702471400,2.623471435546875,-0.032012939453125,0.9655914306640625,0.2426300048828125
1772807476712403500,2.633403564453125,-0.031158447265625,0.9635772705078125,0.2398529052734375
1772807476722335500,2.64333544921875,-0.02935791015625,0.964019775390625,0.2385711669921875
1772807476732267500,2.653267578125,-0.0291290283203125,0.964691162109375,0.2357025146484375
1772807476742199600,2.663199462890625,-0.0322418212890625,0.9634552001953125,0.2366943359375
1772807476752131600,2.673131591796875,-0.03192138671875,0.96405029296875,0.23291015625
1772807476762063600,2.683063720703125,-0.0352630615234375,0.9653778076171875,0.2314910888671875
1772807476771995600,2.69299560546875,-0.037261962890625,0.9666595458984375,0.233184814453125
1772807476781927700,2.702927734375,-0.0359344482421875,0.9644317626953125,0.232818603515625
1772807476791858700,2.712858642578125,-0.034942626953125,0.964508056640625,0.2349700927734375
1772807476801790500,2.72279052734375,-0.038055419921875,0.96417236328125,0.235076904296875
1772807476811722500,2.732722412109375,-0.0420379638671875,0.9654388427734375,0.23541259765625
1772807476821654500,2.742654541015625,-0.045501708984375,0.9658355712890625,0.23394775390625
1772807476831586600,2.752586669921875,-0.04608154296875,0.9674224853515625,0.22833251953125
1772807476841518600,2.7625185546875,-0.04901123046875,0.9704742431640625,0.2285308837890625
1772807476851450600,2.77245068359375,-0.049041748046875,0.9685821533203125,0.2301025390625
1772807476861382400,2.78238232421875,-0.0454254150390625,0.967498779296875,0.2318115234375
1772807476871314400,2.792314453125,-0.0432281494140625,0.9684906005859375,0.234222412109375
1772807476881246500,2.80224658203125,-0.0451812744140625,0.969635009765625,0.235870361328125
1772807476891178500,2.812178466796875,-0.0470123291015625,0.97247314453125,0.235565185546875
1772807476901110500,2.822110595703125,-0.0489044189453125,0.971343994140625,0.23577880859375
1772807476911042800,2.832042724609375,-0.0476531982421875,0.97149658203125,0.23602294921875
1772807476920974600,2.841974609375,-0.0426177978515625,0.9700469970703125,0.2365570068359375
1772807476930906600,2.85190673828125,-0.0420684814453125,0.9685516357421875,0.240203857421875
1772807476940837600,2.861837646484375,-0.0422515869140625,0.9669036865234375,0.2411346435546875
1772807476950769700,2.871769775390625,-0.04010009765625,0.967041015625,0.2411346435546875
1772807476960701400,2.881701416015625,-0.0392608642578125,0.96832275390625,0.2391510009765625
1772807476970633500,2.891633544921875,-0.043701171875,0.9680633544921875,0.2402801513671875
1772807476980565500,2.9015654296875,-0.045013427734375,0.9667510986328125,0.23870849609375
1772807476990497500,2.91149755859375,-0.04522705078125,0.966644287109375,0.2390289306640625
1772807477000429600,2.9214296875,-0.040985107421875,0.966552734375,0.241424560546875
1772807477010361600,2.931361572265625,-0.039703369140625,0.9630889892578125,0.241851806640625
1772807477020293400,2.94129345703125,-0.0411834716796875,0.961334228515625,0.243988037109375
1772807477030225400,2.951225341796875,-0.0380401611328125,0.962738037109375,0.245758056640625
1772807477040157400,2.961157470703125,-0.0354766845703125,0.965606689453125,0.2468719482421875
1772807477050089500,2.97108935546875,-0.0364532470703125,0.9626922607421875,0.247833251953125
1772807477060021800,2.981021728515625,-0.0379180908203125,0.96392822265625,0.2451629638671875
1772807477069953800,2.990953857421875,-0.0382080078125,0.964996337890625,0.24322509765625
1772807477079885600,3.000885498046875,-0.037933349609375,0.96368408203125,0.2387237548828125
1772807477089816600,3.010816650390625,-0.0377655029296875,0.9642181396484375,0.2372283935546875
1772807477099748600,3.02074853515625,-0.0346527099609375,0.9657135009765625,0.2355194091796875
1772807477109680600,3.0306806640625,-0.0346832275390625,0.966949462890625,0.2368316650390625
1772807477119612700,3.04061279296875,-0.0366973876953125,0.967559814453125,0.2349395751953125
1772807477129544400,3.05054443359375,-0.0341033935546875,0.96612548828125,0.235443115234375
1772807477139476500,3.0604765625,-0.03466796875,0.965362548828125,0.236785888671875
1772807477149408500,3.070408447265625,-0.0385284423828125,0.9662933349609375,0.235992431640625
1772807477159340500,3.080340576171875,-0.036712646484375,0.9666290283203125,0.2367706298828125
1772807477169272600,3.0902724609375,-0.03765869140625,0.966094970703125,0.2328643798828125
1772807477179204400,3.100204345703125,-0.0349578857421875,0.966522216796875,0.23150634765625
1772807477189136400,3.110136474609375,-0.032623291015625,0.9657135009765625,0.2335357666015625
1772807477199068700,3.120068603515625,-0.0324554443359375,0.96453857421875,0.2333221435546875
1772807477209000700,3.130000732421875,-0.0322265625,0.9652557373046875,0.2336578369140625
1772807477218932700,3.1399326171875,-0.033538818359375,0.96484375,0.23602294921875
1772807477228864800,3.14986474609375,-0.03216552734375,0.9622344970703125,0.2361297607421875
1772807477238796500,3.159796630859375,-0.0341796875,0.96380615234375,0.2362823486328125
1772807477248727600,3.1697275390625,-0.0353240966796875,0.963775634765625,0.238128662109375
1772807477258659600,3.17965966796875,-0.035675048828125,0.96624755859375,0.2372894287109375
1772807477268591600,3.189591552734375,-0.0338897705078125,0.9690704345703125,0.2390594482421875
1772807477278523600,3.199523681640625,-0.0349273681640625,0.966796875,0.2372283935546875
1772807477288455400,3.209455322265625,-0.037200927734375,0.965423583984375,0.237060546875
1772807477298387500,3.219387451171875,-0.0369873046875,0.967071533203125,0.234893798828125
1772807477308319500,3.229319580078125,-0.0361328125,0.9665374755859375,0.2309722900390625
1772807477318251500,3.23925146484375,-0.038482666015625,0.9662017822265625,0.2305908203125
1772807477328183600,3.24918359375,-0.0385589599609375,0.9650421142578125,0.2291259765625
1772807477338115600,3.259115478515625,-0.0379638671875,0.966888427734375,0.228759765625
1772807477348047600,3.269047607421875,-0.0382537841796875,0.9683837890625,0.2323455810546875
1772807477357979600,3.278979736328125,-0.0384521484375,0.9670867919921875,0.234649658203125
1772807477367911700,3.28891162109375,-0.03656005859375,0.969879150390625,0.2378082275390625
1772807477377843700,3.29884375,-0.03363037109375,0.9732513427734375,0.239471435546875
1772807477387775700,3.308775634765625,-0.03424072265625,0.9715118408203125,0.2439727783203125
1772807477397706500,3.31870654296875,-0.0366973876953125,0.9676055908203125,0.24591064453125
1772807477407638500,3.328638427734375,-0.037841796875,0.967376708984375,0.2458648681640625
1772807477417570600,3.338570556640625,-0.039276123046875,0.9700164794921875,0.2452545166015625
1772807477427502600,3.348502685546875,-0.037994384765625,0.9700927734375,0.244537353515625
1772807477437434600,3.3584345703125,-0.03973388671875,0.9688568115234375,0.244415283203125
1772807477447366400,3.368366455078125,-0.0377655029296875,0.9694976806640625,0.240081787109375
1772807477457298400,3.37829833984375,-0.0372467041015625,0.967926025390625,0.23785400390625
1772807477467230500,3.38823046875,-0.0364837646484375,0.966888427734375,0.2345733642578125
1772807477477162500,3.39816259765625,-0.0374603271484375,0.968231201171875,0.2322845458984375
1772807477487094500,3.408094482421875,-0.036834716796875,0.96630859375,0.233367919921875
1772807477497026600,3.418026611328125,-0.042022705078125,0.96441650390625,0.22930908203125
1772807477506958600,3.42795849609375,-0.0398406982421875,0.9630889892578125,0.22821044921875
1772807477516890600,3.437890625,-0.0385284423828125,0.9631805419921875,0.2303924560546875
1772807477526822700,3.44782275390625,-0.03631591796875,0.9649200439453125,0.2328338623046875
1772807477536754700,3.457754638671875,-0.0362701416015625,0.9665374755859375,0.234710693359375
1772807477546686700,3.467686767578125,-0.0385589599609375,0.96429443359375,0.232696533203125
1772807477556617500,3.477617431640625,-0.034088134765625,0.9659271240234375,0.2345123291015625
1772807477566549500,3.487549560546875,-0.0361328125,0.9674224853515625,0.2372283935546875
1772807477576481500,3.4974814453125,-0.034881591796875,0.9680023193359375,0.2370147705078125
1772807477586413600,3.50741357421875,-0.0308074951171875,0.9674835205078125,0.23956298828125
1772807477596345600,3.517345703125,-0.0308380126953125,0.967803955078125,0.2418365478515625
1772807477606277400,3.52727734375,-0.0377197265625,0.967803955078125,0.241943359375
1772807477616209400,3.53720947265625,-0.0424346923828125,0.965087890625,0.2408294677734375
1772807477626141400,3.547141357421875,-0.045501708984375,0.966094970703125,0.2396697998046875
1772807477636073500,3.557073486328125,-0.044158935546875,0.9683990478515625,0.23870849609375
1772807477646005500,3.567005615234375,-0.0441436767578125,0.96868896484375,0.2389984130859375
1772807477655937800,3.576937744140625,-0.0383148193359375,0.9669952392578125,0.2416229248046875
1772807477665869600,3.58686962890625,-0.0363006591796875,0.9673309326171875,0.24212646484375
1772807477675801600,3.596801513671875,-0.0340576171875,0.9667816162109375,0.24078369140625
1772807477685733600,3.606733642578125,-0.0359039306640625,0.968170166015625,0.2391357421875
1772807477695665700,3.616665771484375,-0.0405120849609375,0.966644287109375,0.2382659912109375
1772807477705597700,3.62659765625,-0.0404052734375,0.9650726318359375,0.2373199462890625
1772807477715529700,3.63652978515625,-0.0379180908203125,0.9654693603515625,0.2357635498046875
1772807477725460500,3.64646044921875,-0.0361480712890625,0.964752197265625,0.238922119140625
1772807477735392500,3.656392578125,-0.035614013671875,0.9665374755859375,0.2395477294921875
1772807477745324500,3.666324462890625,-0.035797119140625,0.96551513671875,0.2407684326171875
1772807477755256600,3.676256591796875,-0.0347747802734375,0.9640045166015625,0.239532470703125
1772807477765188600,3.686188720703125,-0.03594970703125,0.9665679931640625,0.2390289306640625
1772807477775120400,3.696120361328125,-0.03570556640625,0.9661407470703125,0.2397003173828125
1772807477785052400,3.706052490234375,-0.03570556640625,0.9657440185546875,0.2401275634765625
1772807477794984700,3.715984619140625,-0.0348968505859375,0.9659423828125,0.2405548095703125
1772807477804916700,3.725916748046875,-0.034423828125,0.9664154052734375,0.2410888671875
1772807477814848800,3.735848876953125,-0.032073974609375,0.966552734375,0.244110107421875
1772807477824780500,3.745780517578125,-0.031951904296875,0.9647064208984375,0.2440032958984375
1772807477834712600,3.755712646484375,-0.0339813232421875,0.964569091796875,0.243377685546875
1772807477844644600,3.76564453125,-0.035064697265625,0.9659881591796875,0.2415924072265625
1772807477854576600,3.77557666015625,-0.0366058349609375,0.96563720703125,0.2401580810546875
1772807477864508700,3.7855087890625,-0.0364837646484375,0.965301513671875,0.2374267578125
1772807477874440700,3.795440673828125,-0.034912109375,0.9644317626953125,0.2350616455078125
1772807477884371500,3.805371337890625,-0.033233642578125,0.9658966064453125,0.2342071533203125
1772807477894303500,3.815303466796875,-0.0310516357421875,0.9656982421875,0.2376556396484375
1772807477904235500,3.825235595703125,-0.0306549072265625,0.9673309326171875,0.241668701171875
1772807477914167600,3.83516748046875,-0.03228759765625,0.9667205810546875,0.240203857421875
1772807477924099600,3.845099609375,-0.0362091064453125,0.9664764404296875,0.2401885986328125
1772807477934031400,3.85503125,-0.0353546142578125,0.9679718017578125,0.2369232177734375
1772807477943963600,3.864963623046875,-0.036468505859375,0.9696197509765625,0.236236572265625
1772807477953895700,3.874895751953125,-0.036376953125,0.9697418212890625,0.2348785400390625
1772807477963827700,3.88482763671875,-0.037567138671875,0.9680938720703125,0.2348175048828125
1772807477973759700,3.894759765625,-0.0378570556640625,0.9659271240234375,0.2346649169921875
1772807477983691800,3.90469189453125,-0.036407470703125,0.96875,0.2332000732421875
1772807477993623600,3.91462353515625,-0.0390167236328125,0.970367431640625,0.2342529296875
1772807478003555600,3.9245556640625,-0.0396728515625,0.966583251953125,0.2357177734375
1772807478013487600,3.934487548828125,-0.0381011962890625,0.966400146484375,0.237548828125
1772807478023419400,3.94441943359375,-0.03741455078125,0.9667510986328125,0.2366485595703125
1772807478033351200,3.95435107421875,-0.038116455078125,0.969482421875,0.2359771728515625
1772807478043283200,3.964283203125,-0.0394744873046875,0.9683837890625,0.235595703125
1772807478053214200,3.974214111328125,-0.037841796875,0.966766357421875,0.2354888916015625
1772807478063145500,3.9841455078125,-0.036224365234375,0.9670867919921875,0.232879638671875
1772807478073077200,3.9940771484375,-0.03857421875,0.9659423828125,0.2333984375
1772807478083009300,4.00400927734375,-0.0390777587890625,0.96612548828125,0.2336883544921875
1772807478092941300,4.01394140625,-0.0373077392578125,0.9666290283203125,0.233673095703125
1772807478102873300,4.023873291015625,-0.0355377197265625,0.9660491943359375,0.234222412109375
1772807478112805400,4.033805419921875,-0.0361175537109375,0.9665374755859375,0.2347869873046875
1772807478122737200,4.043737060546875,-0.034027099609375,0.96588134765625,0.2373809814453125
1772807478132669200,4.053669189453125,-0.0339202880859375,0.9661865234375,0.238189697265625
1772807478142601200,4.063601318359375,-0.0354156494140625,0.9654388427734375,0.2392120361328125
1772807478152532200,4.0735322265625,-0.03692626953125,0.9633026123046875,0.2376861572265625
1772807478162464300,4.08346435546875,-0.0366058349609375,0.9642486572265625,0.23760986328125
1772807478172396300,4.093396240234375,-0.0339813232421875,0.9671478271484375,0.2375335693359375
1772807478182328300,4.103328369140625,-0.0364532470703125,0.9663848876953125,0.236480712890625
1772807478192260400,4.11326025390625,-0.0375823974609375,0.9640960693359375,0.2361907958984375
1772807478202192400,4.1231923828125,-0.035247802734375,0.9654388427734375,0.2358551025390625
1772807478212124400,4.13312451171875,-0.0347900390625,0.96966552734375,0.2382659912109375
1772807478222056400,4.143056396484375,-0.03448486328125,0.9692840576171875,0.2392425537109375
1772807478231988200,4.15298828125,-0.03582763671875,0.96514892578125,0.23760986328125
1772807478241920300,4.162920166015625,-0.036041259765625,0.9644927978515625,0.235504150390625
1772807478251852300,4.172852294921875,-0.0360565185546875,0.9677886962890625,0.23699951171875
1772807478261784300,4.182784423828125,-0.0353546142578125,0.96826171875,0.238189697265625
1772807478271716400,4.19271630859375,-0.0393524169921875,0.964935302734375,0.238311767578125
1772807478281648400,4.2026484375,-0.041778564453125,0.963043212890625,0.23577880859375
1772807478291580200,4.212580078125,-0.0394134521484375,0.965484619140625,0.233489990234375
1772807478301512200,4.22251220703125,-0.03802490234375,0.9677734375,0.2331085205078125
1772807478311443500,4.232443359375,-0.0390777587890625,0.9682159423828125,0.23394775390625
1772807478321375500,4.24237548828125,-0.0378875732421875,0.9679718017578125,0.23443603515625
1772807478331307300,4.252307373046875,-0.03704833984375,0.9691162109375,0.2349700927734375
1772807478341239300,4.2622392578125,-0.03619384765625,0.968505859375,0.233978271484375
1772807478351171300,4.27217138671875,-0.0326080322265625,0.9691619873046875,0.2355499267578125
1772807478361103400,4.282103271484375,-0.0312042236328125,0.9706878662109375,0.236907958984375
1772807478371035400,4.292035400390625,-0.034332275390625,0.96917724609375,0.238739013671875
1772807478380967400,4.301967529296875,-0.037261962890625,0.9647369384765625,0.2393798828125
1772807478390899200,4.311899169921875,-0.038970947265625,0.963470458984375,0.2362518310546875
1772807478400831200,4.321831298828125,-0.0409698486328125,0.96435546875,0.23382568359375
1772807478410763300,4.33176318359375,-0.040618896484375,0.9676361083984375,0.2317657470703125
1772807478420695300,4.3416953125,-0.038421630859375,0.96844482421875,0.232025146484375
1772807478430627300,4.35162744140625,-0.035186767578125,0.9670867919921875,0.234130859375
1772807478440560400,4.361560302734375,-0.03466796875,0.9637908935546875,0.237060546875
1772807478450492400,4.371492431640625,-0.035186767578125,0.962371826171875,0.2361602783203125
1772807478460424200,4.381424072265625,-0.0363922119140625,0.9628143310546875,0.235687255859375
1772807478470356200,4.391356201171875,-0.0395660400390625,0.9638519287109375,0.2344512939453125
1772807478480288300,4.401288330078125,-0.0416107177734375,0.96392822265625,0.234588623046875
1772807478490220300,4.41122021484375,-0.04290771484375,0.9655914306640625,0.233917236328125
1772807478500152300,4.42115234375,-0.0429229736328125,0.9666595458984375,0.231475830078125
1772807478510084400,4.43108447265625,-0.043365478515625,0.968963623046875,0.23114013671875
1772807478520016100,4.44101611328125,-0.042266845703125,0.9719085693359375,0.2303009033203125
1772807478529948200,4.4509482421875,-0.041778564453125,0.9725799560546875,0.22833251953125
1772807478539880200,4.460880126953125,-0.042633056640625,0.9716033935546875,0.2299346923828125
1772807478549812200,4.470812255859375,-0.043243408203125,0.9722137451171875,0.229644775390625
1772807478559744300,4.480744140625,-0.0436859130859375,0.9713592529296875,0.2314300537109375
1772807478569675300,4.49067529296875,-0.043731689453125,0.972137451171875,0.230865478515625
1772807478579607300,4.500607177734375,-0.0410614013671875,0.97198486328125,0.23284912109375
1772807478589539300,4.510539306640625,-0.0395660400390625,0.973114013671875,0.2338409423828125
1772807478599471400,4.520471435546875,-0.036163330078125,0.9722137451171875,0.2347412109375
1772807478609403400,4.5304033203125,-0.0338897705078125,0.968719482421875,0.2362823486328125
1772807478619335200,4.540335205078125,-0.0309295654296875,0.9671173095703125,0.2372589111328125
1772807478629267200,4.55026708984375,-0.0301971435546875,0.9673309326171875,0.2364349365234375
1772807478639199200,4.56019921875,-0.03094482421875,0.96929931640625,0.2377777099609375
1772807478649131300,4.57013134765625,-0.0246734619140625,0.968048095703125,0.240325927734375
1772807478659063300,4.580063232421875,-0.024017333984375,0.9686737060546875,0.24200439453125
1772807478668995300,4.589995361328125,-0.022430419921875,0.9698638916015625,0.2440948486328125
1772807478678927000,4.599927001953125,-0.0220947265625,0.9696197509765625,0.2457427978515625
1772807478688859100,4.609859130859375,-0.023651123046875,0.9701080322265625,0.247100830078125
1772807478698791200,4.619791259765625,-0.0252838134765625,0.965545654296875,0.2471466064453125
1772807478708723200,4.62972314453125,-0.0291595458984375,0.9647674560546875,0.24652099609375
1772807478718655200,4.6396552734375,-0.030792236328125,0.966339111328125,0.2490692138671875
1772807478728587300,4.649587158203125,-0.029571533203125,0.962432861328125,0.244842529296875
1772807478738519300,4.659519287109375,-0.02508544921875,0.96441650390625,0.243682861328125
1772807478748450300,4.6694501953125,-0.029937744140625,0.9658203125,0.2450408935546875
1772807478758382300,4.67938232421875,-0.0275726318359375,0.9656219482421875,0.244964599609375
1772807478768314400,4.689314453125,-0.02532958984375,0.96484375,0.2430877685546875
1772807478778246400,4.699246337890625,-0.0264739990234375,0.9634552001953125,0.2397918701171875
1772807478788178200,4.70917822265625,-0.02679443359375,0.9620208740234375,0.2388763427734375
1772807478798110200,4.719110107421875,-0.0277099609375,0.965606689453125,0.2367401123046875
1772807478808042200,4.729042236328125,-0.030548095703125,0.969818115234375,0.2369842529296875
1772807478817974300,4.738974365234375,-0.0338592529296875,0.9700775146484375,0.2365570068359375
1772807478827906300,4.74890625,-0.0338897705078125,0.96551513671875,0.230560302734375
1772807478837838000,4.758838134765625,-0.03363037109375,0.9620208740234375,0.2282867431640625
1772807478847770000,4.76877001953125,-0.03302001953125,0.96527099609375,0.22869873046875
1772807478857702100,4.7787021484375,-0.0321502685546875,0.96875,0.231903076171875
1772807478867634200,4.78863427734375,-0.0357208251953125,0.9678192138671875,0.2366485595703125
1772807478877566500,4.79856640625,-0.039154052734375,0.9677886962890625,0.2391815185546875
1772807478887498500,4.80849853515625,-0.039703369140625,0.9678955078125,0.2381134033203125
1772807478897430300,4.81843017578125,-0.0435028076171875,0.967864990234375,0.237152099609375
1772807478907362300,4.8283623046875,-0.0448455810546875,0.968414306640625,0.2365570068359375
1772807478917294300,4.83829443359375,-0.04656982421875,0.9711151123046875,0.232574462890625
1772807478927226400,4.848226318359375,-0.046417236328125,0.97113037109375,0.2345428466796875
1772807478937157400,4.858157470703125,-0.03656005859375,0.971221923828125,0.2369842529296875
1772807478947089200,4.868089111328125,-0.0336456298828125,0.9684906005859375,0.227630615234375
1772807478957021200,4.878021240234375,-0.03839111328125,0.9697265625,0.22735595703125
1772807478966953200,4.887953125,-0.040435791015625,0.96490478515625,0.231719970703125
1772807478976885200,4.89788525390625,-0.047576904296875,0.964385986328125,0.2301025390625
1772807478986817300,4.9078173828125,-0.04974365234375,0.9687957763671875,0.230194091796875
1772807478996749300,4.917749267578125,-0.0529937744140625,0.973846435546875,0.2288970947265625
1772807479006681000,4.92768115234375,-0.0507659912109375,0.97576904296875,0.225128173828125
1772807479016613400,4.93761328125,-0.048309326171875,0.972991943359375,0.2252197265625
1772807479026545400,4.94754541015625,-0.0477752685546875,0.9678955078125,0.2244720458984375
1772807479036477400,4.9574775390625,-0.045257568359375,0.964141845703125,0.2248687744140625
1772807479046409500,4.967409423828125,-0.039337158203125,0.9602203369140625,0.229888916015625
1772807479056341500,4.977341552734375,-0.041748046875,0.9572296142578125,0.235137939453125
1772807479066273500,4.9872734375,-0.0404052734375,0.9591522216796875,0.23406982421875
1772807479076205600,4.99720556640625,-0.0434112548828125,0.965545654296875,0.235260009765625
1772807479086137300,5.007137451171875,-0.04656982421875,0.9711151123046875,0.2377166748046875
1772807479096069400,5.0170693359375,-0.0452880859375,0.9730987548828125,0.236846923828125
1772807479106001400,5.02700146484375,-0.044769287109375,0.9739227294921875,0.2347869873046875
1772807479115933400,5.036933349609375,-0.0369720458984375,0.9703216552734375,0.2386627197265625
1772807479125864400,5.046864501953125,-0.0438232421875,0.9690704345703125,0.2383575439453125
1772807479135796200,5.056796142578125,-0.040771484375,0.9674530029296875,0.2351837158203125
1772807479145728300,5.066728271484375,-0.0476531982421875,0.966796875,0.230712890625
1772807479155660300,5.076660400390625,-0.04931640625,0.96942138671875,0.225799560546875
1772807479165592300,5.08659228515625,-0.050384521484375,0.972625732421875,0.22308349609375
1772807479175524400,5.0965244140625,-0.049560546875,0.9739990234375,0.22076416015625
1772807479185456600,5.10645654296875,-0.0486602783203125,0.9720611572265625,0.2211151123046875
1772807479195388400,5.116388427734375,-0.0478515625,0.966400146484375,0.2209930419921875
1772807479205320400,5.126320556640625,-0.0485076904296875,0.962005615234375,0.22607421875
1772807479215252500,5.13625244140625,-0.0504150390625,0.9598236083984375,0.232269287109375
1772807479225184500,5.1461845703125,-0.0513153076171875,0.960968017578125,0.2344512939453125
1772807479235116500,5.156116455078125,-0.051544189453125,0.9627227783203125,0.2318572998046875
1772807479245048600,5.166048583984375,-0.0549163818359375,0.965240478515625,0.228179931640625
1772807479254980400,5.17598046875,-0.056640625,0.9694061279296875,0.22723388671875
1772807479264912400,5.185912353515625,-0.0563201904296875,0.9720306396484375,0.224884033203125
1772807479274844400,5.195844482421875,-0.055908203125,0.9713287353515625,0.22381591796875
1772807479284776400,5.2057763671875,-0.0570068359375,0.9728546142578125,0.2251129150390625
1772807479294708500,5.21570849609375,-0.057342529296875,0.9724884033203125,0.222869873046875
1772807479304640300,5.22564013671875,-0.055633544921875,0.97003173828125,0.2161712646484375
1772807479314571300,5.2355712890625,-0.05279541015625,0.9644012451171875,0.21649169921875
1772807479324503300,5.24550341796875,-0.05767822265625,0.9693756103515625,0.2181854248046875
1772807479334435600,5.255435546875,-0.0593109130859375,0.9741973876953125,0.2183074951171875
1772807479344367600,5.26536767578125,-0.060455322265625,0.9769287109375,0.221893310546875
1772807479354299400,5.27529931640625,-0.06341552734375,0.97149658203125,0.2278900146484375
1772807479364231400,5.2852314453125,-0.0654144287109375,0.9677734375,0.2346649169921875
1772807479374163500,5.29516357421875,-0.068603515625,0.9639739990234375,0.2389373779296875
1772807479384095500,5.305095458984375,-0.0681304931640625,0.9630279541015625,0.23638916015625
1772807479394027500,5.315027587890625,-0.0648956298828125,0.961578369140625,0.2292327880859375
1772807479403959600,5.32495947265625,-0.0619354248046875,0.9610748291015625,0.2251434326171875
1772807479413891300,5.334891357421875,-0.0632476806640625,0.962310791015625,0.2265472412109375
1772807479423823400,5.3448232421875,-0.0669097900390625,0.9649505615234375,0.230194091796875
1772807479433755400,5.35475537109375,-0.0702667236328125,0.9648590087890625,0.23211669921875
1772807479443687400,5.3646875,-0.0733184814453125,0.965606689453125,0.2332763671875
1772807479453619500,5.374619384765625,-0.0779571533203125,0.9703216552734375,0.2326812744140625
1772807479463551500,5.384551513671875,-0.076507568359375,0.9751739501953125,0.2296905517578125
1772807479473483300,5.394483154296875,-0.07366943359375,0.9774932861328125,0.22589111328125
1772807479483415300,5.404415283203125,-0.0723419189453125,0.9770050048828125,0.22174072265625
1772807479493347300,5.414347412109375,-0.068756103515625,0.9744415283203125,0.219635009765625
1772807479503279400,5.424279296875,-0.0615692138671875,0.97021484375,0.220367431640625
1772807479513210400,5.43421044921875,-0.0582275390625,0.9686737060546875,0.224334716796875
1772807479523142400,5.444142333984375,-0.05914306640625,0.9679718017578125,0.225982666015625
1772807479533074400,5.454074462890625,-0.061187744140625,0.9642333984375,0.2220306396484375
1772807479543006500,5.46400634765625,-0.0636749267578125,0.962982177734375,0.218231201171875
1772807479552938500,5.4739384765625,-0.0644989013671875,0.968902587890625,0.2136383056640625
1772807479562870500,5.48387060546875,-0.0684814453125,0.9777374267578125,0.2100677490234375
1772807479572802300,5.49380224609375,-0.07208251953125,0.9806671142578125,0.208709716796875
1772807479582734300,5.503734375,-0.0735626220703125,0.9816436767578125,0.21405029296875
1772807479592666400,5.513666259765625,-0.0708770751953125,0.9790496826171875,0.2198486328125
1772807479602598400,5.523598388671875,-0.0666961669921875,0.9717254638671875,0.2156829833984375
1772807479612530400,5.533530517578125,-0.0691680908203125,0.9685516357421875,0.2223358154296875
1772807479622462500,5.54346240234375,-0.07708740234375,0.9610443115234375,0.21795654296875
1772807479632394200,5.553394287109375,-0.0831451416015625,0.9595184326171875,0.2151641845703125
1772807479642326300,5.563326171875,-0.0858306884765625,0.9591064453125,0.2075653076171875
1772807479652258300,5.57325830078125,-0.0836639404296875,0.9629364013671875,0.2115936279296875
1772807479662190300,5.5831904296875,-0.084503173828125,0.97119140625,0.20965576171875
1772807479672122400,5.593122314453125,-0.08306884765625,0.9773712158203125,0.2021484375
1772807479682054400,5.603054443359375,-0.08935546875,0.9778594970703125,0.2029876708984375
1772807479691986400,5.612986328125,-0.0879669189453125,0.9775238037109375,0.203216552734375
1772807479701918500,5.62291845703125,-0.080413818359375,0.978912353515625,0.1986236572265625
1772807479711850500,5.6328505859375,-0.086273193359375,0.9743194580078125,0.20196533203125
1772807479721781500,5.642781494140625,-0.075531005859375,0.9652862548828125,0.20074462890625
1772807479731713300,5.65271337890625,-0.0766143798828125,0.9559478759765625,0.1957855224609375
1772807479741645300,5.662645263671875,-0.08929443359375,0.953765869140625,0.1920013427734375
1772807479751577300,5.672577392578125,-0.0943603515625,0.9592437744140625,0.189910888671875
1772807479761509400,5.68250927734375,-0.0989990234375,0.967742919921875,0.1921539306640625
1772807479771441400,5.69244140625,-0.095794677734375,0.976348876953125,0.1948699951171875
1772807479781373400,5.70237353515625,-0.0867462158203125,0.978973388671875,0.1931304931640625
1772807479791305200,5.71230517578125,-0.09234619140625,0.9797821044921875,0.1878662109375
1772807479801237200,5.7222373046875,-0.0938568115234375,0.976226806640625,0.185028076171875
1772807479811169300,5.732169189453125,-0.097991943359375,0.9733123779296875,0.1876068115234375
1772807479821101300,5.742101318359375,-0.0983734130859375,0.9710540771484375,0.196929931640625
1772807479831033300,5.752033447265625,-0.092041015625,0.9668121337890625,0.2033538818359375
1772807479840965600,5.761965576171875,-0.082489013671875,0.956817626953125,0.202056884765625
1772807479850897400,5.7718974609375,-0.0789947509765625,0.9544219970703125,0.19927978515625
1772807479860829400,5.781829345703125,-0.082733154296875,0.958892822265625,0.1974334716796875
1772807479870761500,5.791761474609375,-0.08740234375,0.96710205078125,0.194549560546875
1772807479880693500,5.801693603515625,-0.0893707275390625,0.9787445068359375,0.192474365234375
1772807479890625500,5.81162548828125,-0.0884552001953125,0.985107421875,0.194305419921875
1772807479900557600,5.8215576171875,-0.091156005859375,0.98895263671875,0.1953887939453125
1772807479910489300,5.8314892578125,-0.0918426513671875,0.9836883544921875,0.1957550048828125
1772807479920421400,5.84142138671875,-0.093475341796875,0.9752349853515625,0.200347900390625
1772807479930352400,5.851352294921875,-0.1025848388671875,0.96539306640625,0.201934814453125
1772807479940284400,5.861284423828125,-0.1122283935546875,0.9559173583984375,0.200958251953125
1772807479950216200,5.87121630859375,-0.1112823486328125,0.9508819580078125,0.19256591796875
1772807479960148200,5.881148193359375,-0.1059722900390625,0.956573486328125,0.187744140625
1772807479970080300,5.891080322265625,-0.105072021484375,0.9656982421875,0.185455322265625
1772807479980012500,5.901012451171875,-0.10498046875,0.972930908203125,0.1833038330078125
1772807479989944600,5.910944580078125,-0.104095458984375,0.97576904296875,0.1814727783203125
1772807479999876600,5.920876708984375,-0.10614013671875,0.9781646728515625,0.180572509765625
1772807480009808400,5.930808349609375,-0.1075439453125,0.977447509765625,0.184783935546875
1772807480019741200,5.9407412109375,-0.1067962646484375,0.975982666015625,0.185333251953125
1772807480029673200,5.950673095703125,-0.1062164306640625,0.97271728515625,0.1862945556640625
1772807480039605200,5.960605224609375,-0.108489990234375,0.9675750732421875,0.1918792724609375
1772807480049537300,5.970537353515625,-0.1052703857421875,0.96246337890625,0.1959686279296875
1772807480059469300,5.98046923828125,-0.100555419921875,0.9621734619140625,0.203155517578125
1772807480069401300,5.9904013671875,-0.0965576171875,0.9624786376953125,0.204925537109375
1772807480079333400,6.00033349609375,-0.0996551513671875,0.96112060546875,0.2002716064453125
1772807480089265200,6.01026513671875,-0.0996856689453125,0.965057373046875,0.200836181640625
1772807480099197200,6.020197265625,-0.107879638671875,0.973907470703125,0.1919708251953125
1772807480109129200,6.030129150390625,-0.10540771484375,0.9804840087890625,0.18865966796875
1772807480119061200,6.040061279296875,-0.1081695556640625,0.9823760986328125,0.186065673828125
1772807480128993300,6.0499931640625,-0.109161376953125,0.98516845703125,0.189117431640625
1772807480138924000,6.059924072265625,-0.103668212890625,0.9796142578125,0.1886749267578125
1772807480148856000,6.06985595703125,-0.106719970703125,0.9728546142578125,0.1895751953125
1772807480158788000,6.0797880859375,-0.1056976318359375,0.9631500244140625,0.188873291015625
1772807480168720100,6.08972021484375,-0.1053009033203125,0.963958740234375,0.1883544921875
1772807480178652200,6.099652099609375,-0.1057586669921875,0.968414306640625,0.18756103515625
1772807480188584200,6.109584228515625,-0.0952911376953125,0.9738922119140625,0.1838836669921875
1772807480198516200,6.11951611328125,-0.1044921875,0.9744415283203125,0.186187744140625
1772807480208448300,6.1294482421875,-0.0991973876953125,0.9750518798828125,0.18438720703125
1772807480218380300,6.13938037109375,-0.1002349853515625,0.970428466796875,0.186065673828125
1772807480228312300,6.149312255859375,-0.102020263671875,0.969970703125,0.1872406005859375
1772807480238244400,6.159244384765625,-0.09771728515625,0.9693603515625,0.190460205078125
1772807480248176000,6.169176025390625,-0.0961456298828125,0.96630859375,0.19219970703125
1772807480258108200,6.179108154296875,-0.096649169921875,0.964141845703125,0.1949615478515625
1772807480268040200,6.189040283203125,-0.09588623046875,0.96685791015625,0.192474365234375
1772807480277972200,6.19897216796875,-0.0933685302734375,0.96978759765625,0.1920166015625
1772807480287904300,6.208904296875,-0.0933685302734375,0.969940185546875,0.1872711181640625
1772807480297836300,6.218836181640625,-0.0916595458984375,0.972320556640625,0.183074951171875
1772807480307768000,6.22876806640625,-0.0880584716796875,0.9788818359375,0.182373046875
1772807480317700000,6.2387001953125,-0.0846405029296875,0.98089599609375,0.181488037109375
1772807480327632100,6.248632080078125,-0.084930419921875,0.9807891845703125,0.184051513671875
1772807480337564200,6.258564208984375,-0.0883026123046875,0.9738922119140625,0.187744140625
1772807480347496200,6.26849609375,-0.0911407470703125,0.971588134765625,0.1908416748046875
1772807480357427200,6.27842724609375,-0.0948638916015625,0.9719085693359375,0.1945037841796875
1772807480367359200,6.288359130859375,-0.0925750732421875,0.970458984375,0.1936492919921875
1772807480377291300,6.298291259765625,-0.0922393798828125,0.970001220703125,0.1998443603515625
1772807480387223300,6.308223388671875,-0.0960235595703125,0.968780517578125,0.2008056640625
1772807480397155300,6.3181552734375,-0.0948944091796875,0.9715118408203125,0.197998046875
1772807480407087000,6.328087158203125,-0.092010498046875,0.9749298095703125,0.19635009765625
1772807480417019100,6.33801904296875,-0.0904693603515625,0.980682373046875,0.1970062255859375
1772807480426951200,6.347951171875,-0.0911712646484375,0.978240966796875,0.198944091796875
1772807480436883200,6.35788330078125,-0.0897674560546875,0.977203369140625,0.1998138427734375
1772807480446815200,6.367815185546875,-0.0888214111328125,0.977325439453125,0.2003021240234375
1772807480456747300,6.377747314453125,-0.0898284912109375,0.975677490234375,0.2037506103515625
1772807480466679000,6.387678955078125,-0.089874267578125,0.975830078125,0.206298828125
1772807480476611000,6.397611083984375,-0.086761474609375,0.9732513427734375,0.207122802734375
1772807480486543000,6.407543212890625,-0.0812835693359375,0.9723663330078125,0.2066192626953125
1772807480496475100,6.41747509765625,-0.0809173583984375,0.974090576171875,0.204193115234375
1772807480506407200,6.4274072265625,-0.0803375244140625,0.97528076171875,0.2006988525390625
1772807480516339200,6.437339111328125,-0.0786285400390625,0.9753265380859375,0.19921875
1772807480526271200,6.447271240234375,-0.08001708984375,0.974090576171875,0.1985626220703125
1772807480536203300,6.457203369140625,-0.0830078125,0.971527099609375,0.1939239501953125
1772807480546135300,6.46713525390625,-0.0834197998046875,0.9726409912109375,0.192474365234375
1772807480556067300,6.4770673828125,-0.0818634033203125,0.9743194580078125,0.1925048828125
1772807480565999400,6.486999267578125,-0.0814971923828125,0.976348876953125,0.192291259765625
1772807480575930000,6.49693017578125,-0.08172607421875,0.975982666015625,0.197601318359375
1772807480585862100,6.506862060546875,-0.0838623046875,0.977020263671875,0.2008056640625
1772807480595794200,6.516794189453125,-0.086944580078125,0.97442626953125,0.2056884765625
1772807480605726200,6.526726318359375,-0.084259033203125,0.9712982177734375,0.2062225341796875
1772807480615658200,6.536658203125,-0.0806121826171875,0.9689483642578125,0.205657958984375
1772807480625590000,6.546590087890625,-0.0769500732421875,0.9705810546875,0.2059478759765625
1772807480635522000,6.55652197265625,-0.076690673828125,0.969482421875,0.2086334228515625
1772807480645454000,6.5664541015625,-0.0765228271484375,0.9680023193359375,0.21063232421875
1772807480655386000,6.57638623046875,-0.07708740234375,0.9654083251953125,0.2114410400390625
1772807480665318100,6.586318115234375,-0.08184814453125,0.966339111328125,0.20904541015625
1772807480675250200,6.596250244140625,-0.0814971923828125,0.970062255859375,0.2057037353515625
1772807480685182200,6.60618212890625,-0.0833587646484375,0.9699859619140625,0.2026519775390625
1772807480695114200,6.6161142578125,-0.0813140869140625,0.9700164794921875,0.2051239013671875
1772807480705046300,6.62604638671875,-0.0792083740234375,0.9692535400390625,0.20648193359375
1772807480714978300,6.635978271484375,-0.0780181884765625,0.969482421875,0.2105712890625
1772807480724910300,6.645910400390625,-0.0751495361328125,0.9705963134765625,0.20880126953125
1772807480734842400,6.65584228515625,-0.0771026611328125,0.9683990478515625,0.2077178955078125
1772807480744774100,6.665774169921875,-0.0810089111328125,0.969085693359375,0.20745849609375
1772807480754706200,6.6757060546875,-0.083526611328125,0.9717254638671875,0.2025604248046875
1772807480764638200,6.68563818359375,-0.0836639404296875,0.9724884033203125,0.201171875
1772807480774570200,6.6955703125,-0.077911376953125,0.9741363525390625,0.2030792236328125
1772807480784502300,6.705502197265625,-0.0793914794921875,0.9717559814453125,0.2044219970703125
1772807480794434300,6.715434326171875,-0.080413818359375,0.968963623046875,0.2047882080078125
1772807480804365000,6.725364990234375,-0.075469970703125,0.97430419921875,0.203369140625
1772807480814297000,6.735297119140625,-0.0738372802734375,0.97674560546875,0.204132080078125
1772807480824229000,6.74522900390625,-0.0763092041015625,0.97442626953125,0.2056732177734375
1772807480834161400,6.755161376953125,-0.0786590576171875,0.9716644287109375,0.2025299072265625
1772807480844093200,6.76509326171875,-0.076507568359375,0.9707489013671875,0.203399658203125
1772807480854025200,6.775025146484375,-0.0780029296875,0.9698486328125,0.2068328857421875
1772807480863957200,6.784957275390625,-0.075836181640625,0.9471282958984375,0.21038818359375
1772807480873889300,6.79488916015625,-0.0601348876953125,0.9689483642578125,0.1963043212890625
1772807480883821300,6.8048212890625,-0.0839691162109375,0.9834442138671875,0.2037353515625
1772807480893753300,6.81475341796875,-0.0915679931640625,0.9893035888671875,0.19952392578125
1772807480903685000,6.82468505859375,-0.0864715576171875,0.98028564453125,0.195648193359375
1772807480913617200,6.8346171875,-0.07672119140625,0.97314453125,0.2018890380859375
1772807480923549200,6.844549072265625,-0.0707855224609375,0.9732666015625,0.204376220703125
1772807480933481200,6.854481201171875,-0.074310302734375,0.9712371826171875,0.2029876708984375
1772807480943413200,6.864413330078125,-0.0800933837890625,0.966888427734375,0.199859619140625
1772807480953345300,6.87434521484375,-0.0819854736328125,0.9689178466796875,0.1974334716796875
1772807480963277000,6.884277099609375,-0.0788116455078125,0.9693756103515625,0.19482421875
1772807480973209000,6.894208984375,-0.0742034912109375,0.9694671630859375,0.195343017578125
1772807480983141000,6.90414111328125,-0.077972412109375,0.9663848876953125,0.19573974609375
1772807480993073200,6.9140732421875,-0.0830841064453125,0.9685211181640625,0.193267822265625
1772807481003005200,6.924005126953125,-0.08563232421875,0.97186279296875,0.1968231201171875
1772807481012937200,6.933937255859375,-0.084442138671875,0.9725341796875,0.199432373046875
1772807481022868700,6.94386865234375,-0.0834808349609375,0.9771575927734375,0.2013397216796875
1772807481032799500,6.953799560546875,-0.078704833984375,0.9790496826171875,0.2014923095703125
1772807481042731500,6.9637314453125,-0.079132080078125,0.9769439697265625,0.20391845703125
1772807481052663600,6.97366357421875,-0.0756072998046875,0.9735107421875,0.2092132568359375
1772807481062595600,6.983595703125,-0.0746307373046875,0.973297119140625,0.210784912109375
1772807481072527600,6.993527587890625,-0.07843017578125,0.9691925048828125,0.2133941650390625
1772807481082459600,7.003459716796875,-0.0831451416015625,0.969024658203125,0.2114105224609375
1772807481092391400,7.013391357421875,-0.084228515625,0.9633941650390625,0.20721435546875
1772807481102323500,7.023323486328125,-0.086181640625,0.9677581787109375,0.2048797607421875
1772807481112255500,7.03325537109375,-0.0875244140625,0.972015380859375,0.2016754150390625
1772807481122187500,7.0431875,-0.0819549560546875,0.9710235595703125,0.200531005859375
1772807481132119600,7.05311962890625,-0.0817718505859375,0.97735595703125,0.200225830078125
1772807481142051600,7.063051513671875,-0.08038330078125,0.9780731201171875,0.20037841796875
1772807481151983600,7.072983642578125,-0.07733154296875,0.9725494384765625,0.2042694091796875
1772807481161915600,7.08291552734375,-0.0791015625,0.9741058349609375,0.2061920166015625
1772807481171847700,7.09284765625,-0.08172607421875,0.973388671875,0.206329345703125
1772807481181779700,7.10277978515625,-0.079833984375,0.97021484375,0.2062225341796875
1772807481191711700,7.112711669921875,-0.078125,0.96759033203125,0.2056427001953125
1772807481201643500,7.1226435546875,-0.077423095703125,0.9669647216796875,0.20538330078125
1772807481211575600,7.132575439453125,-0.078369140625,0.9687652587890625,0.2054595947265625
1772807481221507600,7.142507568359375,-0.0758819580078125,0.9673004150390625,0.2077789306640625
1772807481231439600,7.152439697265625,-0.0733489990234375,0.96734619140625,0.2069549560546875
1772807481241371600,7.16237158203125,-0.0739593505859375,0.9714813232421875,0.2095184326171875
1772807481251303700,7.1723037109375,-0.0748291015625,0.9692535400390625,0.211029052734375
1772807481261235500,7.1822353515625,-0.0767974853515625,0.97003173828125,0.2097320556640625
1772807481271166500,7.19216650390625,-0.0735931396484375,0.97222900390625,0.20855712890625
1772807481281098500,7.202098388671875,-0.07293701171875,0.9720458984375,0.210693359375
1772807481291030500,7.212030517578125,-0.0746917724609375,0.9718017578125,0.2105560302734375
1772807481300962600,7.221962646484375,-0.075164794921875,0.9742889404296875,0.2087249755859375
1772807481310894600,7.23189453125,-0.0789947509765625,0.9714813232421875,0.2083892822265625
1772807481320826600,7.24182666015625,-0.0744781494140625,0.96826171875,0.2098388671875
1772807481330758700,7.251758544921875,-0.0732879638671875,0.9677734375,0.2107696533203125
1772807481340690700,7.261690673828125,-0.075042724609375,0.9660491943359375,0.2143402099609375
1772807481350622700,7.271622802734375,-0.075958251953125,0.966583251953125,0.211761474609375
1772807481360554800,7.2815546875,-0.077362060546875,0.9685211181640625,0.2080841064453125
1772807481370486500,7.291486572265625,-0.080596923828125,0.9765167236328125,0.2055511474609375
1772807481380418600,7.30141845703125,-0.0788116455078125,0.9777069091796875,0.2048797607421875
1772807481390350600,7.3113505859375,-0.0759124755859375,0.9766082763671875,0.204437255859375
1772807481400282600,7.32128271484375,-0.0778656005859375,0.9753570556640625,0.2052764892578125
1772807481410214700,7.331214599609375,-0.0770111083984375,0.9724273681640625,0.20916748046875
1772807481420146400,7.341146484375,-0.0768585205078125,0.97039794921875,0.209747314453125
1772807481430078500,7.351078369140625,-0.0735321044921875,0.9690704345703125,0.208587646484375
1772807481440010500,7.361010498046875,-0.068572998046875,0.970123291015625,0.20635986328125
1772807481449942500,7.370942626953125,-0.0754241943359375,0.973724365234375,0.2072296142578125
1772807481459874600,7.38087451171875,-0.0774688720703125,0.9733123779296875,0.206573486328125
1772807481469806600,7.390806640625,-0.0781097412109375,0.971282958984375,0.2049102783203125
1772807481479738400,7.40073828125,-0.075286865234375,0.9694671630859375,0.207061767578125
1772807481489670400,7.41067041015625,-0.0712127685546875,0.971221923828125,0.2073974609375
1772807481499602400,7.4206025390625,-0.0703125,0.97259521484375,0.2064361572265625
1772807481509534700,7.43053466796875,-0.070892333984375,0.97369384765625,0.2078399658203125
1772807481519466800,7.440466796875,-0.070465087890625,0.971221923828125,0.2085723876953125
1772807481529397500,7.4503974609375,-0.0727996826171875,0.969879150390625,0.208892822265625
1772807481539329500,7.46032958984375,-0.0727691650390625,0.971405029296875,0.210174560546875
1772807481549261600,7.470261474609375,-0.0705108642578125,0.97137451171875,0.214263916015625
1772807481559193600,7.480193603515625,-0.067413330078125,0.970184326171875,0.21435546875
1772807481569125600,7.490125732421875,-0.065277099609375,0.9696044921875,0.214691162109375
1772807481579057700,7.5000576171875,-0.067962646484375,0.96917724609375,0.2086334228515625
1772807481588989400,7.509989501953125,-0.06988525390625,0.9703826904296875,0.207061767578125
1772807481598921500,7.51992138671875,-0.07080078125,0.9715423583984375,0.2078857421875
1772807481608853500,7.529853515625,-0.0697479248046875,0.971282958984375,0.206085205078125
1772807481618785500,7.53978564453125,-0.0681610107421875,0.9683837890625,0.205413818359375
1772807481628717600,7.549717529296875,-0.07086181640625,0.970550537109375,0.20751953125
1772807481638649300,7.5596494140625,-0.067474365234375,0.9709625244140625,0.2069549560546875
1772807481648581600,7.56958154296875,-0.06768798828125,0.9691925048828125,0.2052001953125
1772807481658513700,7.579513671875,-0.0713653564453125,0.9699249267578125,0.2053985595703125
1772807481668445700,7.58944580078125,-0.074188232421875,0.9712371826171875,0.20452880859375
1772807481678377700,7.599377685546875,-0.0726318359375,0.9706573486328125,0.204010009765625
1772807481688309800,7.609309814453125,-0.071044921875,0.9729156494140625,0.203277587890625
1772807481698241500,7.619241455078125,-0.0725250244140625,0.9729766845703125,0.2016448974609375
1772807481708173600,7.629173583984375,-0.07257080078125,0.972686767578125,0.2027740478515625
1772807481718105600,7.639105712890625,-0.071502685546875,0.9727630615234375,0.201416015625
1772807481728037600,7.64903759765625,-0.0734710693359375,0.9730682373046875,0.20306396484375
1772807481737969700,7.6589697265625,-0.0710296630859375,0.9707794189453125,0.20989990234375
1772807481747901700,7.668901611328125,-0.0615234375,0.9669647216796875,0.20281982421875
1772807481757833500,7.67883349609375,-0.0854644775390625,0.9748687744140625,0.2061767578125
1772807481767765500,7.688765625,-0.0732421875,0.9750518798828125,0.2019195556640625
1772807481777697500,7.698697509765625,-0.073486328125,0.973724365234375,0.2028350830078125
1772807481787628500,7.708628662109375,-0.06964111328125,0.97283935546875,0.2044525146484375
1772807481797560600,7.718560546875,-0.0709381103515625,0.9715423583984375,0.2032318115234375
1772807481807492600,7.72849267578125,-0.075347900390625,0.9701690673828125,0.204345703125
1772807481817424600,7.738424560546875,-0.0749969482421875,0.9723358154296875,0.2021331787109375
1772807481827356700,7.748356689453125,-0.0749053955078125,0.972564697265625,0.2024383544921875
1772807481837288700,7.758288818359375,-0.0786895751953125,0.968780517578125,0.20159912109375
1772807481847220700,7.768220703125,-0.0762176513671875,0.967864990234375,0.2038421630859375
1772807481857152500,7.778152587890625,-0.074066162109375,0.9686126708984375,0.2050018310546875
