time,seconds_elapsed,z,y,x
1772807474151206700,0.07220654296875,0.004664123989641666,0.005828495603054762,0.005709576420485973
1772807474161138700,0.082138671875,0.0038068522699177265,0.002587162423878908,-0.0073833223432302475
1772807474171070700,0.09207080078125,0.0024548175279051065,0.0011388538405299187,-0.014455446042120457
1772807474181002800,0.102002685546875,0.0013032667338848114,0.0025721671991050243,-0.014390731230378151
1772807474190934800,0.111934814453125,0.00472286157310009,0.0034336899407207966,-0.007675030268728733
1772807474200866800,0.12186669921875,0.008725060150027275,0.005743182729929686,-0.004537293687462807
1772807474210798800,0.131798828125,0.011107232421636581,0.005488784983754158,-0.00169880292378366
1772807474220731000,0.14173095703125,0.006705560255795717,0.004662139341235161,0.005317028611898422
1772807474230662000,0.151661865234375,0.003913260530680418,0.003972180653363466,0.010787866078317165
1772807474240593700,0.16159375,0.0018343968549743295,0.002809178549796343,0.012000403366982937
1772807474250525700,0.171525634765625,0.0014471421018242836,0.0002716369926929474,0.004435346461832523
1772807474260457700,0.181457763671875,0.000668966444209218,-0.00018935604020953178,-0.01017875038087368
1772807474270389800,0.1913896484375,0.0022975262254476547,0.0016102413646876812,-0.014868051744997501
1772807474280321800,0.20132177734375,0.004196093417704105,0.003190294373780489,-0.01711602695286274
1772807474290253800,0.21125390625,0.007147521711885929,0.011511947959661484,-0.022603554651141167
1772807474300185600,0.221185546875,0.01016195397824049,0.014367122203111649,-0.02618470788002014
1772807474310117600,0.23111767578125,0.01020999439060688,0.014701412990689278,-0.023469872772693634
1772807474320049700,0.241049560546875,0.012965299189090729,0.01218925230205059,-0.009262442588806152
1772807474329981700,0.250981689453125,0.01667633466422558,0.008840865455567837,0.006441585719585419
1772807474339913700,0.260913818359375,0.008699102327227592,0.003524131141602993,0.00906879361718893
1772807474349845800,0.270845703125,0.005249726586043835,0.002994829323142767,0.0016123976092785597
1772807474359777800,0.28077783203125,0.0025444873608648777,-0.002353330608457327,-0.007451671175658703
1772807474369708800,0.290708740234375,0.004489029757678509,0.007584475912153721,-0.013186885043978691
1772807474379640800,0.300640869140625,0.010273149237036705,0.01046814676374197,-0.013121104799211025
1772807474389572900,0.31057275390625,0.014486238360404968,0.01391393132507801,-0.012229827232658863
1772807474399505000,0.3205048828125,0.017573639750480652,0.023884806782007217,-0.018891990184783936
1772807474409436700,0.330436767578125,0.0179761815816164,0.025014393031597137,-0.0255037322640419
1772807474419368700,0.34036865234375,0.017814794555306435,0.024833830073475838,-0.02869446575641632
1772807474429300700,0.35030078125,0.019244788214564323,0.025508832186460495,-0.03357977047562599
1772807474439232800,0.360232666015625,0.01610119268298149,0.022915711626410484,-0.037681836634874344
1772807474449164800,0.370164794921875,0.01860790140926838,0.01534130796790123,-0.040102649480104446
1772807474459096600,0.3800966796875,0.01289515569806099,0.008611764758825302,-0.04285263270139694
1772807474469028600,0.390028564453125,0.021860141307115555,0.004655074328184128,-0.04395633190870285
1772807474478960600,0.399960693359375,0.032874442636966705,0.01191884558647871,-0.04901048168540001
1772807474488892700,0.409892578125,0.047637272626161575,0.016080694273114204,-0.07085301727056503
1772807474498825000,0.419824951171875,0.055833686143159866,0.013900896534323692,-0.09862792491912842
1772807474508755700,0.429755615234375,0.06466221064329147,0.014872856438159943,-0.130034938454628
1772807474518687700,0.439687744140625,0.06468698382377625,0.010159594938158989,-0.1412159502506256
1772807474528619800,0.449619873046875,0.06587208807468414,0.013030748814344406,-0.13805876672267914
1772807474538551800,0.4595517578125,0.052830323576927185,0.007377123925834894,-0.12781092524528503
1772807474548483800,0.46948388671875,0.05175187066197395,-0.0035270650405436754,-0.1103643923997879
1772807474558416000,0.479415771484375,0.04710545390844345,0.008351165801286697,-0.11165975034236908
1772807474568347600,0.48934765625,0.04754674807190895,0.009262249805033207,-0.12949103116989136
1772807474578279700,0.49927978515625,0.038718901574611664,-0.004834127612411976,-0.1344546228647232
1772807474588211700,0.509211669921875,0.029855607077479362,-0.023372987285256386,-0.13948579132556915
1772807474598143700,0.519143798828125,0.026745567098259926,-0.009052637964487076,-0.15198053419589996
1772807474608075800,0.52907568359375,0.02689615823328495,-0.003613552777096629,-0.15644797682762146
1772807474618007800,0.5390078125,0.03628939390182495,-0.007746778894215822,-0.1571478545665741
1772807474627939600,0.548939697265625,0.040936361998319626,-0.01247677393257618,-0.15175816416740417
1772807474637871600,0.55887158203125,0.04841558635234833,-0.011708186008036137,-0.13598746061325073
1772807474647803000,0.568802978515625,0.05427400767803192,-0.010044509544968605,-0.11121020466089249
1772807474657735000,0.57873486328125,0.059718307107686996,-0.005570132285356522,-0.0882289856672287
1772807474667666700,0.588666748046875,0.05829069763422012,0.0006558867171406746,-0.0703083947300911
1772807474677598700,0.5985986328125,0.05686111003160477,0.011559933423995972,-0.06705321371555328
1772807474687530800,0.60853076171875,0.04977898299694061,0.0023835082538425922,-0.07248011231422424
1772807474697462800,0.618462890625,0.04513123258948326,-0.000750233419239521,-0.0816379263997078
1772807474707394800,0.628394775390625,0.04241308197379112,-0.009023468941450119,-0.08908990025520325
1772807474717326800,0.638326904296875,0.04027589410543442,-0.003150399774312973,-0.09227903932332993
1772807474727258600,0.648258544921875,0.04348579794168472,0.00222996948286891,-0.08531344681978226
1772807474737190700,0.658190673828125,0.04339684545993805,0.014132967218756676,-0.0705491453409195
1772807474747122700,0.668122802734375,0.043983690440654755,0.03235022723674774,-0.06346230208873749
1772807474757054700,0.6780546875,0.04325238615274429,0.040841180831193924,-0.05506375432014465
1772807474766986800,0.68798681640625,0.043132003396749496,0.036415793001651764,-0.04799217730760574
1772807474776917800,0.697917724609375,0.03718996047973633,0.04096127301454544,-0.043665338307619095
1772807474786849800,0.707849853515625,0.033900532871484756,0.04397072643041611,-0.045562390238046646
1772807474796781800,0.71778173828125,0.03271010145545006,0.04354994744062424,-0.04498767852783203
1772807474806713900,0.7277138671875,0.03285061940550804,0.03405066952109337,-0.04611855372786522
1772807474816646000,0.73764599609375,0.033365942537784576,0.025554120540618896,-0.05101184546947479
1772807474826578000,0.747577880859375,0.025259066373109818,0.008431579917669296,-0.0619017630815506
1772807474836509700,0.757509765625,0.02526971884071827,-0.005419786553829908,-0.08100062608718872
1772807474846441700,0.767441650390625,0.02654675953090191,-0.018948819488286972,-0.09751338511705399
1772807474856373800,0.777373779296875,0.03156974911689758,-0.010482097044587135,-0.10645468533039093
1772807474866305800,0.787305908203125,0.03163036331534386,-0.008494109846651554,-0.10469380766153336
1772807474876237800,0.79723779296875,0.03394065797328949,-0.0014266129583120346,-0.09325846284627914
1772807474886169600,0.807169677734375,0.03187403827905655,0.007966871373355389,-0.08225845545530319
1772807474896101600,0.8171015625,0.03658650070428848,0.00966303888708353,-0.06383737176656723
1772807474906033700,0.82703369140625,0.04274945706129074,0.011845909059047699,-0.04637785628437996
1772807474915965700,0.836965576171875,0.043081555515527725,0.020985078066587448,-0.05175478011369705
1772807474925897000,0.84689697265625,0.04459607973694801,0.02753429114818573,-0.06472126394510269
1772807474935828700,0.856828857421875,0.045691970735788345,0.02176508679986,-0.06771519035100937
1772807474945760800,0.8667607421875,0.04946715384721756,0.007968752644956112,-0.05832364782691002
1772807474955692800,0.87669287109375,0.04325825721025467,0.025099270045757294,-0.0524444542825222
1772807474965624800,0.886624755859375,0.04930505529046059,0.025077199563384056,-0.04238097742199898
1772807474975556900,0.896556884765625,0.04975326359272003,0.019841957837343216,-0.030267057940363884
1772807474985489000,0.906489013671875,0.04379122331738472,0.029078027233481407,-0.019318530336022377
1772807474995420700,0.916420654296875,0.04031180217862129,0.023815354332327843,-0.014473176561295986
1772807475005352700,0.926352783203125,0.035123612731695175,0.01689322479069233,-0.0054532368667423725
1772807475015285000,0.936284912109375,0.03376167267560959,0.008856070227921009,0.002716275630518794
1772807475025216800,0.946216796875,0.03331853821873665,0.004581728018820286,0.004729178734123707
1772807475035148800,0.956148681640625,0.03784218057990074,0.0064502013847231865,0.006761436816304922
1772807475045080800,0.966080810546875,0.04266528785228729,0.008890831843018532,-0.005334105808287859
1772807475055012900,0.976012939453125,0.046041909605264664,0.010024539195001125,-0.017453351989388466
1772807475064943900,0.98594384765625,0.04626678302884102,0.009667744860053062,-0.02191627025604248
1772807475074876000,0.9958759765625,0.03808954358100891,0.011236611753702164,-0.028103061020374298
1772807475084808000,1.005807861328125,0.035231687128543854,0.010442951694130898,-0.01812152937054634
1772807475094740000,1.015739990234375,0.034636735916137695,0.009885551407933235,-0.00358945713378489
1772807475104672000,1.025672119140625,0.03223196044564247,0.002718564122915268,0.007436105981469154
1772807475114604000,1.03560400390625,0.026237450540065765,0.000016254838556051254,0.0011105656158179045
1772807475124535800,1.045535888671875,0.03026106208562851,-0.007973413914442062,-0.017738573253154755
1772807475134467800,1.0554677734375,0.03329520300030708,-0.011686925776302814,-0.030752109363675117
1772807475144400000,1.06539990234375,0.03399836644530296,-0.01580411195755005,-0.039395034313201904
1772807475154332000,1.075331787109375,0.03764529898762703,-0.006391701754182577,-0.04145578667521477
1772807475164264000,1.085263916015625,0.03771233558654785,-0.012137768790125847,-0.028538405895233154
1772807475174196000,1.095196044921875,0.03541615977883339,-0.01558949239552021,-0.009384949691593647
1772807475184127700,1.105127685546875,0.035529859364032745,-0.009024829603731632,0.004712407477200031
1772807475194059800,1.115059814453125,0.03494316712021828,-0.008508442901074886,0.014696864411234856
1772807475203991000,1.124990966796875,0.03239971771836281,-0.0069090742617845535,0.011766409501433372
1772807475213923000,1.134923095703125,0.028293123468756676,-0.0044586993753910065,0.008058757521212101
1772807475223855000,1.144855224609375,0.019294295459985733,-0.004738079383969307,0.0037368035409599543
1772807475233787000,1.154786865234375,0.01247979886829853,-0.004687746055424213,-0.00014768321125302464
1772807475243719000,1.164718994140625,0.009840093553066254,-0.003876236267387867,0.0037298747338354588
1772807475253651000,1.17465087890625,0.007080793380737305,-0.006234731525182724,0.009463394060730934
1772807475263583000,1.1845830078125,0.008333277888596058,-0.014021814800798893,0.009428773075342178
1772807475273515000,1.194514892578125,0.010334642603993416,-0.016887908801436424,0.007304369937628508
1772807475283447000,1.204447021484375,0.012872963212430477,-0.019449863582849503,0.00254682544618845
1772807475293378800,1.21437890625,0.015533193945884705,-0.01889539323747158,-0.009468558244407177
1772807475303310800,1.224310791015625,0.022940823808312416,-0.01365421712398529,-0.013344266451895237
1772807475313243000,1.234242919921875,0.023050280287861824,-0.011699456721544266,-0.014641226269304752
1772807475323175000,1.2441748046875,0.027746403589844704,-0.004310034215450287,-0.020211057737469673
1772807475333107000,1.25410693359375,0.02230929397046566,-0.010779651813209057,-0.014193379320204258
1772807475343038000,1.264037841796875,0.017920248210430145,-0.017750661820173264,-0.009667154401540756
1772807475352970000,1.273969970703125,0.018037427216768265,-0.014219842851161957,-0.009717222303152084
1772807475362902000,1.283902099609375,0.017720229923725128,-0.02533058077096939,-0.004242647439241409
1772807475372834000,1.293833984375,0.01574576273560524,-0.01761993020772934,0.0064368946477770805
1772807475382766000,1.30376611328125,0.012303641065955162,-0.01899302750825882,0.01678469218313694
1772807475392697900,1.31369775390625,0.008907844312489033,-0.023860221728682518,0.031980421394109726
1772807475402630000,1.3236298828125,0.005501599051058292,-0.027119234204292297,0.04475047066807747
1772807475412562000,1.33356201171875,0.0012506617931649089,-0.028505409136414528,0.04893483221530914
1772807475422494000,1.343493896484375,-0.0015099233714863658,-0.04063017666339874,0.05190078169107437
1772807475432426000,1.353426025390625,-0.0034391172230243683,-0.02887125313282013,0.04943016916513443
1772807475442358000,1.36335791015625,-0.007775816600769758,-0.05419739708304405,0.0534050278365612
1772807475452289800,1.373289794921875,-0.007265287917107344,-0.04871687665581703,0.05529560521245003
1772807475462221800,1.383221923828125,-0.009897435083985329,-0.04348338395357132,0.0626366063952446
1772807475472153900,1.39315380859375,-0.010938464663922787,-0.06027727946639061,0.0621764175593853
1772807475482084900,1.4030849609375,-0.0063880071975290775,-0.06715226918458939,0.056084249168634415
1772807475492017000,1.413016845703125,-0.00020840857177972794,-0.06516022235155106,0.02951575443148613
1772807475501949000,1.422948974609375,0.002669375389814377,-0.05909573286771774,-0.005882622208446264
1772807475511881000,1.432880859375,0.004347699228674173,-0.0478457435965538,-0.03871513530611992
1772807475521813000,1.44281298828125,0.008007688447833061,-0.03624366596341133,-0.057881731539964676
1772807475531745000,1.4527451171875,0.004699510522186756,-0.024791806936264038,-0.05117722228169441
1772807475541677000,1.462677001953125,0.002351837232708931,-0.00927921012043953,-0.035603687167167664
1772807475551608800,1.47260888671875,0.004558266140520573,0.004743664525449276,-0.019231637939810753
1772807475561540900,1.482540771484375,-0.002390790730714798,0.012248573824763298,-0.016626963391900063
1772807475571473000,1.492472900390625,-0.006379407364875078,0.011103946715593338,-0.01750181056559086
1772807475581405000,1.502405029296875,-0.009360944852232933,0.008280869573354721,-0.010768186300992966
1772807475591337000,1.5123369140625,-0.009003282524645329,0.0033236616291105747,-0.0007989090518094599
1772807475601269000,1.52226904296875,-0.00856787245720625,-0.0010993406176567078,0.015008198097348213
1772807475611200800,1.53220068359375,-0.004323591943830252,0.0009094821289181709,0.037577688694000244
1772807475621131800,1.5421318359375,-0.0024225814267992973,0.006557059474289417,0.05449753999710083
1772807475631064000,1.55206396484375,-0.0008555774111300707,0.004001489840447903,0.060485657304525375
1772807475640996000,1.56199609375,0.0006986051448620856,0.000021329615265130997,0.05250381678342819
1772807475650928000,1.57192822265625,0.0034094369038939476,0.0006413138471543789,0.03342679515480995
1772807475660860000,1.58185986328125,0.00549936480820179,-0.0016049109399318695,0.017121590673923492
1772807475670792000,1.5917919921875,0.0017744011711329222,-0.006448934320360422,0.012032555416226387
1772807475680724000,1.601723876953125,0.0013463638024404645,-0.004680587910115719,0.02410101145505905
1772807475690656000,1.611656005859375,-0.004216979723423719,-0.0022286158055067062,0.030719231814146042
1772807475700588000,1.621588134765625,-0.0031869469676166773,0.00566936144605279,0.03422015160322189
1772807475710519800,1.631519775390625,-0.005515081807971001,0.006391345057636499,0.02595796063542366
1772807475720451800,1.641451904296875,-0.0017525684088468552,0.00830376148223877,0.013240301981568336
1772807475730384000,1.6513837890625,0.0020757257007062435,0.012775473296642303,-0.010926819406449795
1772807475740316000,1.66131591796875,0.0040885345079004765,0.008707484230399132,-0.017363322898745537
1772807475750248000,1.671248046875,0.010670537129044533,0.012682251632213593,-0.017400341108441353
1772807475760178700,1.6811787109375,0.013569791801273823,0.015376176685094833,-0.00835456047207117
1772807475770110700,1.69111083984375,0.018662022426724434,0.01866704598069191,-0.0013539091451093554
1772807475780043000,1.70104296875,0.01791226491332054,0.024645011872053146,0.00034650700399652123
1772807475789975000,1.71097509765625,0.02062389627099037,0.016338879242539406,-0.004006695933640003
1772807475799907000,1.720906982421875,0.018089700490236282,0.013569211587309837,-0.004954412113875151
1772807475809839000,1.730839111328125,0.012407580390572548,0.013439249247312546,-0.010059692896902561
1772807475819771000,1.74077099609375,0.006379949860274792,0.004637158941477537,-0.01184907741844654
1772807475829703000,1.750702880859375,0.003243811894208193,0.007451587822288275,-0.017770884558558464
1772807475839635000,1.760635009765625,0.00883579533547163,0.0051832604221999645,-0.022693205624818802
1772807475849567000,1.77056689453125,0.008823278360068798,0.006213637534528971,-0.023118779063224792
1772807475859499000,1.7804990234375,0.009678799659013748,0.015599515289068222,-0.030107352882623672
1772807475869431000,1.79043115234375,0.014177944511175156,0.023782877251505852,-0.029473254457116127
1772807475879362800,1.80036279296875,0.01638227328658104,0.033497344702482224,-0.02785574644804001
1772807475889294800,1.810294921875,0.02058820240199566,0.04128389433026314,-0.021560564637184143
1772807475899227000,1.820226806640625,0.017246603965759277,0.05174413323402405,-0.010568280704319477
1772807475909158000,1.830157958984375,0.010645960457623005,0.050950512290000916,-0.005326646380126476
1772807475919090000,1.84008984375,0.008552290499210358,0.05346301943063736,-0.004433772061020136
1772807475929022000,1.85002197265625,0.0015210127457976341,0.05454159900546074,-0.005151227582246065
1772807475938954000,1.8599541015625,-0.0033414019271731377,0.0583253912627697,-0.00896043237298727
1772807475948886000,1.869885986328125,-0.0058077555149793625,0.05955737456679344,-0.01052823569625616
1772807475958818000,1.879818115234375,-0.01106257550418377,0.058801695704460144,-0.009668921120464802
1772807475968750000,1.88975,-0.01441070158034563,0.05456513911485672,-0.005371910519897938
1772807475978681900,1.899681884765625,-0.01697213016450405,0.05789995193481445,0.0006524257478304207
1772807475988614000,1.90961376953125,-0.011016769334673882,0.07117421180009842,0.010525562800467014
1772807475998546000,1.9195458984375,-0.008729083463549614,0.0782201886177063,0.02135840803384781
1772807476008478000,1.92947802734375,-0.005313047207891941,0.08238856494426727,0.030076531693339348
1772807476018409500,1.939409423828125,-0.002346848603338003,0.08518057316541672,0.03400292620062828
1772807476028341500,1.949341552734375,-0.0018714744364842772,0.08513715863227844,0.032595444470644
1772807476038273500,1.9592734375,-0.0034243327099829912,0.0826527550816536,0.025895901024341583
1772807476048205600,1.96920556640625,-0.001806196290999651,0.07890675216913223,0.016393477097153664
1772807476058136600,1.979136474609375,-0.0014885454438626766,0.07218137383460999,0.013614392839372158
1772807476068068600,1.989068603515625,-0.003637450048699975,0.06891234219074249,0.014393101446330547
1772807476078000600,1.999000732421875,-0.000335363089106977,0.07202881574630737,0.017123809084296227
1772807476087932700,2.0089326171875,0.005258606746792793,0.07361392676830292,0.01884075067937374
1772807476097864700,2.01886474609375,0.004885794594883919,0.07132819294929504,0.015114359557628632
1772807476107796700,2.028796630859375,0.007607012987136841,0.06410090625286102,0.008162178099155426
1772807476117728500,2.038728515625,0.010669179260730743,0.06252274662256241,0.005626686383038759
1772807476127660500,2.04866064453125,0.008838789537549019,0.06468123197555542,0.0012521779863163829
1772807476137592600,2.058592529296875,0.008273458108305931,0.06274040788412094,-0.002890736563131213
1772807476147524600,2.068524658203125,0.007258526980876923,0.05077056586742401,-0.004538966808468103
1772807476157456600,2.07845654296875,0.00797169841825962,0.05204778164625168,-0.002802580827847123
1772807476167388700,2.088388671875,0.0024467040784657,0.044565096497535706,0.003414568491280079
1772807476177320400,2.098320556640625,-0.001516193151473999,0.04078490287065506,0.007217469625174999
1772807476187252500,2.10825244140625,-0.0037540472112596035,0.03903786838054657,0.0074118804186582565
1772807476197183500,2.11818359375,-0.0034098702017217875,0.03375077247619629,0.015109755098819733
1772807476207115800,2.12811572265625,-0.003209334099665284,0.03639182820916176,0.007113081403076649
1772807476217047800,2.1380478515625,-0.0033018426038324833,0.037260476499795914,0.0076917787082493305
1772807476226979600,2.1479794921875,0.001994385849684477,0.037807222455739975,0.004389991518110037
1772807476236911600,2.15791162109375,0.004548986442387104,0.03599768131971359,0.006914942059665918
1772807476246843600,2.16784375,0.001947344746440649,0.025294171646237373,0.006558345165103674
1772807476256775700,2.177775634765625,0.0034750797785818577,0.02203700877726078,0.004976957105100155
1772807476266707700,2.187707763671875,0.006159279961138964,0.00701038958504796,0.015495644882321358
1772807476276639500,2.197639404296875,0.0035990197211503983,0.009076830931007862,0.011097884736955166
1772807476286571500,2.207571533203125,0.0016991207376122475,-0.0019678305834531784,0.014028160832822323
1772807476296503600,2.217503662109375,-0.000785746262408793,-0.005940606351941824,0.020514201372861862
1772807476306435600,2.227435546875,-0.004666504450142384,-0.0012284088879823685,0.02236669696867466
1772807476316367600,2.23736767578125,-0.0025927722454071045,0.0010424242354929447,0.022975213825702667
1772807476326299600,2.247299560546875,-0.0028303260914981365,0.002507429104298353,0.027615772560238838
1772807476336230400,2.25723046875,-0.0006607634713873267,0.004051964730024338,0.028025541454553604
1772807476346162400,2.267162353515625,-0.002940163016319275,0.00559739675372839,0.024618027731776237
1772807476356094700,2.2770947265625,0.001657875720411539,0.0016386676579713821,0.014605704694986343
1772807476366026800,2.28702685546875,0.005300281569361687,0.002764385659247637,0.010127865709364414
1772807476375958800,2.296958740234375,0.004064961336553097,0.0023402594961225986,0.010551043786108494
1772807476385890600,2.306890625,0.0035688146017491817,0.0013242634013295174,0.012098606675863266
1772807476395822600,2.316822509765625,0.001157613005489111,0.001738155260682106,0.014127397909760475
1772807476405754600,2.326754638671875,-0.0033753535244613886,0.007120403926819563,0.01379823125898838
1772807476415686700,2.336686767578125,-0.005957329645752907,0.00656773941591382,0.015383264981210232
1772807476425618700,2.34661865234375,-0.008086527697741985,0.0033304006792604923,0.01811247132718563
1772807476435550700,2.35655078125,-0.007484919391572475,0.004990349058061838,0.017218980938196182
1772807476445482500,2.366482421875,-0.009078554809093475,-0.005506234243512154,0.019779877737164497
1772807476455414500,2.37641455078125,-0.01171985175460577,-0.0049440073780715466,0.02146352268755436
1772807476465346600,2.3863466796875,-0.013126000761985779,-0.0069357855245471,0.021932238712906837
1772807476475278600,2.396278564453125,-0.01273198239505291,-0.014571728184819221,0.02432144805788994
1772807476485210600,2.406210693359375,-0.012069121934473515,-0.018256744369864464,0.025277789682149887
1772807476495141600,2.4161416015625,-0.007844611071050167,-0.011852715164422989,0.023646704852581024
1772807476505073700,2.42607373046875,-0.0064158253371715546,-0.006136239506304264,0.024795325472950935
1772807476515005700,2.436005615234375,-0.0047128088772296906,-0.005542952101677656,0.021260589361190796
1772807476524937700,2.445937744140625,-0.006718701682984829,-0.006009804550558329,0.025394614785909653
1772807476534869800,2.455869873046875,-0.004000001586973667,-0.007613674737513065,0.029560595750808716
1772807476544801500,2.465801513671875,-0.0037017278373241425,-0.014258528128266335,0.03621396794915199
1772807476554733600,2.475733642578125,-0.004156105220317841,-0.01695903018116951,0.03739606589078903
1772807476564665600,2.48566552734375,-0.0063465554267168045,-0.02032952755689621,0.03595183417201042
1772807476574597600,2.49559765625,-0.008172512985765934,-0.02215973287820816,0.03651908040046692
1772807476584529700,2.50552978515625,-0.007027088198810816,-0.03004295565187931,0.031742170453071594
1772807476594461700,2.515461669921875,-0.00880303792655468,-0.02798209711909294,0.0281605776399374
1772807476604393500,2.5253935546875,-0.009129274636507034,-0.023070963099598885,0.015680205076932907
1772807476614325500,2.535325439453125,-0.00807969830930233,-0.02006155624985695,0.00900019146502018
1772807476624257500,2.545257568359375,-0.007212572731077671,-0.010221708565950394,0.0011579816928133368
1772807476634188500,2.5551884765625,-0.009387481957674026,-0.011817127466201782,0.0026280549354851246
1772807476644120600,2.56512060546875,-0.007167736999690533,-0.018611649051308632,0.01175710465759039
1772807476654052600,2.575052490234375,-0.009560707025229931,-0.020530307665467262,0.018922870978713036
1772807476663984600,2.584984619140625,-0.004326263442635536,-0.01545805111527443,0.01691032014787197
1772807476673916700,2.594916748046875,-0.0021203849464654922,-0.012972544878721237,0.013397790491580963
1772807476683848700,2.6048486328125,-0.00017121736891567707,-0.0141358133405447,0.013496859930455685
1772807476693780700,2.61478076171875,0.0017115505179390311,-0.02019697055220604,0.015093592926859856
1772807476703712500,2.62471240234375,0.003320632502436638,-0.02273150160908699,0.01508720126003027
1772807476713644500,2.63464453125,0.004722229670733213,-0.027647467330098152,0.012052800506353378
1772807476723576600,2.64457666015625,0.005923848133534193,-0.02468896098434925,0.009874600917100906
1772807476733508600,2.654508544921875,0.006770302541553974,-0.022620387375354767,0.00858315173536539
1772807476743440600,2.664440673828125,0.0059484513476490974,-0.020459499210119247,0.007812433410435915
1772807476753372700,2.67437255859375,0.006810551509261131,-0.02005811780691147,0.005522817838937044
1772807476763304400,2.684304443359375,0.009251604788005352,-0.02216441184282303,0.007586234714835882
1772807476773236500,2.694236572265625,0.011512869969010353,-0.017278876155614853,0.0021163737401366234
1772807476783168500,2.70416845703125,0.014049530029296875,-0.010634289123117924,-0.005943416617810726
1772807476793099500,2.714099609375,0.01795751415193081,-0.011393222957849503,-0.011955487541854382
1772807476803031800,2.72403173828125,0.015916733071208,-0.01469208113849163,-0.013490000739693642
1772807476812963600,2.733963623046875,0.014884578064084053,-0.01798180118203163,-0.012491066940128803
1772807476822895600,2.7438955078125,0.013751402497291565,-0.0165982898324728,-0.007516016252338886
1772807476832827600,2.75382763671875,0.014108153991401196,-0.01533924974501133,-0.002448114100843668
1772807476842759700,2.763759765625,0.011420224793255329,-0.009046200662851334,0.00212693028151989
1772807476852691700,2.773691650390625,0.011632032692432404,-0.006158995442092419,0.003410939360037446
1772807476862623700,2.783623779296875,0.008741702884435654,-0.004869226831942797,0.004657032433897257
1772807476872555500,2.793555419921875,0.00480995886027813,0.0006497902795672417,0.002485488075762987
1772807476882487600,2.803487548828125,0.0037516190204769373,-0.0045854514464735985,-0.0023582694120705128
1772807476892419600,2.813419677734375,0.002042769454419613,-0.009535636752843857,-0.007570157293230295
1772807476902351600,2.8233515625,-0.0003218514611944556,-0.015099512413144112,-0.00544735137373209
1772807476912283600,2.83328369140625,-0.004865916911512613,-0.018745800480246544,-0.004820284899324179
1772807476922215400,2.84321533203125,-0.0014149928465485573,-0.014697795733809471,0.0030978256836533546
1772807476932147500,2.8531474609375,0.0010017583845183253,-0.011392107233405113,0.013092861510813236
1772807476942078500,2.863078369140625,0.0006480906158685684,-0.006023706868290901,0.01719066873192787
1772807476952010800,2.8730107421875,-0.0018694143509492278,0.000025910791009664536,0.015619050711393356
1772807476961942800,2.88294287109375,-0.002485936041921377,-0.000626829918473959,0.00950070470571518
1772807476971874600,2.89287451171875,-0.0028423257172107697,0.0017523965798318386,0.0022717155516147614
1772807476981806600,2.902806640625,-0.007030678912997246,-0.002765123499557376,0.008202308788895607
1772807476991738600,2.912738525390625,-0.008454566821455956,-0.004215921275317669,0.0061057861894369125
1772807477001670700,2.922670654296875,-0.007638308685272932,-0.0005980171263217926,0.010392144322395325
1772807477011602700,2.932602783203125,-0.006543656811118126,-0.0008796923793852329,0.013461179099977016
1772807477021534700,2.94253466796875,-0.005331119522452354,-0.004808121360838413,0.016298243775963783
1772807477031466500,2.952466552734375,-0.007291831541806459,-0.005315274465829134,0.009848859161138535
1772807477041398500,2.9623984375,-0.00551763316616416,-0.011254922486841679,0.003141421591863036
1772807477051330600,2.97233056640625,-0.007979055866599083,-0.009666740894317627,-0.0013067685067653656
1772807477061262600,2.9822626953125,-0.01036737859249115,-0.012803944759070873,0.002100479556247592
1772807477071194600,2.992194580078125,-0.007682001683861017,-0.012041907757520676,0.0066223544999957085
1772807477081126700,3.002126708984375,-0.0098796421661973,-0.013758315704762936,0.010435202158987522
1772807477091057700,3.0120576171875,-0.012189085595309734,-0.011368591338396072,0.009543032385408878
1772807477100989700,3.02198974609375,-0.008780771866440773,-0.011243689805269241,0.006692917086184025
1772807477110921700,3.031921630859375,-0.0076005468145012856,-0.007707118056714535,0.009048591367900372
1772807477120853800,3.041853759765625,-0.010527361184358597,-0.0070053753443062305,0.014028170146048069
1772807477130785500,3.05178564453125,-0.007333964109420776,0.0012602778151631355,0.008453907445073128
1772807477140717600,3.061717529296875,-0.007639428600668907,0.0036259633488953114,0.005114569794386625
1772807477150649600,3.071649658203125,-0.003251567017287016,0.0019751074723899364,0.0011820490472018719
1772807477160581600,3.08158154296875,-0.006528853438794613,0.004366626497358084,0.002083795377984643
1772807477170513700,3.091513671875,-0.0049336571246385574,0.006475812289863825,0.0019462070195004344
1772807477180445700,3.10144580078125,0.0012035975232720375,0.007329621817916632,0.003044228069484234
1772807477190377500,3.11137744140625,0.0048072682693600655,0.01184515655040741,0.0036136088892817497
1772807477200309500,3.1213095703125,0.005838710814714432,0.017962703481316566,-0.0066709863021969795
1772807477210241500,3.131241455078125,0.006336483173072338,0.016287073493003845,-0.011196767911314964
1772807477220173600,3.141173583984375,0.006509322207421064,0.018987784162163734,-0.012570959515869617
1772807477230105600,3.151105712890625,0.006175472401082516,0.015696492046117783,-0.01072742510586977
1772807477240037600,3.16103759765625,0.008258064277470112,0.016242973506450653,-0.010143660940229893
1772807477249968600,3.17096875,0.007479511667042971,0.01789056323468685,-0.007070200052112341
1772807477259900700,3.180900634765625,0.007951157167553902,0.01481248065829277,-0.00894959270954132
1772807477269832700,3.190832763671875,0.010199028998613358,0.013843262568116188,-0.015181574039161205
1772807477279764700,3.2007646484375,0.009477046318352222,0.011793427169322968,-0.013557844795286655
1772807477289696800,3.21069677734375,0.012638766318559647,0.017574377357959747,-0.011472237296402454
1772807477299628500,3.220628662109375,0.014249978587031364,0.02005857415497303,-0.007151259575039148
1772807477309560600,3.230560546875,0.017636779695749283,0.025013422593474388,-0.004955377895385027
1772807477319492600,3.24049267578125,0.017726527526974678,0.023426977917551994,-0.0038640147540718317
1772807477329424600,3.250424560546875,0.014421049505472183,0.028397008776664734,-0.010654374025762081
1772807477339356700,3.260356689453125,0.01043456420302391,0.021066926419734955,-0.013591041788458824
1772807477349288400,3.270288330078125,0.004139494616538286,0.017822235822677612,-0.01417204923927784
1772807477359220500,3.280220458984375,-0.0005921435076743364,0.011353950947523117,-0.013072962872684002
1772807477369152500,3.290152587890625,-0.005274340510368347,0.010173819959163666,-0.007100299466401339
1772807477379084500,3.30008447265625,-0.008955894969403744,0.010208973661065102,-0.007626806385815144
1772807477389016600,3.3100166015625,-0.00456035602837801,0.009805494919419289,-0.002846874762326479
1772807477398947600,3.319947509765625,-0.0045323921367526054,0.012598883360624313,0.001622442388907075
1772807477408879600,3.329879638671875,-0.0036061997525393963,0.017509426921606064,0.006096031982451677
1772807477418811600,3.339811767578125,-0.002086866181343794,0.013561555184423923,0.008468110114336014
1772807477428743700,3.34974365234375,-0.001148038893006742,0.00996263138949871,0.0122198686003685
1772807477438675700,3.35967578125,-0.0017432555323466659,0.0025856751017272472,0.020201096311211586
1772807477448607700,3.369607666015625,-0.0019113450543954968,0.0013126316480338573,0.02303142286837101
1772807477458539500,3.37953955078125,-0.0101817911490798,-0.0005361349321901798,0.02634173259139061
1772807477468471600,3.389471435546875,-0.009012268856167793,0.005426544230431318,0.027777887880802155
1772807477478403600,3.399403564453125,-0.008457000367343426,0.007319253403693438,0.021509340032935143
1772807477488335600,3.409335693359375,-0.007075104862451553,0.007921908050775528,0.021317774429917336
1772807477498267600,3.419267578125,-0.008825334720313549,0.007529625203460455,0.01797151193022728
1772807477508199700,3.42919970703125,-0.005497264210134745,0.01659574545919895,0.013314075767993927
1772807477518131500,3.43913134765625,-0.006006194278597832,0.02175828255712986,0.006223143544048071
1772807477528063500,3.4490634765625,-0.001331051578745246,0.03344792127609253,-0.0038722704630345106
1772807477537995500,3.45899560546875,-0.0011685986537486315,0.029500585049390793,-0.003611546941101551
1772807477547927600,3.468927490234375,0.002043733838945627,0.03280533105134964,-0.004828883800655603
1772807477557858600,3.478858642578125,0.00423950981348753,0.03700007498264313,-0.008110431022942066
1772807477567790600,3.48879052734375,0.002415373455733061,0.03684786707162857,-0.008693484589457512
1772807477577722600,3.49872265625,0.0029674465768039227,0.037779174745082855,-0.015522628091275692
1772807477587654700,3.508654541015625,0.005836727563291788,0.040338464081287384,-0.02091863378882408
1772807477597586700,3.518586669921875,0.0029724976047873497,0.03768515586853027,-0.02603057213127613
1772807477607518700,3.528518798828125,0.003487604670226574,0.03709586709737778,-0.01842459663748741
1772807477617450500,3.538450439453125,0.0054101403802633286,0.033775173127651215,-0.010418601334095001
1772807477627382500,3.548382568359375,0.006662435829639435,0.031463075429201126,-0.00036950563662685454
1772807477637314600,3.558314453125,0.005239242687821388,0.022082358598709106,0.010004572570323944
1772807477647246600,3.56824658203125,0.005004541017115116,0.019047092646360397,0.015335498377680779
1772807477657178600,3.5781787109375,0.005906553938984871,0.01895015314221382,0.01629583351314068
1772807477667110700,3.588110595703125,0.008753777481615543,0.02460193820297718,0.016642598435282707
1772807477677042400,3.59804248046875,0.009175888262689114,0.026896251365542412,0.013963191770017147
1772807477686974500,3.607974365234375,0.005933371372520924,0.022467829287052155,0.011986857280135155
1772807477696906500,3.617906494140625,0.002956223674118519,0.01773645728826523,0.014086226932704449
1772807477706838500,3.627838623046875,-0.00296362885273993,0.014800161123275757,0.014767888002097607
1772807477716770600,3.6377705078125,-0.0030962543096393347,0.01657063141465187,0.009544630534946918
1772807477726701600,3.64770166015625,-0.006548285484313965,0.017533570528030396,0.006583914160728455
1772807477736633600,3.657633544921875,-0.006000473164021969,0.016632890328764915,0.0057671223767101765
1772807477746565600,3.667565673828125,-0.007817969657480717,0.01448862161487341,0.0025075071025639772
1772807477756497700,3.67749755859375,-0.007974031381309032,0.010972714982926846,-0.0025431776884943247
1772807477766429700,3.6874296875,-0.00745434919372201,0.01279495283961296,-0.005833061877638102
1772807477776361500,3.697361572265625,-0.008086316287517548,0.011956855654716492,-0.002689466578885913
1772807477786293500,3.70729345703125,-0.007922937162220478,0.008308986201882362,0.0024516780395060778
1772807477796225500,3.7172255859375,-0.009494734928011894,0.0012470819056034088,0.007019531913101673
1772807477806157600,3.727157470703125,-0.007070548832416534,0.0009401929564774036,0.003732383018359542
1772807477816089600,3.737089599609375,-0.003986608237028122,0.0037610125727951527,0.007175051141530275
1772807477826021600,3.747021728515625,-0.0015545918140560389,-0.0021051112562417984,0.004522360861301422
1772807477835953400,3.756953369140625,-0.002354871714487672,-0.005569883622229099,0.003172937547788024
1772807477845885400,3.766885498046875,-0.0012373083736747503,-0.009524313732981682,0.0011927955783903599
1772807477855817500,3.7768173828125,0.000430096872150898,-0.008679292164742947,-0.0017060553655028343
1772807477865749500,3.78674951171875,0.0009093467378988862,-0.008511632680892944,0.0012452567461878061
1772807477875681500,3.796681640625,0.0028116428293287754,-0.00586764607578516,0.007283441722393036
1772807477885612500,3.806612548828125,0.00157142651733011,-0.005961634684354067,0.008529885672032833
1772807477895544600,3.816544677734375,0.0006683486280962825,-0.002624694025143981,0.003016077447682619
1772807477905476600,3.8264765625,0.0006450139917433262,-0.005901082418859005,0.0005379241774789989
1772807477915408600,3.83640869140625,0.0012788462918251753,-0.011171745136380196,-0.0036341839004307985
1772807477925340700,3.846340576171875,-0.00048055697698146105,-0.014953551813960075,-0.008944530040025711
1772807477935272700,3.856272705078125,-0.0038369386456906796,-0.016052905470132828,-0.006408934481441975
1772807477945204500,3.86620458984375,-0.006433549802750349,-0.014727743342518806,-0.002259723376482725
1772807477955136500,3.876136474609375,-0.006885487586259842,-0.014247842133045197,-0.0037870462983846664
1772807477965068500,3.886068603515625,-0.005307190120220184,-0.016733789816498756,-0.002212491352111101
1772807477975000600,3.89600048828125,-0.0072776637971401215,-0.013364624232053757,-0.0015586852096021175
1772807477984932600,3.9059326171875,-0.007293217815458775,-0.01631046086549759,-0.00021335043129511178
1772807477994864400,3.915864501953125,-0.004869475029408932,-0.0196793582290411,-0.0002634178672451526
1772807478004796400,3.92579638671875,-0.00314732757396996,-0.020748205482959747,0.00642857002094388
1772807478014728200,3.935728271484375,-0.00485281553119421,-0.017648817971348763,0.008457898162305355
1772807478024660200,3.94566015625,-0.0011488567106425762,-0.015446852892637253,0.008847185410559177
1772807478034592500,3.955592529296875,-0.001324359094724059,-0.01668974943459034,0.006553671322762966
1772807478044524300,3.965524169921875,-0.0015326251741498709,-0.011022045277059078,0.005693797953426838
1772807478054455300,3.975455322265625,-0.0033731358125805855,-0.0056810760870575905,0.00033418636303395033
1772807478064386300,3.98538623046875,-0.0007802912732586265,-0.0071871038526296616,-0.0023222260642796755
1772807478074318000,3.995318115234375,-0.004026152193546295,-0.0069556753151118755,-0.0001280476280953735
1772807478084250000,4.00525,-0.0047231391072273254,-0.0067847371101379395,0.0014086933806538582
1772807478094182100,4.01518212890625,-0.005885342601686716,-0.004540225025266409,0.0046383086591959
1772807478104114200,4.0251142578125,-0.0036948639899492264,-0.0031976979225873947,0.008125179447233677
1772807478114046200,4.035046142578125,-0.0007259720005095005,-0.0008461265824735165,0.010317493230104446
1772807478123978500,4.044978515625,-0.0010274705709889531,-0.002631271257996559,0.006662044674158096
1772807478133910300,4.05491015625,-0.0033396268263459206,-0.003142331726849079,0.004091827664524317
1772807478143842300,4.06484228515625,-0.005695035681128502,-0.006580583285540342,0.0013601297978311777
1772807478153774300,4.0747744140625,-0.006803710013628006,-0.007693252060562372,0.002580922795459628
1772807478163706400,4.084706298828125,-0.007436496205627918,-0.007524159271270037,0.0011272848350927234
1772807478173638400,4.094638427734375,-0.009149974212050438,-0.0036529882345348597,-0.002272506710141897
1772807478183570400,4.1045703125,-0.008522357791662216,-0.008498966693878174,-0.003031250089406967
1772807478193502200,4.114502197265625,-0.006134833674877882,-0.008183116093277931,-0.0015478696441277862
1772807478203434200,4.124434326171875,-0.005566305946558714,-0.0024429941549897194,-0.002167308470234275
1772807478213366300,4.1343662109375,-0.003134573809802532,-0.0004655970260500908,0.002469787374138832
1772807478223298300,4.14429833984375,-0.002154561225324869,-0.0021521984599530697,0.004431745037436485
1772807478233229300,4.154229248046875,-0.0017058184603229165,-0.004075267352163792,0.0064544156193733215
1772807478243161000,4.1641611328125,-0.004320716485381126,-0.003489856608211994,0.005073820240795612
1772807478253093000,4.174093017578125,-0.0014921727124601603,0.0005706651136279106,0.00041195665835402906
1772807478263025400,4.184025390625,0.0004008696414530277,-0.00184553861618042,-0.0030856472440063953
1772807478272957400,4.19395751953125,-0.0004944851389154792,-0.006726580206304789,-0.0022345008328557014
1772807478282889500,4.203889404296875,-0.004008270334452391,-0.009637688286602497,0.0022021501790732145
1772807478292821200,4.2138212890625,-0.007691688369959593,-0.008061896078288555,0.002788844518363476
1772807478302753300,4.223753173828125,-0.005963481962680817,-0.008897267282009125,-0.0016210126923397183
1772807478312685300,4.233685302734375,-0.004733368754386902,-0.00814385898411274,0.0006245647091418505
1772807478322617300,4.243617431640625,-0.00568451127037406,-0.0014069885946810246,0.0058633568696677685
1772807478332549400,4.25354931640625,-0.002741985023021698,-0.002404075814411044,0.009927873499691486
1772807478342481400,4.2634814453125,-0.006353378761559725,-0.001655076164752245,0.012333775870501995
1772807478352413200,4.2734130859375,-0.0045363036915659904,0.002605715300887823,0.006984816864132881
1772807478362345200,4.28334521484375,-0.004645843058824539,0.002348110545426607,0.0011012617032974958
1772807478372277200,4.29327734375,-0.003540897509083152,-0.0007635271176695824,-0.0024516615085303783
1772807478382209300,4.303209228515625,-0.0025507889222353697,0.0009709293954074383,0.0014429570874199271
1772807478392141300,4.313141357421875,-0.0032535968348383904,0.004671658389270306,0.006768746767193079
1772807478402072000,4.323072021484375,-0.001744956593029201,0.0034055598080158234,0.006921443622559309
1772807478412004400,4.33300439453125,-0.001334297121502459,0.0049035875126719475,0.0027101868763566017
1772807478421936400,4.342936279296875,-0.000696097151376307,0.006975909695029259,-0.0020996539387851954
1772807478431868400,4.352868408203125,0.002618206664919853,0.005937276408076286,0.00303944805637002
1772807478441801200,4.36280126953125,-0.0011976464884355664,0.0015035527758300304,0.0068223667331039906
1772807478451733200,4.372733154296875,-0.0013449193211272359,0.0038889464922249317,0.011750014498829842
1772807478461665300,4.382665283203125,0.0015669293934479356,0.001965041272342205,0.005281118210405111
1772807478471597300,4.392597412109375,0.003916902467608452,0.0014851400628685951,-0.007088466081768274
1772807478481529300,4.402529296875,0.001917422516271472,0.00011895224452018738,-0.01923958770930767
1772807478491461400,4.41246142578125,0.004516401328146458,0.004105438478291035,-0.025813067331910133
1772807478501393400,4.422393310546875,0.006027135066688061,0.010285796597599983,-0.024900296702980995
1772807478511325400,4.432325439453125,0.005730991717427969,0.01984068565070629,-0.021352434530854225
1772807478521257500,4.442257568359375,0.008518599905073643,0.028211042284965515,-0.01755913347005844
1772807478531189200,4.452189208984375,0.009207559749484062,0.035361096262931824,-0.01640145666897297
1772807478541121300,4.462121337890625,0.006295965984463692,0.03396137058734894,-0.01032981276512146
1772807478551053300,4.47205322265625,0.0009054616093635559,0.034419432282447815,-0.003022098680958152
1772807478560985300,4.4819853515625,-0.0037010484375059605,0.03266917169094086,0.004433518275618553
1772807478570916000,4.491916015625,-0.006109877489507198,0.030248891562223434,0.011208334006369114
1772807478580848000,4.50184814453125,-0.012251798063516617,0.032553188502788544,0.02068617008626461
1772807478590780200,4.5117802734375,-0.01684095710515976,0.03193240612745285,0.027972310781478882
1772807478600712200,4.521712158203125,-0.020031679421663284,0.03086581639945507,0.031006628647446632
1772807478610644200,4.531644287109375,-0.025920994579792023,0.03704515099525452,0.03193314000964165
1772807478620576300,4.541576171875,-0.02507874369621277,0.03543728217482567,0.035846028476953506
1772807478630508300,4.55150830078125,-0.026843354105949402,0.04175403341650963,0.035368792712688446
1772807478640440300,4.5614404296875,-0.022971365600824356,0.04066295549273491,0.03173978626728058
1772807478650372400,4.571372314453125,-0.02190237306058407,0.043582312762737274,0.02320115827023983
1772807478660304400,4.581304443359375,-0.018563244491815567,0.04180446267127991,0.01927434280514717
1772807478670236400,4.591236328125,-0.01139694545418024,0.04398612678050995,0.012931494042277336
1772807478680168400,4.60116845703125,-0.010594035498797894,0.03690556436777115,0.013135232962667942
1772807478690100200,4.611100341796875,-0.007130062207579613,0.029115816578269005,0.017514001578092575
1772807478700032300,4.6210322265625,-0.005504629109054804,0.02228008396923542,0.02622269280254841
1772807478709964300,4.63096435546875,0.003277677111327648,0.011468980461359024,0.03105100430548191
1772807478719896300,4.640896240234375,0.00016027921810746193,0.018003683537244797,0.039893683046102524
1772807478729828400,4.650828369140625,-0.0021319035440683365,-0.00026453519240021706,0.034006498754024506
1772807478739760400,4.660760498046875,-0.001996823353692889,-0.004815292544662952,0.03436228260397911
1772807478749691100,4.670691162109375,-0.003097241511568427,-0.006991095375269651,0.033905286341905594
1772807478759623200,4.680623046875,-0.005534476134926081,-0.011131951585412025,0.03758125752210617
1772807478769555500,4.690555419921875,-0.01114309299737215,-0.017551235854625702,0.03523900732398033
1772807478779487500,4.700487548828125,-0.008383728563785553,-0.019565828144550323,0.03262664005160332
1772807478789419300,4.710419189453125,-0.011905491352081299,-0.01995890960097313,0.023416893556714058
1772807478799351300,4.720351318359375,-0.014553152956068516,-0.02385428175330162,0.020775383338332176
1772807478809283300,4.730283447265625,-0.017363321036100388,-0.028782464563846588,0.013833054341375828
1772807478819215400,4.74021533203125,-0.021640338003635406,-0.03150366619229317,0.01823614351451397
1772807478829147400,4.7501474609375,-0.02628355845808983,-0.03784918040037155,0.02161196619272232
1772807478839079400,4.760079345703125,-0.02372027188539505,-0.03624509647488594,0.021018022671341896
1772807478849011200,4.77001123046875,-0.02394717186689377,-0.0283054132014513,0.015451748855412006
1772807478858943200,4.779943115234375,-0.02120407484471798,-0.02499992400407791,0.004790544509887695
1772807478868875300,4.789875244140625,-0.01777445524930954,-0.009054246358573437,0.010823402553796768
1772807478878807300,4.799807373046875,-0.011731247417628765,-0.014756377786397934,0.018990617245435715
1772807478888739300,4.8097392578125,-0.01182285975664854,-0.016428843140602112,0.031035028398036957
1772807478898671400,4.81967138671875,-0.011582311242818832,-0.023694390431046486,0.047625649720430374
1772807478908603100,4.82960302734375,-0.014648407697677612,-0.0358613058924675,0.057734474539756775
1772807478918535200,4.83953515625,-0.015017926692962646,-0.038105711340904236,0.06346175074577332
1772807478928467200,4.84946728515625,-0.013151317834854126,-0.03209389001131058,0.05596468970179558
1772807478938398500,4.8593984375,-0.014754734933376312,-0.020773256197571754,0.03393414616584778
1772807478948330500,4.86933056640625,-0.02069411613047123,-0.02284892462193966,0.01348905824124813
1772807478958262300,4.87926220703125,-0.014990613795816898,-0.01587720960378647,-0.008688313886523247
1772807478968194300,4.8891943359375,-0.011013450101017952,-0.0026322430931031704,-0.01924907974898815
1772807478978126300,4.899126220703125,-0.004014590755105019,0.0013814596459269524,-0.019280342385172844
1772807478988058400,4.909058349609375,0.0008004046976566315,0.007148801814764738,-0.00678585609421134
1772807478997990400,4.918990478515625,0.000995318521745503,-0.0008811871521174908,0.01336682215332985
1772807479007922200,4.928922119140625,-0.0019900850020349026,-0.009811298921704292,0.029399851337075233
1772807479017854500,4.9388544921875,-0.009199453517794609,-0.009724382311105728,0.04079056158661842
1772807479027786500,4.948786376953125,-0.016272012144327164,-0.01720413565635681,0.04773235693573952
1772807479037718300,4.95871826171875,-0.012337767519056797,-0.0182724017649889,0.043910346925258636
1772807479047650300,4.968650390625,-0.015119173564016819,-0.010041903704404831,0.03489607945084572
1772807479057582300,4.978582275390625,-0.017129112035036087,-0.011956223286688328,0.030950790271162987
1772807479067514400,4.988514404296875,-0.01625186577439308,-0.015321926213800907,0.02940242923796177
1772807479077446400,4.9984462890625,-0.01398417353630066,-0.014173563569784164,0.03208360821008682
1772807479087378400,5.00837841796875,-0.014387908391654491,-0.01685110479593277,0.03993833437561989
1772807479097310200,5.018310302734375,-0.01306245382875204,-0.02159978821873665,0.04635229334235191
1772807479107242200,5.0282421875,-0.011910369619727135,-0.028444644063711166,0.03826187551021576
1772807479117174300,5.03817431640625,-0.015727533027529716,-0.034711360931396484,0.04246027395129204
1772807479127105500,5.04810546875,-0.014162926003336906,-0.035549458116292953,0.03054715506732464
1772807479137037600,5.05803759765625,-0.014963962137699127,-0.02890191785991192,0.023189540952444077
1772807479146969300,5.06796923828125,-0.014035049825906754,-0.022026168182492256,0.009595436044037342
1772807479156901400,5.0779013671875,-0.01962967962026596,-0.012243974022567272,0.0016883318312466145
1772807479166833400,5.08783349609375,-0.022256622090935707,-0.011596026830375195,0.006610918790102005
1772807479176765400,5.097765380859375,-0.02661348134279251,-0.009927457198500633,0.016264179721474648
1772807479186697500,5.107697509765625,-0.032658860087394714,-0.01657790318131447,0.028525639325380325
1772807479196629500,5.11762939453125,-0.03382527828216553,-0.032984018325805664,0.04047700762748718
1772807479206561300,5.127561279296875,-0.033267345279455185,-0.04398367181420326,0.04804304987192154
1772807479216493300,5.137493408203125,-0.027644112706184387,-0.04406571388244629,0.04654529690742493
1772807479226425300,5.14742529296875,-0.02519001066684723,-0.04317568242549896,0.037744082510471344
1772807479236357400,5.157357421875,-0.021285178139805794,-0.05160340666770935,0.03409405052661896
1772807479246289400,5.167289306640625,-0.022868694737553596,-0.05416989326477051,0.036659471690654755
1772807479256221200,5.17722119140625,-0.022855205461382866,-0.044993817806243896,0.04279281198978424
1772807479266153200,5.1871533203125,-0.0184178464114666,-0.04153543710708618,0.04309374839067459
1772807479276085500,5.19708544921875,-0.02125944010913372,-0.02583157829940319,0.034991610795259476
1772807479286017500,5.207017578125,-0.014954937621951103,-0.01478132326155901,0.03435271978378296
1772807479295949600,5.216949462890625,-0.01922006532549858,0.00541945593431592,0.037462394684553146
1772807479305881600,5.226881591796875,-0.02450723946094513,-0.004590567201375961,0.0390927791595459
1772807479315812400,5.236812255859375,-0.030210036784410477,0.0075367772951722145,0.04039072245359421
1772807479325744400,5.246744384765625,-0.031289417296648026,0.015709485858678818,0.041523367166519165
1772807479335676400,5.256676513671875,-0.03258345648646355,0.021892540156841278,0.04275570064783096
1772807479345608400,5.2666083984375,-0.03219836205244064,0.02895124815404415,0.03881582245230675
1772807479355540500,5.27654052734375,-0.03160861134529114,0.024499373510479927,0.04066689684987068
1772807479365472300,5.28647216796875,-0.030168375000357628,0.018766919150948524,0.0376649834215641
1772807479375404300,5.296404296875,-0.03290672227740288,0.015189392492175102,0.04026474803686142
1772807479385336300,5.30633642578125,-0.03905756026506424,0.000059441663324832916,0.0439593531191349
1772807479395268400,5.316268310546875,-0.04003588855266571,0.006623457185924053,0.0480387881398201
1772807479405200400,5.326200439453125,-0.04019461199641228,0.013276034034788609,0.057094331830739975
1772807479415132400,5.33613232421875,-0.03569062426686287,0.009404420852661133,0.062133848667144775
1772807479425064400,5.346064453125,-0.030986681580543518,0.004588359966874123,0.06296288967132568
1772807479434996500,5.35599658203125,-0.02576686255633831,-0.014815421774983406,0.04666895791888237
1772807479444928500,5.365928466796875,-0.020675962790846825,-0.02578604780137539,0.03871516138315201
1772807479454860500,5.375860595703125,-0.023423269391059875,-0.04972386360168457,0.03342682868242264
1772807479464792600,5.38579248046875,-0.025148198008537292,-0.06353767961263657,0.029246998950839043
1772807479474724400,5.395724365234375,-0.03077029436826706,-0.07602459192276001,0.03325115889310837
1772807479484656400,5.405656494140625,-0.036941103637218475,-0.1044439822435379,0.03631219640374184
1772807479494588400,5.41558837890625,-0.046736396849155426,-0.11471913754940033,0.046733420342206955
1772807479504520400,5.4255205078125,-0.054381001740694046,-0.116517573595047,0.06076588109135628
1772807479514451500,5.435451416015625,-0.05466499924659729,-0.11431313306093216,0.0762355625629425
1772807479524383200,5.44538330078125,-0.05738808214664459,-0.10938974469900131,0.07750535756349564
1772807479534315300,5.455315185546875,-0.05172943323850632,-0.09237802028656006,0.07555432617664337
1772807479544247300,5.465247314453125,-0.048167187720537186,-0.08572863787412643,0.05881796032190323
1772807479554179300,5.475179443359375,-0.045665182173252106,-0.09345962107181549,0.040409814566373825
1772807479564111400,5.485111328125,-0.043375130742788315,-0.10239692032337189,0.03771176561713219
1772807479574043400,5.49504345703125,-0.04335993528366089,-0.11125166714191437,0.03899824619293213
1772807479583975400,5.504975341796875,-0.034079886972904205,-0.11255661398172379,0.04350937530398369
1772807479593907500,5.514907470703125,-0.044367238879203796,-0.11679719388484955,0.05374356731772423
1772807479603839500,5.524839599609375,-0.043159227818250656,-0.11427758634090424,0.06431844830513
1772807479613771500,5.534771484375,-0.04822481423616409,-0.12095332145690918,0.06652318686246872
1772807479623703600,5.54470361328125,-0.05314047634601593,-0.1391187459230423,0.0736231729388237
1772807479633635600,5.554635498046875,-0.05636133253574371,-0.1475972831249237,0.06777866929769516
1772807479643567400,5.5645673828125,-0.054145582020282745,-0.15589089691638947,0.058542825281620026
1772807479653499400,5.57449951171875,-0.044797465205192566,-0.1562049239873886,0.04864530265331268
1772807479663431400,5.584431396484375,-0.04241686314344406,-0.14855046570301056,0.04109204560518265
1772807479673363500,5.594363525390625,-0.029879188165068626,-0.14731980860233307,0.03694753348827362
1772807479683295500,5.60429541015625,-0.021006068214774132,-0.13893456757068634,0.04659270495176315
1772807479693227300,5.614227294921875,-0.025969114154577255,-0.13731057941913605,0.049401093274354935
1772807479703159300,5.6241591796875,-0.03039581887423992,-0.1405487060546875,0.0680227130651474
1772807479713091300,5.63409130859375,-0.03648262470960617,-0.14290174841880798,0.08619958907365799
1772807479723022300,5.644022216796875,-0.04789533466100693,-0.1360369175672531,0.09320476651191711
1772807479732954600,5.65395458984375,-0.051572348922491074,-0.13026663661003113,0.08603198826313019
1772807479742886400,5.663886474609375,-0.0480700246989727,-0.12790389358997345,0.058683451265096664
1772807479752818400,5.673818359375,-0.03927687183022499,-0.12116637825965881,0.015389256179332733
1772807479762750500,5.68375048828125,-0.024877160787582397,-0.10667292773723602,-0.01597479172050953
1772807479772682500,5.6936826171875,-0.018114037811756134,-0.10224967449903488,-0.03424106538295746
1772807479782614500,5.703614501953125,-0.012477458454668522,-0.09047530591487885,-0.020659208297729492
1772807479792546600,5.713546630859375,-0.010174542665481567,-0.07520550489425659,0.004176792688667774
1772807479802478300,5.723478271484375,-0.009884258732199669,-0.07672350853681564,0.03349180519580841
1772807479812410400,5.733410400390625,-0.020938551053404808,-0.07768546044826508,0.04607134312391281
1772807479822342400,5.74334228515625,-0.03360694274306297,-0.08120749145746231,0.04695844277739525
1772807479832274400,5.7532744140625,-0.04327801987528801,-0.0787457674741745,0.03486093506217003
1772807479842206500,5.76320654296875,-0.049618206918239594,-0.0648677721619606,0.02558833733201027
1772807479852138500,5.773138427734375,-0.0449800081551075,-0.044504087418317795,0.018504438921809196
1772807479862070300,5.7830703125,-0.03577292710542679,-0.036019522696733475,0.010801246389746666
1772807479872002300,5.793002197265625,-0.03220651298761368,-0.04453643038868904,-0.003964038100093603
1772807479881934300,5.802934326171875,-0.02824719250202179,-0.04337582364678383,-0.020364582538604736
1772807479891866400,5.812866455078125,-0.024768827483057976,-0.04387756064534187,-0.019218716770410538
1772807479901798400,5.82279833984375,-0.030659737065434456,-0.06098837032914162,-0.008551690727472305
1772807479911730400,5.83273046875,-0.027761071920394897,-0.06763710826635361,0.014119278639554977
1772807479921662200,5.842662109375,-0.03043009154498577,-0.06750767678022385,0.027211377397179604
1772807479931593500,5.852593505859375,-0.026084857061505318,-0.060312069952487946,0.03424034267663956
1772807479941525500,5.862525390625,-0.024492019787430763,-0.0636490136384964,0.028505491092801094
1772807479951457500,5.87245751953125,-0.027809761464595795,-0.055710118263959885,0.01575329527258873
1772807479961389300,5.882389404296875,-0.021989956498146057,-0.054013948887586594,0.004750178661197424
1772807479971321300,5.8923212890625,-0.011694547720253468,-0.051974888890981674,-0.004259656183421612
1772807479981253400,5.90225341796875,0.0012273762840777636,-0.04547438025474548,-0.0114717623218894
1772807479991185400,5.912185302734375,0.010694336146116257,-0.04537506401538849,-0.017851267009973526
1772807480001117400,5.922117431640625,0.014431283809244633,-0.04069375991821289,-0.015419800765812397
1772807480011049500,5.932049560546875,0.011594241484999657,-0.05027393996715546,-0.0052216737531125546
1772807480020982300,5.941982177734375,-0.00037826551124453545,-0.06008715555071831,0.003988602198660374
1772807480030914300,5.951914306640625,-0.01120341382920742,-0.07301775366067886,0.01586427353322506
1772807480040846000,5.96184619140625,-0.02252024970948696,-0.08623289316892624,0.014810726046562195
1772807480050778000,5.971778076171875,-0.02464573085308075,-0.08653303980827332,0.013852878473699093
1772807480060710100,5.981710205078125,-0.023957036435604095,-0.08364591002464294,-0.0026315555442124605
1772807480070642200,5.99164208984375,-0.022194763645529747,-0.07238523662090302,-0.0103722233325243
1772807480080574200,6.00157421875,-0.007119408808648586,-0.06743256002664566,-0.018237337470054626
1772807480090506200,6.01150634765625,0.0018301985692232847,-0.053579218685626984,-0.017551645636558533
1772807480100438000,6.02143798828125,0.012329977937042713,-0.046258989721536636,-0.015891430899500847
1772807480110370000,6.0313701171875,0.01923426054418087,-0.040264468640089035,-0.008547505363821983
1772807480120302000,6.041302001953125,0.020844673737883568,-0.03498821705579758,0.002960013458505273
1772807480130234400,6.051234375,0.019093632698059082,-0.04366506636142731,0.007715977728366852
1772807480140165000,6.0611650390625,0.005259043537080288,-0.03856218233704567,0.008863001130521297
1772807480150097200,6.07109716796875,0.0023696650750935078,-0.04542927071452141,0.00432710163295269
1772807480160029200,6.081029296875,-0.004930592142045498,-0.041310690343379974,-0.008142084814608097
1772807480169961200,6.090961181640625,-0.0069327568635344505,-0.03310975432395935,-0.01758219301700592
1772807480179893200,6.100893310546875,-0.009112288244068623,-0.017541445791721344,-0.036568135023117065
1772807480189825300,6.1108251953125,0.0012597062159329653,-0.00902224238961935,-0.032285336405038834
1772807480199757000,6.120757080078125,0.009012434631586075,-0.0008364845998585224,-0.01771038956940174
1772807480209689000,6.130689208984375,0.014560944400727749,0.009247954934835434,-0.012417611666023731
1772807480219621000,6.14062109375,0.02307933196425438,0.00939975492656231,-0.0071943532675504684
1772807480229553200,6.15055322265625,0.02429492585361004,0.01117035560309887,-0.011519680730998516
1772807480239485200,6.160485107421875,0.021198734641075134,0.006123665254563093,-0.012275219894945621
1772807480249417200,6.170417236328125,0.015277659520506859,0.013571618124842644,-0.009769021533429623
1772807480259349000,6.180348876953125,0.009720973670482635,0.017069147899746895,-0.009257161989808083
1772807480269281000,6.190281005859375,0.0039368318393826485,0.02640991099178791,-0.021046793088316917
1772807480279213300,6.20021337890625,-0.000768973957747221,0.033355433493852615,-0.03484782576560974
1772807480289145300,6.210145263671875,-0.001203700085170567,0.03994779661297798,-0.04417748004198074
1772807480299077400,6.220077392578125,-0.0032697804272174835,0.04843156412243843,-0.04305016249418259
1772807480309009400,6.230009521484375,0.004773511551320553,0.05775582417845726,-0.03525545075535774
1772807480318941200,6.239941162109375,0.006890191696584225,0.06951794028282166,-0.02043495886027813
1772807480328873200,6.249873291015625,0.00751067791134119,0.07561034709215164,-0.012951853685081005
1772807480338805200,6.25980517578125,0.007261938415467739,0.07799042016267776,-0.008679610677063465
1772807480348737300,6.2697373046875,0.009902531281113625,0.07859906554222107,-0.011958391405642033
1772807480358668000,6.27966796875,0.004538125824183226,0.0771777331829071,-0.018314557150006294
1772807480368600000,6.28960009765625,0.004621482454240322,0.0754765123128891,-0.025375928729772568
1772807480378532000,6.299531982421875,0.0024044010788202286,0.0751662477850914,-0.028856147080659866
1772807480388464000,6.309464111328125,0.003306135069578886,0.07934607565402985,-0.03033970296382904
1772807480398396200,6.319396240234375,0.003734105033800006,0.08055275678634644,-0.03775127977132797
1772807480408328200,6.329328125,0.0066730789840221405,0.07670330256223679,-0.04812821000814438
1772807480418260200,6.33926025390625,0.01025316584855318,0.07467477023601532,-0.05373496189713478
1772807480428192300,6.349192138671875,0.014720696955919266,0.07345622032880783,-0.050170306116342545
1772807480438124300,6.359124267578125,0.01369644608348608,0.06848517060279846,-0.04230679199099541
1772807480448056300,6.369056396484375,0.0137010607868433,0.061295296996831894,-0.02784803695976734
1772807480457988400,6.37898828125,0.014655005186796188,0.05500224605202675,-0.012618484906852245
1772807480467920400,6.38892041015625,0.009918163530528545,0.048305757343769073,0.00006523707997985184
1772807480477852200,6.39885205078125,0.0056770797818899155,0.04430169612169266,0.009223049506545067
1772807480487784200,6.4087841796875,0.0023397752083837986,0.0398121103644371,0.013846761547029018
1772807480497716200,6.41871630859375,0.0012281718663871288,0.034823477268218994,0.015312831848859787
1772807480507648300,6.428648193359375,0.00032176298554986715,0.03702621906995773,0.014257482253015041
1772807480517580300,6.438580322265625,0.00011323747457936406,0.03735778480768204,0.00537104532122612
1772807480527512300,6.44851220703125,0.0009517981088720262,0.04446600005030632,-0.00024634512374177575
1772807480537444000,6.458444091796875,0.0029286625795066357,0.04916488006711006,0.0005960127455182374
1772807480547376000,6.468376220703125,0.003170338459312916,0.053481731563806534,0.006226113997399807
1772807480557308200,6.47830810546875,0.0035295989364385605,0.05574195459485054,0.004187996964901686
1772807480567240200,6.488240234375,-0.0016289688646793365,0.05290008708834648,0.0024288957938551903
1772807480577171200,6.498171142578125,-0.004074016585946083,0.047453124076128006,0.0008333958685398102
1772807480587103200,6.508103271484375,-0.0033158937003463507,0.04570091515779495,-0.0007362831383943558
1772807480597035300,6.51803515625,-0.002832796424627304,0.03983130678534508,-0.000045725435484200716
1772807480606967300,6.52796728515625,-0.00003207731060683727,0.03397062420845032,0.0003554340510163456
1772807480616899300,6.5378994140625,0.0020164260640740395,0.034726694226264954,-0.0009729507146403193
1772807480626831400,6.547831298828125,0.004642837215214968,0.0323890820145607,-0.002747385995462537
1772807480636763100,6.55776318359375,0.010828028433024883,0.03465729206800461,-0.005464343354105949
1772807480646695200,6.567695068359375,0.013985410332679749,0.03417673334479332,-0.008261566050350666
1772807480656627200,6.577627197265625,0.013816566206514835,0.028931640088558197,-0.013029956258833408
1772807480666559200,6.587559326171875,0.01889328472316265,0.023698680102825165,-0.011467847973108292
1772807480676491300,6.5974912109375,0.01954762265086174,0.019075166434049606,-0.013864160515367985
1772807480686423300,6.60742333984375,0.015383165329694748,0.014525665901601315,-0.013369861990213394
1772807480696355000,6.61735498046875,0.010470165871083736,0.002243167720735073,-0.011439602822065353
1772807480706287000,6.627287109375,0.004826988093554974,-0.0022598453797399998,-0.009700720198452473
1772807480716219100,6.63721923828125,0.0002631289535202086,-0.011070114560425282,-0.018480097874999046
1772807480726151200,6.647151123046875,0.005849235691130161,-0.014593609608709812,-0.025506936013698578
1772807480736083200,6.657083251953125,0.008063121698796749,-0.014894546940922737,-0.03015574999153614
1772807480746015200,6.66701513671875,0.007802349515259266,-0.020740043371915817,-0.03112000972032547
1772807480755947000,6.676947021484375,0.0072244442999362946,-0.021272143349051476,-0.031440120190382004
1772807480765879000,6.686879150390625,0.010098502039909363,-0.018320299685001373,-0.026483263820409775
1772807480775811000,6.69681103515625,0.013438105583190918,-0.012313541024923325,-0.024560194462537766
1772807480785743400,6.706743408203125,0.018474156036973,-0.005207426380366087,-0.01172411534935236
1772807480795675400,6.71667529296875,0.018977228552103043,0.0008259653113782406,-0.0008347167167812586
1772807480805606100,6.726606201171875,0.016886606812477112,-0.002054248470813036,0.0035501865204423666
1772807480815538200,6.7365380859375,0.01934470422565937,-0.005734204314649105,-0.00436685886234045
1772807480825470200,6.74647021484375,0.013291352428495884,-0.01333619561046362,-0.01316496916115284
1772807480835402200,6.75640234375,0.007967161014676094,-0.01602013036608696,-0.01810433529317379
1772807480845334300,6.766334228515625,0.0075180125422775745,-0.022020898759365082,-0.02452716790139675
1772807480855266000,6.77626611328125,0.029963400214910507,0.026588182896375656,0.012386376038193703
1772807480865198000,6.786197998046875,0.04401475936174393,0.023222744464874268,0.04826483875513077
1772807480875130000,6.796130126953125,0.034022845327854156,0.01487719640135765,0.034351687878370285
1772807480885062100,6.806062255859375,0.01780248060822487,-0.00783517025411129,-0.006105994340032339
1772807480894994200,6.815994140625,0.004570032935589552,-0.03797975555062294,-0.02586665004491806
1772807480904926200,6.82592626953125,-0.0005975912790745497,-0.03967725858092308,-0.007503171917051077
1772807480914858000,6.83585791015625,-0.003266877494752407,-0.034233491867780685,0.015488962642848492
1772807480924790000,6.8457900390625,0.0027931975200772285,-0.025959044694900513,0.016930963844060898
1772807480934722300,6.855722412109375,0.00454635638743639,-0.0250232070684433,0.003680939320474863
1772807480944654300,6.865654296875,0.0008479725802317262,-0.027323385700583458,-0.008606519550085068
1772807480954586400,6.87558642578125,0.0024091177619993687,-0.029668033123016357,-0.013001534156501293
1772807480964518400,6.885518310546875,0.0008532152278348804,-0.020938187837600708,-0.01586174964904785
1772807480974450200,6.8954501953125,0.004982180427759886,-0.006844739429652691,-0.015271861106157303
1772807480984382200,6.90538232421875,0.007758686318993568,-0.008364598266780376,-0.023237142711877823
1772807480994314200,6.915314208984375,0.007315270137041807,-0.006066290661692619,-0.040275514125823975
1772807481004246300,6.925246337890625,0.0029829416889697313,-0.00978047400712967,-0.043422214686870575
1772807481014178300,6.93517822265625,0.004948354326188564,-0.016680192202329636,-0.037343014031648636
1772807481024109600,6.945109619140625,0.0024743916001170874,-0.019485967233777046,-0.033720310777425766
1772807481034040600,6.95504052734375,0.004820370115339756,-0.021930215880274773,-0.03562100976705551
1772807481043972600,6.96497265625,0.004164912737905979,-0.013142320327460766,-0.031588081270456314
1772807481053904600,6.974904541015625,0.002979539567604661,-0.011681044474244118,-0.01863047480583191
1772807481063836700,6.984836669921875,0.0034331425558775663,-0.004390103742480278,-0.002688984153792262
1772807481073768700,6.994768798828125,0.003991074860095978,-0.0034169848076999187,0.011236951686441898
1772807481083700700,7.00470068359375,0.004057842772454023,-0.0075165098533034325,0.0076629770919680595
1772807481093632500,7.014632568359375,0.0025888432282954454,-0.006227273494005203,-0.010059027932584286
1772807481103564500,7.024564453125,0.005495721474289894,-0.0025149756111204624,-0.017371514812111855
1772807481113496600,7.03449658203125,0.006479226518422365,-0.0009474391117691994,-0.015804510563611984
1772807481123428600,7.0444287109375,0.0062326705083251,0.007217817939817905,-0.013917761854827404
1772807481133360600,7.054360595703125,0.010727819986641407,0.0092596635222435,-0.0018467179033905268
1772807481143292700,7.064292724609375,0.011575630865991116,0.014726999215781689,0.010374174453318119
1772807481153224400,7.074224365234375,0.011671771295368671,0.019360631704330444,0.01870587468147278
1772807481163156500,7.084156494140625,0.013523746281862259,0.016549136489629745,0.013846046291291714
1772807481173088500,7.094088623046875,0.0066266912035644054,0.0053148576989769936,0.008909078314900398
1772807481183020500,7.1040205078125,0.0043052262626588345,0.002159014344215393,0.0023584093432873487
1772807481192952600,7.11395263671875,0.005921498406678438,0.003258367069065571,-0.0006086184293963015
1772807481202884600,7.123884521484375,0.0030777109786868095,0.008101316168904305,-0.007283639628440142
1772807481212816400,7.13381640625,0.0034915662836283445,0.011554637923836708,-0.002565583912655711
1772807481222748400,7.14374853515625,0.00234120711684227,0.02248518355190754,0.0006737979711033404
1772807481232680400,7.153680419921875,0.00467307073995471,0.02339491806924343,0.002659983467310667
1772807481242612500,7.163612548828125,0.002219347283244133,0.014429252594709396,-0.004400318022817373
1772807481252544800,7.173544677734375,0.0008193234098143876,0.0113836620002985,-0.010855021886527538
1772807481262476800,7.183476806640625,0.0005834335461258888,0.010965284891426563,-0.010583304800093174
1772807481272407600,7.193407470703125,-0.001070389524102211,0.012173294089734554,-0.007482586894184351
1772807481282339600,7.203339599609375,-0.002601669868454337,0.015154978260397911,-0.002494228072464466
1772807481292271600,7.213271728515625,-0.0020578522235155106,0.006773476954549551,-0.003752039046958089
1772807481302203600,7.22320361328125,-0.0020874766632914543,-0.0015185526572167873,-0.01208887342363596
1772807481312135400,7.233135498046875,-0.008568545803427696,-0.0025723653379827738,-0.021728185936808586
1772807481322067500,7.2430673828125,-0.004560528323054314,-0.0015265438705682755,-0.024746336042881012
1772807481331999500,7.25299951171875,-0.004746682941913605,0.0007102452218532562,-0.02791762910783291
1772807481341931500,7.262931640625,-0.002821570262312889,0.009527575224637985,-0.02604428306221962
1772807481351863600,7.272863525390625,0.0008069864707067609,0.0061576105654239655,-0.026747623458504677
1772807481361795600,7.282795654296875,0.004193918313831091,0.01274481788277626,-0.0245132427662611
1772807481371727400,7.292727294921875,0.009098662063479424,0.01995559222996235,-0.020020490512251854
1772807481381659400,7.302659423828125,0.00853357557207346,0.011161954142153263,-0.0225861594080925
1772807481391591400,7.31259130859375,0.006170286331325769,0.0044004544615745544,-0.026418447494506836
1772807481401523700,7.322523681640625,0.005319167394191027,0.004314967431128025,-0.03272286802530289
1772807481411455700,7.332455810546875,0.0004988455330021679,0.002679253928363323,-0.03374791890382767
1772807481421387800,7.3423876953125,0.0005527546163648367,0.017233029007911682,-0.009932860732078552
1772807481431319600,7.352319580078125,-0.0016523428494110703,0.009687760844826698,0.008344413712620735
1772807481441251600,7.36225146484375,-0.005083153489977121,0.009407464414834976,0.013710769824683666
1772807481451183600,7.37218359375,-0.008591335266828537,0.009012250229716301,0.0035271088127046824
1772807481461115600,7.38211572265625,-0.007420904003083706,0.006820201873779297,-0.00924442894756794
1772807481471047700,7.392047607421875,-0.007396669127047062,0.0000930572859942913,-0.024063056334853172
1772807481480979700,7.401979736328125,-0.0009048306383192539,0.006514486391097307,-0.03562546148896217
1772807481490911500,7.411911376953125,-0.002805528696626425,0.009053276851773262,-0.03639804571866989
1772807481500843500,7.421843505859375,-0.0008926829323172569,0.01563633233308792,-0.0317881777882576
1772807481510775600,7.431775634765625,0.0004942913656122983,0.010668204165995121,-0.01736050471663475
1772807481520707600,7.44170751953125,-0.0007281270809471607,0.013561462052166462,-0.0014500641264021397
1772807481530638600,7.451638671875,-0.00400488032028079,0.011546513997018337,0.010242277756333351
1772807481540570600,7.461570556640625,-0.003381899558007717,0.015202505514025688,0.019294969737529755
1772807481550502700,7.471502685546875,-0.004550761077553034,0.015009958297014236,0.020930150523781776
1772807481560434700,7.4814345703125,-0.005728410091251135,0.013854283839464188,0.017988894134759903
1772807481570366700,7.49136669921875,-0.0029294276610016823,0.014323266223073006,0.005561786703765392
1772807481580298800,7.501298828125,-0.004020425491034985,0.0075284698978066444,-0.009330986067652702
1772807481590230500,7.51123046875,-0.005210858304053545,0.010822800919413567,-0.017036309465765953
1772807481600162600,7.52116259765625,-0.002316268626600504,0.012126151472330093,-0.01948961429297924
1772807481610094600,7.531094482421875,-0.0005575172835960984,0.011671550571918488,-0.01724962890148163
1772807481620026600,7.541026611328125,-0.005678876303136349,0.014844043180346489,-0.012821953743696213
1772807481629958700,7.550958740234375,0.0005718293832615018,0.021933911368250847,-0.003108340548351407
1772807481639890700,7.560890625,-0.0001719051506370306,0.024032611399888992,0.007239826023578644
1772807481649822500,7.570822509765625,-0.0007186520379036665,0.02336016297340393,0.005772690754383802
1772807481659754500,7.58075439453125,0.0004951559822075069,0.021726451814174652,-0.0014387216651812196
1772807481669686500,7.5906865234375,-0.0022897114977240562,0.018513083457946777,-0.0055053685791790485
1772807481679618600,7.60061865234375,-0.002923442982137203,0.013484632596373558,-0.011977818794548512
1772807481689550600,7.610550537109375,-0.0022552558220922947,0.016787750646471977,-0.011037190444767475
1772807481699482600,7.620482666015625,-0.0006569797405973077,0.01605817675590515,-0.008447795175015926
1772807481709414400,7.630414306640625,-0.0014996039681136608,0.015171876177191734,-0.0031792635563760996
1772807481719346400,7.640346435546875,-0.0022432205732911825,0.01567242667078972,0.0015509389340877533
1772807481729278500,7.650278564453125,-0.003324197605252266,0.07245421409606934,0.034177590161561966
1772807481739210500,7.66021044921875,0.0006315705832093954,-0.0012639560736715794,0.04006674885749817
1772807481749142500,7.670142578125,0.0009556773002259433,0.03383757174015045,0.009241458028554916
1772807481759074600,7.680074462890625,0.008864620700478554,0.029554011300206184,-0.007806772366166115
1772807481769006600,7.690006591796875,0.007156468462198973,0.02688419260084629,-0.0025872427504509687
1772807481778938600,7.699938720703125,0.008987190201878548,0.029444564133882523,0.011632246896624565
1772807481788869600,7.70986962890625,0.00806626956909895,0.02479521743953228,0.017474690452218056
1772807481798801700,7.7198017578125,0.0038037279155105352,0.025749292224645615,0.013344397768378258
1772807481808733400,7.7297333984375,0.001961086643859744,0.016831163316965103,0.004297107458114624
1772807481818665500,7.73966552734375,-0.001999033847823739,0.006656023673713207,-0.01787690445780754
1772807481828597500,7.749597412109375,-0.004758867435157299,-0.008740243501961231,-0.04296308383345604
1772807481838529500,7.759529541015625,-0.010259462520480156,-0.02437365986406803,-0.07210349291563034
1772807481848461600,7.769461669921875,-0.0036148754879832268,0.0017484892159700394,-0.07086831331253052
1772807481858393600,7.7793935546875,-0.0015069958753883839,0.007446586154401302,-0.05176509916782379
