time,seconds_elapsed,z,y,x
1772871656329997600,0.05599755859375,0.6121902333348989,-0.1713867864921689,-0.2246649338237941
1772871656339930600,0.0659306640625,0.5047089327812194,-0.2996259206533432,-0.06863192993849515
1772871656349862700,0.075862548828125,0.4762614214539528,-0.32548370774835345,0.04115918192751705
1772871656359795500,0.08579541015625,0.3890232829838991,-0.39542350541502236,0.15798603764921426
1772871656369728500,0.095728515625,0.22376491624414918,-0.4203717764496803,0.12235957460328936
1772871656379661600,0.10566162109375,0.15788871475458144,-0.36738983558565375,-0.01018397875353694
1772871656389594600,0.1155947265625,0.29118717813193795,-0.3352271031275391,-0.078222545908764
1772871656399526700,0.125526611328125,0.46492052775025366,-0.29070903922617436,-0.13828838061913848
1772871656409459700,0.135459716796875,0.7379413500726223,-0.19445289704203605,-0.24607173285931347
1772871656419392500,0.145392578125,1.0921323891282082,-0.0022740824118256567,-0.18715426446646452
1772871656429325600,0.15532568359375,1.2002753684610128,0.08174830888211726,-0.04546206675320864
1772871656439258600,0.165258544921875,1.0868529874205588,-0.018496318416297435,-0.04944631408378482
1772871656449190700,0.175190673828125,1.0452397050499915,-0.09695990653932093,-0.035432474843785165
1772871656459123700,0.185123779296875,1.014660442391038,-0.12376345005184411,0.06308152926973998
1772871656469056500,0.195056396484375,0.893873085540533,-0.15225567730367182,0.12263897606655955
1772871656478989600,0.204989501953125,0.6554448531717062,-0.2176654303252697,0.11879859418608248
1772871656488922600,0.214922607421875,0.5983265431553125,-0.26201485966145993,0.1337600530071184
1772871656498854700,0.224854736328125,0.6311842721402645,-0.2829147320881486,0.22809004943426697
1772871656508787700,0.23478759765625,0.7449363235265016,-0.3172317199707031,0.45352651561982926
1772871656518720500,0.244720458984375,0.8478297117680311,-0.42841421312987804,0.7281416944615543
1772871656528653600,0.254653564453125,1.05070732280612,-0.6539192510396242,0.8661215936534106
1772871656538586600,0.264586669921875,1.3556067999482153,-0.769397103305161,0.8584102886237204
1772871656548518400,0.274518310546875,1.6131524052411317,-0.7874199589908123,0.7530288829587399
1772871656558451500,0.284451416015625,1.8454332208961248,-0.810085672046244,0.6837924112558365
1772871656568384500,0.294384521484375,1.9084891042679548,-0.7898664753600955,0.596320098703727
1772871656578317300,0.3043173828125,1.7985358606427906,-0.7335299633711576,0.4282590956334024
1772871656588250600,0.314250732421875,1.7860265076816082,-0.6657075962498784,0.45421179447025056
1772871656598182400,0.324182373046875,2.00053610432446,-0.7062666933923959,0.7900731769133359
1772871656608115500,0.334115478515625,2.382847322449088,-0.5598509742885828,1.2030006287064403
1772871656618048500,0.344048583984375,2.9668033949464556,-0.33935470445156096,1.3328455175638199
1772871656627981300,0.353981201171875,3.375354385221004,-0.552591796940565,1.7020177065216004
1772871656637914400,0.363914306640625,2.987530541154742,-0.6310875337675214,2.3405998338282106
1772871656647846400,0.373846435546875,2.152002677077055,-0.3454734795928001,2.390094809359312
1772871656657779500,0.383779541015625,1.2099334236443042,0.18108108203262088,2.0202116956532
1772871656667712500,0.39371240234375,0.4084592203378677,0.6038286477029323,1.4335364273250102
1772871656677645600,0.4036455078125,-0.20813480091392994,0.9843529824107885,0.9876195829913019
1772871656687577600,0.41357763671875,-0.983704747635126,1.2786714443057774,0.8597006206952035
1772871656697510400,0.423510498046875,-1.158967206516862,1.377991065713763,0.8024398334681987
1772871656707443500,0.433443359375,-1.116399984422326,1.85816118504405,0.9882448752827941
1772871656717376500,0.44337646484375,-4.179878039225936,2.028887754061818,0.6398216059736908
1772871656727309600,0.4533095703125,-6.434542049354315,1.2486930701494217,-0.8932496929451823
1772871656737241600,0.46324169921875,-6.6314177896291016,2.6271272034555673,-0.7394479552432894
1772871656747174400,0.47317431640625,-6.083419165697693,2.5694343084216116,0.023755115727335213
1772871656757107500,0.483107421875,-5.2665761283457275,1.56548581418097,-0.027510522738099098
1772871656767040500,0.49304052734375,-3.8794127451390024,1.3494260654866694,-0.6961477426990866
1772871656776973600,0.5029736328125,-2.603983059233427,0.5130319399684667,-1.9463065014868974
1772871656786905600,0.512905517578125,-1.7237340098977088,-0.2671738498598337,-2.829526967848837
1772871656796838400,0.52283837890625,1.5333125603288411,-0.2994417962580919,0.35313641543611884
1772871656806771500,0.532771484375,0.03682487905025482,-1.4469395142555237,-0.5402792817257345
1772871656816704500,0.54270458984375,0.8635165257215499,-0.9407949957132339,-1.9384134101495145
1772871656826637600,0.552637451171875,0.8803887500673532,-1.1862713930279016,-1.158097730205953
1772871656836569600,0.562569580078125,0.7619558473885059,-1.1113415319889783,-1.1006848211571574
1772871656846502700,0.572502685546875,0.6220762520551681,-1.1062702200740575,-0.857453280159831
1772871656856435500,0.582435546875,0.16679332122206686,-0.9949211381763219,-0.46382367242425676
1772871656866368500,0.592368408203125,0.0877069250255823,-0.9894815774708986,0.1384998314127326
1772871656876301600,0.602301513671875,0.05481646281480789,-1.1601315741211176,0.1256562780611217
1772871656886233600,0.612233642578125,0.04443944570720196,-0.3811410053014755,-0.04197743950784206
1772871656896166700,0.622166748046875,0.9617530280679464,1.6756617606461046,0.42467531886249776
1772871656906099500,0.632099365234375,1.4744716643035412,2.143630570051074,0.51034503897205
1772871656916032500,0.642032470703125,1.065320954570174,0.7947001791268586,-0.6774383660539984
1772871656925965600,0.651965576171875,1.1880512621819972,-0.27724048584401606,-1.7314511601462959
1772871656935897600,0.661897705078125,1.508911109521985,-1.0632961707442998,-2.6760011244788764
1772871656945830700,0.67183056640625,1.572847282859683,-1.5312766705870628,-2.7237416575580835
1772871656955763500,0.681763427734375,1.3868430652111767,-1.150072536921501,-2.281185814090073
1772871656965696500,0.691696533203125,0.6824655465662479,-0.5552145466595888,-1.8502721853598951
1772871656975629600,0.701629638671875,0.18946224914789198,-0.36252632120251654,-1.444469617010653
1772871656985561600,0.7115615234375,0.18894494727551936,-0.504118565672636,-1.6372788384988903
1772871656995494700,0.72149462890625,0.6426303797841072,-0.536927779340744,-1.8953940603733062
1772871657005427700,0.731427734375,1.0841828914284706,0.061647770139575,-1.8677075965464114
1772871657015360500,0.741360595703125,1.5346026001393793,0.33354689495563505,-1.972086839431524
1772871657025293600,0.75129345703125,1.740651242429018,-0.08323124091625213,-2.179931279096752
1772871657035225600,0.7612255859375,2.0901520778417586,-0.20869652644991873,-1.880469316833466
1772871657045158700,0.77115869140625,2.7546494215190407,-0.05537643478512764,-1.3474734701141715
1772871657055091700,0.781091796875,3.243232564407587,-0.12945581647455692,-1.0714315464049577
1772871657065024500,0.7910244140625,3.664483461779356,-0.1634796666294336,-1.1411010026976465
1772871657074956500,0.80095654296875,2.88990135705173,0.07510171047449112,-1.4314438389599322
1772871657084889300,0.810889404296875,1.075315694361925,0.32809155215919017,-1.8930369758531451
1772871657094822400,0.820822509765625,-0.5654395880758762,1.9838959351688623,-1.5315861749276518
1772871657104755700,0.830755615234375,-1.9194722705751657,5.009858206048608,-0.04184431464746594
1772871657114688500,0.8406884765625,-2.5694939296543597,6.021944414037466,0.5782489468969404
1772871657124620500,0.85062060546875,-4.5503152796834705,5.321901709726452,2.3082769423723217
1772871657134553300,0.86055322265625,-8.725326589655875,3.0583553049623964,6.838432062080502
1772871657144486400,0.870486328125,-12.939893080425263,1.5893354763239622,10.591337903678417
1772871657154419500,0.88041943359375,-16.42113126787543,1.182329961925745,12.318818698889016
1772871657164352500,0.8903525390625,-16.919593999743462,2.63896552528739,10.469849705082177
1772871657174284500,0.900284423828125,-14.502626381027698,4.729691019102931,6.395919180971384
1772871657184217300,0.91021728515625,-10.911736563247441,6.522401534593105,2.2853362117677927
1772871657194150400,0.920150390625,-6.476116753280162,8.121941594067215,-1.414981948980689
1772871657204083500,0.93008349609375,-2.6470763510286806,9.595267595466971,-3.5867370820149778
1772871657214016500,0.9400166015625,-0.49022506487667555,10.310874948656558,-3.9346301899701355
1772871657223948500,0.949948486328125,2.2286124540269374,10.712589955431222,-2.370432077512145
1772871657233882000,0.959882080078125,-0.49506373707950113,8.94904299058318,-1.9777245530575513
1772871657243815200,0.969815185546875,-1.3514584480971097,6.323994346967339,-0.6241394681952893
1772871657253748200,0.979748291015625,-3.412479708522558,5.505726245248318,1.64359255169034
1772871657263681300,0.989681396484375,-4.983845812913775,4.142918720141053,2.7178461697787046
1772871657273613300,0.99961328125,-6.473129846423864,3.063590867528319,3.1664865938574076
1772871657283546000,1.009546142578125,-7.217471711188554,2.1097516813248394,2.661218273627758
1772871657293479200,1.019479248046875,-5.997964403513073,1.56095401597023,1.4368227555193007
1772871657303412200,1.029412109375,-3.12619725356698,0.8989274463206529,-0.6802895177014172
1772871657313345300,1.03934521484375,0.4390156866431236,-0.12247896319925784,-2.9614474208712576
1772871657323277000,1.049277099609375,3.8300077859789132,-1.4639169525414704,-4.064730149567127
1772871657333210000,1.059210205078125,6.455903986334801,-3.1756863838791847,-4.2840076912641525
1772871657343143000,1.069142822265625,8.44416630001962,-4.802130232369899,-4.147235122035443
1772871657353076200,1.079076171875,9.917115284800529,-5.808740054774284,-3.8385894441023467
1772871657363008000,1.089008056640625,10.81388175369501,-6.692433107084035,-3.5563895822852847
1772871657372941000,1.098941162109375,11.373722791111469,-7.377262460172176,-2.9022148951798674
1772871657382874000,1.1088740234375,11.663166340446471,-7.810587826219201,-2.3601998757027087
1772871657392807000,1.118806884765625,11.564558666700124,-7.8680995194673535,-1.585388053872436
1772871657402740000,1.128739990234375,10.98316864529848,-8.315962529432774,-0.6532789073094725
1772871657412672000,1.138672119140625,10.782567747020721,-8.611761585274339,0.05437295683100819
1772871657422605000,1.14860498046875,9.488457326042651,-9.051237875166535,0.30930238827615975
1772871657432538000,1.1585380859375,8.137998410376905,-8.912816661947964,0.8788044034853577
1772871657442471000,1.168470947265625,6.763060887014865,-8.387641864243149,1.0126955720588564
1772871657452404000,1.178404052734375,5.358792639750242,-7.798096008914708,0.7197185879006981
1772871657462336000,1.1883359375,4.437454624179005,-7.237716042315959,0.14203721175864337
1772871657472269000,1.19826904296875,3.931362128084898,-6.6870677806586025,-0.5714496421456337
1772871657482202000,1.2082021484375,3.9087469761729237,-6.071715283900499,-1.2320076005473732
1772871657492135200,1.21813525390625,4.081287901136279,-5.545212452462315,-2.157997387447208
1772871657502068000,1.22806787109375,4.235816784068942,-5.098829451921582,-2.892681927680969
1772871657512000000,1.238,4.379733087572455,-4.9286143395572894,-3.368905939733982
1772871657521933000,1.24793310546875,4.538079482966661,-5.005960614088178,-3.5819086389452215
1772871657531866000,1.2578662109375,4.511123671501875,-5.310521068534254,-3.4455712462633845
1772871657541799200,1.267799072265625,4.31938997029066,-5.520142308613658,-3.099222445140779
1772871657551731200,1.277731201171875,3.944737157964706,-5.349375992107391,-2.588831082808971
1772871657561664000,1.2876640625,3.385942414730787,-5.118227395352721,-1.9782316257968544
1772871657571597000,1.29759716796875,3.191670719474554,-4.361283238646388,-1.0256780954897402
1772871657581530000,1.307530029296875,2.6860066779255867,-3.679061437708139,0.5072345057360828
1772871657591463200,1.317463134765625,2.4615754067271944,-2.9016479089468716,1.952495419254899
1772871657601395200,1.327395263671875,1.9086802429258822,-1.9162796120136976,3.4581180086255072
1772871657611328000,1.337327880859375,0.6839888106107711,-0.5747521908223628,4.52892528565228
1772871657621261000,1.347260986328125,-0.46477322823405265,2.1062772832125423,4.300120621675252
1772871657631194000,1.357194091796875,-2.218631742760539,5.520825030180812,3.6392242250993845
1772871657641127200,1.367127197265625,-4.945065123620629,9.051536565852164,2.525464526052773
1772871657651059200,1.37705908203125,-9.749120771095155,11.630678613817691,2.9989810327127575
1772871657660992300,1.3869921875,-14.869631308948993,15.348960301280021,4.919018243694305
1772871657670925000,1.396925048828125,-15.2049481361866,21.97428445020914,6.089944183552265
1772871657680858000,1.406858154296875,-16.745413490879535,24.113209034526346,3.4413191417768596
1772871657690791200,1.416791259765625,-20.612448985004423,22.6764612439394,0.15146606129594145
1772871657700723200,1.42672314453125,-20.445888303494453,20.825378618979453,-2.4529139613658186
1772871657710656300,1.43665625,-17.942949205243586,20.086196913456916,-3.425478306305408
1772871657720589000,1.446589111328125,-16.72425379847288,16.177707126915454,-2.824340212860703
1772871657730522000,1.456522216796875,-12.854955035591125,12.900573461949824,-1.2387018374890089
1772871657740454100,1.4664541015625,-8.611858615908027,8.926031532829999,-1.1706672889217733
1772871657750387200,1.47638720703125,-4.14478860566616,5.446131315985322,-1.8329506098113952
1772871657760320300,1.4863203125,-0.07577800230085849,2.7897961382240055,-1.5492898816615341
1772871657770253000,1.496253173828125,3.0906162370979784,0.6379635570168495,-0.6964541782997549
1772871657780186000,1.50618603515625,5.318223897996544,-0.8105190950274467,0.7165732025470585
1772871657790118100,1.5161181640625,6.513323909646272,-1.3999737649410962,1.8188550105720758
1772871657800051200,1.52605126953125,6.321452261269092,-1.2211229261785745,2.3205096703492103
1772871657809984300,1.535984375,4.996293791076541,-1.0480880802184342,2.0465464526101944
1772871657819917300,1.545917236328125,4.218356530702114,-1.2198089209705592,1.2003344051718712
1772871657829850000,1.55585009765625,5.005775320649147,-1.7116992887109517,0.7193198709066957
1772871657839782000,1.565781982421875,6.540580165362358,-3.3802328049123287,0.6451587292179465
1772871657849715000,1.57571484375,7.9930837434858075,-5.294324551492929,0.5404078034762293
1772871657859648000,1.58564794921875,9.072555973005294,-6.10795096488595,-0.5957428833376616
1772871657869581300,1.595581298828125,9.778974057567119,-6.22445786793828,-2.2442259104833004
1772871657879514000,1.60551416015625,10.391282948845625,-6.716050714036822,-3.0381422457560894
1772871657889446100,1.615446044921875,10.796609131854773,-7.531312619677186,-2.7960578289672733
1772871657899379000,1.62537890625,10.887878717797994,-8.055926860889793,-1.985892077422142
1772871657909312000,1.63531201171875,9.669261052438616,-8.088239230951666,-0.9844464328479021
1772871657919245000,1.6452451171875,7.638208229297399,-7.925185680779815,-0.11366298486329614
1772871657929177000,1.655177001953125,5.746527051967382,-7.656143698960542,0.5206578317370265
1772871657939110100,1.665110107421875,4.389786864075065,-7.271058339947461,0.6443032083671539
1772871657949043000,1.67504296875,3.689815471434593,-7.141523613017797,0.023679858534038065
1772871657958976000,1.68497607421875,3.675669457182288,-7.053520335394143,-0.470507022645697
1772871657968909000,1.694908935546875,3.7391713307559487,-6.992775651574134,-0.9607920010160654
1772871657978841000,1.704841064453125,3.811850197997689,-6.71657795278132,-1.5486045297458766
1772871657988774100,1.714774169921875,4.054249087563157,-6.357929934316873,-2.1832120543330906
1772871657998707000,1.72470703125,4.215642011046409,-5.891010926225781,-2.7687881292477248
1772871658008640000,1.734639892578125,4.015031175896525,-5.348118685522675,-3.1457983183547853
1772871658018573000,1.744572998046875,3.557926290333271,-5.10530536993742,-3.285049844917655
1772871658028505000,1.754505126953125,3.1514766562521457,-5.157829337900877,-2.804775680691004
1772871658038438100,1.764438232421875,2.8237480921864506,-5.560605836427212,-1.817532237535715
1772871658048371200,1.77437109375,2.568180508968234,-6.166768480035662,-0.6226582166615873
1772871658058304000,1.784303955078125,2.2976883283406493,-6.655432871466875,0.5948194848824292
1772871658068236000,1.794236083984375,2.588813547152281,-6.219252115988731,1.3111181082718073
1772871658078169000,1.804169189453125,3.023623598799109,-5.498045627617835,1.9283380063369868
1772871658088102100,1.81410205078125,3.036121261322498,-5.147355290159583,3.34050519015789
1772871658098035200,1.82403515625,2.9330285511165854,-4.212583207997679,4.850884326405823
1772871658107968000,1.833968017578125,2.824648255896568,-2.294749936801195,5.332529486724734
1772871658117900000,1.843900146484375,2.2574171082288026,0.6925947263926268,4.804301731190085
1772871658127833000,1.8538330078125,0.6648509794205427,4.634115260398388,3.4679461596786973
1772871658137766100,1.86376611328125,-3.29292978451252,8.292679269000887,1.497839242018014
1772871658147699200,1.87369921875,-9.65679846122861,11.092032340121268,0.4495816139189526
1772871658157632000,1.883632080078125,-16.835843703389166,13.923867877173423,0.8620438228204846
1772871658167564000,1.89356396484375,-16.384517985749245,21.3470036152482,0.4269197367884218
1772871658177497000,1.9034970703125,-13.516046954739092,24.571383010625837,-2.167977952583134
1772871658187430100,1.91343017578125,-14.4341391202569,20.24517751510143,-5.160515800505876
1772871658197363200,1.92336328125,-14.71596050415039,16.389091285014153,-4.538918271878361
1772871658207295200,1.933295166015625,-16.466837372517585,13.738455195677279,-2.669396319386363
1772871658217228300,1.943228271484375,-18.572462913823127,11.770560547238588,0.604635689769499
1772871658227161000,1.9531611328125,-16.568144368350506,11.533348704922199,1.3254136139973998
1772871658237093400,1.96309326171875,-11.845862164199351,10.603725091564655,-0.9469220272261649
1772871658247026400,1.9730263671875,-6.561894171547889,8.64232565036416,-3.8860684036359188
1772871658256958500,1.98295849609375,-1.3956097245126962,6.619481852641702,-5.938078966870903
1772871658266891500,1.9928916015625,2.3077649011969563,4.339446669891476,-5.7467070847094055
1772871658276824600,2.002824462890625,3.754093005555868,1.9070920969516039,-3.326321766504645
1772871658286757400,2.01275732421875,3.2018560134023426,-0.4336345781266689,0.36150728035308416
1772871658296690400,2.0226904296875,2.216211237615347,-2.1151701992422343,3.8112650915861126
1772871658306622500,2.03262255859375,1.1916963406860828,-1.7734493501812219,5.290811574935913
1772871658316555500,2.042555419921875,0.5662929900348186,-0.955694458681345,3.9690006616055964
1772871658326488600,2.052488525390625,2.1515590249627827,-0.5933002394258976,1.867149085880816
1772871658336421400,2.06242138671875,4.683654075071216,-1.5578081191599369,0.5091203194826841
1772871658346353400,2.072353515625,6.704187257763743,-3.293072992375493,-0.004738426698744296
1772871658356286500,2.082286376953125,7.7470286695003505,-4.149977991002798,-0.45181028628647324
1772871658366219500,2.092219482421875,7.733962851700186,-4.7637259751737115,-0.8153831208672374
1772871658376152600,2.102152587890625,7.917505647671222,-5.439311699098348,-1.0833189680755138
1772871658386085600,2.112085693359375,8.722285906785727,-6.010776538813114,-1.4940319586895405
1772871658396017700,2.122017578125,9.422432655993104,-6.931697790277004,-1.1283448353685437
1772871658405950500,2.131950439453125,9.436440723079443,-7.753484129250049,-0.35332616585455834
1772871658415883500,2.141883544921875,8.666560512432456,-8.371141395819187,0.11430376698486507
1772871658425816600,2.151816650390625,7.980384420910477,-8.456963822272419,0.47724195692390203
1772871658435748600,2.16174853515625,7.254245152312516,-8.071253024837374,0.48475174803212284
1772871658445681700,2.171681640625,6.575385521283746,-7.504390125960112,0.009169760209694504
1772871658455614500,2.181614501953125,6.6590919784963125,-6.768764651614427,-0.6205035959109664
1772871658465547500,2.191547607421875,6.950451006063819,-6.3294046815782785,-1.5541922667503356
1772871658475480600,2.20148046875,7.134996841597556,-5.962494446203112,-2.3538250799737868
1772871658485412600,2.21141259765625,6.802659906953573,-5.744135772916675,-2.6644661695078016
1772871658495345700,2.221345703125,6.105612877327204,-5.778440193578601,-2.68116975928843
1772871658505278500,2.231278564453125,5.387773819562793,-5.792445922577381,-2.6514818925112484
1772871658515211500,2.24121142578125,4.206421762758493,-5.966144200882315,-2.160587696201354
1772871658525143300,2.251143310546875,2.9165748444437978,-6.454880488505959,-0.8071021992560475
1772871658535076400,2.261076416015625,1.8698656513631342,-7.027186455219984,0.9278605492077767
1772871658545009400,2.271009521484375,1.351174370458722,-7.4191446226119995,2.145304933004081
1772871658554942500,2.2809423828125,1.3416653683573008,-7.393036367887258,2.7199463569283484
1772871658564875300,2.290875244140625,1.5459206974893807,-7.147828266119957,2.660921628768742
1772871658574807300,2.300807373046875,2.1671119834035633,-5.925673658806085,1.3114081772595643
1772871658584740400,2.310740234375,2.985301759189367,-4.3749850162625314,-0.11272650773078202
1772871658594673400,2.32067333984375,3.15823840547204,-3.0634266168773174,-0.7453557179823518
1772871658604606500,2.3306064453125,3.149262487334013,-1.4197194988965987,-0.578469896171242
1772871658614539300,2.340539306640625,2.675651288127899,0.38163434177637096,0.03607727555334568
1772871658624471600,2.350471435546875,1.3261556645363568,2.4073598324149845,0.8608816471733153
1772871658634404400,2.360404296875,-0.759807144922018,4.710717438563704,1.8458181285604833
1772871658644337400,2.37033740234375,-3.3877094244033095,6.740273885667324,1.8999113916672765
1772871658654270500,2.3802705078125,-6.207315594479441,8.819346935611962,1.233864480460435
1772871658664202500,2.390202392578125,-10.060130255550146,10.846473525220155,1.6683878241203725
1772871658674135600,2.400135498046875,-14.778821157211064,12.767690593636035,2.2071531941518185
1772871658684068400,2.410068359375,-18.496614184373616,15.572245325052737,1.7802194288380444
1772871658694001400,2.42000146484375,-20.546168878889084,17.88643295277357,0.6527525453478098
1772871658703934500,2.4299345703125,-19.704646742832658,19.24221978546381,-0.23245357840601352
1772871658713866500,2.439866455078125,-18.047599666285514,18.655238227665425,-0.25581017806874584
1772871658723799600,2.449799560546875,-16.816424717169998,16.51806370188594,-0.0030760099118575454
1772871658733732400,2.459732421875,-14.810617978966235,14.399724809479713,-0.1484375255213119
1772871658743665400,2.46966552734375,-11.989463994926213,12.170983760637045,-1.2300818931818007
1772871658753598500,2.479598388671875,-8.483288350096345,10.0930388379395,-3.037639556930959
1772871658763530500,2.489530517578125,-4.812788404506445,8.10011320861876,-4.758823005563021
1772871658773463600,2.499463623046875,-1.8613304627299307,5.784999113702773,-5.33878503998816
1772871658783396600,2.509396728515625,0.38971360333561894,3.4357372499912975,-4.776107610101998
1772871658793329400,2.519329345703125,1.932218939423561,0.7195657354265451,-3.5858605914413926
1772871658803261400,2.529261474609375,2.088536459338665,-1.5081746119409798,-2.029214501798153
1772871658813194500,2.539194580078125,0.7452969735324383,-1.5155460174918174,-1.2985923886977135
1772871658823127600,2.54912744140625,-0.051021746706962585,-1.4360948796361683,-0.7278101244196296
1772871658833060600,2.559060546875,0.4949959325402975,-2.8981793560534714,-0.3576339095184579
1772871658842993400,2.568993408203125,2.633898889547586,-4.3054000233829015,0.03652604223415255
1772871658852925400,2.578925537109375,5.1515170860141515,-5.253364764595031,0.137548631635122
1772871658862858500,2.5888583984375,7.280974169284105,-5.62575313912034,-0.45317119937613604
1772871658872791600,2.59879150390625,8.9293866884768,-6.091245913800597,-1.0380431446094065
1772871658882724600,2.608724609375,10.505043768060206,-6.396483244594931,-1.1287691982604562
1772871658892656600,2.61865673828125,12.01162789593935,-6.3749821914047,-0.7247109893605113
1772871658902589400,2.62858935546875,12.66163844910264,-6.8142626664638515,-0.1788706211752258
1772871658912522500,2.6385224609375,12.525069585752487,-6.885300196239352,0.4775304184764623
1772871658922455600,2.64845556640625,11.940651740962267,-6.584952391052246,0.9968069519229232
1772871658932388600,2.658388671875,10.933517017900943,-6.112920569992065,1.1002605313304812
1772871658942320600,2.668320556640625,9.854345817154645,-5.547855075925589,0.8354599864732474
1772871658952253700,2.678253662109375,8.880353485238551,-5.0700101846724746,0.2884798006030731
1772871658962186500,2.6881865234375,8.03209531892538,-4.786100304067134,-0.20175547514036296
1772871658972119600,2.69811962890625,7.285215460115671,-4.8362692333370445,-0.44341143738403915
1772871658982051300,2.70805126953125,6.478028139859438,-5.4259822619259355,-0.36005328215248883
1772871658991984400,2.717984375,5.763607366105914,-6.248922447109222,0.10515810003681107
1772871659001917400,2.72791748046875,5.068157834804058,-7.01314916203916,0.6585363894462585
1772871659011850500,2.7378505859375,4.584802655696869,-7.49527333804667,0.966961848757416
1772871659021783600,2.747783447265625,4.164913694328069,-7.599755456784367,1.0290543669898062
1772871659031715300,2.75771533203125,4.297694855833053,-7.289473702082038,0.7337287738788872
1772871659041648400,2.7676484375,4.645233451262116,-6.907387524884939,-0.08393290464589372
1772871659051581400,2.77758154296875,5.084062675422429,-6.3955807427972555,-0.901185746641457
1772871659061514500,2.787514404296875,5.230180288362503,-6.015880583953857,-1.5736657596357166
1772871659071446500,2.797446533203125,5.111763752296567,-5.717186391192675,-1.8510897853530943
1772871659081379300,2.80737939453125,5.075357975441217,-4.875020696535707,-2.060536984039843
1772871659091312400,2.8173125,5.388197013410926,-3.43558293621242,-2.290174737840146
1772871659101245400,2.827245361328125,5.0306753686279055,-2.4343203200548884,-1.5219747353650628
1772871659111178500,2.837178466796875,3.818148421359062,-1.622413570061326,-0.08015884773358702
1772871659121110500,2.847110595703125,2.3467291303634643,-0.383503058257699,1.2296586993336678
1772871659131043300,2.857043212890625,0.25807401308119293,1.3418664438873529,2.6373554597422477
1772871659140976400,2.866976318359375,-2.614893160304427,3.6059868491470812,3.6373201450437307
1772871659150909400,2.876909423828125,-5.097980141615867,6.8990370451688765,3.6051883922457693
1772871659160842500,2.886842529296875,-5.989599895271659,10.531544821494817,1.7897393907248973
1772871659170774500,2.8967744140625,-6.837444804608822,12.626119391953944,0.712622126833722
1772871659180707300,2.906707275390625,-9.015127866387367,13.091696922308206,1.3636599041528998
1772871659190640400,2.916640380859375,-10.773285539412498,13.814329644089936,2.515943541252613
1772871659200573400,2.926573486328125,-12.941900328594446,13.917192637193201,4.260797496068477
1772871659210505500,2.93650537109375,-15.267202055525779,13.649203379297255,6.1371443261444565
1772871659220438500,2.9464384765625,-16.331590697681904,13.70046594902277,7.2676096607983105
1772871659230371600,2.95637158203125,-16.28200687482357,13.432825066173075,6.949816799813509
1772871659240304400,2.966304443359375,-14.91191562244892,12.403963664472103,5.10338404648602
1772871659250237400,2.976237548828125,-12.420256627625227,11.952961771959066,2.7746783563300967
1772871659260169500,2.98616943359375,-10.045915852236748,11.736355495297907,-0.24448724014684556
1772871659270102500,2.9961025390625,-8.398635551944375,11.40576160492897,-2.983192804211378
1772871659280035600,3.00603564453125,-7.1000675670355555,11.196755281877516,-4.60351524721235
1772871659289968400,3.015968505859375,-6.354155091953277,10.076949288403988,-4.883472883060574
1772871659299900400,3.025900390625,-5.977870294511318,8.031919962358474,-4.372342100538313
1772871659309833500,3.03583349609375,-5.137729968202113,5.985871814659237,-3.0076512459024785
1772871659319766500,3.0457666015625,-3.9811043563753366,3.9974581098049877,-1.731225242435932
1772871659329699600,3.055699462890625,-2.5259967332333324,2.0056231983304023,-0.9738270583517848
1772871659339632400,3.06563232421875,-0.7009142264485358,0.783608291748166,-0.7115664072357117
1772871659349564700,3.075564697265625,0.6516904690742492,-0.21920447646081445,-0.6262235079277306
1772871659359497500,3.08549755859375,1.0726929446429014,-1.7184598688870667,-0.6530211331561208
1772871659369430500,3.095430419921875,1.655468867444992,-2.9542051946580408,-0.33239524070248005
1772871659379363600,3.105363525390625,2.4588082801014184,-3.8400831897914407,0.14034655525796114
1772871659389295600,3.115295654296875,3.4910546480655666,-4.844207625120878,0.347751799788326
1772871659399228700,3.125228759765625,5.070076235646009,-5.817115084409713,0.4223538901776075
1772871659409161500,3.135161376953125,6.6552054924517865,-6.496283927518129,0.3107533908020705
1772871659419094500,3.145094482421875,7.952899617135524,-6.780014359903335,-0.12785678378008306
1772871659429027600,3.155027587890625,9.070672643476724,-6.75098583381772,-1.1072773512899874
1772871659438959600,3.164959716796875,10.182141016715764,-6.32880379307568,-2.1834539002649485
1772871659448892700,3.174892578125,10.923846687757969,-5.840685345089435,-2.954844661605358
1772871659458825500,3.184825439453125,11.284772588026524,-5.670443929240107,-3.2180747422754763
1772871659468758500,3.194758544921875,11.436544865727424,-5.948681024906039,-2.615283036404848
1772871659478690600,3.204690673828125,11.71923134201765,-6.359557827779651,-1.5874446941412985
1772871659488623600,3.21462353515625,11.74394258942604,-7.006103335180878,-0.7497868322975934
1772871659498556700,3.224556640625,11.582478938794136,-7.611232544088363,-0.25524748441837725
1772871659508489700,3.23448974609375,11.390290479552744,-7.909069243237376,-0.11042115339785813
1772871659518422500,3.244422607421875,10.522455506110191,-8.031924054011702,-0.1640014254812151
1772871659528354300,3.254354248046875,9.195444101527332,-7.613893287730217,-0.2438170127350837
1772871659538287600,3.26428759765625,7.63455204487741,-6.965045933127403,0.04797492635697126
1772871659548220700,3.274220703125,5.822317913749814,-6.519878153595328,0.45262635190971195
1772871659558153700,3.28415380859375,3.979227456587553,-6.192757492294907,0.9071376407831907
1772871659568085500,3.29408544921875,2.5106962882488966,-6.054762395533919,1.340831255620718
1772871659578018300,3.304018310546875,1.8677391607284546,-5.944776418682933,1.3610508906982839
1772871659587951400,3.313951416015625,2.083182238829136,-5.929422782206535,0.861132114803046
1772871659597884400,3.323884521484375,2.847263407808542,-6.191996444794535,0.16834398473016918
1772871659607817500,3.3338173828125,3.920645503759384,-6.258250247424841,-0.44728849801309406
1772871659617749500,3.34374951171875,4.756396070677042,-6.050500646436214,-1.1502223206557334
1772871659627682600,3.3536826171875,5.2820647893786425,-5.463268913269043,-1.9699112489581108
1772871659637615400,3.363615478515625,5.481666155225038,-4.458885534742475,-2.442991410027444
1772871659647548400,3.37354833984375,4.955958858078718,-3.309548326358199,-1.9087989008694886
1772871659657480400,3.38348046875,3.7290035724848507,-2.466588266453147,-0.6347036053728312
1772871659667413500,3.39341357421875,2.3225006980359555,-1.1890192304313183,0.39260143373161555
1772871659677346600,3.4033466796875,0.8167822470754385,0.5666781899601221,1.1945804447550326
1772871659687279400,3.413279296875,-0.8772545436948538,2.8137515988290307,1.3567331736296415
1772871659697212400,3.42321240234375,-2.305412200590968,5.628395762583613,0.7981886057645082
1772871659707144400,3.43314453125,-4.684519167467951,7.92045748321414,0.5406575039209798
1772871659717077500,3.443077392578125,-7.727053218442201,9.660347678142786,0.6252353736732155
1772871659727010600,3.453010498046875,-10.637774660682677,11.251894400775432,1.5328525416016578
1772871659736943400,3.462943359375,-13.318759126532077,12.2155278357625,3.0191429462537167
1772871659746875600,3.472875732421875,-15.676404787707328,12.311077290982007,4.802449965843558
1772871659756808400,3.482808349609375,-16.94750959615111,12.373347576934098,6.364822616440057
1772871659766741500,3.492741455078125,-16.546598891496657,13.311769413775204,6.95624770964384
1772871659776674600,3.502674560546875,-14.947980623042582,14.492357500469684,6.584636749231815
1772871659786607600,3.512607666015625,-13.190316286492347,14.930711508333681,4.906200263175368
1772871659796539600,3.52253955078125,-11.0018195697546,15.18379545804262,1.8605705842733382
1772871659806472400,3.532472412109375,-9.350547569477557,15.0015836184144,-1.3480854645326732
1772871659816405500,3.542405517578125,-8.587297006103396,14.059708426249026,-3.8587487272948024
1772871659826338600,3.552338623046875,-8.643790462219714,12.560933510816097,-4.728524605672061
1772871659836270600,3.5622705078125,-9.199483147785067,10.7548543951869,-3.922905849906802
1772871659846203600,3.57220361328125,-9.8477909886837,8.505815823724866,-2.0478671798199413
1772871659856136400,3.582136474609375,-9.895996508926153,6.2048956738561385,-0.573625890206173
1772871659866069500,3.592069580078125,-8.789788832694292,4.251521718201041,-0.4660984124232083
1772871659876002600,3.60200244140625,-6.561055382636189,2.721521643421054,-1.147187702200189
1772871659885934600,3.6119345703125,-3.5101328580230473,1.0928086809545754,-1.6352943866834044
1772871659895867600,3.62186767578125,0.18130232356786727,-0.8784510600030422,-1.4581705178439617
1772871659905800700,3.63180078125,3.867395559608936,-3.2462410985738037,-1.186558174080029
1772871659915733500,3.6417333984375,6.649203037166595,-5.204081970509886,-1.3301730834841727
1772871659925665500,3.65166552734375,8.231403254783153,-6.106931558710336,-2.0367890287056563
1772871659935598600,3.6615986328125,8.728863531610369,-6.5692071249097586,-2.4785727187573907
1772871659945531600,3.67153173828125,8.935605416861176,-7.075019635018706,-2.4701868754670024
1772871659955464700,3.681464599609375,9.296791429370641,-7.609786436933279,-2.010133369231224
1772871659965397500,3.6913974609375,9.552591067779064,-8.01267925531566,-1.2952687972329555
1772871659975329500,3.70132958984375,9.781300454688072,-7.701364650434255,-0.7994929663613438
1772871659985262600,3.7112626953125,9.589099135965109,-7.030743270918727,-0.6443886216282844
1772871659995195600,3.721195556640625,9.079170422708987,-6.440915676039457,-0.648726870028302
1772871660005128700,3.731128662109375,8.711978447782993,-5.97146977981925,-0.6658927435584366
1772871660015060500,3.741060546875,8.687170754262805,-5.459704498785734,-0.7149374180387705
1772871660024993500,3.75099365234375,8.772892058429122,-5.181373295095563,-0.7830410132542253
1772871660034926300,3.76092626953125,9.086181762775778,-5.045972306481003,-0.7718295911490917
1772871660044859400,3.770859375,9.499673132061957,-5.046598913946747,-0.9284388605523854
1772871660054791400,3.78079150390625,9.677054482793807,-5.066259892228246,-1.1089263606060296
1772871660064724500,3.790724365234375,9.574778934189677,-5.316148260766267,-0.9052523384932428
1772871660074657500,3.800657470703125,8.931006398633121,-5.779925463700295,-0.18862755188941954
1772871660084590300,3.81059033203125,7.836919952827691,-6.373029303771257,0.6976125545546412
1772871660094523400,3.8205234375,6.715966542884707,-6.968030501896142,1.7687493557967244
1772871660104455400,3.830455322265625,5.584074974820018,-7.3124074184238905,2.679583366879821
1772871660114388500,3.840388427734375,4.642195691001415,-7.378326874533295,3.0940736840754743
1772871660124321500,3.850321533203125,4.091346353814005,-7.2066112944781775,2.6396014851033685
1772871660134254300,3.86025439453125,3.788500302070379,-7.02450817592144,1.5287662952013312
1772871660144186600,3.8701865234375,4.3410558586537835,-6.376456940132379,0.425497814226523
1772871660154119400,3.880119384765625,4.964458390876651,-5.952687337937951,-0.6409627388328314
1772871660164052500,3.890052490234375,5.210400067615509,-5.446071694752574,-1.8509540301442144
1772871660173985500,3.899985595703125,5.280384873467684,-4.334548960977792,-3.070359046489
1772871660183918600,3.909918701171875,5.487120328977704,-3.089443686187267,-4.121456829917431
1772871660193850600,3.9198505859375,5.276376806870102,-2.481850717514753,-3.6183813435569405
1772871660203783400,3.929783447265625,4.1787107490122315,-2.803825248098373,-1.7678284415595233
1772871660213716500,3.939716552734375,2.6068390331864357,-2.5246225222706795,-0.2110738865731284
1772871660223649500,3.9496494140625,0.7341518946617841,-1.4217939670830964,1.342949562948942
1772871660233581800,3.959581787109375,-1.848086950275302,0.5405278496593237,2.59760855576545
1772871660243515000,3.969514892578125,-3.9441467908561227,4.286423520234227,2.2382041659757492
1772871660253447000,3.979447021484375,-4.096472610786557,4.165177898222208,2.3329624708175656
1772871660263379700,3.989379638671875,-5.837301547870039,8.514017834880947,1.2387887851200996
1772871660273311500,3.9993115234375,-7.972255474990606,11.46717848892212,0.32297384381927546
1772871660283244800,4.009244873046875,-9.90228713350296,12.70813015116453,0.10591996038793586
1772871660293177900,4.019177734375,-11.266982079792022,13.401962310397623,0.9820791191946715
1772871660303111000,4.02911083984375,-13.352330556744336,13.858689010298251,2.6130422717407344
1772871660313042700,4.039042724609375,-15.341645594352483,14.465212303912638,3.891394567094743
1772871660322975700,4.048975830078125,-16.1345799328506,15.494129819715022,4.499172536945343
1772871660332908500,4.058908447265625,-15.519692130994796,16.373094089937208,4.53728774806708
1772871660342841600,4.068841552734375,-13.561305315613746,16.864403442919254,3.9299455392852423
1772871660352774700,4.078774658203125,-11.083268018907308,16.888270640718936,3.1378046892523765
1772871660362706700,4.088706787109375,-8.950708293446898,16.237389149940014,1.704213755261153
1772871660372639700,4.0986396484375,-7.6763319159865375,15.051024817931651,0.00961637146603316
1772871660382572500,4.108572509765625,-7.054042897963523,13.67937289211154,-1.3581975470937788
1772871660392505600,4.118505615234375,-6.943234498813748,12.018081017601489,-2.310293981283158
1772871660402437600,4.128437744140625,-6.979906817650795,10.045554617708921,-2.652637492287159
1772871660412370700,4.13837060546875,-6.743868695288896,8.10035578520298,-2.624691500741243
1772871660422303700,4.1483037109375,-6.166163499879836,6.244650761139392,-2.5744343086659907
1772871660432236500,4.158236572265625,-4.900743751335144,4.282867289057374,-2.334855444957316
1772871660442168800,4.1681689453125,-2.8910493580430745,2.2828671913057565,-1.849513475947082
1772871660452101600,4.1781015625,-0.5844646065413952,0.07337035663723945,-1.3804415276058017
1772871660462034700,4.18803466796875,1.8119769414961338,-2.0923440349280833,-0.979041578129679
1772871660471967700,4.1979677734375,4.161884117373824,-4.676162258011102,-0.3955783306505531
1772871660481900800,4.20790087890625,6.700282651540636,-7.656966705781221,0.6148382636256515
1772871660491832800,4.217832763671875,8.834882358396053,-9.926256038111447,1.3896414637580514
1772871660501765600,4.227765625,10.029604184383153,-10.590395654392243,1.3372791160970925
1772871660511698700,4.23769873046875,10.547232219970226,-10.896662912756204,0.826757770710066
1772871660521631700,4.2476318359375,10.770012216830253,-11.22683477832079,0.11624785025734453
1772871660531563800,4.257563720703125,11.184019718945025,-10.79234446014762,-0.359867586854659
1772871660541496800,4.267496826171875,11.329112080490589,-9.940503174650669,-0.8121004459347575
1772871660551429600,4.2774296875,10.766970364916324,-8.682784502002596,-1.4135959014497697
1772871660561362700,4.28736279296875,9.96879169602394,-7.4626780593901865,-2.061762726442516
1772871660571294700,4.297294677734375,9.083153939387202,-6.565742663669586,-2.522873632776737
1772871660581227800,4.307227783203125,8.121923473888636,-5.9794637011826035,-2.558342421042919
1772871660591160800,4.317160888671875,7.553694547355175,-5.764479472765326,-2.262636304181814
1772871660601094000,4.327093994140625,7.184760112676024,-5.758800258085131,-1.7939415185898542
1772871660611026700,4.337026611328125,6.794913822871446,-5.819379522210359,-1.459033272153139
1772871660620958700,4.346958740234375,6.409151002988219,-6.0164019774794575,-0.980773078097403
1772871660630892800,4.356892822265625,5.901548686853051,-6.375818057706952,-0.26434531190302224
1772871660640825900,4.366825927734375,5.142895388141274,-6.664061583602428,0.5172722809519619
1772871660650758000,4.3767578125,4.2952252508491275,-6.7737026925384995,1.1955068388849497
1772871660660690700,4.386690673828125,3.5793203760176895,-6.947178852525353,1.4879384641200304
1772871660670623700,4.396623779296875,3.1047599132627246,-7.1992597626715895,1.5628158643193542
1772871660680556800,4.406556884765625,3.1350293793201445,-7.378173729798197,1.4919967996001242
1772871660690488800,4.41648876953125,3.4294232445389032,-7.527146732169389,1.3503003641031681
1772871660700422000,4.426421875,3.639861646220088,-7.748749501943588,1.264239306588471
1772871660710354700,4.436354736328125,3.7999019860506054,-7.663782815536856,1.0613527085263281
1772871660720287700,4.446287841796875,3.8079122740268705,-7.0826599206387995,0.43963221110627054
1772871660730219800,4.4562197265625,3.728018068578839,-5.89524637183845,-0.6688632107365876
1772871660740152800,4.46615283203125,3.9979929473340508,-4.1566549845486875,-2.6119690895512697
1772871660750086000,4.4760859375,4.290480686670541,-2.515607441166043,-4.080846002587676
1772871660760019000,4.48601904296875,4.332471570181847,-1.2767998052150011,-4.1892464638128875
1772871660769950700,4.49595068359375,3.8094279392868278,-0.25943478004038334,-3.518969367690384
1772871660779883500,4.505883544921875,3.0089006614416838,1.1207523344129324,-2.4449013353019953
1772871660789816600,4.515816650390625,1.9739403583437203,3.2022564108967777,-0.9766017837621271
1772871660799749600,4.52574951171875,-0.38088556923568245,5.307481554707884,1.052399002220109
1772871660809683000,4.535682861328125,-3.782464529037475,7.756231966653465,1.870488021045178
1772871660819614700,4.54561474609375,-8.30971808208525,9.739894093066454,2.3712771500341594
1772871660829547500,4.555547607421875,-12.944850995093583,11.613806973993778,2.9745395421564575
1772871660839480600,4.56548046875,-16.16428416624069,13.954870918202399,2.9579727304980157
1772871660849413600,4.57541357421875,-18.581168782848117,15.250795695126056,2.632204945111275
1772871660859345700,4.585345703125,-18.754541482460496,15.854216346549986,1.7909683479979632
1772871660869278700,4.59527880859375,-15.973629492437839,16.093851616621016,0.4805093612220138
1772871660879211800,4.605211669921875,-12.80494334270954,15.217015006077288,-0.4047105718614533
1772871660889144600,4.61514453125,-10.33289739537239,13.927220694732664,-0.8517134213335812
1772871660899077600,4.62507763671875,-8.964870089790224,13.095015837597845,-1.2346651293188333
1772871660909009700,4.635009765625,-9.048889850735664,12.391345005917549,-1.6376028097562492
1772871660918942700,4.644942626953125,-9.662079031980037,11.758944928246736,-1.8818505420587957
1772871660928875800,4.654875732421875,-10.362105954200029,10.824617082720994,-1.9709262712195514
1772871660938808600,4.66480859375,-10.734978312849998,9.541609655037522,-1.9926158327192067
1772871660948740600,4.67474072265625,-10.270091687369346,8.324291381838917,-2.0082275356099006
1772871660958673700,4.684673583984375,-9.286840528720617,7.194413491684198,-2.224978189177811
1772871660968606700,4.694606689453125,-7.938678199559449,6.134660108113288,-2.706990429243445
1772871660978539800,4.704539794921875,-6.051843293216824,5.315664276641607,-3.2229625143170355
1772871660988472600,4.71447265625,-4.208885522523522,4.430947141981124,-3.831059925380349
1772871660998404900,4.72440478515625,-2.2271745301783086,2.952812863516807,-4.084193851710856
1772871661008337700,4.734337646484375,0.7587585126519203,0.9275696034371852,-3.389812241901457
1772871661018270700,4.744270751953125,3.642448155581951,-1.399144328379631,-2.402299041894078
1772871661028203800,4.754203857421875,5.815141153988241,-3.155989165240526,-1.727062862059474
1772871661038135800,4.7641357421875,7.711278726205229,-4.6254041306763884,-0.49413175345901394
1772871661048068900,4.77406884765625,8.810631129714846,-6.472210393491387,0.7876242493912577
1772871661058001700,4.784001708984375,9.56819078797102,-8.898215889665483,1.9688601324699817
1772871661067934700,4.793934814453125,11.406449002671241,-10.591475850844382,3.347749169936776
1772871661077866800,4.80386669921875,12.168787127375602,-9.352658278021217,2.4402562859751282
1772871661087799800,4.8137998046875,12.006451370084285,-8.685402575546503,0.566661896412447
1772871661097732900,4.82373291015625,12.489706011426447,-7.821335430204868,-0.7138683275025337
1772871661107665700,4.833665771484375,13.207372635233401,-6.769063926821946,-1.4268474510803817
1772871661117597700,4.84359765625,12.4672650470376,-6.409380135568976,-1.8756375127628444
1772871661127530800,4.85353076171875,11.31944759556651,-5.920824465209245,-1.8439326070748268
1772871661137463800,4.8634638671875,10.190811814427375,-5.352953266072273,-1.4774676312491297
1772871661147396900,4.87339697265625,8.760613591614366,-5.187455245357752,-1.122365907089412
1772871661157330000,4.883329833984375,8.02267691771686,-4.957965521726012,-0.9448719628285616
1772871661167262000,4.893261962890625,7.535172217714786,-4.848692077058553,-1.0467562470927834
1772871661177194800,4.90319482421875,6.6831660970449445,-4.798011106613278,-1.45886376080513
1772871661187127800,4.9131279296875,6.03620382553637,-4.576073405796289,-1.849980362806469
1772871661197060900,4.923060791015625,5.488709059473872,-4.611196741625666,-2.116966873400658
1772871661206992600,4.93299267578125,4.946911628270149,-5.08012650501728,-1.8742014886103568
1772871661216925700,4.94292578125,4.68422339939177,-5.601763776245713,-1.0669351848337798
1772871661226858500,4.9528583984375,4.4353579441607,-6.0439984249353405,-0.2598853733520955
1772871661236791600,4.96279150390625,4.165609859898686,-6.402561103203892,0.10135331919267773
1772871661246723600,4.9727236328125,4.0700481297194955,-6.504568356260657,0.24667569010183213
1772871661256656600,4.98265673828125,4.271809888470172,-6.509744882115721,0.15261640037484467
1772871661266589700,4.992589599609375,4.372037856894731,-6.637237874084711,-0.26174451828747985
1772871661276522800,5.002522705078125,4.425643774875998,-6.648022887471318,-0.6174067989394069
1772871661286455600,5.01245556640625,4.485536810302734,-6.138198803633451,-0.8882822797961533
1772871661296387600,5.0223876953125,4.433570476222038,-4.955338095831871,-1.8592044104866683
1772871661306320600,5.032320556640625,4.161239974251389,-3.7126065644353625,-2.747959568491578
1772871661316253700,5.042253662109375,3.0500077478557825,-2.630191851723194,-2.2759319852150974
1772871661326186800,5.052186767578125,1.3489888431131838,-1.0951701493889092,-1.1975117489665745
1772871661336118800,5.062118896484375,-0.7058499292850494,1.4247586621075867,-0.2099580708183348
1772871661346051600,5.072051513671875,-2.676817409297824,4.866904610097408,0.24085370595008132
1772871661355984600,5.081984619140625,-3.614690964606404,8.263816162610054,0.5609894767992198
1772871661365917700,5.091917724609375,-4.320964672261476,10.417828425943851,0.9897666780225932
1772871661375849700,5.101849609375,-6.005645021143556,10.341763423395156,1.1788654276203363
1772871661385782800,5.11178271484375,-8.602933551174402,9.812381821650266,2.651904501837492
1772871661395715800,5.1217158203125,-13.1231523832798,9.407571186947822,6.28035218911767
1772871661405648600,5.131648681640625,-18.647361210680007,9.125319010421633,9.666993692028521
1772871661415581700,5.141581787109375,-21.7755470077157,10.47682071313858,10.437421599686145
1772871661425513700,5.151513671875,-21.8554090644598,12.98073947007656,8.489013157483935
1772871661435446800,5.16144677734375,-19.149111293655633,15.486631572914122,4.34574255516529
1772871661445379800,5.1713798828125,-15.186902776408195,17.173987278485296,-0.06961100410372019
1772871661455312600,5.181312744140625,-11.900222699940205,17.390795799720287,-3.1206799514502284
1772871661465244400,5.191244384765625,-9.927753583192825,16.44733304610252,-4.384154411146045
1772871661475177700,5.201177734375,-9.05650617095828,14.661499430644511,-3.845834008403122
1772871661485110800,5.21111083984375,-8.776376977935433,12.162757199561595,-2.150130599594861
1772871661495043800,5.2210439453125,-8.300914013382792,8.851427250483631,0.22763693537190555
1772871661504976600,5.2309765625,-7.494168007153272,6.1204661630660295,1.9622107575833796
1772871661514908700,5.24090869140625,-6.912706674081087,5.242739325684309,1.732308946019411
1772871661524841500,5.250841552734375,-5.695592399021983,4.896837391546368,0.7685169594697654
1772871661534774500,5.2607744140625,-3.896023688200116,3.45682563072741,-0.0803653300911188
1772871661544707600,5.27070751953125,-1.3905319828569889,1.7388982612818478,-0.7750705458316951
1772871661554639600,5.2806396484375,1.7664415172457695,0.19158523265123367,-1.346695617609471
1772871661564572700,5.29057275390625,4.909492874979972,-1.257865972164273,-2.0298009233839807
1772871661574505500,5.30050537109375,7.656085246771574,-2.7665456110179423,-2.5607120727837085
1772871661584438500,5.3104384765625,9.54491395727992,-4.126093842068315,-2.7554949324324727
1772871661594370600,5.32037060546875,11.349446427989005,-5.788935868629813,-2.0652558292552827
1772871661604303600,5.3303037109375,12.552505874210595,-7.411113876369595,-1.159362708640471
1772871661614236700,5.340236572265625,13.396869955694674,-8.246486842146515,-0.6292494316201657
1772871661624169500,5.35016943359375,13.189914135432243,-7.588849447366595,-0.7646352957308292
1772871661634102500,5.3601025390625,12.274959683418274,-7.094833758035302,-0.7049190781757235
1772871661644034600,5.37003466796875,11.356713204121588,-6.768903767824172,-0.40604945578239854
1772871661653967600,5.379967529296875,10.451147342699766,-6.562356528362631,0.025031711534410715
1772871661663900700,5.389900634765625,9.567541968673467,-6.615308366349339,0.48809565163254737
1772871661673833700,5.399833740234375,8.680082841828465,-6.600707009544968,0.900697743928805
1772871661683765800,5.409765869140625,7.80986185003221,-6.478939409485459,1.060639445690438
1772871661693698600,5.419698486328125,7.107604976803064,-6.423595123404264,1.1231637064035982
1772871661703631600,5.429631591796875,6.46573272190988,-6.394875224876404,1.0761292027018963
1772871661713564700,5.439564697265625,5.9513388459384435,-6.2470040462672705,0.9071481621772051
1772871661723496700,5.44949658203125,5.613550660151243,-6.096883042904734,0.4600401352975517
1772871661733429800,5.4594296875,5.333199933332205,-5.967244855600595,-0.05100150763653218
1772871661743362600,5.469362548828125,5.172459336277842,-5.9269069999933235,-0.4122826510835439
1772871661753295600,5.479295654296875,5.057871418589353,-5.862886070981621,-0.6677420246869326
1772871661763227600,5.4892275390625,4.8019759185910225,-5.994214111068844,-0.8657160815924405
1772871661773160700,5.49916064453125,4.672174065157771,-6.140078626030683,-0.9396720560979097
1772871661783093800,5.50909375,4.634937098175287,-6.314115927031636,-1.0874097445204853
1772871661793026600,5.519026611328125,4.690387182718515,-6.524532116881012,-1.3063242981240153
1772871661802959600,5.528959716796875,4.756050033718347,-6.744138744401932,-1.379246326471865
1772871661812891600,5.5388916015625,4.788838789120316,-6.853391730803251,-1.2893299087032675
1772871661822824700,5.54882470703125,4.6687540275812145,-6.895704101353883,-1.2094799807883798
1772871661832757800,5.5587578125,4.551576677921414,-6.781812933757901,-1.249458793824911
1772871661842690800,5.56869091796875,4.270121789252758,-6.741776691445708,-1.280554481573403
1772871661852622800,5.578622802734375,3.719871587002277,-6.567905979183315,-1.3819567544743419
1772871661862555600,5.5885556640625,3.473847492676973,-5.342809473198652,-2.4397271475344895
1772871661872488700,5.59848876953125,3.5624586730659007,-3.7454309756726025,-2.8987603708118197
1772871661882421800,5.608421875,3.0700761378943917,-2.668297418233752,-1.866341276629269
1772871661892353500,5.618353515625,1.7488684511542318,-1.453093360710144,-0.5348180206451565
1772871661902286600,5.62828662109375,-0.46222354375123975,0.767144063681364,1.24292413135916
1772871661912219600,5.6382197265625,-3.522720536917448,4.584205274325609,2.635173731788993
1772871661922152700,5.648152587890625,-6.751392661052942,9.268487710428237,2.5347803436696528
1772871661932084500,5.65808447265625,-9.438898053103685,13.98571730736494,1.0116714166428893
1772871661942017500,5.668017578125,-12.2258598446846,17.20930642914772,-0.22283947196230292
1772871661951950600,5.67795068359375,-15.197255828118323,19.01955669298172,0.808609608144313
1772871661961883600,5.687883544921875,-17.494737820231915,20.1884975965023,2.6258973693996666
1772871661971816400,5.69781640625,-20.904396626114846,19.46060651580095,5.254868739417195
1772871661981748500,5.70774853515625,-22.202231620573997,19.055152907019853,6.850076907166838
1772871661991681500,5.717681640625,-19.971387461972235,19.43680946062803,6.985411260285973
1772871662001614600,5.727614501953125,-16.457510741245745,18.670399556440113,6.058554189032316
1772871662011547600,5.737547607421875,-12.67849722944498,17.20863422897458,4.324124597597122
1772871662021479700,5.747479736328125,-9.29587840617895,15.628576868605613,2.20695051118657
1772871662031412500,5.75741259765625,-6.91184158168435,13.810489335274696,-0.08804404802545905
1772871662041345500,5.767345458984375,-5.128750542932749,11.627973446512222,-1.458218448638916
1772871662051278600,5.777278564453125,-2.5856395932912823,7.874220048174261,-1.064558445765078
1772871662061210600,5.787210693359375,-1.4592121358513832,4.9378006855756045,-0.6680304862394929
1772871662071143700,5.797143798828125,-1.7272990089029072,4.227820524618029,-1.9128345861263572
1772871662081076700,5.80707666015625,-0.8076280497610568,2.93137903034389,-1.34251497092396
1772871662091009500,5.817009521484375,-0.21081892543137074,-0.45885845123231406,0.08892302281707525
1772871662100941600,5.826941650390625,1.0879635790109634,-3.971643869590759,1.5396540383100508
1772871662110874600,5.83687451171875,3.1220155839681625,-6.486549884489178,3.0463942335337397
1772871662120807700,5.8468076171875,5.313051463794708,-8.360875437870622,3.6989413194373246
1772871662130740700,5.85674072265625,7.51242964003086,-8.033373668298125,2.2652637300759553
1772871662140673500,5.866673583984375,9.085627051502465,-7.790976532298326,-0.3803258895263076
1772871662150605600,5.87660546875,11.047876387530565,-8.384238777801395,-1.786746638649702
1772871662160538600,5.88653857421875,12.405544211661814,-8.208444404000044,-3.2942315147608516
1772871662170471700,5.8964716796875,12.913784825700521,-7.6366212523669,-4.406280318236351
1772871662180404700,5.90640478515625,12.42884793035984,-6.912120983147621,-4.556031903764605
1772871662190336800,5.916336669921875,11.32329024246931,-6.475171581384539,-4.0292590232133865
1772871662200269800,5.926269775390625,10.133693504410981,-6.215050572645664,-3.17084595811069
1772871662210202600,5.93620263671875,8.9227500269413,-5.997009879267216,-2.111515622257441
1772871662220135700,5.9461357421875,7.766613075414299,-5.763897873485088,-1.1369538198903202
1772871662230067700,5.956067626953125,6.672223847270011,-5.625749047467112,-0.43961547916717825
1772871662240000800,5.966000732421875,5.869723223525285,-5.429941228684783,0.15368212991021574
1772871662249933800,5.975933837890625,5.29570226958692,-5.498377051529288,0.592032265316695
1772871662259866600,5.98586669921875,4.87008966987431,-5.713978535062075,0.5955241990856825
1772871662269798700,5.995798583984375,5.11235470392704,-5.541141257500648,0.3526372337423265
1772871662279731700,6.005731689453125,4.970308870470523,-5.471006229522824,-0.32781858043670653
1772871662289664800,6.015664794921875,4.759395837014913,-5.4145443375885485,-0.9182851308066398
1772871662299597800,6.025597900390625,4.58586180936098,-5.618009393125772,-0.9945093425050378
1772871662309530600,6.035530517578125,4.382542299774289,-6.185885852959752,-0.8430717035859823
1772871662319462700,6.045462646484375,4.272185736045241,-6.669897450149059,-0.45466940204463896
1772871662329395700,6.055395751953125,4.297283936944604,-7.078963988730311,-0.022398951878026128
1772871662339328800,6.065328857421875,4.671907523176074,-7.515743294623494,0.17124898545667527
1772871662349261800,6.07526171875,5.26155566983521,-7.875610625749826,0.10517032019756734
1772871662359193900,6.08519384765625,6.037766837069392,-7.727723080527782,-0.5546911803726107
1772871662369127000,6.095126953125,6.631387979012727,-7.373278943493962,-1.4410428574323653
1772871662379059700,6.105059814453125,6.907858649528026,-7.087098779869079,-2.062264246223867
1772871662388992800,6.11499267578125,6.699832569685578,-6.587512012407183,-2.4798569133490322
1772871662398924800,6.1249248046875,5.851929792681336,-5.143184726476669,-3.3375282201737164
1772871662408857900,6.13485791015625,4.766232405036687,-3.8490181913971897,-3.8483939220190044
1772871662418791000,6.144791015625,3.0586311992943287,-2.281696978482604,-3.639712008616328
1772871662428723700,6.1547236328125,0.2607008544534445,0.2851502360552549,-2.9624902079224587
1772871662438655500,6.164655517578125,-2.613259421622753,3.9957179881393907,-1.7325637975633144
1772871662448588800,6.1745888671875,-4.896714641949534,8.071473974111676,-0.4778035363294184
1772871662458521900,6.18452197265625,-5.228733012163639,11.363619914770126,0.44503728502020234
1772871662468455000,6.194454833984375,-5.1919139783322805,12.848476194965839,0.9732377141565084
1772871662478387700,6.2043876953125,-7.179981646227836,12.776693399780989,1.9383374223038552
1772871662488319700,6.21431982421875,-10.418047037130593,13.047547983980179,3.9705169113874432
1772871662498252500,6.22425244140625,-15.38189810976386,13.726933100187777,7.701129672634601
1772871662508185600,6.234185546875,-22.96959897161722,12.98579675346613,12.221920167148113
1772871662518118700,6.24411865234375,-28.002362836956976,13.062429911291598,14.499150813871621
1772871662528050700,6.25405078125,-25.94001295827627,14.935034632229804,12.859585618001223
1772871662537983700,6.263983642578125,-20.156811833906172,15.693556998038291,8.29590173817873
1772871662547916500,6.27391650390625,-13.863835141015052,15.32591026508212,3.0451404340803623
1772871662557849600,6.283849609375,-8.516465228033065,14.814402173680067,-1.8726165575064717
1772871662567781600,6.29378173828125,-5.3026802919059985,14.143518343836067,-5.32768730739057
1772871662577714700,6.303714599609375,-3.9518975511133667,13.294536539423465,-6.647357701560854
1772871662587647700,6.313647705078125,-2.8924983878076076,11.175979035830498,-5.529187200334668
1772871662597580500,6.32358056640625,-2.16385502743423,7.145336449304223,-2.519692080131173
1772871662607512800,6.333512939453125,-4.285451460331678,5.403243775895238,-1.7245470798462628
1772871662617445600,6.343445556640625,-5.3577253027796745,6.041757952532172,-2.1229313347630203
1772871662627378700,6.353378662109375,-5.665144653788208,4.803659926155209,-1.2593268384970724
1772871662637311700,6.363311767578125,-5.129260246020555,1.3352812202781439,-0.42561902945339675
1772871662647243800,6.373243896484375,-3.2173399982601403,-1.7728052070587872,1.140467673230171
1772871662657176800,6.3831767578125,-0.45032910781800745,-3.9111306564390658,2.418028818206489
1772871662667109600,6.393109619140625,2.2399410727709532,-5.973734217619896,3.1359979320913554
1772871662677042700,6.403042724609375,4.488447729313373,-7.855357526794076,3.7367099090784786
1772871662686975700,6.412975830078125,7.232428457301855,-6.868329772216081,2.3387723261401057
1772871662696907800,6.42290771484375,8.68579771234393,-5.515106068012118,-0.8066000218875705
1772871662706840800,6.4328408203125,10.279634591740368,-6.416233654725551,-2.9115865346372125
1772871662716773600,6.442773681640625,12.751896812176703,-6.634333384814858,-3.4301386993318794
1772871662726706700,6.452706787109375,14.36009890153408,-6.533577593123913,-3.3924913979828357
1772871662736638700,6.462638671875,14.886083262056111,-6.884597600927949,-3.029538375800848
1772871662746571800,6.47257177734375,14.7708845189929,-7.142032147061824,-2.512494277581572
1772871662756504800,6.4825048828125,13.867272129726409,-6.372849271029233,-2.4483994065508243
1772871662766438000,6.49243798828125,12.74145958931446,-5.5074201896846295,-2.434336832798272
1772871662776370000,6.502369873046875,11.256818413174152,-5.053215701738,-1.9498533803135156
1772871662786302700,6.512302734375,9.778643802699445,-4.885131756183505,-1.2632120093673467
1772871662796235800,6.52223583984375,8.677740662616491,-4.7456981510519975,-0.7181830488964915
1772871662806168800,6.5321689453125,8.253428039586543,-4.639936513897776,-0.7814908612027763
1772871662816100900,6.542100830078125,8.40015706242323,-4.8390568182289595,-1.270212535779178
1772871662826034000,6.552033935546875,8.496003454762697,-5.243754055684804,-1.3086536178544164
1772871662835966700,6.561966796875,8.177351931121946,-5.842722403874993,-0.6838959446955472
1772871662845899800,6.571899658203125,7.612119848316907,-6.572577478125691,0.1833386517010629
1772871662855831600,6.58183154296875,6.710631027075648,-7.256904726910591,1.1453858404099941
1772871662865764600,6.5917646484375,5.346045386379957,-7.472150821134448,1.7578747644305228
1772871662875697700,6.60169775390625,3.9465830780923365,-7.259108958956599,1.4914485180675983
1772871662885630700,6.611630615234375,2.983340103727579,-6.845692408472299,0.803651547345519
1772871662895563800,6.621563720703125,2.6242694759368894,-6.315767201370001,-0.08466171211078763
1772871662905495600,6.63149560546875,2.873543511968851,-5.698589242750406,-1.2969538277104495
1772871662915428600,6.6414287109375,3.4529701243430373,-5.221062915927171,-2.5569842844322324
1772871662925361700,6.651361572265625,4.136943152862787,-4.8345869793385265,-3.553589430172741
1772871662935294700,6.661294677734375,5.031771347171068,-4.355041713908315,-4.31545555345118
1772871662945226800,6.671226806640625,6.030090895614028,-4.112867865270376,-3.6577702278763056
1772871662955159600,6.68115966796875,5.433413288709521,-3.4569419505834578,-2.3821561253145336
1772871662965092600,6.691092529296875,3.961933207437396,-1.7823837672650813,-1.8249547887519
1772871662975025700,6.701025634765625,2.7322347606152295,-0.11077917305529117,-0.4975485396325588
1772871662984957700,6.710957763671875,0.8216846321642398,1.7716677274614572,0.0004579729005694389
1772871662994890800,6.720890869140625,-0.7710515925139189,4.971689511173963,-0.206249133297801
1772871663004823800,6.73082373046875,-3.072753832671046,8.16292417731881,0.2929867748998105
1772871663014756600,6.740756591796875,-6.616902357542514,10.649551607716083,0.8745540525645017
1772871663024688600,6.750688720703125,-12.393026090872286,11.727875251722335,2.7661335230857134
1772871663034621700,6.76062158203125,-19.47461516740918,13.368373344528674,4.715737020291388
1772871663044554800,6.7705546875,-23.5597603284955,15.721824476623535,4.924858786416054
1772871663054487800,6.78048779296875,-24.715848764705658,16.029907259976863,5.345443913355469
1772871663064419800,6.790419921875,-21.64044763239622,14.953406155222654,5.006836812400818
1772871663074352600,6.8003525390625,-15.796617559540271,13.316389474791288,2.809813674858212
1772871663084285700,6.81028564453125,-9.965408483326435,11.564478002679348,-0.577494986724481
1772871663094218800,6.82021875,-5.170958284065127,10.338961225455998,-3.6117701087236402
1772871663104150800,6.83015087890625,-2.6567466811716556,9.435174064144492,-5.524276047417521
1772871663114083800,6.840083740234375,-2.3204203846305607,8.468957626926898,-5.285641478821635
1772871663124016600,6.8500166015625,-3.2087066099494694,6.689997404369712,-2.882676081973314
1772871663133949700,6.85994970703125,-4.461965380579233,4.124327416917682,1.0204910482406615
1772871663143882800,6.8698828125,-6.798965728610754,3.189917738327384,3.4756355451375245
1772871663153814800,6.879814697265625,-8.535950849747657,3.9634184775590895,3.91544968868196
1772871663163747800,6.889747802734375,-8.282298744761944,4.2236499609351155,3.1210213122338053
1772871663173681000,6.899680908203125,-6.622513767683506,3.910018895804882,1.5152961343839764
1772871663183613700,6.90961376953125,-3.503440082386136,3.701543318629265,0.07120747951492666
1772871663193545700,6.919545654296875,-0.5431073447585105,3.30458515099287,-1.0987309106104075
1772871663203478800,6.929478759765625,1.3673597815841436,2.963427196511626,-1.7778000927366315
1772871663213411800,6.939411865234375,2.2618208961457014,2.9524580587297677,-1.7376510376997292
1772871663223345000,6.949344970703125,2.068397926673293,2.6469834120482205,-0.9274394011862576
1772871663233277000,6.95927685546875,1.3433563901841639,1.9690537553459404,0.5515151076197624
1772871663243209500,6.96920947265625,0.47312370795011516,0.9931967986017465,2.216071975275129
1772871663253142300,6.979142333984375,-0.5564174927085638,-0.219416073384881,3.588842237600684
1772871663263075300,6.989075439453125,-0.7030430551707744,-1.129434822562337,4.063856289342046
1772871663273007400,6.99900732421875,0.20123744261562823,-1.6843202833980322,3.2637580505639314
1772871663282940400,7.0089404296875,1.8166683141827582,-2.0960446430116892,1.8886118528872726
1772871663292873500,7.01887353515625,3.7852655579328536,-2.4686907916903493,0.06576762654855847
1772871663302806300,7.02880615234375,5.906973049989342,-3.19352482290864,-1.8895768985271453
1772871663312738300,7.03873828125,7.984175045365094,-3.9348692594230172,-3.462754143993556
1772871663322671400,7.04867138671875,9.590952070355415,-4.584513901883364,-4.497567147575318
1772871663332604400,7.0586044921875,10.606398694688082,-5.313101148155331,-4.902281336165965
1772871663342537500,7.068537353515625,11.184652171629667,-6.2834659372240305,-4.4094694696664805
1772871663352469500,7.078469482421875,11.325222671836613,-8.039509979096055,-2.7862761474043127
1772871663362402600,7.088402587890625,11.778770741701125,-9.658020696499943,-0.2619116915479302
1772871663372335400,7.09833544921875,11.599102741336822,-10.637028810751438,1.697147177875787
1772871663382268400,7.108268310546875,10.139929183930159,-10.351579884010553,2.2216421766228973
1772871663392200400,7.118200439453125,9.64823696911037,-9.319998701956868,1.6612312303639947
1772871663402133500,7.128133544921875,9.75142729447186,-8.554751411807537,0.1191457271233201
1772871663412066600,7.138066650390625,9.202412186974286,-7.759697012415528,-1.9418620892986653
1772871663421999400,7.147999267578125,8.47818781208694,-6.837128578266501,-3.2982489337086673
1772871663431932400,7.157932373046875,7.515911636927723,-6.093220428743958,-3.887992649696767
1772871663441864400,7.167864501953125,6.310212489852309,-5.565240510490536,-3.9467631108343597
1772871663451797500,7.177797607421875,5.191308413654565,-5.205614586904645,-3.4442899742811917
1772871663461730600,7.18773046875,4.056960684609413,-5.114354353311658,-2.4343507151931525
1772871663471663400,7.197663330078125,2.9800322943538426,-5.29413575092256,-1.4524426417164504
1772871663481595400,7.207595458984375,2.445990299582481,-5.539992087465524,-0.6976791900500655
1772871663491528400,7.217528564453125,2.6733511944919823,-5.769885131201148,-0.5451856123372912
1772871663501461500,7.22746142578125,3.2002947554349896,-6.045609367263316,-0.7651078816786407
1772871663511394600,7.23739453125,3.540212354466319,-6.428358976805209,-0.5461186554037034
1772871663521326300,7.247326416015625,3.3229473216354846,-6.188027541163564,-0.09871069572940468
1772871663531259400,7.25725927734375,2.740885684582591,-4.449562410601973,-0.6630383770406246
1772871663541192200,7.267192138671875,2.6438351771503688,-2.1910136679947376,-1.6634661498092114
1772871663551125200,7.277125244140625,1.9632108745366335,-0.7501321386039257,-1.5831724236495792
1772871663561057300,7.287057373046875,-0.08850187479555606,0.18241291515827177,-0.46662777005955575
1772871663570990300,7.296990234375,-2.288621809309721,1.9823715020805597,1.0812151276640594
1772871663580923400,7.30692333984375,-4.552279857754707,4.233486879816651,2.144456061089784
1772871663590856200,7.316856201171875,-6.200985222414135,6.502426083534956,2.4631419253915547
1772871663600788500,7.32678857421875,-7.188715572303533,8.36352682916224,2.7895196593701836
1772871663610721300,7.33672119140625,-8.637071967619656,10.091167198848725,2.7531004385113715
1772871663620654300,7.346654296875,-11.053117210793495,12.231796248996258,3.58842079731822
1772871663630587400,7.35658740234375,-13.57369951776266,14.762693029230832,5.25687364949882
1772871663640519400,7.36651953125,-15.453041438001394,17.387132016515732,5.752684405553341
1772871663650452500,7.376452392578125,-18.615315382599828,17.640778276282546,5.811002739009261
1772871663660385300,7.38638525390625,-23.19569671472311,15.164833567941187,8.251073585414886
1772871663670318300,7.396318359375,-23.68962004959583,13.857569066357613,7.862736531129479
1772871663680251400,7.40625146484375,-19.312533092617986,13.593519485998153,4.636050904636085
1772871663690183400,7.416183349609375,-12.799171773570775,12.029516603851318,1.0359507754400372
1772871663700116500,7.426116455078125,-5.579972215676308,9.37099999039769,-1.5713267952941357
1772871663710049300,7.43604931640625,-0.6485363889575004,4.995612238553166,-1.0801870997905731
1772871663719982300,7.445982421875,1.1884797167271375,1.511837226101756,0.6854032074533403
1772871663729914400,7.455914306640625,1.068189788004756,0.2827010893374681,2.039169055709988
1772871663739847400,7.465847412109375,-0.1833481501817703,0.05910159278810024,1.9784842853836715
1772871663749780500,7.475780517578125,0.07638415150046349,-0.2741290758252144,1.0824268415413796
1772871663759713500,7.485713623046875,0.6688438484489917,0.7823270197659731,-0.47633638638630504
1772871663769645600,7.4956455078125,0.3941629839599132,1.5522925706088542,-1.5957070571824907
1772871663779578400,7.505578369140625,0.5226332965284586,2.0565134276121855,-1.489348915439844
1772871663789511400,7.515511474609375,0.10478548559844493,2.1447779865205288,-1.1382951514966786
1772871663799444500,7.525444580078125,-0.3722118489146232,1.9415987621873616,-0.3189788558989763
1772871663809376500,7.53537646484375,-0.22548341059982777,1.5074147334843873,0.5583602973394095
1772871663819309600,7.5453095703125,0.5776724621832371,0.6798188314497471,1.1925327915102242
1772871663829242400,7.555242431640625,2.2469150034368037,-0.40221418846845625,0.9963789357692002
1772871663839175400,7.565175537109375,4.64071217444539,-1.6672066515117883,-0.3031907735280692
1772871663849107500,7.575107421875,7.714500610861181,-3.2541642927885053,-1.9840449882507323
1772871663859040500,7.58504052734375,10.874636958909035,-5.011809340116382,-3.3821830621972677
1772871663868973600,7.5949736328125,13.71187815439701,-6.2795145692497485,-4.356446904531121
1772871663878906400,7.60490625,14.886407087182997,-8.334555586221814,-4.033839044480025
1772871663888838400,7.61483837890625,15.797361071383952,-9.435492628574371,-2.7142373316317796
1772871663898771200,7.624771240234375,14.574952781569957,-8.843327530658245,-1.743390604265034
1772871663908704300,7.634704345703125,11.8531195879817,-7.668854711973666,-1.173551319925487
1772871663918637600,7.644637451171875,9.415842756208777,-6.324046953937411,-1.1428722501538693
1772871663928569300,7.6545693359375,7.414177355593442,-5.309452562519907,-1.544385158485174
1772871663938502400,7.66450244140625,6.031238312083483,-4.618581006658077,-1.9432710793137549
1772871663948435200,7.674435302734375,5.515898679694533,-4.493728300064802,-2.2160203912183642
1772871663958368300,7.6843681640625,5.6981309775888915,-4.603488651466369,-2.514268301516771
1772871663968300300,7.69430029296875,5.734231049495935,-5.031569687119126,-2.645006851278245
1772871663978233300,7.7042333984375,5.480410017684101,-5.696500161516666,-2.554256320773065
1772871663988166400,7.71416650390625,5.30612955557704,-6.521940346822142,-1.8495918018803
1772871663998099200,7.72409912109375,4.648787344351411,-7.6304352572083465,-0.7252857205085456
1772871664008031500,7.734031494140625,3.572076980760693,-8.473681148317455,0.5448854603469372
1772871664017964300,7.74396435546875,2.582276254338026,-8.392018764153123,1.3530334423288701
1772871664027897300,7.7538974609375,2.375970422416925,-7.817692105266452,0.8642579917386174
1772871664037830400,7.763830322265625,2.8600363801419735,-7.441527719333767,-0.17382044337987898
1772871664047762400,7.773762451171875,3.7946237533867357,-7.051703056839108,-1.461191034708917
1772871664057695500,7.783695556640625,4.619026412338018,-6.412067182695865,-2.7751939046368
1772871664067628300,7.793628173828125,4.514670550328493,-5.340636220812797,-3.6273338808193802
1772871664077561300,7.803561279296875,3.5299849749624728,-3.6594840460568663,-4.02748879867047
1772871664087493400,7.813493408203125,2.694502703592181,-1.7454653647124767,-4.184907557825744
1772871664097426400,7.823426513671875,2.0032786810308694,0.3903559928923845,-3.3501144377633927
1772871664107359500,7.833359375,1.1505495067834854,2.2527450247645375,-1.6945839032590388
1772871664117292300,7.843292236328125,-0.12851181362271308,3.8229327330261467,-0.23251579345464704
1772871664127224300,7.853224365234375,-1.6894190678417682,5.90763005259335,1.4739181220740079
1772871664137157400,7.863157470703125,-4.282511315226555,7.318615040892362,3.3037413936451077
1772871664147090400,7.87309033203125,-8.343976910039782,7.849221215996145,6.37749972718358
1772871664157023500,7.8830234375,-12.811139274740219,8.672786255079508,9.882981544530391
1772871664166956500,7.89295654296875,-16.97296786253452,9.89062942893505,12.605533700042962
1772871664176888600,7.902888671875,-18.307057242679594,11.972602876496314,12.55624330717325
1772871664186821400,7.9128212890625,-18.169563665699958,13.573996454882622,11.046932969200611
1772871664196754400,7.92275439453125,-17.80598169796467,14.486550860017537,8.388033493909239
1772871664206687500,7.9326875,-16.82909130651951,14.616044670414924,5.356037203562259
1772871664216619500,7.94261962890625,-15.250249751681089,13.907194974792002,3.015529724192619
1772871664226552600,7.952552490234375,-13.661107752102613,12.468000375574826,1.4897837997257708
1772871664236486100,7.962486083984375,-12.708660897040366,10.821498073917626,0.5972602290980518
1772871664246419200,7.972419189453125,-11.816297047019004,9.709622288921475,-0.40379268983155486
1772871664256351200,7.982351318359375,-11.441975074082613,8.390620003271103,-0.9777075530469417
1772871664266283300,7.992283203125,-11.515098762482404,6.859115953668952,-0.6637051703862845
1772871664276216300,8.00221630859375,-11.124601899814605,6.144293028855324,0.14918532994762063
1772871664286149400,8.0121494140625,-10.130272882312536,5.874914362427592,0.2830050407201051
1772871664296082200,8.022082275390625,-8.112671661418675,6.04653524993658,-0.8766415263630449
1772871664306014200,8.03201416015625,-5.35950458741188,5.9772109538197515,-3.1833032886236903
1772871664315947300,8.041947265625,-2.0151643491357563,5.115362069049477,-5.351917493283748
1772871664325880300,8.05188037109375,1.3554723599135874,3.0750434049129485,-6.080166301381587
1772871664335813400,8.0618134765625,3.734441379624605,-0.2622112590163946,-4.898184714502096
1772871664345745400,8.071745361328125,5.138478740742802,-3.9657419520705934,-3.1956939836412666
1772871664355678200,8.08167822265625,6.336828109577298,-6.960414181673526,-1.0428139392077922
1772871664365611300,8.091611328125,7.945675511100887,-9.092834206402301,0.809495451068133
1772871664375544300,8.10154443359375,9.956195249301194,-8.234442768609524,0.2708681743331253
1772871664385476000,8.11147607421875,12.124772629082202,-8.457147946667671,-0.3324975320331752
1772871664395409400,8.121409423828124,15.323676222419738,-8.06070532733798,-0.8481580669395625
1772871664405342500,8.131342529296875,17.798815459597108,-6.741489106675982,-1.9911841924808917
1772871664415275300,8.141275146484375,18.63592562443018,-6.122938106137513,-2.9515502962350846
1772871664425208300,8.151208251953125,17.12806606978774,-5.672125014194846,-3.472978308627009
1772871664435140000,8.16114013671875,14.794957468497753,-4.358366474416852,-3.627628187590837
1772871664445073200,8.1710732421875,12.131495799857378,-3.4932945359468457,-2.8891411863341925
1772871664455006200,8.181006103515625,9.116872669115661,-3.264164877799153,-1.5768649940684436
1772871664464939000,8.19093896484375,6.013859891781211,-3.669043317040801,-0.27031448597311974
1772871664474871000,8.20087109375,3.2880899432659145,-4.485360869213938,0.9916662280336022
1772871664484804000,8.21080419921875,1.606044034540653,-5.315987517246604,1.6945727973431348
1772871664494737200,8.220737060546876,1.540442558339238,-5.971517710614204,1.2028349898159503
1772871664504670200,8.230670166015624,2.74392753649652,-6.403166083359718,-0.1944128572925925
1772871664514602200,8.240602294921874,4.038084134703874,-6.863122851222753,-1.7234493477374315
1772871664524535300,8.250535400390625,5.3576183352738616,-7.042852226385474,-3.0016163496524095
1772871664534468000,8.260468017578125,6.152839323404431,-7.335226568475365,-3.9170565393567083
1772871664544401200,8.270401123046875,6.609270255228877,-7.70861038377881,-4.269001845312118
1772871664554333200,8.280333251953126,6.578453092160821,-8.302831245180965,-3.9782746859073637
1772871664564266200,8.290266357421874,6.124253280389309,-8.716520182865857,-3.2386306235700846
1772871664574199300,8.30019921875,5.398817191624641,-8.88339709071815,-2.3314240092039107
1772871664584132000,8.310132080078125,4.48750138837397,-9.046634765285253,-1.6828696461983024
1772871664594064100,8.320064208984375,3.7795623778551817,-8.905787786224485,-1.3333911687478421
1772871664603997200,8.3299970703125,3.210783416223526,-8.552000067272783,-1.5341229999288917
1772871664613930200,8.33993017578125,2.5653110910117625,-8.019636234846711,-1.9723216711007057
1772871664623863300,8.34986328125,1.5943687943160534,-7.196231354761124,-2.160939139987528
1772871664633795300,8.35979541015625,0.259679694712162,-5.929694584885239,-2.5710011193469167
1772871664643728400,8.369728271484375,-0.17096446942687032,-4.242191579797864,-3.3420375142917034
1772871664653661200,8.3796611328125,-0.5033791454821824,-2.3648154066741465,-2.862845592343807
1772871664663594200,8.38959423828125,-1.808196253913641,0.3464543073236942,-2.7087387342154976
1772871664673526300,8.3995263671875,-2.100487593895197,3.9781460910916326,-2.9551497820317745
1772871664683459300,8.409459228515624,-2.2915561091959473,6.746114428389072,-2.5277327632457016
1772871664693392400,8.419392333984375,-3.327183351770043,8.8157684926033,-1.287083591081202
1772871664703325200,8.4293251953125,-5.521441116252541,10.712032321548461,1.2933952584460378
1772871664713257200,8.43925732421875,-8.500575584983824,13.09148298729658,4.003096407952905
1772871664723190300,8.449190185546875,-12.174509596675634,15.332089830499887,5.964996199890971
1772871664733123300,8.459123291015626,-16.07886681345701,16.610204225444793,7.572711382514238
1772871664743056400,8.469056396484374,-19.39115830104351,16.563407402956486,9.374895244270563
1772871664752988400,8.478988525390625,-20.36888806592226,15.49355698826313,10.445185219424962
1772871664762921200,8.488921142578125,-17.929596387195588,13.804782063543795,10.246482848244906
1772871664772854300,8.498854248046875,-13.651703963941335,11.541268976527451,9.246497412416339
1772871664782787300,8.508787353515626,-8.493898006916046,9.828616332614422,7.3378925728142255
1772871664792719000,8.518718994140626,-3.3800235460758206,8.817512121400236,4.834633741089702
1772871664802652200,8.528652099609374,0.05707330183088779,8.0489950158,2.7523057810023426
1772871664812585200,8.538585205078125,0.27463410273790356,7.556759195622801,2.1157743026152254
1772871664822518300,8.548518310546875,-1.8132120362490414,8.104787630170584,2.3266294684037563
1772871664832450000,8.558449951171875,-4.590842520383,9.223200123459101,2.4611980978474017
1772871664842383000,8.568383056640625,-8.04586197847128,9.37534824873507,2.154549731211364
1772871664852316200,8.578316162109376,-9.934629898703097,8.457537238246202,1.780556551837921
1772871664862249200,8.588249267578124,-9.725601363819838,7.048773433127999,1.121728193707764
1772871664872181200,8.59818115234375,-8.486739951854943,5.023427297195792,0.8325196221724152
1772871664882114000,8.608114013671875,-7.3012827978193755,3.3607945294708013,0.3452402553588152
1772871664892047000,8.618047119140625,-5.656941473588347,2.208368122899532,-0.5666226603806018
1772871664901980200,8.627980224609376,-3.3626398650765417,1.0233131199240684,-1.208841244493425
1772871664911912200,8.637912109375,-0.6449795732587575,-0.7711059530496597,-1.6066040065109728
1772871664921845200,8.64784521484375,2.8545336910724637,-1.935450760951638,-2.1829808759257197
1772871664931778300,8.6577783203125,6.338959860908985,-2.838777903535962,-3.099994014035165
1772871664941711000,8.667711181640625,9.022891486126184,-3.554768118563294,-4.198090864525735
1772871664951643100,8.67764306640625,11.094335356366633,-4.588726551142335,-4.900644967135786
1772871664961576200,8.687576171875,12.461761188924312,-5.2125511081695555,-5.3439177267014975
1772871664971509200,8.69750927734375,13.021936572861671,-5.6287879767715925,-5.379263180848956
1772871664981442300,8.7074423828125,13.29930389995575,-5.754580010041594,-4.977260004782677
1772871664991374300,8.717374267578125,12.961348540908098,-5.4641556329756975,-4.252653644840419
1772871665001307100,8.72730712890625,12.06164543403983,-5.1733957403451205,-3.641347500863671
1772871665011240200,8.737240234375,11.433207245737314,-4.700591181346774,-3.0517966770991682
1772871665021173200,8.74717333984375,10.996759948277473,-4.448572815042734,-2.6740447297140952
1772871665031105300,8.757105224609376,10.505659854131936,-4.64632533815205,-2.4024641693279145
1772871665041038300,8.767038330078124,9.914246451365948,-5.266155857107043,-1.778754763112962
1772871665050971400,8.776971435546875,9.038346829411386,-6.353669938784837,-0.541424213977158
1772871665060904200,8.786904296875,7.999268569600582,-7.435390824013948,0.861505770421028
1772871665070836200,8.796836181640625,6.858159091335534,-8.072046805563568,2.028055394890904
1772871665080769300,8.806769287109375,5.736286228460073,-8.035496067279578,2.2208479575052857
1772871665090702300,8.816702392578126,5.194478860384225,-7.336264679351449,0.9802370715245604
1772871665100635400,8.826635498046874,5.293906618341803,-6.696682581222057,-1.0367135765060782
1772871665110567400,8.8365673828125,5.748835913431644,-6.292302739152312,-2.946771537525952
1772871665120500200,8.846500244140625,6.14998802562654,-5.9009507209599015,-4.252058601556718
1772871665130433300,8.856433349609375,6.104301210206747,-5.7333805701464415,-5.009094235938787
1772871665140366300,8.866366455078126,5.530933167219161,-5.705287863606214,-5.377060702368617
1772871665150298000,8.876298095703126,4.836748541286587,-5.813047981101274,-5.225172689333558
1772871665160231200,8.886231201171874,3.9767882467418905,-6.409046958091855,-4.319572341120243
1772871665170164200,8.896164306640625,3.0764626240611075,-7.174199555695057,-3.3136119225353
1772871665180097300,8.90609716796875,2.1073440356612205,-7.666233131298422,-2.5721876987829804
1772871665190029000,8.916029052734375,1.065315693873167,-7.768587005835771,-2.156539735984802
1772871665199962000,8.925962158203125,0.3772024968087673,-7.137108134663104,-2.27122293074131
1772871665209895200,8.935895263671876,-0.001440261936187744,-5.265096703442931,-3.4629999354481695
1772871665219828200,8.945828125,-0.3587269289195537,-2.8060271420568226,-5.205669531962275
1772871665229760300,8.95576025390625,-1.2319845119327306,-1.0309744483321905,-4.986925074228644
1772871665239692500,8.965692626953125,-2.280965157076716,0.33133623316884037,-3.0592484544098375
1772871665249625300,8.975625244140625,-3.0260838514328,2.3595360049664973,-0.9199003839835524
1772871665259558400,8.985558349609375,-4.759147415211796,3.6769162423729895,1.0433841403111814
1772871665269490200,8.995490234375,-7.021446450263261,5.507002841055393,3.126111328849196
1772871665279423200,9.00542333984375,-9.397557742455602,7.905883014416694,4.58321450972259
1772871665289356500,9.0153564453125,-11.84832650848627,9.730044899225234,6.116306120777129
1772871665299289300,9.025289306640625,-15.018562810266017,11.32926171809435,7.239180854171514
1772871665309221400,9.035221435546875,-18.36412060763836,13.70324359704256,9.002078999722004
1772871665319154200,9.045154296875,-21.041263595628738,15.335614497494698,9.990599038684367
1772871665329087200,9.055087158203126,-22.042666497039793,15.612546940302847,10.575395653659104
1772871665339020300,9.065020263671874,-21.204153479671476,14.614174200367927,12.242661341881751
1772871665348952300,9.074952392578124,-19.040202006125448,12.351058588236569,13.37416595645547
1772871665358885400,9.084885498046875,-15.123080000317096,10.129956071448326,13.211824353945255
1772871665368818200,9.094818115234375,-10.45932480393648,8.58570535299778,11.781667632186412
1772871665378751200,9.104751220703125,-6.837697902587056,7.575885336375236,9.098108931934833
1772871665388683300,9.114683349609376,-4.870649057322741,7.148598081448673,5.823279452258348
1772871665398616300,9.1246162109375,-4.05269542838037,7.322785604575276,3.2601360606744882
1772871665408549400,9.13454931640625,-4.347947371733189,7.154253915253281,2.0511434250116345
1772871665418482200,9.144482177734375,-4.607296227055787,6.183805539554357,1.344024206443131
1772871665428414500,9.15441455078125,-3.9456653787255287,4.8395700284481045,0.4999889185220003
1772871665438347300,9.16434716796875,-2.2137562456786632,3.6943443470358845,-0.3178749863103032
1772871665448280300,9.1742802734375,0.05388181231319904,2.6338725860625503,-1.3684449464723467
1772871665458213400,9.18421337890625,2.450533203709125,1.5758119778841733,-2.1523612812563777
1772871665468145400,9.1941455078125,4.616529334825277,0.4303331984937191,-2.4618168142676353
1772871665478078500,9.204078369140625,6.304594065448641,-0.8588765909612178,-2.6186349771812556
1772871665488011300,9.21401123046875,7.672471733427047,-2.5098329494178295,-2.913191924007237
1772871665497944300,9.2239443359375,9.17444865977168,-4.035755399495363,-2.9899203589007257
1772871665507876400,9.23387646484375,10.358550892066955,-5.430190819531679,-2.847868095703423
1772871665517809400,9.243809326171874,11.037454362237453,-6.4547454639494415,-2.554213942936063
1772871665527742500,9.253742431640624,11.698333515417575,-6.839487708613276,-2.1819725756660104
1772871665537675300,9.26367529296875,11.938248186951874,-7.210324177521467,-1.6068813621476292
1772871665547607300,9.273607177734375,11.5283837759912,-7.648872246652841,-1.45562813988477
1772871665557540400,9.283540283203125,10.651517939352988,-7.534302449142932,-1.8558416560553013
1772871665567473400,9.293473388671876,9.663586513933538,-6.808906692388653,-2.366732930733263
1772871665577406500,9.303406494140624,8.65021494230926,-5.81195492516756,-2.792117274647951
1772871665587338500,9.31333837890625,7.604535092276334,-4.605940136271715,-3.1532430814027785
1772871665597271600,9.323271484375,6.3664563551217315,-3.675991528743505,-3.771584823104739
1772871665607204400,9.333204345703125,5.129886853486299,-3.227199128973484,-4.315713327604532
1772871665617137400,9.343137451171875,4.477666807579994,-2.9326252310127017,-4.5097789788946505
1772871665627069400,9.3530693359375,4.183147854676842,-2.8822242465525862,-4.660429851350188
1772871665637002500,9.36300244140625,4.246392538619041,-3.0175936709851023,-4.574926573848724
1772871665646935600,9.372935546875,4.405190769433975,-3.38852950861454,-4.0620331655681134
1772871665656868400,9.382868408203125,4.591678971207141,-3.7084330781430004,-3.7409883170500398
1772871665666800400,9.39280029296875,4.847755088469386,-3.9173639978706833,-3.4738018999695774
1772871665676733200,9.402733154296875,5.100521058270335,-4.247120852893591,-2.963738162156939
1772871665686666200,9.412666259765626,5.409944150316715,-4.466882378715276,-2.617448397745192
1772871665696599300,9.422599365234374,5.5605947305113075,-4.738272969487309,-2.3341031652852893
1772871665706531300,9.43253125,5.773869816923141,-5.003450677093864,-1.7993340252831578
1772871665716464400,9.44246435546875,6.006477964836359,-5.40316603448391,-1.1567454388141631
1772871665726397200,9.452397216796875,6.165265089735389,-5.661529970422387,-0.5648628111012279
1772871665736330200,9.462330322265625,6.000761925277113,-5.737291606110334,-0.049506081447005267
1772871665746262300,9.47226220703125,5.374008913582563,-5.394554858005047,0.3304052359290421
1772871665756195300,9.4821953125,4.096359213539958,-4.780931376996636,-0.2128305575147271
1772871665766128400,9.49212841796875,2.2105513121575115,-3.8648043740719555,0.06226093360185623
1772871665776061200,9.502061279296875,-0.4257581456631422,-2.8752175826609134,1.1820391622856259
1772871665785993200,9.5119931640625,-3.401347489133477,-1.1627689368873835,2.973013355502486
1772871665795926300,9.52192626953125,-5.442988341784477,0.868428847682476,3.9071658444613218
1772871665805859300,9.531859375,-4.757496140873432,1.4738158307433127,2.1716098793447016
1772871665815792400,9.54179248046875,-5.819064464911818,3.0048259593486786,1.7126261942975223
1772871665825724400,9.551724365234374,-7.075429969385266,6.080542148956656,1.3272180330708623
1772871665835657500,9.561657470703125,-7.581670934039354,8.461693773403763,1.6663003503218292
1772871665845590300,9.57159033203125,-8.004845492950082,10.52915295792222,2.30027045378834
1772871665855523300,9.5815234375,-8.24884772605896,13.140959258127213,2.283968138284981
1772871665865455400,9.591455322265626,-9.256339007472992,15.718451785320042,1.8426342378273606
1772871665875388400,9.601388427734374,-10.98971412141919,17.156479678845404,2.9317271131291984
1772871665885321500,9.611321533203125,-11.476468879836798,13.348833946800232,5.141894102144241
1772871665895254300,9.621254150390625,-8.032020500123501,7.364752522689104,6.649726184257864
1772871665905186300,9.631186279296875,-3.7741912062108516,5.98993307274878,5.7026236128330225
1772871665915119400,9.641119384765625,0.26347324177622794,5.520515233579277,2.0042393427565695
1772871665925052400,9.651052490234376,3.0309131712853907,4.623858654800057,-0.47950507955029603
1772871665934985500,9.6609853515625,2.366408813345432,3.5827824991703032,-0.62336892221421
1772871665944917500,9.67091748046875,-0.6413976231187581,2.174720120319724,0.9636807812601327
1772871665954850600,9.6808505859375,-4.161922695818543,0.8710562735766172,2.926608747202158
1772871665964783400,9.690783447265625,-5.582737004214525,-0.35014264044761656,3.413769748333096
1772871665974716400,9.70071630859375,-4.665050496888161,-1.5142945561259984,2.747929757875204
1772871665984648400,9.7106484375,-2.246867657163739,-2.5386148072659966,1.85729886912629
1772871665994581500,9.72058154296875,0.28738427871763705,-3.4385271729707716,1.0963910694859922
1772871666004514600,9.7305146484375,2.515323948049545,-4.080238684344291,0.5183728626050055
1772871666014447400,9.740447265625,4.010505807426572,-4.400017750710249,0.1446944482691586
1772871666024379100,9.750379150390625,4.769740705418586,-4.375101920640469,-0.30866452876403927
1772871666034312200,9.760312255859375,4.728812482702732,-4.3681250673651695,-0.38392274497449397
1772871666044245200,9.770245361328126,4.141753768014907,-4.290695206204057,-0.26922873656302687
1772871666054178300,9.78017822265625,3.7187095574855804,-3.843690858894586,-0.38024259515702724
1772871666064110300,9.7901103515625,3.0778876884281634,-3.420273138877749,-0.564130843564868
1772871666074043400,9.80004345703125,2.659565245723724,-3.0389141069114207,-0.6025102585807443
1772871666083976200,9.80997607421875,2.4477409426420924,-2.6919091799676416,-0.6784482737489044
1772871666093909200,9.8199091796875,1.9976959124624727,-2.3144249436080453,-0.635595951102674
1772871666103841300,9.82984130859375,1.7160732660114764,-1.9262854577213524,-0.5372017739765346
1772871666113774300,9.8397744140625,1.630142118486762,-1.3457780643731354,-0.43458354941457505
1772871666123707400,9.849707275390625,1.8823732507586477,-0.8143331003576517,-0.2065333570666611
1772871666133639400,9.859639404296875,2.3632220000028608,-0.3379980291455984,0.14678542919903992
1772871666143572200,9.869572265625,2.6984114014685154,0.20334639759361742,0.3018715076230466
1772871666153505300,9.87950537109375,2.492358667525649,0.9359323581129312,0.2629937876962125
1772871666163438300,9.889438232421876,1.628439406222105,1.7837170616954563,0.1893124654136598
1772871666173370400,9.899370361328126,0.2432446927398443,2.551848382848501,0.21636954529583452
1772871666183303400,9.909303466796874,-1.1290437774181366,3.138752783757448,0.26601854234486816
1772871666193236200,9.919236328125,-2.163117360809445,3.5354403177589178,0.1600574370957911
1772871666203169300,9.929169189453125,-2.4279122065782546,3.6670097653865814,-0.06030848435983061
1772871666213101300,9.939101318359375,-1.8882126244366169,3.3277404011309146,-0.2638045195572078
1772871666223034400,9.949034423828126,-0.7305810504376888,2.603395614734292,-0.13417568460330367
1772871666232967400,9.958967529296874,0.3440717961013317,1.759099922311306,0.15149667562991379
1772871666242900500,9.968900390625,1.0059259317934512,0.9384662605047226,0.2987260492041707
1772871666252832500,9.97883251953125,1.2436609212011098,0.23356150311529636,0.42247459394782777
1772871666262765300,9.988765380859375,1.2520114009171723,-0.3341010217070579,0.6482669243663549
1772871666272698400,9.998698486328125,1.1194108566761016,-0.7168874561280012,0.8648897137708962
1772871666282631400,10.00863134765625,0.8281582120925187,-0.9652227500051259,0.9354252853736281
1772871666292563500,10.0185634765625,0.5818383496910333,-1.1437842504322528,0.9819308698303997
1772871666302496500,10.02849658203125,0.3609311609655618,-1.1936322771847248,0.9624471478119492
1772871666312429300,10.03842919921875,0.21614684245586394,-1.2015548868775368,0.7710859331749379
1772871666322362400,10.0483623046875,0.044048985084891315,-1.1187918479949235,0.6384412575311958
1772871666332294400,10.05829443359375,-0.25125614975988864,-1.0364408970445393,0.5144174029774964
1772871666342227500,10.0682275390625,-0.6740946085840464,-0.5580763658314943,0.29081571447104215
1772871666352160500,10.078160400390624,-0.2069809547036886,-0.350839390540123,0.1270294661104679
1772871666362093600,10.088093505859375,0.16586217785179613,-0.6293734233260154,0.04501227715909481
1772871666372025300,10.098025390625,-0.18429215303361415,-0.552217118409276,0.43620647444128985
1772871666381958100,10.107958251953125,-1.069260047584772,-0.5643196441352367,0.6736949417419731
1772871666391891200,10.11789111328125,-1.8251631708055733,-0.1702168659299612,0.48652927909865973
1772871666401824300,10.12782421875,-2.3340450053572654,0.369241308671236,0.2604249601215124
1772871666411756300,10.13775634765625,-2.3852204813212157,0.4787964928895235,0.3030734307587147
1772871666421689300,10.147689453125,-1.9756015695542095,0.2555442023426294,0.2379923251695931
1772871666431622100,10.1576220703125,-1.0891980892419815,0.27656127140820025,-0.1651557831481099
1772871666441555200,10.16755517578125,-0.3668061904788017,0.4486357479035854,-0.6794162419982254
