time,seconds_elapsed,z,y,x
1772871656328756500,0.054756591796875,-0.28014591336250305,-0.43223077058792114,-0.5417168140411377
1772871656338689500,0.064689453125,-0.27741748094558716,-0.4587081968784332,-0.5333685874938965
1772871656348621600,0.07462158203125,-0.23848074674606323,-0.39861634373664856,-0.5101463198661804
1772871656358554600,0.0845546875,-0.1762634515762329,-0.2839728593826294,-0.45960327982902527
1772871656368487700,0.09448779296875,-0.1053815484046936,-0.13590990006923676,-0.3923880159854889
1772871656378420500,0.10442041015625,-0.054656319320201874,0.03369511291384697,-0.3279075622558594
1772871656388353500,0.114353515625,-0.018307100981473923,0.1722138375043869,-0.2825837731361389
1772871656398285600,0.12428564453125,-0.016682308167219162,0.252621054649353,-0.28171637654304504
1772871656408218600,0.134218505859375,-0.05337454006075859,0.2188039869070053,-0.3485254943370819
1772871656418151700,0.144151611328125,-0.1033511534333229,0.06463571637868881,-0.49627286195755005
1772871656428084700,0.154084716796875,-0.17867787182331085,-0.17491509020328522,-0.657280683517456
1772871656438017500,0.164017578125,-0.26264601945877075,-0.4463098347187042,-0.7895122170448303
1772871656447949300,0.17394921875,-0.32234954833984375,-0.6713206171989441,-0.9026696681976318
1772871656457882400,0.18388232421875,-0.3521907925605774,-0.7557430863380432,-0.9590938091278076
1772871656467815700,0.193815673828125,-0.34650227427482605,-0.6991721987724304,-0.9512891173362732
1772871656477748700,0.203748779296875,-0.34834760427474976,-0.5321802496910095,-0.8730699419975281
1772871656487681500,0.213681640625,-0.3430766761302948,-0.2988751232624054,-0.7529028058052063
1772871656497613300,0.22361328125,-0.3378518223762512,-0.04614166170358658,-0.6177103519439697
1772871656507546400,0.23354638671875,-0.3110172748565674,0.18238285183906555,-0.4946022629737854
1772871656517479400,0.2434794921875,-0.2495722770690918,0.3694595396518707,-0.4117710292339325
1772871656527412500,0.25341259765625,-0.18329419195652008,0.47140294313430786,-0.37836354970932007
1772871656537345500,0.263345458984375,-0.14655694365501404,0.515405535697937,-0.39094778895378113
1772871656547277600,0.273277587890625,-0.1486390084028244,0.5074911713600159,-0.434028685092926
1772871656557210400,0.28321044921875,-0.1657295823097229,0.4830436110496521,-0.48994946479797363
1772871656567143400,0.293143310546875,-0.20144575834274292,0.5256339311599731,-0.5065942406654358
1772871656577076500,0.303076416015625,-0.2695545256137848,0.6313281655311584,-0.446695476770401
1772871656587009500,0.313009521484375,-0.35132819414138794,0.8074299693107605,-0.34934255480766296
1772871656596941600,0.322941650390625,-0.3996856212615967,0.9677674174308777,-0.29618266224861145
1772871656606874400,0.332874267578125,-0.4009716510772705,1.0801975727081299,-0.3527519404888153
1772871656616807400,0.342807373046875,-0.345866858959198,0.9851219058036804,-0.5914087295532227
1772871656626740500,0.352740478515625,-0.1749827265739441,0.7828612327575684,-1.0044710636138916
1772871656636673500,0.362673583984375,0.08963055163621902,0.5984452962875366,-1.4575691223144531
1772871656646605600,0.37260546875,0.351620614528656,0.4070521891117096,-1.8159199953079224
1772871656656538400,0.382538330078125,0.5714850425720215,0.31226974725723267,-2.033710479736328
1772871656666471400,0.392471435546875,0.7324515581130981,0.2982647120952606,-2.146834135055542
1772871656676404500,0.402404541015625,0.8513023257255554,0.34558483958244324,-2.1956944465637207
1772871656686336500,0.41233642578125,0.9933146238327026,0.4734429121017456,-2.2161033153533936
1772871656696269600,0.42226953125,1.120771884918213,0.5034644603729248,-2.2898967266082764
1772871656706202600,0.43220263671875,1.1785646677017212,0.46114417910575867,-2.4334752559661865
1772871656716135400,0.442135498046875,1.1773533821105957,0.49390533566474915,-2.073770761489868
1772871656726068500,0.452068359375,1.0285735130310059,0.018487397581338882,-1.4261677265167236
1772871656736000500,0.46200048828125,0.8145845532417297,-0.4627481997013092,-0.7445215582847595
1772871656745933600,0.47193359375,0.7112336754798889,-0.7525227665901184,-0.3087429404258728
1772871656755866600,0.48186669921875,0.7173967361450195,-0.8973683714866638,0.11295051872730255
1772871656765799400,0.49179931640625,0.5657480955123901,-0.8636229038238525,0.3962152600288391
1772871656775732500,0.501732421875,0.2713873088359833,-0.8340948820114136,0.6235986351966858
1772871656785664500,0.51166455078125,0.08105091005563736,-0.5381212830543518,0.6957612037658691
1772871656795597600,0.52159765625,0.27940207719802856,0.07627985626459122,0.588324248790741
1772871656805530600,0.531530517578125,0.2777533233165741,0.3938964307308197,0.6179329752922058
1772871656815463400,0.54146337890625,0.15338608622550964,0.5357124209403992,0.5111636519432068
1772871656825396500,0.551396484375,0.03948908671736717,0.6144594550132751,0.43466970324516296
1772871656835328500,0.56132861328125,-0.061050303280353546,0.6474741101264954,0.30113694071769714
1772871656845261600,0.571261474609375,-0.1117534264922142,0.6168810725212097,0.1875520497560501
1772871656855194600,0.581194580078125,-0.10341960191726685,0.6341249942779541,0.11435933411121368
1772871656865127700,0.591127685546875,0.07609663158655167,0.7310843467712402,0.04825914278626442
1772871656875060500,0.601060546875,0.2847028374671936,0.8898259997367859,0.04933132976293564
1772871656884992500,0.610992431640625,0.4004475474357605,1.2290096282958984,-0.053031791001558304
1772871656894925600,0.620925537109375,0.5399031639099121,1.298072099685669,-0.3620511591434479
1772871656904858600,0.630858642578125,0.6521511673927307,1.0969288349151611,-0.6616708636283875
1772871656914791700,0.640791748046875,0.5861963629722595,0.8258789777755737,-0.859180748462677
1772871656924724500,0.650724365234375,0.35152819752693176,0.4965953826904297,-1.0199121236801147
1772871656934656500,0.660656494140625,0.032996565103530884,0.2335328608751297,-1.1887693405151367
1772871656944589600,0.670589599609375,-0.2063712775707245,0.1973804533481598,-1.370843768119812
1772871656954522600,0.680522705078125,-0.3360608220100403,0.2576126158237457,-1.4728952646255493
1772871656964455700,0.69045556640625,-0.4050407111644745,0.15081028640270233,-1.3308486938476562
1772871656974388500,0.700388427734375,-0.4712460935115814,-0.0883767306804657,-0.9825349450111389
1772871656984320800,0.71032080078125,-0.5648229122161865,-0.3261139392852783,-0.5799110531806946
1772871656994253600,0.720253662109375,-0.6680248975753784,-0.4804345369338989,-0.28183674812316895
1772871657004186600,0.7301865234375,-0.7682905197143555,-0.48322978615760803,-0.13881833851337433
1772871657014119700,0.74011962890625,-0.8520315289497375,-0.40664124488830566,-0.13051272928714752
1772871657024052700,0.750052734375,-0.9104881882667542,-0.2876397669315338,-0.15668654441833496
1772871657033984500,0.759984619140625,-0.9013100862503052,-0.17368683218955994,-0.23572757840156555
1772871657043917300,0.769917236328125,-0.8059159517288208,-0.03542536869645119,-0.4278389513492584
1772871657053850400,0.779850341796875,-0.6488277912139893,0.06574572622776031,-0.7375089526176453
1772871657063783400,0.789783447265625,-0.5213034152984619,0.06137041747570038,-1.1459808349609375
1772871657073715500,0.799715576171875,-0.4876522123813629,-0.09601334482431412,-1.4483462572097778
1772871657083648500,0.8096484375,-0.5498506426811218,-0.34746262431144714,-1.4610551595687866
1772871657093581300,0.819581298828125,-0.4573238790035248,-0.5575796365737915,-1.1543346643447876
1772871657103514400,0.829514404296875,-0.3061748445034027,-0.32272931933403015,-0.9684393405914307
1772871657113447400,0.839447509765625,-0.20124682784080505,-0.09863203763961792,-0.8605642914772034
1772871657123379500,0.84937939453125,-0.009333847090601921,-0.2771112322807312,-1.0348711013793945
1772871657133312500,0.8593125,0.3674648404121399,-0.8949283957481384,-1.474707007408142
1772871657143245600,0.86924560546875,0.8472892045974731,-1.8469732999801636,-1.7934658527374268
1772871657153178400,0.879178466796875,1.2967280149459839,-2.597487688064575,-1.6184331178665161
1772871657163111400,0.889111328125,1.559859037399292,-2.9727344512939453,-1.0167179107666016
1772871657173043500,0.89904345703125,1.6302082538604736,-3.032419443130493,-0.3538198471069336
1772871657182976500,0.9089765625,1.5194034576416016,-2.7683968544006348,0.0813388004899025
1772871657192909600,0.91890966796875,1.2692761421203613,-2.281198501586914,0.1700819879770279
1772871657202842400,0.92884228515625,0.9669898152351379,-1.635630488395691,0.01960805617272854
1772871657212775400,0.938775390625,0.7780526280403137,-0.912003755569458,-0.16631467640399933
1772871657222707500,0.94870751953125,0.8611272573471069,0.09488043934106827,-0.7323317527770996
1772871657232641300,0.958641357421875,0.8770511150360107,0.8819742202758789,-0.8126620054244995
1772871657242574300,0.96857421875,1.0501195192337036,0.9005095958709717,-0.8110665082931519
1772871657252507100,0.978507080078125,1.2650803327560425,0.6116220951080322,-0.7811453342437744
1772871657262440200,0.988440185546875,1.361499309539795,0.2845124304294586,-0.8029073476791382
1772871657272372000,0.9983720703125,1.3448201417922974,-0.15074902772903442,-0.6443379521369934
1772871657282305000,1.008304931640625,1.1670112609863281,-0.5723535418510437,-0.1444176286458969
1772871657292238000,1.018238037109375,0.8588606715202332,-0.8787169456481934,0.48437947034835815
1772871657302171000,1.0281708984375,0.39488500356674194,-1.0184849500656128,1.0078938007354736
1772871657312104000,1.03810400390625,-0.12728124856948853,-1.012036919593811,1.2814055681228638
1772871657322036000,1.048035888671875,-0.533107340335846,-0.8278303146362305,1.341687798500061
1772871657331969000,1.057968994140625,-0.7152427434921265,-0.5923663973808289,1.2558479309082031
1772871657341902000,1.067902099609375,-0.8221790790557861,-0.2496013045310974,1.1295931339263916
1772871657351835100,1.077835205078125,-0.9514406323432922,0.16872909665107727,0.9710724353790283
1772871657361767200,1.08776708984375,-1.0637997388839722,0.5601256489753723,0.8084174394607544
1772871657371700000,1.097699951171875,-1.1318397521972656,0.8988221883773804,0.6137664914131165
1772871657381633000,1.107633056640625,-1.171632170677185,1.1819531917572021,0.37013012170791626
1772871657391566000,1.117566162109375,-1.2022385597229004,1.480920433998108,0.1038837879896164
1772871657401499100,1.1274990234375,-1.1885110139846802,1.7201783657073975,-0.17347458004951477
1772871657411431200,1.13743115234375,-1.0971784591674805,1.572867751121521,-0.4496880769729614
1772871657421364000,1.147364013671875,-0.9494706988334656,1.229919195175171,-0.6135214567184448
1772871657431297000,1.157297119140625,-0.7028729319572449,0.8681553602218628,-0.697930097579956
1772871657441230000,1.16722998046875,-0.4646022915840149,0.6453433036804199,-0.6922876834869385
1772871657451163100,1.1771630859375,-0.2772129774093628,0.5348988175392151,-0.6488616466522217
1772871657461095200,1.18709521484375,-0.16136226058006287,0.3714049756526947,-0.5573484897613525
1772871657471028000,1.197028076171875,-0.13542014360427856,0.24034255743026733,-0.43778106570243835
1772871657480961000,1.2069609375,-0.19689388573169708,0.14137470722198486,-0.2984519302845001
1772871657490894000,1.21689404296875,-0.3352714776992798,0.076352559030056,-0.15120843052864075
1772871657500827100,1.2268271484375,-0.47518810629844666,0.06573773175477982,-0.0467991977930069
1772871657510759200,1.23675927734375,-0.5722422003746033,0.14210253953933716,0.015061773359775543
1772871657520692200,1.246692138671875,-0.6079424023628235,0.259266197681427,0.04224572330713272
1772871657530625000,1.256625,-0.603122889995575,0.42415526509284973,0.07998191565275192
1772871657540558000,1.26655810546875,-0.5803680419921875,0.5780960917472839,0.12338025867938995
1772871657550490000,1.276489990234375,-0.5787121057510376,0.6599316000938416,0.14487117528915405
1772871657560423200,1.286423095703125,-0.6393924951553345,0.6272096037864685,0.19677351415157318
1772871657570356200,1.296356201171875,-0.7307016253471375,0.46560630202293396,0.2332036942243576
1772871657580289000,1.3062890625,-0.8088105320930481,0.13342569768428802,0.18654963374137878
1772871657590222000,1.31622216796875,-0.8256366848945618,-0.37886154651641846,-0.029806630685925484
1772871657600154000,1.326154052734375,-0.6486392617225647,-0.9692867398262024,-0.4440613389015198
1772871657610087200,1.336087158203125,-0.3186807632446289,-1.4375869035720825,-0.872849702835083
1772871657620020200,1.346020263671875,0.05554581806063652,-1.591117024421692,-1.1857149600982666
1772871657629953000,1.355953125,0.43974941968917847,-1.3820877075195312,-1.4193319082260132
1772871657639886000,1.365885986328125,0.683750331401825,-0.9794749617576599,-1.7504701614379883
1772871657649818000,1.375818115234375,0.6684342622756958,-0.8245988488197327,-2.407102584838867
1772871657659751200,1.385751220703125,0.3839375376701355,-1.059403657913208,-3.111060857772827
1772871657669684200,1.395684326171875,0.2954678535461426,-1.291407585144043,-2.791245222091675
1772871657679617300,1.4056171875,0.7442871928215027,-1.5045640468597412,-1.4641553163528442
1772871657689550000,1.415550048828125,1.2411915063858032,-2.0302491188049316,-0.36403706669807434
1772871657699482000,1.425482177734375,0.753006100654602,-1.6953374147415161,0.23510359227657318
1772871657709415200,1.435415283203125,-0.03436596319079399,-1.380338191986084,0.9439574480056763
1772871657719348200,1.44534814453125,-0.5023712515830994,-1.058577537536621,1.6875399351119995
1772871657729281300,1.45528125,-0.5048900842666626,-0.5459957122802734,2.381824254989624
1772871657739213000,1.465213134765625,-0.29944050312042236,0.21546757221221924,2.8415732383728027
1772871657749146000,1.47514599609375,-0.1107020154595375,1.1010162830352783,2.9398229122161865
1772871657759079200,1.4850791015625,-0.001181111903861165,1.7568506002426147,2.679267406463623
1772871657769012200,1.49501220703125,0.02708514779806137,1.8817062377929688,2.0989415645599365
1772871657778945300,1.5049453125,0.07673578709363937,1.5875455141067505,1.2855874300003052
1772871657788877000,1.514876953125,0.0910007432103157,1.0962116718292236,0.43444252014160156
1772871657798810000,1.52481005859375,0.08270606398582458,0.6681767106056213,-0.2074059247970581
1772871657808743000,1.534742919921875,0.039020903408527374,0.5043784976005554,-0.30093294382095337
1772871657818676000,1.544676025390625,-0.06990505009889603,0.4651796817779541,-0.011769041419029236
1772871657828609000,1.554609130859375,-0.15009042620658875,0.39380162954330444,0.2600555419921875
1772871657838541000,1.564541015625,-0.1487002670764923,0.31629058718681335,0.3316091001033783
1772871657848474000,1.57447412109375,-0.1296440064907074,0.19552262127399445,0.3012053668498993
1772871657858407000,1.584406982421875,-0.2280864268541336,0.1947156935930252,0.2903985381126404
1772871657868340000,1.594340087890625,-0.4069366157054901,0.33880308270454407,0.266437292098999
1772871657878273000,1.60427294921875,-0.541104257106781,0.4638318419456482,0.15193094313144684
1772871657888205000,1.614205078125,-0.6121704578399658,0.45372089743614197,-0.10515784472227097
1772871657898138000,1.62413818359375,-0.687623918056488,0.2141149491071701,-0.5371465086936951
1772871657908071200,1.6340712890625,-0.6793596148490906,-0.09108543395996094,-0.8444098234176636
1772871657918004000,1.64400390625,-0.5523499846458435,-0.31791672110557556,-0.9229608178138733
1772871657927936000,1.65393603515625,-0.36691275238990784,-0.4525133967399597,-0.7904877066612244
1772871657937869000,1.663869140625,-0.14616759121418,-0.46747344732284546,-0.5877383351325989
1772871657947802000,1.673802001953125,-0.013568006455898285,-0.4189884662628174,-0.3685913383960724
1772871657957735200,1.683735107421875,0.09543491154909134,-0.3645332157611847,-0.2291381061077118
1772871657967668000,1.69366796875,0.20892898738384247,-0.3669193983078003,-0.14548370242118835
1772871657977600000,1.70360009765625,0.28385621309280396,-0.4350944757461548,-0.09763601422309875
1772871657987533000,1.713532958984375,0.3047974407672882,-0.5086871981620789,-0.12850257754325867
1772871657997466000,1.723466064453125,0.2533739507198334,-0.49997201561927795,-0.1766117811203003
1772871658007399200,1.733399169921875,0.10826175659894943,-0.3978962302207947,-0.12341221421957016
1772871658017332000,1.74333203125,-0.10151144117116928,-0.2022460401058197,0.044687576591968536
1772871658027264000,1.753263916015625,-0.27713945508003235,-0.009098690003156662,0.25094062089920044
1772871658037197000,1.763197021484375,-0.4024105668067932,0.08136995881795883,0.4055269956588745
1772871658047130000,1.773130126953125,-0.5008825659751892,0.06618354469537735,0.49083656072616577
1772871658057063200,1.783063232421875,-0.5358895063400269,0.028972528874874115,0.5623595118522644
1772871658066995200,1.7929951171875,-0.49323952198028564,-0.0007909588166512549,0.6042097210884094
1772871658076928300,1.80292822265625,-0.4284762442111969,-0.10444331914186478,0.5515563488006592
1772871658086861000,1.812861083984375,-0.28832101821899414,-0.3756482005119324,0.36819586157798767
1772871658096794000,1.822794189453125,-0.001169127761386335,-0.8091410398483276,0.02178572304546833
1772871658106727200,1.83272705078125,0.37091973423957825,-1.2377490997314453,-0.4956427812576294
1772871658116659200,1.8426591796875,0.7728205919265747,-1.3860323429107666,-1.1694869995117188
1772871658126592300,1.85259228515625,1.14280104637146,-1.339101791381836,-1.8843142986297607
1772871658136525000,1.862525146484375,1.290381669998169,-1.1249293088912964,-2.4095284938812256
1772871658146458000,1.8724580078125,1.159100890159607,-0.8561477065086365,-2.7654330730438232
1772871658156391200,1.88239111328125,0.6480280756950378,-0.6929683685302734,-2.7906532287597656
1772871658166323200,1.8923232421875,0.19936397671699524,-0.6159833073616028,-1.6371859312057495
1772871658176256300,1.90225634765625,0.37962427735328674,-0.03868348151445389,0.277092307806015
1772871658186189000,1.91218896484375,0.6510909795761108,0.3885834217071533,0.8141682744026184
1772871658196122000,1.9221220703125,0.2946785092353821,0.19385895133018494,0.24549871683120728
1772871658206054100,1.93205419921875,-0.35636183619499207,-0.49354472756385803,-0.049967825412750244
1772871658215987200,1.9419873046875,-0.5919943451881409,-1.117186188697815,0.23220686614513397
1772871658225920300,1.951920166015625,-0.4495306611061096,-1.2332332134246826,1.1934106349945068
1772871658235852500,1.9618525390625,-0.2204761803150177,-0.6746154427528381,2.134972333908081
1772871658245785600,1.97178564453125,-0.15865835547447205,0.384162575006485,2.641371250152588
1772871658255717600,1.981717529296875,-0.28824883699417114,1.5122911930084229,2.6229867935180664
1772871658265650400,1.991650390625,-0.45064306259155273,2.273479461669922,2.1222314834594727
1772871658275583500,2.00158349609375,-0.49851658940315247,2.3344666957855225,1.3311322927474976
1772871658285516500,2.0115166015625,-0.4837999641895294,1.831190824508667,0.493585467338562
1772871658295449600,2.02144970703125,-0.5739671587944031,0.987908124923706,-0.23443646728992462
1772871658305381600,2.031381591796875,-0.5827316045761108,0.5060765147209167,-0.3360677659511566
1772871658315314400,2.041314453125,-0.48350194096565247,0.6030470132827759,0.11187832802534103
1772871658325247500,2.05124755859375,-0.5249958634376526,0.8221809267997742,0.4617692232131958
1772871658335180500,2.0611806640625,-0.5888334512710571,0.8889767527580261,0.4348020553588867
1772871658345112600,2.071112548828125,-0.5834935307502747,0.8781363368034363,0.20529669523239136
1772871658355045600,2.081045654296875,-0.5620862245559692,1.0466334819793701,0.13138678669929504
1772871658364978400,2.090978515625,-0.5605512261390686,1.3077579736709595,0.26702743768692017
1772871658374911500,2.100911376953125,-0.6849719285964966,1.4382747411727905,0.43076470494270325
1772871658384844500,2.110844482421875,-0.9267441034317017,1.3310444355010986,0.4074612557888031
1772871658394776600,2.120776611328125,-1.0687936544418335,0.9961210489273071,0.18863143026828766
1772871658404709600,2.130709716796875,-1.058902621269226,0.7100397348403931,-0.025784458965063095
1772871658414642700,2.140642578125,-0.9308956861495972,0.5160873532295227,-0.16804467141628265
1772871658424575500,2.150575439453125,-0.7491786479949951,0.3810424208641052,-0.2667238414287567
1772871658434507300,2.16050732421875,-0.5456050038337708,0.2633514702320099,-0.22375772893428802
1772871658444440300,2.1704404296875,-0.33655086159706116,0.20249611139297485,-0.13211995363235474
1772871658454373600,2.18037353515625,-0.11539024114608765,0.08128047734498978,-0.1090543121099472
1772871658464306700,2.190306640625,-0.006457100156694651,-0.09533637017011642,-0.16950860619544983
1772871658474239500,2.200239501953125,-0.03310522437095642,-0.2899090647697449,-0.2633275091648102
1772871658484171300,2.210171142578125,-0.08582888543605804,-0.40650835633277893,-0.32670143246650696
1772871658494104300,2.220104248046875,-0.1095038577914238,-0.3772870898246765,-0.3683013319969177
1772871658504037400,2.230037353515625,-0.23667778074741364,-0.18985648453235626,-0.3798210918903351
1772871658513970400,2.239970458984375,-0.4442445635795593,0.06603015214204788,-0.2829691171646118
1772871658523902500,2.24990234375,-0.6039511561393738,0.33424481749534607,-0.055567122995853424
1772871658533835500,2.25983544921875,-0.62845379114151,0.5920867323875427,0.2304566502571106
1772871658543768300,2.269768310546875,-0.5668826103210449,0.8484700918197632,0.5512199997901917
1772871658553701400,2.279701416015625,-0.43350961804389954,1.0557713508605957,0.776321291923523
1772871658563634400,2.289634521484375,-0.31072166562080383,1.1836459636688232,0.9165005087852478
1772871658573566500,2.29956640625,-0.2564767897129059,1.2856204509735107,1.0244940519332886
1772871658583499500,2.30949951171875,-0.2960093021392822,1.3642295598983765,0.9545256495475769
1772871658593432300,2.319432373046875,-0.3646487891674042,1.2992100715637207,0.716015100479126
1772871658603365400,2.329365478515625,-0.4084889590740204,0.9178915023803711,0.32792967557907104
1772871658613298400,2.33929833984375,-0.4129662811756134,0.26118525862693787,-0.14871864020824432
1772871658623230500,2.34923046875,-0.3480445146560669,-0.544913649559021,-0.670803964138031
1772871658633163500,2.35916357421875,-0.2881540358066559,-1.5305328369140625,-1.4046489000320435
1772871658643096300,2.369096435546875,-0.42793750762939453,-2.183295488357544,-2.120210886001587
1772871658653029400,2.379029296875,-0.6541557312011719,-2.168278217315674,-2.6911895275115967
1772871658662961400,2.38896142578125,-0.5968967080116272,-1.5338926315307617,-2.880790948867798
1772871658672894500,2.39889453125,-0.10378845036029816,-0.6013601422309875,-2.4885456562042236
1772871658682827500,2.40882763671875,0.5596425533294678,-0.03548848628997803,-1.6974040269851685
1772871658692760600,2.418760498046875,0.7204369902610779,-0.08347838371992111,-0.9004083871841431
1772871658702693400,2.428693359375,0.31841525435447693,-0.49106451869010925,-0.31922778487205505
1772871658712625400,2.43862548828125,-0.15872226655483246,-0.9625276923179626,0.11740145832300186
1772871658722558500,2.448558349609375,-0.2635331153869629,-1.0508545637130737,0.5693143010139465
1772871658732491500,2.458491455078125,0.00887791346758604,-0.6413256525993347,1.1896625757217407
1772871658742424600,2.468424560546875,0.4091603457927704,0.08983747661113739,1.8495153188705444
1772871658752357400,2.478357421875,0.6698681116104126,0.7746871709823608,2.2369577884674072
1772871658762289400,2.488289306640625,0.6203636527061462,1.1171404123306274,2.2773184776306152
1772871658772222500,2.498222412109375,0.35011565685272217,1.1059024333953857,2.000572443008423
1772871658782155500,2.508155517578125,0.037273868918418884,0.8670687675476074,1.425984501838684
1772871658792088600,2.518088623046875,-0.17436008155345917,0.2522735297679901,0.4829759895801544
1772871658802020600,2.5280205078125,-0.35353249311447144,-0.15614326298236847,-0.19236145913600922
1772871658811953700,2.53795361328125,-0.490926057100296,-0.06521575152873993,-0.1649085283279419
1772871658821886500,2.547886474609375,-0.46083205938339233,0.2184138298034668,0.3387559652328491
1772871658831819500,2.557819580078125,-0.4866679310798645,0.5145943760871887,0.9417720437049866
1772871658841752600,2.567752685546875,-0.7454531192779541,0.5576645731925964,1.2913711071014404
1772871658851684600,2.5776845703125,-1.0732251405715942,0.5362120270729065,1.4172991514205933
1772871658861617700,2.58761767578125,-1.3086494207382202,0.5858587026596069,1.3893791437149048
1772871658871550500,2.597550537109375,-1.4521650075912476,0.8219838738441467,1.4191303253173828
1772871658881483500,2.6074833984375,-1.4890881776809692,1.0732911825180054,1.3147070407867432
1772871658891415600,2.61741552734375,-1.3721457719802856,1.1760237216949463,0.998230516910553
1772871658901348600,2.6273486328125,-1.2216646671295166,1.261698603630066,0.6334546804428101
1772871658911281700,2.63728173828125,-1.0403889417648315,1.2896887063980103,0.2926534414291382
1772871658921214500,2.64721435546875,-0.8139157891273499,1.1823925971984863,-0.012320315465331078
1772871658931147500,2.6571474609375,-0.5763037800788879,1.0130510330200195,-0.2671582102775574
1772871658941079300,2.667079345703125,-0.37757793068885803,0.8454774618148804,-0.45111605525016785
1772871658951012400,2.677012451171875,-0.27935361862182617,0.6584314107894897,-0.5539268255233765
1772871658960945400,2.6869453125,-0.2532636821269989,0.45568016171455383,-0.609998345375061
1772871658970878500,2.69687841796875,-0.28615692257881165,0.27699992060661316,-0.6135395765304565
1772871658980810500,2.706810546875,-0.33642300963401794,0.14545705914497375,-0.567323625087738
1772871658990743300,2.716743408203125,-0.35861700773239136,0.12671640515327454,-0.5042724609375
1772871659000676400,2.72667626953125,-0.318592369556427,0.146148681640625,-0.44019070267677307
1772871659010609400,2.736609375,-0.27764520049095154,0.2557215094566345,-0.33349302411079407
1772871659020542500,2.74654248046875,-0.23494194447994232,0.4122794270515442,-0.14661207795143127
1772871659030474500,2.756474609375,-0.2011413723230362,0.5361561179161072,0.05366908758878708
1772871659040407300,2.7664072265625,-0.24828730523586273,0.7072075009346008,0.214791402220726
1772871659050340400,2.77634033203125,-0.3596303462982178,0.8773821592330933,0.3004826009273529
1772871659060273400,2.7862734375,-0.5102168917655945,1.034003496170044,0.3094044625759125
1772871659070205400,2.796205322265625,-0.6176600456237793,1.153425693511963,0.2625408172607422
1772871659080138500,2.806138427734375,-0.6753091812133789,1.3328098058700562,0.22673088312149048
1772871659090071600,2.816071533203125,-0.6675404906272888,1.4595398902893066,0.11518251150846481
1772871659100004400,2.82600439453125,-0.5536783933639526,1.4780552387237549,-0.123031385242939
1772871659109937400,2.8359375,-0.3601027727127075,1.3031699657440186,-0.44726139307022095
1772871659119869400,2.845869384765625,-0.16593889892101288,0.9124900698661804,-0.8613339066505432
1772871659129802500,2.855802490234375,0.01398532371968031,0.2646215260028839,-1.3709076642990112
1772871659139735600,2.865735595703125,0.10359643399715424,-0.49198704957962036,-1.8388631343841553
1772871659149668400,2.87566845703125,0.04478398337960243,-0.9777324199676514,-2.0100109577178955
1772871659159601400,2.885601318359375,-0.05500040203332901,-1.111264944076538,-1.8753540515899658
1772871659169533400,2.895533447265625,-0.07824154198169708,-0.8664379119873047,-1.8503621816635132
1772871659179466500,2.905466552734375,-0.14320217072963715,-0.38923802971839905,-1.8354644775390625
1772871659189399600,2.915399658203125,-0.12092003226280212,0.03015523962676525,-1.67246413230896
1772871659199332400,2.925332275390625,0.08952029794454575,0.19472208619117737,-1.4787178039550781
1772871659209264600,2.9352646484375,0.3461858928203583,-0.044198621064424515,-1.2434072494506836
1772871659219197400,2.945197509765625,0.5612444281578064,-0.36104634404182434,-0.8196834325790405
1772871659229130500,2.955130615234375,0.8171265125274658,-0.5124052166938782,-0.19072361290454865
1772871659239063600,2.9650634765625,1.1360951662063599,-0.4092487692832947,0.35769927501678467
1772871659248996600,2.97499658203125,1.4392409324645996,-0.11054062843322754,0.6515231728553772
1772871659258928600,2.9849287109375,1.5481514930725098,0.15977874398231506,0.7191030383110046
1772871659268861400,2.994861328125,1.3956795930862427,0.28177735209465027,0.6373791098594666
1772871659278794500,3.00479443359375,1.0583974123001099,0.2789626717567444,0.5253644585609436
1772871659288727600,3.0147275390625,0.6650546789169312,0.259528785943985,0.5296846032142639
1772871659298659600,3.02465966796875,0.3908974528312683,0.21680767834186554,0.7099340558052063
1772871659308592600,3.034592529296875,0.2894720137119293,0.09620456397533417,0.9008760452270508
1772871659318525400,3.044525390625,0.20296242833137512,-0.19598388671875,1.035129189491272
1772871659328458500,3.05445849609375,0.020489029586315155,-0.6522579193115234,1.0125572681427002
1772871659338391600,3.0643916015625,-0.2710844874382019,-0.9549078345298767,0.8217124938964844
1772871659348323600,3.074323486328125,-0.5513313412666321,-0.9174259901046753,0.640936553478241
1772871659358256600,3.084256591796875,-0.7670202255249023,-0.5413058400154114,0.6515284776687622
1772871659368189700,3.094189697265625,-0.828700602054596,0.04339674115180969,0.801866888999939
1772871659378122500,3.10412255859375,-0.7786888480186462,0.5859452486038208,1.0366694927215576
1772871659388054500,3.114054443359375,-0.6702020764350891,0.9405286312103271,1.286991000175476
1772871659397987600,3.123987548828125,-0.5537052750587463,1.0594408512115479,1.3843084573745728
1772871659407920600,3.133920654296875,-0.4961375892162323,1.0440055131912231,1.3937339782714844
1772871659417853700,3.143853759765625,-0.5265673995018005,0.9716367125511169,1.3837292194366455
1772871659427786500,3.153786376953125,-0.6474501490592957,0.8874126672744751,1.3265626430511475
1772871659437718500,3.163718505859375,-0.8276332020759583,0.8463131785392761,1.1753113269805908
1772871659447651600,3.173651611328125,-1.081742763519287,0.8027982115745544,0.9801735281944275
1772871659457584600,3.183584716796875,-1.3666772842407227,0.7542575597763062,0.7971847653388977
1772871659467517700,3.193517578125,-1.5371840000152588,0.7238474488258362,0.6100399494171143
1772871659477449500,3.203449462890625,-1.5116429328918457,0.6510019898414612,0.40110400319099426
1772871659487382500,3.213382568359375,-1.3252214193344116,0.6039767265319824,0.18506519496440887
1772871659497315300,3.2233154296875,-1.053367018699646,0.5225071310997009,-0.0876837819814682
1772871659507248600,3.23324853515625,-0.7440576553344727,0.4149090349674225,-0.47590821981430054
1772871659517181700,3.243181640625,-0.46523720026016235,0.3986208736896515,-0.7967895865440369
1772871659527113500,3.253113525390625,-0.2825302183628082,0.47520220279693604,-1.005927562713623
1772871659537046500,3.263046630859375,-0.190304696559906,0.5915139317512512,-1.0868374109268188
1772871659546979300,3.272979248046875,-0.15770334005355835,0.6579232811927795,-1.0336641073226929
1772871659556912400,3.282912353515625,-0.1508486270904541,0.6461606621742249,-0.8389505743980408
1772871659566844400,3.292844482421875,-0.10851875692605972,0.5403625965118408,-0.5157384276390076
1772871659576777500,3.302777587890625,-0.04333043098449707,0.4393712282180786,-0.1374630481004715
1772871659586710500,3.31271044921875,-0.005382248666137457,0.3949262797832489,0.2102706879377365
1772871659596643300,3.322643310546875,-0.018198445439338684,0.34831857681274414,0.44087034463882446
1772871659606576400,3.332576416015625,-0.06921635568141937,0.26823890209198,0.505243718624115
1772871659616508400,3.34250830078125,-0.1693405658006668,0.20016691088676453,0.42744773626327515
1772871659626441500,3.35244140625,-0.29515334963798523,0.16373540461063385,0.2754800319671631
1772871659636374500,3.36237451171875,-0.3947635591030121,0.17715054750442505,0.0991516187787056
1772871659646307600,3.3723076171875,-0.39969921112060547,0.21256685256958008,-0.08005674928426743
1772871659656239600,3.382239501953125,-0.3539215922355652,0.10743538290262222,-0.3187907636165619
1772871659666172400,3.39217236328125,-0.23321621119976044,-0.20078156888484955,-0.6145251989364624
1772871659676105500,3.40210546875,-0.04269925877451897,-0.591905415058136,-0.9308744072914124
1772871659686038500,3.41203857421875,0.09360451996326447,-0.9149273633956909,-1.214614987373352
1772871659695971600,3.4219716796875,0.18835100531578064,-1.0362428426742554,-1.5286717414855957
1772871659705903600,3.431903564453125,0.2535236179828644,-0.87755286693573,-1.7929497957229614
1772871659715836400,3.44183642578125,0.26798325777053833,-0.5450127124786377,-1.8124451637268066
1772871659725769500,3.45176953125,0.3061892092227936,-0.22864170372486115,-1.5462722778320312
1772871659735702500,3.46170263671875,0.42116081714630127,-0.19622915983200073,-1.1459566354751587
1772871659745634600,3.471634521484375,0.48673877120018005,-0.5468726754188538,-0.8924558758735657
1772871659755567600,3.481567626953125,0.385318398475647,-1.1654021739959717,-0.8611201047897339
1772871659765500700,3.491500732421875,0.23194189369678497,-1.7442882061004639,-0.8279789090156555
1772871659775433500,3.50143359375,0.3033052980899811,-2.104198694229126,-0.6505109071731567
1772871659785366500,3.511366455078125,0.6108465790748596,-2.055772304534912,-0.33536040782928467
1772871659795298600,3.521298583984375,1.0199589729309082,-1.519068956375122,0.07003474235534668
1772871659805231600,3.531231689453125,1.356343150138855,-0.6294823288917542,0.3691732585430145
1772871659815164700,3.54116455078125,1.4533355236053467,0.2404794543981552,0.44076380133628845
1772871659825097500,3.551097412109375,1.2144792079925537,0.7165319919586182,0.3767073154449463
1772871659835029500,3.561029541015625,0.7669315338134766,0.6355980038642883,0.34104466438293457
1772871659844962600,3.570962646484375,0.39227378368377686,0.18790705502033234,0.39179733395576477
1772871659854895600,3.5808955078125,0.15646789968013763,-0.28466928005218506,0.588471531867981
1772871659864828700,3.59082861328125,-0.009139969013631344,-0.5166404843330383,0.9819980263710022
1772871659874761500,3.600761474609375,-0.1581166684627533,-0.4374673366546631,1.4875259399414062
1772871659884693500,3.610693603515625,-0.24898052215576172,-0.22600357234477997,1.9227348566055298
1772871659894626600,3.62062646484375,-0.23302792012691498,-0.11440727114677429,2.0476667881011963
1772871659904559600,3.6305595703125,-0.2142276018857956,-0.19812053442001343,1.7626522779464722
1772871659914492700,3.64049267578125,-0.31803494691848755,-0.30087995529174805,1.3127421140670776
1772871659924424400,3.650424560546875,-0.5127016305923462,-0.16151592135429382,0.9539975523948669
1772871659934357500,3.660357421875,-0.642560601234436,0.2308896780014038,0.7877212166786194
1772871659944290600,3.67029052734375,-0.6767014861106873,0.6668879985809326,0.731702446937561
1772871659954223600,3.6802236328125,-0.7051182389259338,0.9976462125778198,0.6695168018341064
1772871659964156700,3.69015673828125,-0.7564194798469543,1.1871041059494019,0.5742195844650269
1772871659974088400,3.70008837890625,-0.8398062586784363,1.201810598373413,0.4316217005252838
1772871659984021500,3.710021484375,-0.9113973379135132,1.16245698928833,0.30667898058891296
1772871659993954300,3.719954345703125,-0.9185122847557068,1.1167502403259277,0.2761940360069275
1772871660003887400,3.729887451171875,-0.8928812146186829,1.0275263786315918,0.2762233316898346
1772871660013819400,3.7398193359375,-0.8542752265930176,0.8769480586051941,0.2288488894701004
1772871660023752400,3.74975244140625,-0.8082835078239441,0.700027346611023,0.16684730350971222
1772871660033685500,3.759685546875,-0.6627044677734375,0.5124039053916931,0.03400297462940216
1772871660043618600,3.76961865234375,-0.6156847476959229,0.34973883628845215,-0.1456778347492218
1772871660053550600,3.779550537109375,-0.67672199010849,0.17333370447158813,-0.35679513216018677
1772871660063483400,3.7894833984375,-0.7306646108627319,0.00887871254235506,-0.6063737869262695
1772871660073416400,3.79941650390625,-0.6860707998275757,-0.07888788729906082,-0.8040898442268372
1772871660083349500,3.809349609375,-0.6179329752922058,-0.046419695019721985,-0.873449444770813
1772871660093282600,3.819282470703125,-0.5334482192993164,0.030912907794117928,-0.8569080233573914
1772871660103214600,3.829214599609375,-0.4040859639644623,0.1622469574213028,-0.7287705540657043
1772871660113147400,3.8391474609375,-0.19295987486839294,0.294270783662796,-0.5667172074317932
1772871660123080400,3.84908056640625,-0.00797163974493742,0.49340012669563293,-0.3374864161014557
1772871660133013500,3.859013427734375,0.02888571098446846,0.6586365103721619,0.00009134642459684983
1772871660142945500,3.868945556640625,0.05269783362746239,0.7293891906738281,0.13482332229614258
1772871660152878600,3.878878662109375,0.011071027256548405,0.7155951261520386,0.09570176154375076
1772871660162811400,3.888811279296875,-0.14119040966033936,0.6762450337409973,0.0043595945462584496
1772871660172744400,3.898744384765625,-0.398093044757843,0.7065715193748474,-0.04411925747990608
1772871660182677500,3.908677490234375,-0.6299111247062683,0.7770121097564697,-0.10108160972595215
1772871660192609500,3.918609619140625,-0.7145828604698181,0.6949747800827026,-0.2706719636917114
1772871660202542600,3.92854248046875,-0.6879714727401733,0.43198361992836,-0.57203608751297
1772871660212475600,3.9384755859375,-0.5212751626968384,0.12977904081344604,-0.9518108367919922
1772871660222408400,3.948408447265625,-0.2108248919248581,-0.35685160756111145,-1.4221104383468628
1772871660232340700,3.9583408203125,0.061518486589193344,-0.9133667945861816,-1.8327853679656982
1772871660242273800,3.968273681640625,0.164565771818161,-1.478219985961914,-2.0412685871124268
1772871660252204500,3.97820458984375,0.08134545385837555,-1.891847014427185,-2.031447172164917
1772871660262137600,3.9881376953125,-0.1225392296910286,-1.933321475982666,-1.8152345418930054
1772871660272070700,3.998070556640625,-0.24154764413833618,-1.4307821989059448,-1.4583603143692017
1772871660282002700,4.008002685546875,-0.05179528519511223,-0.734476625919342,-1.1186411380767822
1772871660291935700,4.017935791015625,0.35401666164398193,-0.15883173048496246,-0.7935953736305237
1772871660301868800,4.027868896484375,0.6865565180778503,0.1344587355852127,-0.49065732955932617
1772871660311801600,4.037801513671875,0.7864823341369629,0.06087213754653931,-0.2876155376434326
1772871660321734700,4.047734619140625,0.6797209978103638,-0.24997654557228088,-0.19504618644714355
1772871660331666700,4.057666748046875,0.5264819264411926,-0.47828802466392517,-0.1169508546590805
1772871660341599700,4.067599853515625,0.531397819519043,-0.4956638216972351,-0.013514476828277111
1772871660351532800,4.07753271484375,0.6657955646514893,-0.27188023924827576,0.05967824533581734
1772871660361465600,4.087465576171875,0.8112718462944031,0.1096055880188942,0.08644194900989532
1772871660371397600,4.097397705078125,0.8602303266525269,0.6192666888237,0.10606039315462112
1772871660381330700,4.10733056640625,0.7519725561141968,1.0920926332473755,0.18607772886753082
1772871660391263700,4.117263671875,0.5372594594955444,1.3139338493347168,0.3410297632217407
1772871660401196800,4.12719677734375,0.24800820648670197,1.3310494422912598,0.538786768913269
1772871660411129600,4.137129638671875,-0.12504100799560547,1.2753138542175293,0.8448976874351501
1772871660421061600,4.1470615234375,-0.483051598072052,1.168744444847107,1.2286211252212524
1772871660430994700,4.15699462890625,-0.7133908271789551,1.0530903339385986,1.5964432954788208
1772871660440927700,4.166927734375,-0.8372235298156738,0.9106119871139526,1.890789270401001
1772871660450860800,4.17686083984375,-0.9071666598320007,0.7303098440170288,2.0619122982025146
1772871660460792800,4.186792724609375,-0.9523692727088928,0.4279974102973938,1.9794559478759766
1772871660470726000,4.196725830078125,-0.945914626121521,-0.006682670209556818,1.5890024900436401
1772871660480658700,4.20665869140625,-0.8911547064781189,-0.32780930399894714,1.065625786781311
1772871660490591700,4.216591796875,-0.7886373400688171,-0.2905311584472656,0.690092921257019
1772871660500524800,4.22652490234375,-0.6089549660682678,0.09259997308254242,0.5892443656921387
1772871660510456800,4.236456787109375,-0.3737261891365051,0.5553713440895081,0.5459898114204407
1772871660520390000,4.246389892578125,-0.15250006318092346,0.8478410243988037,0.35893258452415466
1772871660530322700,4.25632275390625,-0.031857531517744064,1.0022602081298828,0.11279286444187164
1772871660540255700,4.266255859375,-0.015956062823534012,1.0614105463027954,-0.08048579096794128
1772871660550187800,4.276187744140625,-0.08402033150196075,0.96040940284729,-0.22868724167346954
1772871660560120800,4.286120849609375,-0.23163801431655884,0.7603881359100342,-0.2962798774242401
1772871660570054000,4.296053955078125,-0.320726603269577,0.48607137799263,-0.299244225025177
1772871660579986700,4.305986572265625,-0.25594282150268555,0.154741108417511,-0.36697134375572205
1772871660589918700,4.315918701171875,-0.15586310625076294,-0.2065390646457672,-0.44769415259361267
1772871660599851800,4.325851806640625,-0.07673285901546478,-0.5685931444168091,-0.5306353569030762
1772871660609784800,4.335784912109375,0.022958844900131226,-0.881898045539856,-0.6351482272148132
1772871660619718000,4.3457177734375,0.11978818476200104,-1.088687777519226,-0.7012542486190796
1772871660629651700,4.355651611328125,0.18809133768081665,-1.1569839715957642,-0.6703112721443176
1772871660639584800,4.365584716796875,0.23183509707450867,-1.0995681285858154,-0.5217350721359253
1772871660649516800,4.375516845703125,0.21466782689094543,-0.892562985420227,-0.30037766695022583
1772871660659449900,4.385449951171875,0.20525647699832916,-0.5849190950393677,-0.04294214025139809
1772871660669383000,4.3953828125,0.22089669108390808,-0.22538065910339355,0.1868303418159485
1772871660679315700,4.405315673828125,0.27090153098106384,0.09038928151130676,0.3139139711856842
1772871660689247700,4.415247802734375,0.3249863386154175,0.278959184885025,0.3416534662246704
1772871660699180800,4.425180908203125,0.3486000597476959,0.35648036003112793,0.29891666769981384
1772871660709113900,4.43511376953125,0.32351255416870117,0.41256704926490784,0.24523425102233887
1772871660719047000,4.445046875,0.2117639183998108,0.47735539078712463,0.22629092633724213
1772871660728978700,4.454978759765625,-0.014134993776679039,0.5774862170219421,0.2537537217140198
1772871660738911700,4.464911865234375,-0.2486545592546463,0.6607217192649841,0.23409825563430786
1772871660748844500,4.474844482421875,-0.4412386417388916,0.660278856754303,0.10952143371105194
1772871660758777600,4.484777587890625,-0.5840829014778137,0.5282800793647766,-0.1583494246006012
1772871660768709600,4.494709716796875,-0.6113629937171936,0.257140189409256,-0.5757221579551697
1772871660778642700,4.504642578125,-0.43212053179740906,-0.2820308804512024,-1.1987271308898926
1772871660788575700,4.51457568359375,-0.21953874826431274,-1.197856068611145,-1.9805268049240112
1772871660798508500,4.524508544921875,-0.23393020033836365,-2.291064739227295,-2.7780818939208984
1772871660808441600,4.534441650390625,-0.4550327658653259,-3.1409854888916016,-3.4194295406341553
1772871660818373600,4.54437353515625,-0.6581568717956543,-3.3181374073028564,-3.3867483139038086
1772871660828306700,4.554306640625,-0.4710412919521332,-2.886859178543091,-2.4947903156280518
1772871660838239700,4.56423974609375,0.044565871357917786,-2.0442075729370117,-1.1152585744857788
1772871660848172500,4.574172607421875,0.41374364495277405,-1.1633577346801758,0.33059656620025635
1772871660858104800,4.584104736328125,0.44364163279533386,-0.3991633653640747,1.186953067779541
1772871660868037600,4.59403759765625,0.3730928897857666,0.062010373920202255,1.3317458629608154
1772871660877970700,4.603970703125,0.37411075830459595,0.2658809423446655,1.0132890939712524
1772871660887903700,4.61390380859375,0.4770507216453552,0.43178868293762207,0.6926162838935852
1772871660897836800,4.6238369140625,0.6479598879814148,0.6231144666671753,0.5623501539230347
1772871660907768800,4.633768798828125,0.8524293899536133,0.779005229473114,0.5816341042518616
1772871660917701600,4.64370166015625,0.9824134707450867,0.8291656374931335,0.68119877576828
1772871660927634700,4.653634765625,0.9723222255706787,0.7859078645706177,0.855288565158844
1772871660937567700,4.663567626953125,0.8854328989982605,0.7401899099349976,1.036842942237854
1772871660947499800,4.673499755859375,0.7794854044914246,0.7703211903572083,1.2342102527618408
1772871660957432800,4.683432861328125,0.6715554594993591,0.8517638444900513,1.4519211053848267
1772871660967365600,4.69336572265625,0.5086986422538757,0.9906378388404846,1.6807670593261719
1772871660977298700,4.703298583984375,0.22196808457374573,1.1543681621551514,1.9638879299163818
1772871660987231700,4.713231689453125,-0.07111332565546036,1.0990031957626343,2.1887760162353516
1772871660997163800,4.723163818359375,-0.28322264552116394,0.747238278388977,2.0905425548553467
1772871661007096800,4.733096923828125,-0.531832754611969,0.30790963768959045,1.8360143899917603
1772871661017030000,4.74302978515625,-0.7896584272384644,-0.009710151702165604,1.5877721309661865
1772871661026962700,4.752962646484375,-0.8417288064956665,-0.09995376318693161,1.3417510986328125
1772871661036894700,4.762894775390625,-0.7401307821273804,0.06552228331565857,1.2331801652908325
1772871661046827800,4.772827880859375,-0.5780329704284668,0.3042549788951874,1.2118690013885498
1772871661056760800,4.7827607421875,-0.3996736407279968,0.42894282937049866,0.9252527356147766
1772871661066694000,4.79269384765625,-0.40277808904647827,0.7567664980888367,0.8442007303237915
1772871661076626000,4.8026259765625,-0.425776869058609,1.0386078357696533,0.8666216135025024
1772871661086558700,4.812558837890625,-0.48887914419174194,1.2155897617340088,0.670436680316925
1772871661096491800,4.82249169921875,-0.6046025156974792,1.2214542627334595,0.24927161633968353
1772871661106424800,4.8324248046875,-0.702789843082428,1.218112826347351,-0.12122922390699387
1772871661116356600,4.842356689453125,-0.6908029317855835,1.2395923137664795,-0.4221291244029999
1772871661126290000,4.8522900390625,-0.6187889575958252,1.2834961414337158,-0.5904648900032043
1772871661136222700,4.86222265625,-0.48781973123550415,1.3030024766921997,-0.5874853134155273
1772871661146155800,4.87215576171875,-0.3800400197505951,1.1728484630584717,-0.6547240614891052
1772871661156088800,4.8820888671875,-0.3645004630088806,0.9480009078979492,-0.7749452590942383
1772871661166020600,4.8920205078125,-0.39975646138191223,0.7529025077819824,-0.8363215327262878
1772871661175953700,4.90195361328125,-0.4670473337173462,0.6706846356391907,-0.8066954612731934
1772871661185886700,4.91188671875,-0.5641241073608398,0.690982460975647,-0.6905478239059448
1772871661195819500,4.921819580078125,-0.636895477771759,0.7638561129570007,-0.5424020290374756
1772871661205751600,4.93175146484375,-0.6301124095916748,0.7812989950180054,-0.42402851581573486
1772871661215684600,4.9416845703125,-0.5842000842094421,0.7653072476387024,-0.288819819688797
1772871661225617700,4.95161767578125,-0.5432062745094299,0.7478244304656982,-0.10829291492700577
1772871661235550700,4.96155078125,-0.4889819324016571,0.7548143863677979,0.060438841581344604
1772871661245482800,4.971482666015625,-0.41984841227531433,0.7976812124252319,0.17033737897872925
1772871661255415600,4.98141552734375,-0.3594748079776764,0.8595786690711975,0.2437298446893692
1772871661265348600,4.9913486328125,-0.31851139664649963,0.9709057211875916,0.2812950611114502
1772871661275281700,5.00128173828125,-0.2619253396987915,1.1641758680343628,0.25062477588653564
1772871661285214700,5.011214599609375,-0.2725484371185303,1.488234043121338,0.18378980457782745
1772871661295146800,5.021146728515625,-0.3396238684654236,1.6764236688613892,-0.0012860405258834362
1772871661305079800,5.031079833984375,-0.4214535057544708,1.6220089197158813,-0.2966516315937042
1772871661315012600,5.0410126953125,-0.4935426115989685,1.2424205541610718,-0.6481556296348572
1772871661324945700,5.050945556640625,-0.523247241973877,0.7072005867958069,-0.8779091835021973
1772871661334877700,5.060877685546875,-0.547007143497467,0.10398738831281662,-0.8356496095657349
1772871661344810800,5.070810791015625,-0.5754097700119019,-0.7179397344589233,-0.7194857001304626
1772871661354743800,5.080743896484375,-0.592662513256073,-1.6906012296676636,-0.8372323513031006
1772871661364676600,5.090676513671875,-0.6830416917800903,-2.598411798477173,-1.2816276550292969
1772871661374608600,5.100608642578125,-0.781093418598175,-3.158919334411621,-1.8591433763504028
1772871661384541700,5.110541748046875,-0.6414108872413635,-3.224707841873169,-2.181459903717041
1772871661394474800,5.120474853515625,-0.16268211603164673,-2.6899092197418213,-1.8260984420776367
1772871661404407800,5.13040771484375,0.5970269441604614,-1.850815773010254,-0.9298525452613831
1772871661414340600,5.140340576171875,1.3531219959259033,-0.9161050319671631,0.19401554763317108
1772871661424272600,5.150272705078125,1.8014620542526245,-0.03709011152386665,1.1724345684051514
1772871661434205400,5.160205322265625,1.8931543827056885,0.6378944516181946,1.6948479413986206
1772871661444138800,5.170138671875,1.7017383575439453,1.0912654399871826,1.7748093605041504
1772871661454071800,5.18007177734375,1.3736568689346313,1.205411672592163,1.5890322923660278
1772871661464003600,5.190003662109375,1.0855363607406616,1.0185272693634033,1.2925630807876587
1772871661473936600,5.1999365234375,0.9613001942634583,0.599455714225769,0.9653192162513733
1772871661483869400,5.209869384765625,1.011760950088501,-0.23901072144508362,0.47371751070022583
1772871661493802500,5.219802490234375,1.0181416273117065,-1.0967986583709717,0.134921595454216
1772871661503735600,5.229735595703125,0.8667545318603516,-1.500327467918396,0.33066314458847046
1772871661513667600,5.23966748046875,0.765781581401825,-1.5833083391189575,0.7251654267311096
1772871661523600600,5.2496005859375,0.6647716164588928,-1.4612170457839966,1.139299988746643
1772871661533533700,5.25953369140625,0.45773640275001526,-1.2896722555160522,1.4656696319580078
1772871661543466500,5.269466552734375,0.19540224969387054,-1.1598420143127441,1.6506778001785278
1772871661553398500,5.2793984375,-0.0702480673789978,-1.0433505773544312,1.6738721132278442
1772871661563331600,5.28933154296875,-0.32249388098716736,-0.8807904720306396,1.5535491704940796
1772871661573264600,5.2992646484375,-0.5070168375968933,-0.5989686250686646,1.422857403755188
1772871661583197700,5.30919775390625,-0.49525102972984314,-0.32961252331733704,1.1195734739303589
1772871661593129700,5.319129638671875,-0.36229029297828674,-0.03999854996800423,0.7232756614685059
1772871661603062500,5.3290625,-0.33111852407455444,0.21780796349048615,0.2727449834346771
1772871661612995600,5.33899560546875,-0.4286664128303528,0.4398317039012909,-0.0865175798535347
1772871661622928600,5.3489287109375,-0.5074599981307983,0.5571056008338928,-0.3618306517601013
1772871661632861700,5.35886181640625,-0.555377185344696,0.590787410736084,-0.5682205557823181
1772871661642793700,5.368793701171875,-0.5913367867469788,0.5531880855560303,-0.7487980723381042
1772871661652726500,5.3787265625,-0.5862680077552795,0.42487964034080505,-0.8766023516654968
1772871661662659600,5.38865966796875,-0.5190748572349548,0.2627546489238739,-0.9435867071151733
1772871661672592600,5.398592529296875,-0.4105891287326813,0.11698281019926071,-0.9644140005111694
1772871661682524700,5.408524658203125,-0.2823358178138733,-0.05097583308815956,-0.9747380018234253
1772871661692457700,5.418457763671875,-0.16430318355560303,-0.18436771631240845,-0.9562023878097534
1772871661702390800,5.428390869140625,-0.07603271305561066,-0.261991411447525,-0.8967097401618958
1772871661712323600,5.438323486328125,-0.011480354703962803,-0.265213280916214,-0.8305163383483887
1772871661722255600,5.448255615234375,0.043347738683223724,-0.16860312223434448,-0.7407369613647461
1772871661732188700,5.458188720703125,0.053823016583919525,-0.05228530988097191,-0.6392454504966736
1772871661742121700,5.468121826171875,0.03093261644244194,0.0290518905967474,-0.5513675808906555
1772871661752054800,5.4780546875,0.011759454384446144,0.09965015947818756,-0.4441705346107483
1772871661761986800,5.48798681640625,0.003754524514079094,0.1620570868253708,-0.32510805130004883
1772871661771919600,5.497919677734375,0.00458596320822835,0.21700847148895264,-0.22463710606098175
1772871661781852700,5.507852783203125,0.012573049403727055,0.266371488571167,-0.15378956496715546
1772871661791785700,5.51778564453125,0.027405524626374245,0.31380027532577515,-0.11141999810934067
1772871661801718800,5.52771875,0.058514975011348724,0.3313731253147125,-0.07763354480266571
1772871661811650800,5.53765087890625,0.08350687474012375,0.33095821738243103,-0.02923538349568844
1772871661821584000,5.547583984375,0.07044140994548798,0.3553125560283661,0.0046325684525072575
1772871661831516700,5.5575166015625,0.07376024127006531,0.43673470616340637,0.02665957435965538
1772871661841449700,5.56744970703125,0.09437230974435806,0.6297268271446228,0.08112893998622894
1772871661851381500,5.577381591796875,0.0680466964840889,1.0014774799346924,0.217464417219162
1772871661861314600,5.587314453125,0.026068884879350662,1.2445933818817139,0.21801382303237915
1772871661871247600,5.59724755859375,0.0013696637470275164,1.103049635887146,-0.07773074507713318
1772871661881180700,5.6071806640625,0.06364662200212479,0.6139196157455444,-0.5860211253166199
1772871661891112400,5.617112548828125,0.28751593828201294,-0.11906327307224274,-1.1621947288513184
1772871661901045500,5.62704541015625,0.6085999608039856,-1.0035799741744995,-1.5911927223205566
1772871661910978600,5.636978515625,0.7726943492889404,-1.9435513019561768,-1.8545089960098267
1772871661920911600,5.64691162109375,0.6033101081848145,-2.471982002258301,-1.8839728832244873
1772871661930843600,5.65684375,0.1874878704547882,-2.6270413398742676,-1.8365662097930908
1772871661940776700,5.666776611328125,-0.23503248393535614,-2.0311598777770996,-1.6072081327438354
1772871661950709500,5.67670947265625,-0.15399861335754395,-1.3506474494934082,-1.0615804195404053
1772871661960642600,5.686642578125,0.31864723563194275,-0.7775330543518066,-0.3904644250869751
1772871661970575600,5.69657568359375,0.6812999844551086,-0.3710419833660126,0.38829633593559265
1772871661980507600,5.706507568359375,0.9024153351783752,-0.11257554590702057,1.2175577878952026
1772871661990440700,5.716440673828125,1.1386491060256958,0.09551986306905746,1.8412797451019287
1772871662000373500,5.72637353515625,1.3561534881591797,0.45887356996536255,2.1210644245147705
1772871662010306600,5.736306640625,1.5359901189804077,0.9587438702583313,2.1719558238983154
1772871662020238600,5.746238525390625,1.6575738191604614,1.3369561433792114,2.054353952407837
1772871662030171600,5.756171630859375,1.692583441734314,1.127344012260437,1.583046555519104
1772871662040104700,5.766104736328125,1.5782837867736816,-0.009936519898474216,0.4064289927482605
1772871662050037500,5.77603759765625,1.1663625240325928,-1.0477455854415894,-0.24768570065498352
1772871662059969500,5.785969482421875,0.5201534628868103,-1.6748119592666626,-0.13421505689620972
1772871662069902600,5.795902587890625,0.22225943207740784,-2.0299532413482666,0.014551511965692043
1772871662079835600,5.805835693359375,0.11067644506692886,-2.1829159259796143,0.22016938030719757
1772871662089768700,5.815768798828125,0.04605058208107948,-2.178563117980957,0.3969002068042755
1772871662099700700,5.82570068359375,0.0724417120218277,-2.001607656478882,0.5270206928253174
1772871662109633800,5.8356337890625,0.22560623288154602,-1.7766344547271729,0.6052451729774475
1772871662119566600,5.845566650390625,0.2831787168979645,-1.3160231113433838,0.8192040324211121
1772871662129499600,5.855499755859375,0.3566553294658661,-0.8881663680076599,0.9741219878196716
1772871662139432700,5.8654326171875,0.4689757525920868,-0.5283658504486084,0.7782267928123474
1772871662149364700,5.87536474609375,0.3816642761230469,-0.15767990052700043,0.43335410952568054
1772871662159297800,5.8852978515625,0.13844336569309235,0.12238290160894394,0.031444210559129715
1772871662169230600,5.895230712890625,-0.09316616505384445,0.30603155493736267,-0.3436710834503174
1772871662179163600,5.90516357421875,-0.24562467634677887,0.35890889167785645,-0.6315034031867981
1772871662189095700,5.915095703125,-0.34270063042640686,0.29661914706230164,-0.844011127948761
1772871662199028700,5.92502880859375,-0.37057167291641235,0.09229157865047455,-0.996584951877594
1772871662208961800,5.9349619140625,-0.318520188331604,-0.2113705724477768,-1.0871065855026245
1772871662218894800,5.944894775390625,-0.24572481215000153,-0.44535961747169495,-1.0429381132125854
1772871662228827000,5.954826904296875,-0.09963258355855942,-0.6084662675857544,-0.9500877857208252
1772871662238759700,5.964759765625,0.1407909393310547,-0.7937530279159546,-0.7066977620124817
1772871662248692700,5.974692626953125,0.3527926802635193,-0.8161869645118713,-0.527428925037384
1772871662258625800,5.984625732421875,0.5019147992134094,-0.7487767338752747,-0.4524223208427429
1772871662268557800,5.994557861328125,0.5235580205917358,-0.6621119379997253,-0.3537255823612213
1772871662278491000,6.004490966796875,0.4175167977809906,-0.5273394584655762,-0.264238566160202
1772871662288423700,6.014423583984375,0.3058648407459259,-0.35008156299591064,-0.17200158536434174
1772871662298356700,6.024356689453125,0.24366672337055206,-0.1423342376947403,-0.08754183351993561
1772871662308289800,6.034289794921875,0.19452686607837677,-0.0046815709210932255,0.03423786535859108
1772871662318221800,6.044221923828125,0.1959412693977356,0.10896056890487671,0.19930964708328247
1772871662328155000,6.05415478515625,0.2770979106426239,0.23509374260902405,0.34267744421958923
1772871662338087700,6.064087646484375,0.41123467683792114,0.34406495094299316,0.44866061210632324
1772871662348020700,6.074020751953125,0.5109556913375854,0.479645699262619,0.48896434903144836
1772871662357952800,6.083952880859375,0.5944079756736755,0.6899627447128296,0.47121119499206543
1772871662367885800,6.0938857421875,0.7314670085906982,0.930090069770813,0.3463784456253052
1772871662377819000,6.10381884765625,0.7873507738113403,1.1392619609832764,0.10294342786073685
1772871662387752000,6.113751953125,0.6613624691963196,1.3677531480789185,-0.09256482124328613
1772871662397683700,6.12368359375,0.4748229682445526,1.503544807434082,-0.42131075263023376
1772871662407616500,6.133616455078125,0.30002346634864807,1.514089584350586,-0.799105703830719
1772871662417549800,6.1435498046875,0.08617882430553436,1.2752717733383179,-1.015344262123108
1772871662427483000,6.15348291015625,0.033546242862939835,0.8060688376426697,-0.9685743451118469
1772871662437414700,6.16341455078125,0.21126191318035126,0.12313231825828552,-0.6172975897789001
1772871662447347700,6.17334765625,0.40857285261154175,-0.7553587555885315,-0.43647825717926025
1772871662457280500,6.183280517578125,0.45110833644866943,-1.8777040243148804,-0.8448399305343628
1772871662467213600,6.193213623046875,0.2727058231830597,-2.674503803253174,-1.5306153297424316
1772871662477146600,6.203146728515625,0.052863746881484985,-2.866133689880371,-2.1562023162841797
1772871662487078700,6.21307861328125,0.014735803008079529,-3.1333768367767334,-2.659902334213257
1772871662497011700,6.22301171875,0.13545502722263336,-3.338372230529785,-2.470684051513672
1772871662506944800,6.23294482421875,0.30922815203666687,-3.166066884994507,-1.2630627155303955
1772871662516877600,6.242877685546875,0.747185230255127,-2.7123162746429443,0.36884674429893494
1772871662526809600,6.2528095703125,1.298364520072937,-1.7546132802963257,1.6423439979553223
1772871662536742700,6.26274267578125,1.6947458982467651,-0.48221778869628906,2.219581127166748
1772871662546675700,6.27267578125,1.7897707223892212,0.7943665981292725,2.242600440979004
1772871662556608800,6.28260888671875,1.6429722309112549,1.8209747076034546,2.018286943435669
1772871662566540800,6.292540771484375,1.4045213460922241,2.2792234420776367,1.6494882106781006
1772871662576473600,6.3024736328125,1.2707581520080566,1.5425764322280884,0.6236404180526733
1772871662586406700,6.31240673828125,1.051193118095398,0.0825239047408104,-0.664086103439331
1772871662596339700,6.322339599609375,0.5479648113250732,-0.9402857422828674,-0.8995833396911621
1772871662606271700,6.332271728515625,0.07624177634716034,-1.488081693649292,-0.4971189498901367
1772871662616204800,6.342204833984375,-0.045036450028419495,-1.4589438438415527,0.11541154980659485
1772871662626137900,6.352137939453125,-0.0987742468714714,-1.2086037397384644,0.7341977953910828
1772871662636070700,6.362070556640625,-0.12057728320360184,-0.962295413017273,1.1855671405792236
1772871662646002700,6.372002685546875,-0.1771950125694275,-0.6435714960098267,1.4247759580612183
1772871662655935700,6.381935791015625,-0.11136274039745331,-0.3211657702922821,1.5753223896026611
1772871662665868800,6.391868896484375,0.08448345959186554,-0.09613612294197083,1.678007960319519
1772871662675801900,6.4018017578125,0.08887980133295059,0.11449088901281357,1.8173496723175049
1772871662685734700,6.411734619140625,-0.12273231148719788,0.3210690915584564,2.151339292526245
1772871662695666700,6.421666748046875,-0.24288801848888397,0.2586512565612793,2.2350428104400635
1772871662705599700,6.431599853515625,-0.31699126958847046,0.12343937903642654,1.9600777626037598
1772871662715532800,6.44153271484375,-0.4503956735134125,0.21195459365844727,1.5462044477462769
1772871662725465900,6.4514658203125,-0.5326692461967468,0.450842022895813,1.1166671514511108
1772871662735398000,6.46139794921875,-0.5024612545967102,0.7522441744804382,0.6650288701057434
1772871662745330700,6.47133056640625,-0.5053420066833496,1.0036334991455078,0.29945114254951477
1772871662755263700,6.481263671875,-0.5805770754814148,0.9839296340942383,-0.060078516602516174
1772871662765196800,6.49119677734375,-0.5651296973228455,0.7677903771400452,-0.3583648204803467
1772871662775128800,6.50112890625,-0.4097859263420105,0.42878037691116333,-0.515555739402771
1772871662785062000,6.511061767578125,-0.1803189069032669,0.007004113402217627,-0.5531705021858215
1772871662794995000,6.520994873046875,-0.04014422371983528,-0.49487391114234924,-0.5977632999420166
1772871662804927700,6.530927734375,-0.05786889046430588,-1.0006340742111206,-0.7268751859664917
1772871662814859500,6.540859619140625,-0.09115307778120041,-1.4379339218139648,-0.8763943910598755
1772871662824792600,6.55079248046875,-0.058888617902994156,-1.5449495315551758,-0.9765183329582214
1772871662834725600,6.5607255859375,0.03380589932203293,-1.3620476722717285,-1.0203752517700195
1772871662844658700,6.57065869140625,0.19430476427078247,-1.0305969715118408,-1.0085177421569824
1772871662854590700,6.5805908203125,0.37754809856414795,-0.6724974513053894,-0.8583943247795105
1772871662864523800,6.590523681640625,0.5237085223197937,-0.34722986817359924,-0.6104721426963806
1772871662874456600,6.60045654296875,0.6178235411643982,-0.11624325066804886,-0.31754520535469055
1772871662884389600,6.6103896484375,0.6714409589767456,0.008803078904747963,-0.011997540481388569
1772871662894322700,6.62032275390625,0.6717602610588074,0.14253558218479156,0.23687513172626495
1772871662904254700,6.630254638671875,0.585558295249939,0.24621643126010895,0.38954082131385803
1772871662914187800,6.640187744140625,0.3709602355957031,0.3626343905925751,0.47971734404563904
1772871662924120600,6.65012060546875,0.11531008034944534,0.44523391127586365,0.41358864307403564
1772871662934053600,6.6600537109375,-0.11145568639039993,0.3637494444847107,0.07743992656469345
1772871662943985700,6.669985595703125,-0.307277113199234,0.2749711275100708,-0.22071613371372223
1772871662953918700,6.679918701171875,-0.4940035939216614,0.18075379729270935,-0.43732646107673645
1772871662963851800,6.689851806640625,-0.23020896315574646,0.044197820127010345,-0.738210916519165
1772871662973784600,6.69978466796875,-0.02401425689458847,0.17833298444747925,-0.9450863599777222
1772871662983716600,6.709716552734375,0.04130056872963905,0.21198949217796326,-1.3488469123840332
1772871662993649700,6.719649658203125,0.11783795058727264,0.11825686693191528,-1.8310201168060303
1772871663003582700,6.729582763671875,0.22434495389461517,-0.06041673943400383,-2.37197208404541
1772871663013515800,6.739515869140625,0.21044139564037323,-0.6771108508110046,-3.020925760269165
1772871663023447800,6.74944775390625,-0.14411403238773346,-1.1831390857696533,-2.9575393199920654
1772871663033380900,6.759380859375,-0.5078738927841187,-1.709019422531128,-1.7497106790542603
1772871663043313700,6.769313720703125,-0.5684157609939575,-1.8390424251556396,-0.06524877995252609
1772871663053246700,6.779246826171875,-0.3529846966266632,-1.37889564037323,1.526939868927002
1772871663063178800,6.7891787109375,0.09670257568359375,-0.4743574559688568,2.625720977783203
1772871663073111800,6.79911181640625,0.5788516402244568,0.6807814836502075,2.9915735721588135
1772871663083044900,6.809044921875,0.8584779500961304,1.718947410583496,2.814535617828369
1772871663092977700,6.818977783203125,0.8475422263145447,2.3388328552246094,2.3720803260803223
1772871663102909700,6.82890966796875,0.6826028227806091,2.294015407562256,1.7480219602584839
1772871663112842800,6.8388427734375,0.531982421875,1.4242188930511475,0.8409743309020996
1772871663122775800,6.84877587890625,0.4631929397583008,0.052077315747737885,-0.20779074728488922
1772871663132708900,6.858708984375,0.39316779375076294,-0.9543794393539429,-0.5568315386772156
1772871663142641700,6.8686416015625,0.4476928114891052,-1.3657315969467163,-0.23526817560195923
1772871663152573700,6.87857373046875,0.5729687213897705,-1.2245289087295532,0.3519953191280365
1772871663162506800,6.8885068359375,0.5906092524528503,-0.8930591344833374,0.8679212927818298
1772871663172439800,6.898439697265625,0.46675997972488403,-0.5593831539154053,1.0279828310012817
1772871663182372900,6.908372802734375,0.2425636351108551,-0.35989826917648315,0.8202722668647766
1772871663192304600,6.9183046875,-0.04466493800282478,-0.2933975160121918,0.4051682651042938
1772871663202238000,6.928238037109375,-0.3173300325870514,-0.26703542470932007,-0.020847758278250694
1772871663212170800,6.938170654296875,-0.4964638352394104,-0.1952589750289917,-0.3018471896648407
1772871663222103800,6.948103759765625,-0.5365723371505737,-0.09347935020923615,-0.4524068832397461
1772871663232035600,6.95803564453125,-0.414459228515625,-0.04192907363176346,-0.45299091935157776
1772871663241968400,6.967968505859375,-0.16794666647911072,-0.04121108725667,-0.25723180174827576
1772871663251901400,6.9779013671875,0.06503865122795105,-0.07798720896244049,0.0968485176563263
1772871663261834500,6.98783447265625,0.24310985207557678,-0.07659544050693512,0.5036509037017822
1772871663271766500,6.9977666015625,0.3491300344467163,-0.04820987209677696,0.862169623374939
1772871663281699300,7.00769921875,0.36330708861351013,0.049696184694767,1.1083834171295166
1772871663291632400,7.01763232421875,0.29085633158683777,0.18775151669979095,1.190688133239746
1772871663301565400,7.0275654296875,0.1614951491355896,0.3722324073314667,1.1240113973617554
1772871663311497500,7.03749755859375,-0.012299010530114174,0.6484901309013367,0.9649428725242615
1772871663321430500,7.047430419921875,-0.17514704167842865,0.9527863264083862,0.7761013507843018
1772871663331363300,7.05736328125,-0.2931402623653412,1.2055203914642334,0.5744107961654663
1772871663341296400,7.06729638671875,-0.2973901331424713,1.272966742515564,0.3565432131290436
1772871663351228400,7.077228515625,-0.25010010600090027,0.9191093444824219,-0.11928245425224304
1772871663361161500,7.087161376953125,-0.2169855684041977,0.381465345621109,-0.5140907764434814
1772871663371094500,7.097094482421875,-0.0955805853009224,0.10370029509067535,-0.5882302522659302
1772871663381027600,7.107027587890625,0.16972139477729797,-0.03410444036126137,-0.6862481236457825
1772871663390959600,7.116959716796875,0.32841116189956665,-0.05985827371478081,-0.8211875557899475
1772871663400892400,7.126892333984375,0.2764244079589844,0.08932401984930038,-0.9000131487846375
1772871663410825500,7.136825439453125,0.1779758632183075,0.29075512290000916,-0.9508885741233826
1772871663420758500,7.146758544921875,0.061506237834692,0.481815904378891,-0.9359114766120911
1772871663430691600,7.156691650390625,-0.10108666867017746,0.5962338447570801,-0.8660575747489929
1772871663440623400,7.166623291015625,-0.29148030281066895,0.5554198026657104,-0.7843954563140869
1772871663450556200,7.17655615234375,-0.4145077168941498,0.39146628975868225,-0.6760610342025757
1772871663460489500,7.186489501953125,-0.3866904675960541,0.22566081583499908,-0.48343271017074585
1772871663470422500,7.196422607421875,-0.21841995418071747,0.13036945462226868,-0.22335265576839447
1772871663480354300,7.206354248046875,-0.02901327610015869,0.0919022262096405,-0.0490836575627327
1772871663490287400,7.216287353515625,0.10480684041976929,0.03618064150214195,-0.008296811953186989
1772871663500220400,7.226220458984375,0.1941116899251938,-0.11360858380794525,-0.11612846702337265
1772871663510153200,7.2361533203125,0.23809511959552765,-0.18116632103919983,-0.20498910546302795
1772871663520085200,7.246085205078125,0.21820476651191711,-0.06259839981794357,-0.1687472015619278
1772871663530018300,7.256018310546875,0.09430093318223953,0.085578553378582,-0.23514646291732788
1772871663539951400,7.265951416015625,-0.07212479412555695,0.17623361945152283,-0.45704638957977295
1772871663549884400,7.275884521484375,-0.23791135847568512,0.2651062309741974,-0.6322214007377625
1772871663559816400,7.28581640625,-0.2572861313819885,0.3937331736087799,-0.6955468058586121
1772871663569749200,7.295749267578125,-0.13430987298488617,0.5260350108146667,-0.5955581665039062
1772871663579682300,7.305682373046875,0.0756731927394867,0.5141850113868713,-0.5203843116760254
1772871663589615400,7.315615478515625,0.27240222692489624,0.2770145535469055,-0.6562074422836304
1772871663599547400,7.32554736328125,0.39943554997444153,0.09726636856794357,-0.7839730978012085
1772871663609480400,7.33548046875,0.4583718180656433,-0.006324208807200193,-0.8938905596733093
1772871663619413200,7.345413330078125,0.3288745582103729,-0.3026626706123352,-1.057263970375061
1772871663629346300,7.35534619140625,0.17917108535766602,-0.35974380373954773,-0.8807150721549988
1772871663639278300,7.3652783203125,0.2945839762687683,-0.4412623643875122,-0.529676616191864
1772871663649211400,7.37521142578125,0.579355001449585,-0.5442968606948853,0.11607547104358673
1772871663659144400,7.38514453125,0.5024362206459045,-0.357371985912323,1.251054048538208
1772871663669077500,7.395077392578125,0.25114887952804565,-0.11698121577501297,2.188025712966919
1772871663679010300,7.40501025390625,0.021801436319947243,0.1348920315504074,2.5793404579162598
1772871663688942300,7.4149423828125,-0.08479398488998413,0.22035740315914154,2.2125840187072754
1772871663698875400,7.42487548828125,-0.014276141300797462,0.15943466126918793,1.3265011310577393
1772871663708808400,7.434808349609375,0.22474922239780426,0.060864683240652084,0.5366314649581909
1772871663718741500,7.444741455078125,0.5971776247024536,0.04018017649650574,0.11322616040706635
1772871663728673500,7.454673583984375,0.9304919838905334,0.09316723048686981,0.15240658819675446
1772871663738606300,7.4646064453125,0.9020829796791077,-0.029565082862973213,0.008229699917137623
1772871663748539400,7.474539306640625,0.4456312656402588,-0.10694722086191177,-0.0725354552268982
1772871663758472400,7.484472412109375,0.0454108901321888,-0.00908457487821579,-0.1329902708530426
1772871663768404500,7.494404541015625,-0.13995817303657532,0.331560343503952,-0.1582796573638916
1772871663778337500,7.504337646484375,-0.1745648831129074,0.701143741607666,-0.08753171563148499
1772871663788270600,7.5142705078125,-0.14020824432373047,0.8272060751914978,0.10011275112628937
1772871663798203400,7.524203369140625,-0.12465032190084457,0.6577253937721252,0.36020851135253906
1772871663808135400,7.534135498046875,-0.10637304186820984,0.2403699904680252,0.6880564093589783
1772871663818068500,7.544068359375,-0.07262413948774338,-0.08147754520177841,1.0548077821731567
1772871663828001500,7.55400146484375,-0.11414282023906708,-0.2775722146034241,1.325407862663269
1772871663837934600,7.5639345703125,-0.2453293353319168,-0.38108769059181213,1.4264649152755737
1772871663847866400,7.573866455078125,-0.4865928292274475,-0.4403667449951172,1.2338062524795532
1772871663857799200,7.583799072265625,-0.768235445022583,-0.3612529933452606,0.8724949955940247
1772871663867732200,7.593732177734375,-0.7826449871063232,0.04026060551404953,0.43879252672195435
1772871663877665300,7.603665283203125,-0.7429215312004089,0.5480607151985168,-0.1460416316986084
1772871663887597300,7.613597412109375,-0.6679021716117859,0.970058023929596,-0.5226086378097534
1772871663897530400,7.6235302734375,-0.43235620856285095,1.2088820934295654,-0.6707403063774109
1772871663907463400,7.63346337890625,-0.2143051028251648,1.3113759756088257,-0.6733390092849731
1772871663917396200,7.643396240234375,-0.13463982939720154,1.2267653942108154,-0.5552363395690918
1772871663927328300,7.653328369140625,-0.1154421716928482,0.9459622502326965,-0.4204963445663452
1772871663937261300,7.66326123046875,-0.21783991158008575,0.5723404884338379,-0.30480143427848816
1772871663947194400,7.6731943359375,-0.37882640957832336,0.21761594712734222,-0.30734342336654663
1772871663957127400,7.68312744140625,-0.5109854936599731,-0.009841712191700935,-0.33773037791252136
1772871663967059500,7.6930595703125,-0.5918659567832947,-0.10270027816295624,-0.3427000939846039
1772871663976992300,7.7029921875,-0.5908113718032837,-0.0697505846619606,-0.34960806369781494
1772871663986925300,7.71292529296875,-0.4748048782348633,0.04995184764266014,-0.304919958114624
1772871663996858400,7.7228583984375,-0.2535949945449829,0.21714350581169128,-0.14226792752742767
1772871664006790400,7.732790283203125,0.023668577894568443,0.34084492921829224,0.12916703522205353
1772871664016723500,7.742723388671875,0.27607712149620056,0.39263996481895447,0.3843567371368408
1772871664026656500,7.752656494140625,0.4510904848575592,0.3279179632663727,0.5186881422996521
1772871664036589300,7.76258935546875,0.5218019485473633,0.22190630435943604,0.49893736839294434
1772871664046521300,7.772521240234375,0.4970467984676361,0.2311866134405136,0.34684690833091736
1772871664056454400,7.782454345703125,0.3970530927181244,0.40216687321662903,0.22293108701705933
1772871664066387500,7.792387451171875,0.24294953048229218,0.6483409404754639,0.16296814382076263
1772871664076320500,7.802320556640625,0.05525606498122215,0.887049674987793,0.1293420046567917
1772871664086252500,7.81225244140625,-0.1475124955177307,0.9266631603240967,-0.03720435872673988
1772871664096185300,7.822185302734375,-0.21412773430347443,0.620971143245697,-0.3485337495803833
1772871664106118400,7.832118408203125,-0.27331703901290894,0.3530201017856598,-0.6691860556602478
1772871664116051500,7.842051513671875,-0.3327270746231079,0.23759125173091888,-1.1110111474990845
1772871664125983500,7.8519833984375,-0.3562625050544739,0.27022722363471985,-1.5439904928207397
1772871664135916500,7.86191650390625,-0.23833613097667694,0.46468856930732727,-1.8355132341384888
1772871664145849300,7.871849365234375,0.03991279378533363,0.5375412106513977,-2.042741537094116
1772871664155782400,7.881782470703125,0.4091435670852661,0.2694253623485565,-1.9553046226501465
1772871664165715500,7.891715576171875,0.7499525547027588,-0.23381835222244263,-1.6809451580047607
1772871664175647500,7.9016474609375,0.9206060171127319,-0.870467483997345,-1.462454915046692
1772871664185580500,7.91158056640625,0.7948342561721802,-1.5712722539901733,-1.1889933347702026
1772871664195513600,7.921513671875,0.4841328561306,-2.088257312774658,-0.8266811370849609
1772871664205446400,7.9314462890625,0.2582927942276001,-2.320634365081787,-0.5460271239280701
1772871664215378200,7.941378173828125,0.20917852222919464,-2.2549474239349365,-0.4406474232673645
1772871664225311200,7.951311279296875,0.3060624599456787,-2.031057357788086,-0.3706291913986206
1772871664235245300,7.961245361328125,0.4839373826980591,-1.722739815711975,-0.3544534146785736
1772871664245178000,7.97117822265625,0.6471766233444214,-1.3650755882263184,-0.3274087607860565
1772871664255109400,7.981109375,0.7232069373130798,-1.049124836921692,-0.2669163942337036
1772871664265042400,7.99104248046875,0.7307729721069336,-0.8161802887916565,-0.1412990689277649
1772871664274975200,8.000975341796876,0.7673725485801697,-0.6284290552139282,0.13326005637645721
1772871664284907300,8.0109072265625,0.7274914383888245,-0.47851863503456116,0.538041889667511
1772871664294840300,8.02084033203125,0.48598533868789673,-0.370444118976593,0.9931955337524414
1772871664304773400,8.0307734375,0.09346896409988403,-0.2710842192173004,1.3457847833633423
1772871664314706400,8.04070654296875,-0.32648995518684387,-0.25243091583251953,1.397080421447754
1772871664324638200,8.05063818359375,-0.6451182961463928,-0.2661254107952118,1.3065835237503052
1772871664334571000,8.060571044921875,-0.8566720485687256,-0.15335626900196075,1.2664854526519775
1772871664344504000,8.070504150390626,-0.8796165585517883,0.09402476251125336,1.3719489574432373
1772871664354437000,8.08043701171875,-0.8222922682762146,0.308879017829895,1.5076428651809692
1772871664364369200,8.090369140625,-1.0241702795028687,0.6140857934951782,1.8765122890472412
1772871664374302200,8.10030224609375,-1.063523769378662,0.7615298628807068,2.0202386379241943
1772871664384235300,8.1102353515625,-1.00852632522583,0.9480863809585571,1.734481692314148
1772871664394168000,8.12016796875,-0.9472184777259827,1.010418176651001,1.0335594415664673
1772871664404100000,8.13010009765625,-0.7498718500137329,1.1257435083389282,0.1636589765548706
1772871664414033200,8.140033203125,-0.49342116713523865,1.4373128414154053,-0.5116017460823059
1772871664423966200,8.14996630859375,-0.3605038523674011,1.7667378187179565,-0.9879313111305237
1772871664433899300,8.159899169921875,-0.31247562170028687,1.8517323732376099,-1.2867323160171509
1772871664443831300,8.169831298828125,-0.3140799105167389,1.6732947826385498,-1.4611492156982422
1772871664453764000,8.17976416015625,-0.38692960143089294,1.2576063871383667,-1.4483455419540405
1772871664463697200,8.189697265625,-0.47697746753692627,0.7337682247161865,-1.2097017765045166
1772871664473630200,8.199630126953124,-0.4561254680156708,0.28530922532081604,-0.7804657220840454
1772871664483562200,8.209562255859375,-0.4256508946418762,0.06196483224630356,-0.3487774133682251
1772871664493495300,8.219495361328125,-0.4656608998775482,-0.049242112785577774,-0.03658011555671692
1772871664503428000,8.229427978515625,-0.5654783248901367,-0.0514964796602726,0.11206075549125671
1772871664513361200,8.239361083984376,-0.6717890501022339,0.05692213773727417,0.11922279745340347
1772871664523293200,8.249293212890626,-0.7440161108970642,0.2564876973628998,0.027766117826104164
1772871664533226200,8.259226318359374,-0.7810627818107605,0.4595726430416107,-0.12080338597297668
1772871664543159300,8.2691591796875,-0.7901114225387573,0.5665537118911743,-0.2690482437610626
1772871664553092400,8.27909228515625,-0.7849134802818298,0.560152530670166,-0.4100935161113739
1772871664563024400,8.2890244140625,-0.723347544670105,0.4838564097881317,-0.482789009809494
1772871664572957200,8.298957275390626,-0.5750159025192261,0.42025986313819885,-0.45582932233810425
1772871664582890200,8.30889013671875,-0.34869858622550964,0.3838193118572235,-0.3940591514110565
1772871664592823300,8.3188232421875,-0.1522422730922699,0.3478333353996277,-0.33369913697242737
1772871664602755300,8.32875537109375,-0.04262469336390495,0.3232465088367462,-0.25608396530151367
1772871664612688400,8.3386884765625,-0.04050375148653984,0.316690593957901,-0.13265657424926758
1772871664622621200,8.34862109375,-0.07864314317703247,0.42090514302253723,0.15400049090385437
1772871664632554200,8.35855419921875,-0.2050628662109375,0.42154696583747864,0.31585249304771423
1772871664642487300,8.3684873046875,-0.4249083995819092,0.3613976240158081,0.36552152037620544
1772871664652420400,8.37842041015625,-0.6740902662277222,0.39632338285446167,0.48161882162094116
1772871664662353200,8.388353271484375,-0.8537878394126892,0.4802587628364563,0.5209675431251526
1772871664672285400,8.398285400390625,-0.9827298521995544,0.5548927783966064,0.3139600455760956
1772871664682218200,8.40821826171875,-0.9528252482414246,0.5922747850418091,-0.04914597421884537
1772871664692151300,8.4181513671875,-0.577345073223114,0.7409393191337585,-0.3879421353340149
1772871664702084400,8.42808447265625,-0.16540999710559845,0.7313205599784851,-0.7492966055870056
1772871664712016400,8.438016357421875,-0.008625445887446404,0.4731995165348053,-0.9410396814346313
1772871664721949400,8.447949462890625,-0.07303399592638016,0.06746453046798706,-0.727295458316803
1772871664731882200,8.45788232421875,-0.2257377952337265,-0.23020204901695251,-0.028365595266222954
1772871664741815300,8.467815185546876,-0.28920942544937134,-0.24188107252120972,1.0876078605651855
1772871664751747000,8.4777470703125,-0.17485091090202332,-0.06713056564331055,2.0730209350585938
1772871664761680100,8.48768017578125,0.009367402642965317,0.18030506372451782,2.5748291015625
1772871664771613200,8.49761328125,0.20015466213226318,0.36096006631851196,2.4761815071105957
1772871664781546200,8.507546142578125,0.4555366337299347,0.48822081089019775,1.7331775426864624
1772871664791478300,8.517478271484375,0.7143628597259521,0.5492956042289734,0.5198269486427307
1772871664801411000,8.5274111328125,0.9265416860580444,0.5062724947929382,-0.6112279295921326
1772871664811344100,8.53734423828125,1.061743974685669,0.31855612993240356,-1.3408446311950684
1772871664821277200,8.547277099609374,1.0990010499954224,-0.002475142013281584,-1.6136646270751953
1772871664831209200,8.557209228515624,1.1276742219924927,-0.43049147725105286,-1.380713939666748
1772871664841142300,8.567142333984375,1.0465642213821411,-0.7507331371307373,-0.8858262300491333
1772871664851075000,8.577074951171875,0.8768388628959656,-0.9465859532356262,-0.45792070031166077
1772871664861008100,8.587008056640625,0.6914138793945312,-1.0369491577148438,-0.2016255259513855
1772871664870940200,8.596940185546876,0.4832383096218109,-1.0139639377593994,0.11762329936027527
1772871664880873200,8.606873291015624,0.1780642718076706,-0.8571634292602539,0.5060043334960938
1772871664890806300,8.61680615234375,-0.03531724587082863,-0.7051296830177307,0.9268884658813477
1772871664900739000,8.626739013671875,-0.09340771287679672,-0.40764713287353516,1.351780652999878
1772871664910671400,8.63667138671875,-0.14591166377067566,-0.05468401685357094,1.716924786567688
1772871664920604200,8.646604248046875,-0.2580781579017639,0.2757490277290344,1.886229395866394
1772871664930537200,8.656537109375,-0.3487848937511444,0.6060840487480164,1.9277411699295044
1772871664940470300,8.66647021484375,-0.34708258509635925,0.8218307495117188,1.7357789278030396
1772871664950402300,8.67640234375,-0.40784502029418945,1.03386652469635,1.480886697769165
1772871664960335400,8.68633544921875,-0.47342589497566223,1.1877673864364624,1.1103177070617676
1772871664970268200,8.69626806640625,-0.45352888107299805,1.1963849067687988,0.6335574984550476
1772871664980201200,8.706201171875,-0.4036768972873688,1.07443106174469,0.17804484069347382
1772871664990133200,8.71613330078125,-0.3764796257019043,0.8538895845413208,-0.1564178317785263
1772871665000066300,8.72606640625,-0.3991798758506775,0.5454005002975464,-0.41333404183387756
1772871665009999400,8.735999267578125,-0.45429399609565735,0.30337613821029663,-0.5715886950492859
1772871665019932200,8.74593212890625,-0.5196967124938965,0.2449634075164795,-0.6404486894607544
1772871665029864200,8.7558642578125,-0.5890462398529053,0.33734819293022156,-0.6607137322425842
1772871665039797200,8.76579736328125,-0.6329249739646912,0.3918077051639557,-0.7141732573509216
1772871665049730300,8.775730224609376,-0.6154959201812744,0.3117392361164093,-0.8030357360839844
1772871665059663400,8.785663330078124,-0.4469529986381531,0.20048968493938446,-0.8408494591712952
1772871665069595400,8.795595458984375,-0.16703586280345917,0.15056714415550232,-0.7297985553741455
1772871665079528400,8.805528564453125,0.03105538710951805,0.1753486543893814,-0.5500112175941467
1772871665089461200,8.815461181640625,0.07441990822553635,0.23540586233139038,-0.4184579849243164
1772871665099394300,8.825394287109376,-0.03587943688035011,0.2789197862148285,-0.3997702896595001
1772871665109326000,8.835326171875,-0.23304630815982819,0.3281714916229248,-0.456037312746048
1772871665119259100,8.845259033203124,-0.38812804222106934,0.4124791622161865,-0.518090009689331
1772871665129192200,8.855192138671875,-0.4657312035560608,0.5418906807899475,-0.5405170321464539
1772871665139125200,8.865125244140625,-0.4458235502243042,0.661401093006134,-0.5161922574043274
1772871665149057000,8.87505712890625,-0.27805453538894653,0.7363536357879639,-0.4874727129936218
1772871665158990000,8.884989990234375,-0.09561120718717575,0.6937907338142395,-0.49300622940063477
1772871665168923100,8.894923095703126,0.036793701350688934,0.5362789034843445,-0.4601939618587494
1772871665178856200,8.904856201171874,0.15638001263141632,0.4552934765815735,-0.3038176894187927
1772871665188788200,8.914788330078125,0.15788283944129944,0.4654662311077118,-0.10584280639886856
1772871665198721300,8.92472119140625,-0.12895585596561432,0.4511048495769501,0.0979185700416565
1772871665208654000,8.934654052734375,-0.5818455815315247,0.4678811728954315,0.3471616804599762
1772871665218587100,8.944587158203126,-0.9056734442710876,0.6910181045532227,0.7723776698112488
1772871665228519200,8.954519287109376,-0.906762421131134,1.2314629554748535,1.1573853492736816
1772871665238451200,8.964451171875,-0.6507519483566284,1.7273880243301392,1.284306287765503
1772871665248384300,8.97438427734375,-0.29715391993522644,1.8731820583343506,1.1138007640838623
1772871665258317600,8.984317626953125,0.13141794502735138,1.8300955295562744,0.8840451240539551
1772871665268249300,8.994249267578125,0.6022621393203735,1.8499091863632202,0.7171701192855835
1772871665278182100,9.00418212890625,1.0200716257095337,1.846701979637146,0.5022804141044617
1772871665288115200,9.014115234375,1.1394928693771362,1.2368463277816772,0.18014393746852875
1772871665298048300,9.02404833984375,0.9305159449577332,0.19007647037506104,0.025403892621397972
1772871665307980300,9.033980224609374,0.4820292294025421,-0.7385880351066589,0.17139172554016113
1772871665317913300,9.043913330078125,-0.0498032420873642,-1.2007108926773071,0.6450530290603638
1772871665327846400,9.053846435546875,-0.2724775969982147,-1.280571699142456,1.3934550285339355
1772871665337779200,9.063779296875,-0.10774990171194077,-0.9990297555923462,2.1182122230529785
1772871665347711200,9.073711181640626,0.3289951980113983,-0.7319527864456177,2.4381935596466064
1772871665357644300,9.083644287109376,0.8027662038803101,-0.7413793206214905,2.090456962585449
1772871665367577300,9.093577392578124,1.013917088508606,-1.2111563682556152,1.243764877319336
1772871665377510400,9.103510498046875,0.8066307306289673,-1.968204140663147,0.19204720854759216
1772871665387442400,9.1134423828125,0.3369191586971283,-2.6753156185150146,-0.6437118649482727
1772871665397375200,9.123375244140625,-0.08599080890417099,-2.929989814758301,-0.9211757183074951
1772871665407308300,9.133308349609376,-0.23239435255527496,-2.653217315673828,-0.6636741161346436
1772871665417241300,9.143241455078124,-0.1314520388841629,-1.8909982442855835,-0.08965504914522171
1772871665427173400,9.15317333984375,0.09827650338411331,-0.9379591941833496,0.4774448573589325
1772871665437106400,9.1631064453125,0.25359046459198,-0.11216675490140915,0.8807007074356079
1772871665447039500,9.17303955078125,0.2710128724575043,0.5040652751922607,1.0833382606506348
1772871665456972300,9.18297216796875,0.17900517582893372,0.7658076882362366,1.0786694288253784
1772871665466904300,9.192904296875,-0.02901167795062065,0.6420884132385254,0.9659823179244995
1772871665476837400,9.20283740234375,-0.33753275871276855,0.2473306953907013,0.7918123602867126
1772871665486770400,9.2127705078125,-0.6174032688140869,-0.1698489487171173,0.5475496649742126
1772871665496703500,9.222703369140625,-0.8034541010856628,-0.46538713574409485,0.29132744669914246
1772871665506635500,9.232635498046875,-0.9038691520690918,-0.6390843391418457,0.08141390234231949
1772871665516568300,9.242568359375,-0.8771914839744568,-0.7078312039375305,-0.1708548367023468
1772871665526501400,9.25250146484375,-0.6423677802085876,-0.6179494857788086,-0.42501628398895264
1772871665536434400,9.262434326171874,-0.2780659794807434,-0.39245033264160156,-0.6222561001777649
1772871665546366500,9.272366455078124,0.07483801990747452,-0.09709832072257996,-0.8111943602561951
1772871665556299500,9.282299560546875,0.29614192247390747,0.08246025443077087,-1.0135087966918945
1772871665566232300,9.292232421875,0.356103777885437,0.07808521389961243,-1.2274019718170166
1772871665576165400,9.302165283203125,0.2710837125778198,-0.11226102709770203,-1.44789457321167
1772871665586097200,9.31209716796875,0.04513871669769287,-0.4225134253501892,-1.5562043190002441
1772871665596030500,9.322030517578124,-0.23183350265026093,-0.7259289622306824,-1.5009573698043823
1772871665605963500,9.331963623046875,-0.49332794547080994,-0.8643768429756165,-1.3170005083084106
1772871665615896600,9.341896484375,-0.7322835326194763,-0.8373055458068848,-1.0254371166229248
1772871665625828400,9.351828369140625,-0.8795685768127441,-0.5819236040115356,-0.669241726398468
1772871665635761200,9.36176123046875,-0.8758968710899353,-0.14134220778942108,-0.272940456867218
1772871665645694200,9.371694091796876,-0.8124148845672607,0.39032700657844543,0.12053599953651428
1772871665655627300,9.381627197265624,-0.7584893107414246,0.9011561870574951,0.4857882857322693
1772871665665559300,9.391559326171874,-0.7275734543800354,1.2530524730682373,0.7545547485351562
1772871665675492400,9.401492431640625,-0.7553086876869202,1.3881369829177856,0.8872302174568176
1772871665685425400,9.41142529296875,-0.8737386465072632,1.2702244520187378,0.9164629578590393
1772871665695358200,9.421358154296875,-1.035507321357727,0.9962014555931091,0.840726912021637
1772871665705290200,9.431290283203126,-1.1600137948989868,0.6179090142250061,0.6652398109436035
1772871665715223300,9.441223388671874,-1.1782093048095703,0.2893247604370117,0.4346478581428528
1772871665725156400,9.45115625,-1.0531539916992188,0.11432471126317978,0.19999434053897858
1772871665735089400,9.46108935546875,-0.8068498969078064,0.10536370426416397,0.017164340242743492
1772871665745021400,9.471021484375,-0.6141454577445984,0.21113380789756775,-0.09052883088588715
1772871665754954200,9.480954345703125,-0.3319140374660492,0.37287265062332153,-0.054073356091976166
1772871665764887300,9.49088720703125,-0.09673240035772324,0.5534988641738892,0.15776939690113068
1772871665774820400,9.5008203125,-0.054724231362342834,0.642946183681488,0.35910728573799133
1772871665784752400,9.51075244140625,-0.11466905474662781,0.8947073221206665,0.44625258445739746
1772871665794685400,9.520685546875,0.13495434820652008,1.1425634622573853,0.35363104939460754
1772871665804618200,9.5306181640625,0.38385260105133057,1.2209866046905518,0.05624649301171303
1772871665814551300,9.54055126953125,0.4080628454685211,1.2479714155197144,-0.34381142258644104
1772871665824483300,9.5504833984375,0.46941807866096497,1.003659963607788,-0.6546308398246765
1772871665834416400,9.56041650390625,0.7298675179481506,0.6243874430656433,-0.8746182918548584
1772871665844349400,9.570349365234375,0.9168072938919067,0.41964706778526306,-1.003984808921814
1772871665854282500,9.580282470703125,0.24456101655960083,-0.09831378608942032,-0.9102447628974915
1772871665864214500,9.590214599609375,-1.127564549446106,-1.2181237936019897,-0.5071995854377747
1772871665874147300,9.600147216796875,-1.2621586322784424,-1.9956657886505127,0.1010882705450058
1772871665884080400,9.610080322265626,-0.6958727836608887,-1.9468023777008057,0.7688042521476746
1772871665894013400,9.620013427734374,-0.46824389696121216,-1.0335736274719238,1.1822261810302734
1772871665903945500,9.629945556640624,-0.5582883358001709,-0.1438479870557785,0.9136786460876465
1772871665913878500,9.63987841796875,-0.7024446725845337,0.32600605487823486,0.1582692712545395
1772871665923811300,9.649811279296875,-0.8966591954231262,0.5697484016418457,-0.5349350571632385
1772871665933744400,9.659744384765625,-0.9952602982521057,0.5727476477622986,-0.8220629692077637
1772871665943676400,9.669676513671876,-0.9760557413101196,0.409227192401886,-0.5948972105979919
1772871665953609500,9.679609375,-0.9941199421882629,0.3773334324359894,-0.04029815271496773
1772871665963542500,9.68954248046875,-0.9924629330635071,0.4523219168186188,0.5471152663230896
1772871665973475600,9.6994755859375,-0.9229685068130493,0.5421567559242249,0.8953627347946167
1772871665983407400,9.709407470703125,-0.8201004862785339,0.5864187479019165,0.9951907992362976
1772871665993340200,9.719340087890625,-0.7243481278419495,0.5384578704833984,0.89191073179245
1772871666003273200,9.729273193359376,-0.6344707012176514,0.4149191677570343,0.6568841338157654
1772871666013206300,9.739206298828124,-0.5815057754516602,0.3198680281639099,0.3885898292064667
1772871666023138300,9.74913818359375,-0.5102339386940002,0.2565593421459198,0.19484245777130127
1772871666033071400,9.7590712890625,-0.4584117829799652,0.1901419758796692,0.07458129525184631
1772871666043004200,9.769004150390625,-0.4744330942630768,0.047631166875362396,0.0052046156488358974
1772871666052937200,9.778937255859375,-0.5350032448768616,-0.10740981251001358,-0.010754376649856567
1772871666062869200,9.788869140625,-0.5648127794265747,-0.17020262777805328,0.00905874278396368
1772871666072802300,9.79880224609375,-0.5544243454933167,-0.1539003551006317,0.06434996426105499
1772871666082735400,9.8087353515625,-0.5011509656906128,-0.05251061171293259,0.177323117852211
1772871666092668400,9.81866845703125,-0.4116775691509247,0.11587440222501755,0.3161715567111969
1772871666102600400,9.828600341796875,-0.30996397137641907,0.2910829782485962,0.41942018270492554
1772871666112533200,9.838533203125,-0.2048570066690445,0.37345269322395325,0.4314741790294647
1772871666122466300,9.84846630859375,-0.08067380636930466,0.353298157453537,0.306525856256485
1772871666132398300,9.8583984375,0.028442826122045517,0.22064608335494995,0.06370440870523453
1772871666142331400,9.868331298828124,0.08387066423892975,-0.01690335012972355,-0.23910711705684662
1772871666152264400,9.878264404296875,0.08298862725496292,-0.2889564335346222,-0.5293549299240112
1772871666162197200,9.888197265625,0.04132213816046715,-0.5316822528839111,-0.6809183359146118
1772871666172129300,9.89812939453125,-0.0015198660548776388,-0.6072553396224976,-0.6026464700698853
1772871666182062300,9.908062255859376,-0.03779877722263336,-0.5322329998016357,-0.3335542678833008
1772871666191995400,9.917995361328124,-0.0721793845295906,-0.326137900352478,-0.008207595907151699
1772871666201928400,9.927928466796875,-0.10041448473930359,-0.03651060536503792,0.26554593443870544
1772871666211860500,9.937860595703125,-0.1092228963971138,0.19589440524578094,0.39697426557540894
1772871666221793500,9.94779345703125,-0.09495474398136139,0.3315877914428711,0.38052549958229065
1772871666231726300,9.957726318359375,-0.09668393433094025,0.38515540957450867,0.2733628451824188
1772871666241659400,9.967659423828126,-0.12279090285301208,0.405679315328598,0.1617811769247055
1772871666251591400,9.97759130859375,-0.14907869696617126,0.3944980502128601,0.06911009550094604
1772871666261524500,9.9875244140625,-0.15495789051055908,0.3616335690021515,-0.0032871398143470287
1772871666271457500,9.99745751953125,-0.13776984810829163,0.30322831869125366,-0.044625792652368546
1772871666281390300,10.007390380859375,-0.12113174796104431,0.2273993343114853,-0.0752422884106636
1772871666291322400,10.017322265625,-0.08607123792171478,0.18456211686134338,-0.09143004566431046
1772871666301255400,10.02725537109375,-0.03262079507112503,0.1704753339290619,-0.10831129550933838
1772871666311188500,10.0371884765625,0.03428526967763901,0.14324557781219482,-0.11456146836280823
1772871666321121500,10.04712158203125,0.10140758007764816,0.3114905059337616,0.1313502937555313
1772871666331053300,10.05705322265625,0.14900065958499908,0.48367106914520264,0.3689876198768616
1772871666340986400,10.066986328125,0.19120964407920837,0.380837619304657,0.3413780927658081
1772871666350919200,10.076919189453125,0.12234588712453842,0.09909436106681824,0.12825624644756317
1772871666360852200,10.086852294921876,0.09509695321321487,-0.09511426836252213,-0.03327007219195366
1772871666370784300,10.0967841796875,0.12769857048988342,-0.19494178891181946,-0.1058713048696518
1772871666380717300,10.10671728515625,0.12289716303348541,-0.2120552659034729,-0.05263125151395798
1772871666390650400,10.116650390625,0.09711296856403351,-0.2296864539384842,0.0833180621266365
1772871666400583200,10.126583251953125,0.11081573367118835,-0.24399162828922272,0.2012079507112503
1772871666410515200,10.13651513671875,0.14587384462356567,-0.2002079337835312,0.28928107023239136
1772871666420448300,10.1464482421875,0.13389627635478973,-0.1507927030324936,0.3059713840484619
1772871666430381300,10.15638134765625,0.08498147130012512,-0.03585813194513321,0.36770451068878174
1772871666440314400,10.166314453125,0.026555445045232773,0.06554704904556274,0.40969642996788025
