time,seconds_elapsed,z,y,x
1772807131661770500,0.0597705078125,0.00029774141148664057,0.006229400169104338,-0.0014173343079164624
1772807131671702300,0.069702392578125,0.00019148127466905862,0.0065377941355109215,-0.0003701793903019279
1772807131681634300,0.07963427734375,-0.0018527611391618848,0.005375057924538851,0.0007504787645302713
1772807131691566600,0.089566650390625,-0.0021827267482876778,0.006945257540792227,-0.004582235123962164
1772807131701497600,0.09949755859375,-0.00006311691686278209,0.006878678686916828,-0.0034019220620393753
1772807131711429400,0.109429443359375,0.0001328917423961684,0.004364654887467623,0.0010913633741438389
1772807131721361400,0.119361328125,-0.0019174759509041905,0.004984372295439243,-0.00042743736412376165
1772807131731293400,0.12929345703125,-0.0007829693495295942,0.005692773032933474,0.0005723133217543364
1772807131741224400,0.139224365234375,0.0003938815207220614,0.005404086317867041,0.0009795106016099453
1772807131751156500,0.149156494140625,-0.0015028218040242791,0.006788930390030146,-0.002058889716863632
1772807131761088300,0.159088134765625,-0.001014664419926703,0.006511695217341185,-0.000984570593573153
1772807131771020300,0.169020263671875,-0.0017728663515299559,0.005284244194626808,0.000910268456209451
1772807131780951600,0.17895166015625,-0.003431216813623905,0.0069503178820014,-0.0006183860241435468
1772807131790883600,0.188883544921875,-0.0007403587806038558,0.007653392385691404,-0.00014034859486855567
1772807131800815600,0.198815673828125,0.00008069378236541525,0.005367068573832512,0.0010495517635717988
1772807131810747400,0.208747314453125,-0.00021837920940015465,0.0036224317736923695,-0.0010045443195849657
1772807131820679000,0.218678955078125,-0.00007483482477255166,0.006563093978911638,0.0012548814993351698
1772807131830610000,0.22860986328125,0.0014942996203899384,0.00746111199259758,-0.00006711165769957006
1772807131840542000,0.2385419921875,-0.0014927018200978637,0.004318581894040108,0.0011867046123370528
1772807131850474000,0.248473876953125,-0.0019379822770133615,0.007671768311411142,-0.0006892260862514377
1772807131860406000,0.258406005859375,-0.0020607539918273687,0.004612594842910767,0.001121989800594747
1772807131870336800,0.268336669921875,-0.001160072977654636,0.008162056095898151,-0.000601075473241508
1772807131880268800,0.278268798828125,-0.0005158542771823704,0.006651244591921568,-0.0025329324416816235
1772807131890200800,0.288200927734375,0.00010865696822293103,0.007219829596579075,-0.0005803027888759971
1772807131900132900,0.2981328125,0.00031425300403498113,0.004938299767673016,0.0008735168376006186
1772807131910063600,0.308063720703125,-0.002412823960185051,0.0029379993211477995,0.0013811152894049883
1772807131919996000,0.317995849609375,0.001443166984245181,0.006137254647910595,0.0010388991795480251
1772807131929928000,0.327927978515625,-0.0029489181470125914,0.005900499876588583,0.001377919572405517
1772807131939860000,0.33785986328125,-0.0007198524544946849,0.005292233545333147,-0.0014357101172208786
1772807131949791000,0.347791015625,-0.0006996124284341931,0.00717482203617692,-0.000553404854144901
1772807131959722800,0.35772265625,-0.0010290454374626279,0.007074953522533178,0.0019206717843189836
1772807131969654800,0.36765478515625,-0.0020636834669858217,0.0075756278820335865,-0.00044821001938544214
1772807131979586800,0.3775869140625,-0.0018631474813446403,0.008292018435895443,-0.0034413367975503206
1772807131989517800,0.387517822265625,-0.0009536779834888875,0.003969175275415182,0.000028762138754245825
1772807131999449900,0.397449951171875,0.000606934423558414,0.004590757191181183,-0.0001549959706608206
1772807132009382000,0.4073818359375,-0.0003579288604669273,0.00751996785402298,-0.0012306467397138476
1772807132019314000,0.41731396484375,0.0005976133397780359,0.004233893472701311,-0.0015100123127922416
1772807132029245000,0.427244873046875,-0.002514556748792529,0.005049619823694229,0.0011177286505699158
1772807132039177000,0.437177001953125,0.00027856664382852614,0.006383596919476986,-0.0019315907265990973
1772807132049108700,0.447108642578125,0.0005640574963763356,0.006739129312336445,0.0010873686987906694
1772807132059040800,0.457040771484375,-0.002379534300416708,0.007589742541313171,0.0016162724932655692
1772807132068971800,0.4669716796875,0.0011211908422410488,0.0073042516596615314,-0.0001478054327890277
1772807132078903800,0.47690380859375,0.0002537992550060153,0.006309827324002981,0.00023196132679004222
1772807132088835800,0.4868359375,-0.000051399008953012526,0.006518086884170771,-0.0001395496365148574
1772807132098768000,0.496767822265625,-0.0006042712484486401,0.005636846646666527,0.0033190976828336716
1772807132108700000,0.506699951171875,0.0004916195175610483,0.005684517323970795,0.0020069582387804985
1772807132118631000,0.516630859375,-0.001817873795516789,0.004804076161235571,0.0014154701493680477
1772807132128563000,0.52656298828125,-0.000934236915782094,0.007123156916350126,-0.0010836402652785182
1772807132138495000,0.536494873046875,-0.00017177389236167073,0.006789462640881538,-0.0014088122406974435
1772807132148426800,0.5464267578125,0.0009717874927446246,0.00407543545588851,0.0027656927704811096
1772807132158357800,0.556357666015625,-0.0017648768844082952,0.0073111760430037975,0.0002372876479057595
1772807132168289800,0.566289794921875,-0.004254399798810482,0.006865096744149923,-0.0002868224401026964
1772807132178221800,0.576221923828125,-0.0016737966798245907,0.004882373381406069,-0.001540638622827828
1772807132188153900,0.58615380859375,-0.0010402307379990816,0.005358812864869833,0.0007102650706656277
1772807132198084900,0.5960849609375,-0.0011576761025935411,0.00529622845351696,0.0001483380765421316
1772807132208017000,0.606016845703125,-0.0007499461644329131,0.0070587084628641605,0.0008077367674559355
1772807132217949000,0.615948974609375,-0.003203516360372305,0.005001682788133621,-0.0012234562309458852
1772807132227881000,0.625880859375,-0.00002157160452043172,0.003430151380598545,0.001841575838625431
1772807132237811700,0.635811767578125,-0.0012974920682609081,0.007724498864263296,0.0003664509567897767
1772807132247743700,0.64574365234375,-0.0023763386998325586,0.003736414946615696,-0.00039228363311849535
1772807132257675800,0.65567578125,0.0001270327775273472,0.00624138442799449,0.0006170544074848294
1772807132267607800,0.66560791015625,-0.0005315669695846736,0.004795021377503872,0.0009709885343909264
1772807132277538800,0.675538818359375,-0.0015422365395352244,0.007992412894964218,-0.00006471481174230576
1772807132287470800,0.685470947265625,-0.0019289276096969843,0.0027422569692134857,0.0007992146420292556
1772807132297403000,0.69540283203125,-0.0017118799732998013,0.007964715361595154,-0.0002716424351092428
1772807132307335000,0.7053349609375,0.00010945591930067167,0.004621915984898806,0.0008074704091995955
1772807132317265700,0.715265625,-0.00003382214708835818,0.005530320107936859,0.00043010051012970507
1772807132327197700,0.72519775390625,-0.00015632755821570754,0.007028614636510611,0.00009933590627042577
1772807132337129700,0.735129638671875,-0.0046091326512396336,0.006485862657427788,-0.00020666129421442747
1772807132347061800,0.745061767578125,-0.0004442152567207813,0.005632585845887661,0.00046871634549461305
1772807132356993000,0.754992919921875,-0.002034388715401292,0.00788508728146553,-0.00024714134633541107
1772807132366924800,0.7649248046875,-0.001514806062914431,0.004817658569663763,0.002457298804074526
1772807132376856800,0.77485693359375,0.0017259946325793862,0.007259777281433344,-0.00015472965606022626
1772807132386788900,0.784788818359375,-0.0026112294290214777,0.008596151135861874,0.0013800500892102718
1772807132396719900,0.794719970703125,-0.0009129316313192248,0.005571066867560148,-0.0008386294357478619
1772807132406651600,0.804651611328125,-0.0011997540714219213,0.007494401652365923,0.000809068325906992
1772807132416583700,0.814583740234375,0.00003328951424919069,0.008885370567440987,-0.0014407701091840863
1772807132426515700,0.824515625,-0.0014061490073800087,0.005261607468128204,-0.001094559207558632
1772807132436447700,0.83444775390625,-0.0018804579740390182,0.004449609667062759,0.0005779059720225632
1772807132446379000,0.84437890625,-0.0008551410282962024,0.005535114090889692,0.0002487392339389771
1772807132456310800,0.854310791015625,-0.00007723167072981596,0.008266451768577099,-0.002083124592900276
1772807132466242800,0.864242919921875,-0.0006982808117754757,0.008100536651909351,-0.00006578007742064074
1772807132476174800,0.8741748046875,-0.002578738844022155,0.007408647798001766,0.00019973708549514413
1772807132486105900,0.88410595703125,0.000493750034365803,0.004463457968086004,0.0002383529208600521
1772807132496038000,0.894037841796875,-0.0007651261985301971,0.006179066374897957,0.0005259743193164468
1772807132505969700,0.9039697265625,-0.001344363670796156,0.00749014038592577,-0.0011294466676190495
1772807132515901700,0.913901611328125,-0.0012415656819939613,0.007053648587316275,-0.002828276949003339
1772807132525833000,0.9238330078125,-0.002615224104374647,0.006468818057328463,-0.0006854976527392864
1772807132535765000,0.933764892578125,-0.0008364989189431071,0.00754952896386385,0.00029055087361484766
1772807132545696800,0.94369677734375,-0.002001631772145629,0.007209709845483303,-0.0004964132094755769
1772807132555628800,0.95362890625,0.0007728493656031787,0.009470201097428799,-0.0018604843644425273
1772807132565559800,0.963559814453125,-0.0006322344415821135,0.007375091779977083,-0.0026224146131426096
1772807132575491800,0.973491943359375,-0.000693220819812268,0.005942843854427338,-0.003628556849434972
1772807132585424000,0.983423828125,-0.0011528824688866735,0.007564176339656115,-0.001478587044402957
1772807132595355600,0.993355712890625,0.0012218583142384887,0.008275507017970085,-0.0029523803386837244
1772807132605287000,1.003286865234375,0.0005044027348048985,0.0067902617156505585,0.00041278995922766626
1772807132615219000,1.013218994140625,-0.0003134540456812829,0.005929528269916773,-0.0006250438746064901
1772807132625151000,1.02315087890625,0.00018722022650763392,0.006091448478400707,-0.001877262257039547
1772807132635083000,1.0330830078125,-0.0011733887949958444,0.007880027405917645,0.0006346312584355474
1772807132645013800,1.043013671875,-0.002552373567596078,0.0048437574878335,-0.003192064817994833
1772807132654945800,1.05294580078125,-0.0015789881581440568,0.006169745232909918,0.0023132218047976494
1772807132664877800,1.0628779296875,0.0009443568997085094,0.00726457079872489,-0.0018916432745754719
1772807132674809900,1.072809814453125,-0.002293780678883195,0.0076003954745829105,-0.0005587312043644488
1772807132684741600,1.08274169921875,-0.0011741877533495426,0.006921821739524603,0.0011805793037638068
1772807132694673000,1.0926728515625,-0.00019228023302275687,0.006486927624791861,-0.000030892668291926384
1772807132704605000,1.10260498046875,0.0012796488590538502,0.006040315609425306,0.0031161648221313953
1772807132714537000,1.112536865234375,0.00026764770154841244,0.006262689363211393,-0.00324825756251812
1772807132724469000,1.122468994140625,-0.0019624833948910236,0.007142864167690277,-0.000045540054998127744
1772807132734399700,1.132399658203125,-0.002094309777021408,0.0037590519059449434,-0.0012610068079084158
1772807132744331800,1.142331787109375,-0.0028703550342470407,0.004150270018726587,-0.00009187905379803851
1772807132754263800,1.152263916015625,-0.0009563411585986614,0.0076270271092653275,-0.0008135957177728415
1772807132764195800,1.16219580078125,-0.0011515507940202951,0.009063802659511566,0.0003483414766378701
1772807132774126800,1.172126953125,-0.0009278453071601689,0.006070942152291536,0.0028852687682956457
1772807132784059000,1.182058837890625,-0.0025989788118749857,0.004551075864583254,0.002168345730751753
1772807132793991000,1.191990966796875,0.0002868224401026964,0.008294947445392609,0.0022919164039194584
1772807132803923000,1.2019228515625,0.000011984225238848012,0.004899151157587767,0.0016413062112405896
1772807132813853700,1.211853759765625,0.0006636597099713981,0.005709284916520119,0.00016218650853261352
1772807132823786200,1.2217861328125,-0.0005435511702671647,0.005774265620857477,0.003136138431727886
1772807132833718300,1.23171826171875,0.00003062635369133204,0.0075601814314723015,-0.0035888757556676865
1772807132843650300,1.241650390625,-0.0006884271278977394,0.006451241206377745,-0.00003968110104324296
1772807132853581300,1.251581298828125,-0.0013435647124424577,0.006322344299405813,-0.0034935346338897943
1772807132863513300,1.261513427734375,-0.0013187973527237773,0.006989466026425362,-0.0015936355339363217
1772807132873445400,1.2714453125,-0.0010554107138887048,0.005891178734600544,0.002037850907072425
1772807132883377400,1.28137744140625,-0.0012181298807263374,0.005301021970808506,-0.0009832390351220965
1772807132893308200,1.29130810546875,0.000051399008953012526,0.005376123357564211,-0.00044554684427566826
1772807132903240200,1.301240234375,-0.0012362393317744136,0.004561462439596653,0.002398442942649126
1772807132913172200,1.311172119140625,-0.00032916670897975564,0.008300806395709515,-0.0010863033821806312
1772807132923104300,1.321104248046875,-0.0001584580895723775,0.006676278542727232,-0.0002133192028850317
1772807132933035000,1.331034912109375,-0.002171275205910206,0.00896819494664669,-0.00025007082149386406
1772807132942967300,1.34096728515625,-0.0018242653459310532,0.007574562914669514,0.0002884203568100929
1772807132952899300,1.3508994140625,-0.0017473000334575772,0.005952964071184397,-0.0019955066964030266
1772807132962831400,1.360831298828125,-0.00035899411886930466,0.007958324626088142,-0.0014426343841478229
1772807132972763400,1.370763427734375,-0.0010120011866092682,0.006307963281869888,0.0034346787724643946
1772807132982694100,1.380694091796875,-0.0023302659392356873,0.007245662156492472,0.0013869742397218943
1772807132992626200,1.390626220703125,-0.0005318332696333528,0.007326888851821423,-0.00022610237647313625
1772807133002558200,1.40055810546875,-0.00029640982393175364,0.004227235447615385,0.0007683219737373292
1772807133012490200,1.410490234375,-0.0019797938875854015,0.005960420705378056,-0.00077631144085899
1772807133022421200,1.420421142578125,0.00021118867152836174,0.004986769054085016,-0.0003355582884978503
1772807133032353300,1.430353271484375,-0.000835966260638088,0.006472546607255936,-0.0024772724136710167
1772807133042285300,1.440285400390625,-0.0014615427935495973,0.005845904815942049,0.0007736482657492161
1772807133052217300,1.45021728515625,0.000040480048483004794,0.007951666601002216,-0.0012993563432246447
1772807133062148400,1.4601484375,-0.001017327536828816,0.005392901133745909,-0.0013845774810761213
1772807133072080100,1.470080078125,0.0004596615908667445,0.005774265620857477,-0.0001608549355296418
1772807133082012200,1.48001220703125,-0.0015843145083636045,0.0054759918712079525,0.0015571502735838294
1772807133091944200,1.489944091796875,0.0009403621661476791,0.004627508576959372,0.001008805469609797
1772807133101875200,1.499875244140625,-0.0004676510870922357,-0.010434531606733799,0.007309312000870705
1772807133111807200,1.50980712890625,-0.00213558878749609,0.015628494322299957,-0.010029731318354607
1772807133121739300,1.5197392578125,-0.0007227819296531379,0.01581784524023533,0.004773982334882021
1772807133131671300,1.52967138671875,0.00017177389236167073,-0.016018647700548172,-0.0044259075075387955
1772807133141602300,1.539602294921875,-0.0033694314770400524,0.0333305262029171,0.0030213561840355396
1772807133151534300,1.549534423828125,0.0016508935950696468,-0.02093857154250145,0.0023350596893578768
1772807133161466000,1.559466064453125,0.0002109223569277674,0.019240006804466248,0.0015459649730473757
1772807133171398100,1.569398193359375,-0.0011062771081924438,0.00430153775960207,-0.00040266994619742036
1772807133181329200,1.5793291015625,-0.0014194648247212172,-0.0012383698485791683,0.0006846986943855882
1772807133191261200,1.58926123046875,-0.0009590042755007744,0.017680194228887558,0.0029590383637696505
1772807133201193200,1.599193115234375,-0.00032570460462011397,-0.002793922321870923,0.0015060176374390721
1772807133211125200,1.609125244140625,0.00043888893560506403,0.010282465256750584,0.0014168017078191042
1772807133221056300,1.61905615234375,-0.001163268811069429,0.003403786104172468,-0.0008394283941015601
1772807133230988300,1.62898828125,0.0004689826746471226,0.004795021377503872,0.0017329188995063305
1772807133240920300,1.63892041015625,0.00008202536264434457,0.0057465690188109875,-0.00036245622322894633
1772807133250852000,1.64885205078125,-0.001073786523193121,0.004058657679706812,-0.000023968450477696024
1772807133260783000,1.658783203125,-0.001198688754811883,0.00905847642570734,0.0007968177669681609
1772807133270715100,1.668715087890625,-0.00006391586794052273,0.001948368619196117,-0.002288188086822629
1772807133280647200,1.678647216796875,-0.000258859246969223,0.008737298659980297,0.00021944446780253202
1772807133290579200,1.6885791015625,0.0003587277897167951,0.005527923349291086,-0.0001613875647308305
1772807133300510200,1.69851025390625,0.002493251347914338,0.005831257440149784,0.0014913701452314854
1772807133310442200,1.708442138671875,-0.0005339637864381075,0.007654990069568157,0.0016442356863990426
1772807133320374300,1.718374267578125,-0.0026325348298996687,0.003519101068377495,0.0018660769565030932
1772807133330306300,1.728306396484375,-0.0009161274065263569,0.006427273154258728,0.0011733887949958444
1772807133340237000,1.738237060546875,-0.0013946974650025368,0.004303135443478823,0.002386725042015314
1772807133350169000,1.748169189453125,-0.0030682277865707874,0.005020325072109699,0.000401604687795043
1772807133360101000,1.75810107421875,-0.000743554555810988,0.008339955471456051,0.0020535634830594063
1772807133370033200,1.768033203125,0.0010373012628406286,0.006764961872249842,-0.0009134642314165831
1772807133379964200,1.777964111328125,-0.004238686989992857,0.005988916382193565,-0.00014381069922819734
1772807133389896200,1.787896240234375,-0.0013321131700649858,0.006679740734398365,-0.0009054747642949224
1772807133399828200,1.797828125,-0.0012191950809210539,0.0057036918587982655,-0.0011118697002530098
1772807133409760300,1.80776025390625,-0.0029939257074147463,0.009120527654886246,-0.00035926041891798377
1772807133419692300,1.8176923828125,-0.0008652610122226179,0.0046602655202150345,0.0012069445801898837
1772807133429623000,1.827623046875,0.0003808320325333625,0.006410228554159403,-0.0020807278342545033
1772807133439555000,1.83755517578125,-0.003641340183094144,0.0064925202168524265,0.001490304945036769
1772807133449487000,1.847487060546875,-0.00017869810108095407,0.005145227070897818,-0.000511593243572861
1772807133459419100,1.857419189453125,-0.0010239854454994202,0.005830724723637104,0.0005171858938410878
1772807133469350400,1.867350341796875,-0.0007720504072494805,0.003325489116832614,-0.002715891692787409
1772807133479282200,1.8772822265625,-0.002626675646752119,0.005593437235802412,-0.0013401026371866465
1772807133489214200,1.887214111328125,0.0007970841252245009,0.007155381143093109,-0.002055694116279483
1772807133499146200,1.897146240234375,0.0000774979853304103,0.006582801695913076,0.0009773800848051906
1772807133509077200,1.9070771484375,0.0011552792275324464,0.003991279285401106,-0.0001994707708945498
1772807133519009000,1.917009033203125,-0.00006285060226218775,0.005126318894326687,0.0005219795857556164
1772807133528941000,1.926941162109375,-0.0006119944155216217,0.006731672212481499,0.0009454221581108868
1772807133538873000,1.936873046875,-0.0037028591614216566,0.005393700208514929,-0.00020213393145240843
1772807133548804400,1.946804443359375,-0.0030088394414633512,0.006470948923379183,0.0015329155139625072
1772807133558736400,1.956736328125,-0.0017843178939074278,0.00577932596206665,0.0008615325787104666
1772807133568668200,1.966668212890625,-0.0010833739070221782,0.006566023454070091,-0.001455151243135333
1772807133578600200,1.97660009765625,-0.0022684806026518345,0.004078897647559643,-0.0009070726810023189
1772807133588531200,1.98653125,0.00016671388584654778,0.006597449071705341,0.0024461133871227503
1772807133598463200,1.996463134765625,-0.002496979897841811,0.008551676757633686,0.00005406216951087117
1772807133608395300,2.006395263671875,-0.001139566651545465,0.006462160497903824,0.0010780475568026304
1772807133618327000,2.0163271484375,-0.0018136126454919577,0.004880775231868029,0.0009552759001962841
1772807133628258300,2.02625830078125,-0.0009206547983922064,0.007467237301170826,-0.000007190534688561456
1772807133638190300,2.0361904296875,0.0005914880894124508,0.0062613580375909805,-0.0007896272582001984
1772807133648122400,2.046122314453125,-0.0024708807468414307,0.007962319068610668,-0.00036458674003370106
1772807133658054100,2.05605419921875,-0.0005589975044131279,0.005194495897740126,-0.0004362257895991206
1772807133667985200,2.065985107421875,-0.0011832424206659198,0.0070099723525345325,0.0016311861108988523
1772807133677917200,2.075917236328125,-0.003631486324593425,0.0034471957478672266,-0.00007483482477255166
1772807133687849200,2.08584912109375,-0.0023161512799561024,0.006381200160831213,-0.0010956244077533484
1772807133697781200,2.09578125,-0.0033755565527826548,0.005652293097227812,-0.0012836436508223414
1772807133707712300,2.105712158203125,-0.001939580193720758,0.005790244787931442,0.00038163099088706076
1772807133717644300,2.115644287109375,-0.00041998049709945917,0.004821919370442629,0.0025590313598513603
1772807133727576300,2.125576416015625,-0.0014956312952563167,0.005337507463991642,0.0007518103811889887
1772807133737508400,2.13550830078125,0.0001001348573481664,0.003689010627567768,-0.0015246596885845065
1772807133747439000,2.145439208984375,0.0013739247806370258,0.005785184912383556,0.00043223105603829026
1772807133757371100,2.15537109375,0.0001651159836910665,0.006220345385372639,-0.000045540054998127744
1772807133767303200,2.16530322265625,0.00013875069271307439,0.0057287258096039295,0.00014674017438665032
1772807133777235200,2.175235107421875,-0.0001155811914941296,0.004177168011665344,-0.001820536912418902
1772807133787166200,2.185166259765625,-0.000666589243337512,0.006908239796757698,-0.0012072109384462237
1772807133797098200,2.19509814453125,-0.0006290386663749814,0.005110073368996382,-0.0015635418239980936
1772807133807030300,2.2050302734375,0.000294545607175678,0.005096225067973137,-0.00014940333494450897
1772807133816962300,2.21496240234375,0.00019494339358061552,0.007110107224434614,0.0015100123127922416
1772807133826893000,2.22489306640625,-0.0004966795677319169,0.00563977612182498,-0.002374208066612482
1772807133836825000,2.2348251953125,-0.0023182816803455353,0.005606752820312977,-0.0036045885644853115
1772807133846756900,2.2447568359375,0.0002383529208600521,0.005567338317632675,0.00016538229829166085
1772807133856689000,2.25468896484375,-0.0012460930738598108,0.004261590540409088,0.003260508179664612
1772807133866620200,2.2646201171875,-0.002082591876387596,0.00418276060372591,0.00012996226723771542
1772807133876552200,2.27455224609375,-0.0036008600145578384,0.005372927524149418,0.0003685815026983619
1772807133886484000,2.28448388671875,-0.0003701793903019279,0.007429953198879957,0.0009797769598662853
1772807133896416000,2.294416015625,-0.0002495381922926754,0.00657641002908349,0.002192580606788397
1772807133906347000,2.304346923828125,0.001347825862467289,0.0046243127435445786,0.0013915016315877438
1772807133916279000,2.314279052734375,-0.0008993495139293373,0.00686216726899147,-0.001335841603577137
1772807133926211000,2.324211181640625,-0.0003736414946615696,0.007027016952633858,-0.00002902845517382957
1772807133936142800,2.334142822265625,-0.002171807922422886,0.0067838700488209724,-0.0004218447138555348
1772807133946074000,2.34407421875,0.0003483414766378701,0.007780158892273903,-0.0005704491049982607
1772807133956006100,2.354006103515625,-0.0002961435238830745,0.006619819439947605,-0.0025305356830358505
1772807133965938200,2.363938232421875,-0.001421861699782312,0.00523790530860424,0.00017443705291952938
1772807133975870200,2.3738701171875,-0.0024852619972079992,0.005674929823726416,0.0015792545164003968
1772807133985801000,2.383801025390625,-0.0024229439441114664,0.004596349783241749,-0.0011427623685449362
1772807133995733000,2.39373291015625,-0.00048123320448212326,0.00896659679710865,0.0002263686910737306
1772807134005665000,2.4036650390625,0.00011638013529591262,0.005133509170264006,-0.0009020126308314502
1772807134015597000,2.41359716796875,-0.00009693906031316146,0.005264803301542997,0.0021997711155563593
1772807134025528000,2.423528076171875,-0.002517219865694642,0.004569718148559332,-0.0014998923288658261
1772807134035460000,2.433460205078125,-0.0025989788118749857,0.004057592246681452,-0.0004189152386970818
1772807134045392100,2.44339208984375,-0.00012010856153210625,0.0037832865491509438,0.0005603290628641844
1772807134055324200,2.45332421875,-0.0009046758059412241,0.006329535041004419,0.0008415589109063148
1772807134065255000,2.4632548828125,-0.0025044367648661137,0.006871222052723169,0.001255680457688868
1772807134075187000,2.47318701171875,0.0007451524725183845,0.004828044679015875,0.0017576862592250109
1772807134085119000,2.483118896484375,0.0011800467036664486,0.004293015692383051,0.001056209672242403
1772807134095051000,2.493051025390625,-0.0007094661123119295,0.006016347091645002,0.0013946974650025368
1772807134104982000,2.50298193359375,0.0002748382103163749,0.004859469830989838,0.0014447649009525776
1772807134114914000,2.5129140625,-0.0012713931500911713,0.005116997752338648,-0.0018200043123215437
1772807134124846000,2.52284619140625,-0.0019443739438429475,0.005262406077235937,-0.0017933726776391268
1772807134134778000,2.532778076171875,-0.00040266994619742036,0.005757487844675779,-0.00005219795639277436
1772807134144710100,2.542710205078125,-0.0008362325606867671,0.005534847732633352,-0.0008847020799294114
1772807134154641000,2.552640869140625,-0.0020450414158403873,0.005245361942797899,-0.003680222202092409
1772807134164573000,2.562572998046875,-0.0024557008873671293,0.005021390039473772,0.0013970943400636315
1772807134174505000,2.5725048828125,-0.0018365158466622233,0.008139153011143208,-0.001978195970878005
1772807134184437000,2.58243701171875,0.00126713200006634,0.007524495478719473,0.0006170544074848294
1772807134194368000,2.592367919921875,-0.0025515747256577015,0.0065740132704377174,0.0015664712991565466
1772807134204300000,2.602300048828125,-0.0015227955300360918,0.003970507066696882,0.00029055087361484766
1772807134214232000,2.612232177734375,0.00042264367220923305,0.004181695636361837,0.002293514320626855
1772807134224164000,2.6221640625,0.0005062668933533132,0.005601426586508751,0.0009930927772074938
1772807134234095000,2.63209521484375,-0.0002644518972374499,0.0067628310061991215,0.00148125016130507
1772807134244027000,2.64202685546875,0.0005576659459620714,0.006222742144018412,-0.00010865696822293103
1772807134253959000,2.651958984375,-0.0010894992155954242,0.00649731419980526,-0.003715908620506525
1772807134263891000,2.661890869140625,0.0007648598402738571,0.007291735149919987,0.0015371765475720167
1772807134273822000,2.671822021484375,0.0026106967125087976,0.006732737645506859,0.00041039311327040195
1772807134283754000,2.68175390625,0.00017070861940737814,0.0033478597179055214,0.0003635214816313237
1772807134293686000,2.69168603515625,-0.0023694143164902925,0.006268282420933247,-0.0004849616379942745
1772807134303618000,2.7016181640625,0.000669252360239625,0.00395745737478137,-0.0007358313887380064
1772807134313549000,2.711549072265625,-0.0020066918805241585,0.007156180217862129,-0.0008620652370154858
1772807134323481000,2.721481201171875,-0.001079911831766367,0.004559331573545933,-0.0003757720405701548
1772807134333413000,2.7314130859375,-0.0022309301421046257,0.003961984533816576,0.0012215919559821486
1772807134343345000,2.741344970703125,-0.0010998855577781796,0.006776946131139994,-0.0003968109958805144
1772807134353276000,2.75127587890625,0.000883636821527034,0.005680522415786982,0.0005938849062658846
1772807134363208000,2.7612080078125,-0.0003611246356740594,0.006509298458695412,0.00024048343766480684
1772807134373140200,2.77114013671875,0.0004524710529949516,0.005672799423336983,0.0006777744856663048
1772807134383072000,2.781072021484375,-0.002545981900766492,0.004087686073035002,-0.0007001450285315514
1772807134393003000,2.7910029296875,0.0005273058777675033,0.0068179587833583355,-0.000010918960470007733
1772807134402935000,2.80093505859375,0.0009427590412087739,0.004027498420327902,0.002796585438773036
1772807134412867000,2.8108671875,0.00038722361205145717,0.004596349783241749,0.003707386553287506
1772807134422799000,2.820799072265625,-0.0024351945612579584,0.005278118886053562,-0.0008197209681384265
1772807134432729900,2.830729736328125,-0.0012868394842371345,0.006686931010335684,-0.0003001382574439049
1772807134442662000,2.840661865234375,-0.00040613205055706203,0.007077350746840239,-0.0019923108629882336
1772807134452594000,2.850593994140625,0.0014887070283293724,0.006157228257507086,0.001088966615498066
1772807134462526200,2.860526123046875,-0.0034432008396834135,0.006341252941638231,-0.002133192028850317
1772807134472457000,2.87045703125,0.0015568839153274894,0.007704258430749178,0.0024112260434776545
1772807134482389000,2.880388916015625,-0.0007912251749075949,0.006715693045407534,0.0008261125767603517
1772807134492321000,2.890321044921875,-0.0004170510219410062,0.005036037415266037,-0.0014602112350985408
1772807134502253000,2.900253173828125,-0.0029198897536844015,0.007637945935130119,0.00017230652156285942
1772807134512183800,2.910183837890625,-0.0016666061710566282,0.007446730975061655,0.0005328985280357301
1772807134522115800,2.92011572265625,-0.0006034722900949419,0.006646184716373682,0.0011054781498387456
1772807134532048000,2.9300478515625,-0.00024154871061909944,0.003346794517710805,0.001817341079004109
1772807134541980000,2.93997998046875,-0.00016005597717594355,0.005893575493246317,0.0004820321628358215
1772807134551911200,2.9499111328125,-0.0006591323763132095,0.005848035216331482,-0.00048070057528093457
1772807134561843000,2.959843017578125,0.0004215783847030252,0.005334311630576849,0.0004596615908667445
1772807134571775000,2.96977490234375,-0.002147839404642582,0.0054363105446100235,-0.001041295938193798
1772807134581707000,2.97970703125,-0.0001560612436151132,0.005311674904078245,0.0010775149567052722
1772807134591638000,2.989637939453125,-0.0020663465838879347,0.0032988577149808407,0.0018935075495392084
1772807134601570000,2.999570068359375,-0.0004319647268857807,0.004731904715299606,-0.0010106696281582117
1772807134611501800,3.009501708984375,-0.00042983421008102596,0.006798517424613237,-0.0011891013709828258
1772807134621433900,3.019433837890625,-0.001876995898783207,0.009129582904279232,0.0012085424968972802
1772807134631365000,3.029365234375,0.0001371527905575931,0.005499161314219236,0.0003408846096135676
1772807134641297200,3.039297119140625,-0.0008993495139293373,0.008461661636829376,-0.002543318783864379
1772807134651229000,3.04922900390625,-0.0018943065078929067,0.007959655486047268,-0.0009004147723317146
1772807134661161000,3.059160888671875,-0.0012431635987013578,0.008639827370643616,0.0003608583356253803
1772807134671092000,3.069092041015625,-0.001002413802780211,0.00686243362724781,-0.0014953649369999766
1772807134681024000,3.07902392578125,-0.0007416903390549123,0.006646717432886362,0.0006263754912652075
1772807134690956000,3.0889560546875,-0.001814411603845656,0.0071037160232663155,0.0002814961189869791
1772807134700887800,3.0988876953125,0.0014833806781098247,0.007178816944360733,0.002694586291909218
1772807134710819000,3.108819091796875,-0.0007547398563474417,0.005471197888255119,0.0010279801208525896
1772807134720751000,3.118751220703125,0.00023435817274730653,0.006104764062911272,0.0008881642133928835
1772807134730683100,3.12868310546875,-0.0013994910987094045,0.006442719139158726,-0.0011627360945567489
1772807134740615200,3.138615234375,-0.0016500946367159486,0.00686243362724781,-0.00012064119800925255
1772807134750546000,3.1485458984375,-0.003032008884474635,0.007129282224923372,0.0009273127070628107
1772807134760478000,3.15847802734375,-0.00133877107873559,0.006643521599471569,-0.0002258360618725419
1772807134770410000,3.168409912109375,-0.0006684534018859267,0.00891013815999031,-0.0014977618120610714
1772807134780342000,3.178342041015625,-0.0005568669876083732,0.005188636481761932,0.00013262542779557407
1772807134790273000,3.18827294921875,-0.0014064153656363487,0.004936701618134975,-0.000824248360004276
1772807134800205000,3.198205078125,-0.0009448895580135286,0.006717291194945574,-0.0022397185675799847
1772807134810137000,3.20813720703125,-0.0005067995516583323,0.006500510033220053,-0.0004985437262803316
1772807134820069000,3.218069091796875,-0.00032091091270558536,0.007960454560816288,-0.00007110639853635803
1772807134830000400,3.22800048828125,-0.0009339706157334149,0.005585714243352413,0.0015081481542438269
1772807134839932400,3.237932373046875,-0.0026695525739341974,0.006926882080733776,0.0004394215648062527
1772807134849864200,3.2478642578125,0.00039974047103896737,0.0049526807852089405,0.0012405004817992449
1772807134859796200,3.257796142578125,0.00036272252327762544,0.005635248962789774,-0.00010918960470007733
1772807134869727500,3.2677275390625,0.0003182477375958115,0.004352404270321131,0.0022008363157510757
1772807134879659500,3.277659423828125,-0.0012247877893969417,0.008294148370623589,0.0004929511342197657
1772807134889591600,3.287591552734375,-0.0007118629291653633,0.004870655480772257,-0.0005691175465472043
1772807134899523300,3.2975234375,-0.0008729841792955995,0.006175870541483164,0.0019289276096969843
1772807134909454300,3.307454345703125,-0.0007368966471403837,0.005772135220468044,-0.0023284016642719507
1772807134919386400,3.317386474609375,-0.00010998855577781796,0.005104747135192156,0.000019707391402334906
1772807134929318400,3.327318359375,-0.0031561122741550207,0.007506385911256075,0.0010367685463279486
1772807134939250200,3.337250244140625,0.00023941817926242948,0.003955060616135597,-0.0009321063989773393
1772807134949181400,3.347181396484375,-0.0034796863328665495,0.0070344735868275166,0.001181644620373845
1772807134959113500,3.357113525390625,-0.0005880259559489787,0.0076097166165709496,0.0015006912872195244
1772807134969045500,3.36704541015625,-0.0024170849937945604,0.0075884112156927586,0.001127316034398973
1772807134978977500,3.3769775390625,-0.0013755226973444223,0.006582268979400396,-0.003285275539383292
1772807134988908300,3.386908203125,0.0004183826094958931,0.004999286029487848,-0.00040986048406921327
1772807134998840300,3.39684033203125,0.0012924320762977004,0.006863764952868223,-0.0023462448734790087
1772807135008772400,3.4067724609375,-0.003329484025016427,0.006644853390753269,0.0010418286547064781
1772807135018704400,3.416704345703125,-0.002494050422683358,0.005169994663447142,-0.00032623723382130265
1772807135028635100,3.42663525390625,-0.0013486248208209872,0.005881058517843485,0.0011121360585093498
1772807135038567400,3.4365673828125,-0.001418665866367519,0.005356415640562773,-0.0007030745036900043
1772807135048499500,3.44649951171875,-0.0014426343841478229,0.0033278861083090305,-0.0002980077115353197
1772807135058431500,3.456431396484375,-0.0005874933558516204,0.005825664848089218,-0.0001757686259225011
1772807135068362200,3.4663623046875,-0.0022154836915433407,0.006844057701528072,-0.0030533140525221825
1772807135078294300,3.476294189453125,0.0008199872681871057,0.006849650293588638,-0.0013145363191142678
1772807135088226300,3.486226318359375,-0.001990712946280837,0.006198240909725428,-0.0020178770646452904
1772807135098158300,3.496158447265625,0.00008255799184553325,0.0037414750549942255,0.0009805759182199836
1772807135108089300,3.50608935546875,0.0005201153689995408,0.00415453128516674,-0.00024234765442088246
1772807135118021400,3.516021484375,0.0013142699608579278,0.004539091605693102,-0.0009954896522685885
1772807135127953400,3.525953369140625,-0.0020743361674249172,0.004880242515355349,-0.00036991306114941835
1772807135137885400,3.535885498046875,-0.002429868094623089,0.007459780666977167,-0.0020873856265097857
1772807135147816400,3.54581640625,-0.0019478360190987587,0.006313822232186794,0.0010817759903147817
1772807135157748500,3.55574853515625,-0.0007845672662369907,0.004595017991960049,-0.0000066579027588886674
1772807135167680300,3.56568017578125,-0.0008423578692600131,0.008228635415434837,-0.0005693838465958834
1772807135177612300,3.5756123046875,-0.0026080335956066847,0.005988650489598513,-0.0014892396284267306
1772807135187543300,3.585543212890625,0.0004498079069890082,0.0036426717415452003,-0.0011536814272403717
1772807135197475300,3.595475341796875,-0.0019528960110619664,0.0037864823825657368,-0.0011078750248998404
1772807135207407400,3.605407470703125,-0.0024644893128424883,0.004095142707228661,-0.000764593540225178
1772807135217339400,3.61533935546875,-0.0006700513185933232,0.004208593629300594,0.00056219327962026
1772807135227270400,3.6252705078125,-0.0016077503096312284,0.004625644534826279,0.0012993563432246447
1772807135237202400,3.635202392578125,0.0015456987312063575,0.005244030617177486,0.0014711301773786545
1772807135247134500,3.645134521484375,0.0011124024167656898,0.006420881487429142,0.00008974852971732616
1772807135257066200,3.655066162109375,0.0007179882377386093,0.00624138442799449,0.00013209278404247016
1772807135266997200,3.664997314453125,-0.003078880487009883,0.007691209204494953,0.0008415589109063148
1772807135276929300,3.67492919921875,-0.002915895078331232,0.009343700483441353,0.00035659727291204035
1772807135286861300,3.684861328125,0.0001512675517005846,0.005475192796438932,0.00034700988908298314
1772807135296793300,3.69479345703125,0.00022370553051587194,0.0071098413318395615,-0.002606169320642948
1772807135306724400,3.704724365234375,0.0008431567694060504,0.007645668927580118,0.000030360035452758893
1772807135316656400,3.714656494140625,-0.002612560987472534,0.006975085008889437,-0.0002844255941454321
1772807135326588400,3.72458837890625,-0.0034045851789414883,0.006371612660586834,-0.0011885687708854675
1772807135336520400,3.7345205078125,-0.0009116000146605074,0.005787848029285669,0.0007097324123606086
1772807135346451200,3.744451171875,-0.0009973538108170033,0.00501047121360898,-0.000049801110435510054
1772807135356383200,3.75438330078125,-0.002877012826502323,0.0089391665533185,-0.0004386226355563849
1772807135366315300,3.764315185546875,0.0011140003334730864,0.004605138208717108,-0.0014887070283293724
1772807135376247300,3.774247314453125,-0.00012170646368758753,0.007482950109988451,0.0012213257141411304
1772807135386178300,3.78417822265625,-0.0004780374001711607,0.005841909907758236,0.002204830991104245
1772807135396110300,3.7941103515625,-0.002025866648182273,0.007893876172602177,-0.0010061422362923622
1772807135406042400,3.80404248046875,0.00004793690095539205,0.008619853295385838,0.0009571401169523597
1772807135415974400,3.813974365234375,-0.0019680759869515896,0.006884537637233734,-0.0006141249323263764
1772807135425906400,3.823906494140625,0.0004849616379942745,0.007093063089996576,0.0005619269795715809
1772807135435837200,3.833837158203125,0.0016042882343754172,0.0039265644736588,-0.0002764361270237714
1772807135445769200,3.843769287109375,0.00039521310827694833,0.005029646214097738,0.0014953649369999766
1772807135455701200,3.853701171875,-0.001335841603577137,0.005386775825172663,-0.0005139900604262948
1772807135465632500,3.863632568359375,0.003294063964858651,0.003869839245453477,-0.0009123989730142057
1772807135475564300,3.873564208984375,-0.0015688681742176414,0.006567621603608131,0.0005150553770363331
1772807135485496300,3.883496337890625,0.0003608583356253803,0.0052363071590662,-0.0001358212175546214
1772807135495428400,3.893428466796875,-0.0031619712244719267,0.00896579772233963,0.0011169298086315393
1772807135505359400,3.903359375,-0.0001536643976578489,0.007196926511824131,-0.0020530307665467262
1772807135515291400,3.91329150390625,-0.004040814470499754,0.006820089183747768,-0.00088976213010028
1772807135525223200,3.92322314453125,-0.001430916483514011,0.003905259305611253,0.000008788431841821875
1772807135535155200,3.9331552734375,-0.0015361113473773003,0.006405168678611517,-0.0004751079250127077
1772807135545086500,3.94308642578125,-0.0033212280832231045,0.004736698232591152,-0.0011163970921188593
1772807135555018500,3.9530185546875,-0.0012351741315796971,0.005510346498340368,-0.0009590042755007744
1772807135564950500,3.962950439453125,-0.0012269183062016964,0.005417935084551573,-0.0010897654574364424
1772807135574882300,3.97288232421875,-0.0034874093253165483,0.004519117996096611,0.0005017395596951246
1772807135584812300,3.982812255859375,-0.002094309777021408,0.007685350254178047,-0.0014037522487342358
1772807135594744300,3.992744384765625,-0.0005371595616452396,0.006844590418040752,0.0011909656459465623
1772807135604676400,4.00267626953125,-0.00013369068619795144,0.005938050337135792,-0.0012916331179440022
1772807135614607400,4.012607421875,-0.0006540723843500018,0.006803844124078751,-0.0005661880713887513
1772807135624539400,4.022539306640625,-0.001654355670325458,0.005408880300819874,-0.0015219965716823936
1772807135634471400,4.032471435546875,-0.0015342470724135637,0.005308212712407112,0.0002740392810665071
1772807135644403500,4.042403564453125,-0.000502804818097502,0.005847768858075142,-0.001475391210988164
1772807135654334200,4.052334228515625,-0.0031212246976792812,0.006967095658183098,-0.0005006743012927473
1772807135664266200,4.062266357421875,0.000526773277670145,0.006776413414627314,0.000182959163794294
1772807135674198300,4.0721982421875,-0.0007962851668708026,0.006072806194424629,-0.0034493261482566595
1772807135684130300,4.08213037109375,-0.0043902210891246796,0.007960454560816288,0.00002902845517382957
1772807135694061300,4.092061279296875,0.0013108078856021166,0.005650961305946112,-0.0016903083305805922
1772807135703993300,4.101993408203125,-0.002624545246362686,0.005784652195870876,-0.002930808812379837
1772807135713925400,4.11192529296875,0.0007057376787997782,0.006019010208547115,0.00040027310024015605
1772807135723857400,4.121857421875,-0.0034205641131848097,0.005678658373653889,-0.002517486223950982
1772807135733788200,4.1317880859375,-0.001157143502496183,0.004815794061869383,0.0010351707460358739
1772807135743720200,4.14172021484375,0.0012780509423464537,0.006388124544173479,0.00145195540972054
1772807135753652200,4.15165234375,0.0007864314829930663,0.0070741549134254456,0.0009363674325868487
1772807135763584300,4.161584228515625,-0.0027893949300050735,0.0037172401789575815,-0.00017310546536464244
1772807135773515500,4.171515625,-0.001915878034196794,0.009592972695827484,-0.0017132115317508578
1772807135783447300,4.181447265625,-0.0008934905636124313,0.0059814597479999065,0.00043595946044661105
1772807135793379300,4.19137939453125,-0.0014045510906726122,0.006527673918753862,-0.0005997438565827906
1772807135803311400,4.201311279296875,0.0022072279825806618,0.0060182115994393826,0.0013084110105410218
1772807135813242400,4.211242431640625,-0.001630120910704136,0.0037859496660530567,0.0011134676169604063
1772807135823174100,4.221174072265625,-0.0014628743520006537,0.006328735966235399,0.0011883024126291275
1772807135833106400,4.2311064453125,-0.00347435986623168,0.005745769944041967,-0.0004801679460797459
1772807135843038500,4.24103857421875,0.0005062668933533132,0.006322077941149473,0.00019893812714144588
1772807135852969700,4.2509697265625,-0.0006585997180081904,0.005489307455718517,0.0006026733317412436
1772807135862901800,4.26090185546875,-0.0008572715451009572,0.006743123754858971,-0.0012903015594929457
1772807135872833500,4.27083349609375,-0.000568318588193506,0.0054754591546952724,-0.0020335898734629154
1772807135882765600,4.280765625,-0.00018136126163881272,0.004612594842910767,0.0023310647811740637
1772807135892696600,4.290696533203125,0.00037923414492979646,0.006118612363934517,-0.00004660531703848392
1772807135902628600,4.300628662109375,-0.0022303974255919456,0.006471747532486916,-0.00040080572944134474
1772807135912560600,4.310560546875,-0.0016815199051052332,0.007355917245149612,0.00032916670897975564
1772807135922492400,4.320492431640625,-0.00088976213010028,0.004369981121271849,0.000024234765078290366
1772807135932423700,4.330423583984375,0.00044022052315995097,0.007789745926856995,0.00026258768048137426
1772807135942355700,4.340355712890625,-0.0018911106744781137,0.006509032100439072,0.00012836436508223414
1772807135952287700,4.350287841796875,-0.002633600030094385,0.007137537933886051,-0.0002735066518653184
1772807135962219800,4.3602197265625,-0.0011291803093627095,0.0070368703454732895,0.0011526161106303334
1772807135972151600,4.370151611328125,-0.0006290386663749814,0.005855492316186428,-0.00012170646368758753
1772807135982083600,4.38008349609375,0.00027510453946888447,0.005790777504444122,0.0006479470757767558
1772807135992014600,4.3900146484375,-0.0019526296528056264,0.005144428461790085,-0.00003728425508597866
1772807136001946600,4.399946533203125,0.000031691615731688216,0.00746271014213562,0.0003914846747647971
1772807136011878400,4.40987841796875,-0.0009898969437927008,0.007128216791898012,-0.0014213290996849537
1772807136021810400,4.419810546875,-0.0019289276096969843,0.007760184817016125,0.0007344998302869499
1772807136031741700,4.42974169921875,-0.0003374225052539259,0.006865895353257656,-0.00011345066013745964
1772807136041673700,4.439673828125,-0.0024194817524403334,0.007312774192541838,-0.000734766130335629
1772807136051605800,4.449605712890625,0.0010373012628406286,0.005054679699242115,-0.00032410668791271746
1772807136061537500,4.45953759765625,0.00013608753215521574,0.004966262727975845,-0.0015286544803529978
1772807136071468500,4.469468505859375,0.0004743089957628399,0.0060296631418168545,0.00036751621519215405
1772807136081400600,4.479400634765625,-0.0011020160745829344,0.00469462014734745,0.000005592638444795739
1772807136091332600,4.48933251953125,-0.00014194648247212172,0.006502906791865826,-0.0013816480059176683
1772807136101264600,4.4992646484375,-0.0023845944087952375,0.006354568526148796,-0.0017651431262493134
1772807136111195600,4.509195556640625,0.00008122641156660393,0.005947637837380171,-0.0007582019316032529
1772807136121127700,4.519127685546875,-0.0030067088082432747,0.008251804858446121,-0.001976331928744912
1772807136131059700,4.529059814453125,-0.0007315703551284969,0.005252819042652845,-0.00005912217602599412
1772807136140991700,4.53899169921875,-0.0005403553950600326,0.006057892460376024,-0.0004945489927195013
1772807136150922500,4.548922607421875,-0.0026109630707651377,0.007299724500626326,0.0009680590592324734
1772807136160854500,4.5588544921875,0.0014591459184885025,0.006187854800373316,0.000532365869730711
1772807136170786600,4.56878662109375,-0.0007408913807012141,0.005411277059465647,-0.0005515406373888254
1772807136180718600,4.578718505859375,0.0007203850545920432,0.003917243797332048,-0.0015299860388040543
1772807136190649600,4.588649658203125,-0.001874332781881094,0.007928497157990932,-0.0001030643325066194
1772807136200581600,4.59858154296875,-0.0021875204984098673,0.005961486138403416,0.0003123887872789055
1772807136210513700,4.608513671875,-0.0014508900931105018,0.006040315609425306,0.0012799152173101902
1772807136220445700,4.61844580078125,-0.0008253136184066534,0.00509942090138793,-0.002311357529833913
1772807136230376400,4.62837646484375,-0.0007749798824079335,0.004062918480485678,0.000844754686113447
1772807136240308500,4.63830859375,-0.0007374293054454029,0.0070680296048521996,-0.0011238539591431618
1772807136250240500,4.648240478515625,0.0006183860241435468,0.006121275946497917,0.002416019793599844
1772807136260172500,4.658172607421875,-0.0016341155860573053,0.006066414527595043,-0.000222373942960985
1772807136270103800,4.668103759765625,0.00026738137239590287,0.006332997232675552,-0.00020825919636990875
1772807136280035600,4.67803564453125,-0.003370496677234769,0.008189486339688301,-0.00133903743699193
1772807136289967600,4.687967529296875,-0.0008000136003829539,0.005901032127439976,0.0006103964988142252
1772807136299899600,4.697899658203125,-0.00006151902198325843,0.005031776614487171,-0.0005440838285721838
1772807136309830700,4.70783056640625,-0.0017675400013104081,0.00398568669334054,-0.0005515406373888254
1772807136319762700,4.7177626953125,-0.0003384877636563033,0.00563950976356864,0.00003488740912871435
1772807136329694500,4.727694580078125,-0.0005448827287182212,0.004865861497819424,0.001871403306722641
1772807136339626500,4.73762646484375,-0.0006852313526906073,0.006718090269714594,0.0002961435238830745
1772807136349557800,4.747557861328125,0.00019920444174204022,0.005279184319078922,0.00028575718170031905
1772807136359489800,4.75748974609375,0.0012112056137993932,0.0037641117814928293,0.0012532835826277733
1772807136369421600,4.767421630859375,0.0026021746452897787,0.00529463030397892,-0.0014791196445003152
1772807136379353600,4.777353515625,-0.0007502124644815922,0.005548962391912937,-0.00015286543930415064
1772807136389284600,4.78728466796875,-0.0012966931099072099,0.00555295730009675,-0.0002902845444623381
1772807136399216600,4.797216552734375,-0.0019587550777941942,0.005666141398251057,-0.00029401297797448933
1772807136409148700,4.807148681640625,-0.001341700553894043,0.006072007119655609,0.00043302998528815806
1772807136419080400,4.81708056640625,0.0006644586683250964,0.006566289812326431,-0.00006684534309897572
1772807136429011500,4.827011474609375,-0.0018847191240638494,0.005657086614519358,-0.0008482168195769191
1772807136438943700,4.83694384765625,-0.002183259464800358,0.0064989118836820126,0.0008466189028695226
1772807136448875800,4.846875732421875,-0.0012024171883240342,0.005120992194861174,0.0012253203894942999
1772807136458807800,4.856807861328125,0.001814677962101996,0.007354319095611572,0.0009587379754520953
1772807136468738600,4.866738525390625,-0.0017238641157746315,0.004122839774936438,-0.0013456953456625342
1772807136478670600,4.876670654296875,-0.0022623552940785885,0.0052054147236049175,0.0030360035598278046
1772807136488602600,4.8866025390625,-0.002168878447264433,0.006453105714172125,0.002017344580963254
1772807136498534700,4.89653466796875,0.00005512743518920615,0.005691441707313061,0.000603738590143621
1772807136508465400,4.90646533203125,-0.00018801917030941695,0.007383880205452442,0.0013606089632958174
1772807136518397700,4.916397705078125,-0.00026551715563982725,0.00754952896386385,-0.001377386855892837
1772807136528329700,4.926329833984375,0.000313986703986302,0.005018993280827999,-0.0010178601369261742
1772807136538261800,4.93626171875,-0.001142496126703918,0.005397428758442402,0.0001030643325066194
1772807136548192500,4.946192626953125,-0.003668504301458597,0.004775846842676401,-0.00018615495355334133
1772807136558124500,4.95612451171875,-0.0005688511882908642,0.005938316695392132,-0.0015536881983280182
1772807136568056600,4.966056640625,0.0012900352012366056,0.005260808393359184,0.0002932140196207911
1772807136577988600,4.975988525390625,-0.0009576727170497179,0.005219263024628162,0.0011049455497413874
1772807136587919600,4.985919677734375,0.0004141215467825532,0.005125786177814007,-0.00025246766745112836
1772807136597851400,4.995851318359375,0.0008644621120765805,0.003811516100540757,-0.000669518718495965
1772807136607783700,5.00578369140625,-0.00047697214176878333,0.007178017869591713,-0.0023425165563821793
1772807136617715700,5.0157158203125,-0.0013941648649051785,0.004938299767673016,-0.00010439591278554872
1772807136627646700,5.025646728515625,0.00005965480886516161,0.003988616168498993,-0.0011789813870564103
1772807136637578500,5.03557861328125,0.0009241168736480176,0.005539641249924898,0.00024501082953065634
1772807136647510500,5.045510498046875,-0.0015193333383649588,0.005730856209993362,-0.0004492752777878195
1772807136657442600,5.055442626953125,-0.003632285399362445,0.007595867849886417,-0.0003014698449987918
1772807136667373600,5.06537353515625,-0.001026115962304175,0.007779093459248543,-0.0025979136116802692
1772807136677305600,5.0753056640625,-0.00030173614504747093,0.005780923645943403,0.0006372944335453212
1772807136687237400,5.0852373046875,-0.0033342777751386166,0.005833121482282877,0.0029830066487193108
1772807136697169700,5.095169677734375,-0.0015560849569737911,0.0073774890042841434,0.0007811051327735186
1772807136707100700,5.1051005859375,-0.001912948559038341,0.00487225316464901,0.00019920444174204022
1772807136717032700,5.11503271484375,0.0001179780374513939,0.005949501879513264,-0.0003741741238627583
1772807136726964700,5.12496484375,-0.0009161274065263569,0.006754841655492783,-0.00010865696822293103
1772807136736896500,5.134896484375,0.0009387642494402826,0.004335093777626753,0.0011124024167656898
1772807136746827500,5.14482763671875,-0.0023523701820522547,0.00549303600564599,0.0011920308461412787
1772807136756759600,5.154759521484375,-0.0017694041598588228,0.005820871330797672,-0.001856223214417696
1772807136766691600,5.164691650390625,0.00016245282313320786,0.007905061356723309,0.001284975209273398
1772807136776623400,5.174623291015625,0.00040080572944134474,0.0037169738207012415,-0.00011238539445912465
1772807136786554600,5.1845546875,-0.0032826124224811792,0.007641408126801252,0.0006466155173256993
1772807136796486700,5.194486572265625,-0.00304718897677958,0.006593454163521528,0.0010357033461332321
1772807136806418700,5.204418701171875,-0.0027142937760800123,0.0036482643336057663,-0.0007326356135308743
1772807136816350700,5.214350830078125,-0.0022237394005060196,0.005027781706303358,0.0003475425182841718
1772807136826281500,5.224281494140625,-0.0013225257862359285,0.0067910607904195786,-0.00042344260145910084
1772807136836213200,5.234213134765625,-0.0002490055630914867,0.006745786871761084,0.0006050702068023384
1772807136846145300,5.244145263671875,-0.002528138691559434,0.0054906392470002174,-0.0035151063930243254
1772807136856077300,5.254077392578125,-0.0008870989549905062,0.006554305553436279,-0.00006711165769957006
1772807136866008300,5.26400830078125,-0.0008247809601016343,0.004904743749648333,0.0025031049735844135
1772807136875940400,5.2739404296875,-0.00021358551748562604,0.005970807280391455,0.0007898935582488775
1772807136885872400,5.283872314453125,-0.000026897927455138415,0.006535930093377829,-0.0010982876410707831
1772807136895804200,5.29380419921875,-0.0005195827106945217,0.006648581475019455,-0.0011659319279715419
1772807136905735200,5.303735107421875,-0.003306048223748803,0.005781190004199743,0.0004170510219410062
1772807136915667200,5.313667236328125,-0.0021110877860337496,0.006204099860042334,-0.0014290522085502744
1772807136925599200,5.32359912109375,-0.0005432848702184856,0.005637645721435547,-0.00036938043194822967
1772807136935531300,5.33353125,0.0005065332516096532,0.0062128882855176926,0.00014194648247212172
1772807136945462300,5.343462158203125,-0.0005816344055347145,0.006968959700316191,-0.001564873498864472
1772807136955394300,5.353394287109375,0.0024256070610135794,0.0038983351550996304,0.0009009473724290729
1772807136965326300,5.363326416015625,-0.0018490327056497335,0.00503976596519351,0.0013251889031380415
1772807136975258400,5.37325830078125,-0.002002430846914649,0.006471215281635523,-0.001276453142054379
1772807136985189000,5.383189208984375,0.00049082055920735,0.0049532135017216206,-0.00044128578156232834
1772807136995121200,5.39312109375,-0.0015190670965239406,0.006638728082180023,-0.0006026733317412436
1772807137005053200,5.40305322265625,0.00011238539445912465,0.005258411634713411,0.0011416971683502197
1772807137014985200,5.412985107421875,-0.0014413028256967664,0.006175870541483164,-0.0001656486128922552
1772807137024916200,5.422916259765625,0.0004021373169962317,0.007233412005007267,-0.00009693906031316146
1772807137034848300,5.43284814453125,-0.0018588864477351308,0.00743181724101305,-0.0015475628897547722
1772807137044780300,5.4427802734375,-0.0010996191995218396,0.005600095260888338,-0.00022317290131468326
1772807137054712300,5.45271240234375,-0.0012149340473115444,0.005221393425017595,0.0010538127971813083
1772807137064643300,5.462643310546875,0.0002873550693038851,0.005088502075523138,0.0015073491958901286
1772807137074575000,5.4725751953125,-0.0010942928493022919,0.007788947317749262,0.001543834456242621
1772807137084507100,5.482507080078125,-0.00005725796290789731,0.006140184123069048,0.00024980452144518495
1772807137094439200,5.492439208984375,-0.0018927085911855102,0.007665909361094236,-0.0006886934279464185
1772807137104370400,5.502370361328125,-0.0015494271647185087,0.0057076867669820786,0.0017536915838718414
1772807137114302200,5.51230224609375,0.00017656758427619934,0.007258711848407984,0.0006687197601422668
1772807137124234200,5.522234130859375,-0.003312173532322049,0.004825381562113762,0.00041998049709945917
1772807137134166300,5.532166259765625,0.0006322344415821135,0.005496231839060783,0.00307648372836411
1772807137144097300,5.54209716796875,0.0010460896883159876,0.004737230949103832,-0.001975000137463212
1772807137154029300,5.552029296875,-0.0015422365395352244,0.006610764656215906,0.00015206649550236762
1772807137163961000,5.561961181640625,-0.0011353056179359555,0.006340187508612871,-0.0022919164039194584
1772807137173893000,5.57189306640625,-0.001443166984245181,0.007248857989907265,-0.0008900284301489592
1772807137183824400,5.581824462890625,0.0011765845119953156,0.005577990785241127,0.0033334787003695965
1772807137193756400,5.59175634765625,0.000010918960470007733,0.006905843038111925,0.0012492889072746038
1772807137203688400,5.6016884765625,-0.0034285534638911486,0.004904477391391993,0.0006181196658872068
1772807137213620200,5.6116201171875,0.0008972189389169216,0.005598230753093958,0.0015622102655470371
1772807137223551200,5.62155126953125,-0.0015068164793774486,0.006366286426782608,0.0014745922526344657
1772807137233483300,5.631483154296875,-0.0009528790251351893,0.004847219679504633,0.0006250438746064901
1772807137243415300,5.641415283203125,-0.0009416937828063965,0.00752050057053566,-0.0019230686593800783
1772807137253347000,5.65134716796875,-0.0007712514488957822,0.0059654805809259415,0.00008069378236541525
1772807137263278300,5.6612783203125,-0.0012058793799951673,0.005320729687809944,0.003948136232793331
1772807137273210400,5.67121044921875,-0.0008964200387708843,0.005790244787931442,-0.0002860235108528286
1772807137283142400,5.681142333984375,-0.0005901564727537334,0.005343100056052208,-0.0003115898580290377
1772807137293074400,5.691074462890625,0.0004577973741106689,0.004796885885298252,0.0019984361715614796
1772807137303005200,5.701005126953125,-0.0012120045721530914,0.005115932319313288,-0.0035260252188891172
1772807137312937200,5.710937255859375,-0.00026365293888375163,0.006573746912181377,0.0012149340473115444
1772807137322869200,5.720869140625,-0.0004902879591099918,0.004604871850460768,0.0014913701452314854
1772807137332801300,5.73080126953125,-0.0021401161793619394,0.006016080733388662,-0.00010466222738614306
1772807137342732300,5.740732177734375,-0.0023158849216997623,0.005916744936257601,0.0005262406193651259
1772807137352664300,5.750664306640625,-0.00022397184511646628,0.0060112872160971165,0.00112438655924052
1772807137362596400,5.760596435546875,-0.00032384038786403835,0.004565190523862839,-0.0007273092633113265
1772807137372528400,5.7705283203125,-0.0020240023732185364,0.005931125953793526,-0.0020535634830594063
1772807137382459100,5.780459228515625,-0.00301736150868237,0.006825149059295654,0.0002591255761217326
1772807137392391200,5.79039111328125,-0.0010016148444265127,0.0030091057997196913,0.0024527714122086763
1772807137402323200,5.8003232421875,-0.0025622271932661533,0.007769505959004164,0.00046845004544593394
1772807137412255200,5.810255126953125,-0.0008434231276623905,0.003238936420530081,0.0001627191377338022
1772807137422186500,5.8201865234375,-0.002444781828671694,0.005573463626205921,0.0015867113834246993
1772807137432118300,5.8301181640625,-0.00041971419705078006,0.008360194973647594,0.001853293739259243
1772807137442050300,5.84005029296875,0.0008274441352114081,0.005806223955005407,-0.0008407599525526166
1772807137451982300,5.849982421875,-0.0001752359967213124,0.005526858381927013,-0.00037497308221645653
1772807137461913300,5.859913330078125,-0.002138518262654543,0.00577719509601593,0.001172323478385806
1772807137471845000,5.86984521484375,0.0012684636749327183,0.007698133587837219,0.0015329155139625072
1772807137481777200,5.879777099609375,-0.002014148747548461,0.007543670013546944,-0.0002205097407568246
1772807137491709200,5.889709228515625,-0.002270611235871911,0.0043992758728563786,0.001614940818399191
1772807137501640200,5.89964013671875,-0.0017473000334575772,0.0048858351074159145,-0.0010783139150589705
1772807137511572500,5.909572509765625,0.000847950461320579,0.006209426559507847,-0.0014154701493680477
1772807137521504300,5.919504150390625,-0.0017944378778338432,0.0037494644057005644,0.0006005428149364889
1772807137531436300,5.929436279296875,-0.0007922904333099723,0.007121026515960693,-0.0006399576086550951
1772807137541367300,5.9393671875,0.0006684534018859267,0.005468268413096666,-0.0014839133946225047
1772807137551299300,5.94929931640625,0.0013374395202845335,0.007473895326256752,-0.0002133192028850317
1772807137561231400,5.9592314453125,-0.000675111310556531,0.0072962623089551926,0.0002836266648955643
1772807137571163100,5.9691630859375,-0.0011765845119953156,0.0049795787781476974,-0.000007723167072981596
1772807137581094100,5.97909423828125,-0.0020479708909988403,0.008949552662670612,-0.0008809737046249211
1772807137591026400,5.9890263671875,-0.001383778522722423,0.003991013392806053,-0.002508697798475623
1772807137600958500,5.99895849609375,-0.0002146507758880034,0.005081844050437212,-0.00026072346372529864
1772807137610890200,6.00889013671875,-0.0010229201288893819,0.00504003232344985,-0.001127316034398973
1772807137620821200,6.0188212890625,-0.0008396946941502392,0.0049281795509159565,0.0001179780374513939
1772807137630753300,6.028753173828125,0.001008805469609797,0.005113535560667515,-0.0001358212175546214
1772807137640685300,6.038685302734375,0.00010333064710721374,0.006863232236355543,-0.0009030779474414885
1772807137650617300,6.048617431640625,-0.0006149238906800747,0.008192682638764381,0.0018469021888449788
1772807137660548000,6.058548095703125,0.0000045273736759554595,0.004985969979315996,0.0018391790799796581
1772807137670480100,6.068480224609375,-0.0026911243330687284,0.005507150664925575,0.00021971078240312636
1772807137680412400,6.078412353515625,-0.00014061490946915,0.006899451371282339,-0.0018250643042847514
1772807137690344400,6.088344482421875,0.0007416903390549123,0.007083475589752197,0.0021728731226176023
1772807137700275200,6.098275146484375,-0.0009563411585986614,0.0060022324323654175,0.0009302421822212636
1772807137710207200,6.108207275390625,-0.0005336974863894284,0.005113535560667515,0.00026072346372529864
1772807137720139300,6.11813916015625,-0.002365952357649803,0.007539675105363131,0.0008772452711127698
1772807137730071300,6.1280712890625,-0.0004572647449094802,0.00532419141381979,-0.0005792375304736197
1772807137740003300,6.13800341796875,-0.0011134676169604063,0.005971073638647795,-0.0023821976501494646
1772807137749934000,6.14793408203125,-0.0006607302348129451,0.005390238016843796,-0.001630120910704136
1772807137759866000,6.1578662109375,-0.001276186783798039,0.006893326062709093,0.0010037453612312675
1772807137769798400,6.16779833984375,-0.0019238675013184547,0.006261890754103661,-0.0008633967954665422
1772807137779730400,6.17773046875,-0.001532382913865149,0.00621182331815362,-0.0011656655697152019
1772807137789661200,6.1876611328125,-0.0012002866715192795,0.0059654805809259415,0.00043755737715400755
1772807137799593200,6.19759326171875,-0.0011193265672773123,0.0057617491111159325,-0.001633316627703607
1772807137809525200,6.207525146484375,-0.003337473375722766,0.0049494849517941475,-0.00101173494476825
1772807137819457300,6.217457275390625,-0.001306014135479927,0.0047055394388735294,-0.002282329136505723
1772807137829388800,6.227388916015625,-0.0006908240029588342,0.006674946751445532,-0.0018964370246976614
1772807137839320800,6.23732080078125,-0.0011289139511063695,0.00555269094184041,-0.0009960222523659468
1772807137849252900,6.2472529296875,-0.0006578007596544921,0.006917560938745737,0.000018109494703821838
1772807137859184600,6.2571845703125,-0.001347293145954609,0.006687996443361044,0.00004394215648062527
1772807137869116000,6.267115966796875,-0.0004748416249640286,0.0052442969754338264,-0.0025979136116802692
1772807137879048000,6.2770478515625,-0.0033595776185393333,0.007217166479676962,0.0003195793251506984
1772807137888980000,6.28697998046875,-0.0013403689954429865,0.005941512528806925,0.0008407599525526166
1772807137898912000,6.296912109375,0.0015968313673511147,0.00660410663112998,-0.0014330470003187656
1772807137908842800,6.3068427734375,-0.0002407497668173164,0.0059742690064013,-0.0026525084394961596
1772807137918774800,6.31677490234375,-0.003498328384011984,0.006395314820110798,-0.0010655306978151202
1772807137928706800,6.326706787109375,-0.0019510318525135517,0.004950284026563168,0.0010894992155954242
1772807137938638800,6.336638916015625,0.00036751621519215405,0.006313822232186794,-0.0007848335662856698
1772807137948569900,6.34656982421875,-0.0013733921805396676,0.005615274887531996,-0.00034674355993047357
1772807137958502000,6.356501953125,-0.0036160401068627834,0.004701810888946056,0.0004159857635386288
1772807137968434000,6.366433837890625,-0.0010668623726814985,0.005227518733590841,0.0023313311394304037
1772807137978366000,6.376365966796875,0.0004295678809285164,0.007643804885447025,-0.002642654813826084
1772807137988296700,6.386296630859375,0.0001805623178370297,0.007210508454591036,0.001526257605291903
1772807137998228700,6.396228759765625,-0.0020149475894868374,0.006923686247318983,0.0005392901366576552
1772807138008160800,6.406160888671875,0.00008495483780279756,0.006041114684194326,0.00018029600323643535
1772807138018092800,6.4160927734375,-0.0006029396899975836,0.0026463831309229136,0.00261868629604578
1772807138028024000,6.426024169921875,-0.0012602078495547175,0.002947852946817875,-0.00038482676609419286
1772807138037955800,6.435955810546875,0.0004500742070376873,0.005343899130821228,-0.0010298443958163261
1772807138047888000,6.445887939453125,-0.0007009439868852496,0.004993959795683622,0.0006474144756793976
1772807138057820000,6.45581982421875,0.001097755040973425,0.005248291417956352,0.0013816480059176683
1772807138067751000,6.4657509765625,0.000601075473241508,0.006587328854948282,0.0006167881074361503
1772807138077682700,6.4756826171875,-0.0003001382574439049,0.006714361719787121,0.0004980111261829734
1772807138087614700,6.48561474609375,-0.0028189560398459435,0.006037652492523193,0.0024378576781600714
1772807138097546800,6.495546630859375,-0.0003270361921750009,0.0077458037994802,-0.0013014868600293994
1772807138107478000,6.50547802734375,0.0014450311427935958,0.0057132793590426445,-0.000803209375590086
1772807138117410000,6.51541015625,0.0011105381418019533,0.0065079666674137115,0.0024913870729506016
1772807138127341800,6.525341796875,-0.0011089402250945568,0.0062733422964811325,0.0006362291751429439
1772807138137273900,6.53527392578125,-0.000928111607208848,0.007214769721031189,-0.0019385149935260415
1772807138147204900,6.545204833984375,-0.0010490191634744406,0.006828078534454107,-0.00020426444825716317
1772807138157137000,6.555136962890625,-0.0023640880826860666,0.005162005312740803,0.0007579356315545738
1772807138167069000,6.56506884765625,0.00002663161103555467,0.006476541515439749,-0.001201618229970336
1772807138177000700,6.575000732421875,-0.00039654469583183527,0.006232596002519131,0.0020628846250474453
1772807138186932000,6.584931884765625,-0.001832787413150072,0.00714526092633605,0.0015893745003268123
1772807138196864000,6.594864013671875,-0.0008386294357478619,0.0067599015310406685,0.001130511867813766
1772807138206796000,6.604796142578125,0.0006596649764105678,0.005714078433811665,-0.00012650014832615852
1772807138216727800,6.614727783203125,-0.0031856733839958906,0.004887699615210295,0.00042344260145910084
1772807138226658800,6.624658935546875,-0.0023374564480036497,0.0052205948159098625,-0.0002463423879817128
1772807138236590800,6.6345908203125,0.00016937704640440643,0.005110872443765402,0.001210939371958375
1772807138246523000,6.64452294921875,-0.000835966260638088,0.006073871627449989,0.0010745854815468192
1772807138256455000,6.654454833984375,-0.0004063983797095716,0.005898102652281523,-0.0013169331941753626
1772807138266386000,6.664385986328125,0.0008199872681871057,0.006620352156460285,0.0015398397808894515
1772807138276318000,6.67431787109375,-0.0018138790037482977,0.0070669641718268394,0.0015683355741202831
1772807138286250000,6.68425,-0.0003992078418377787,0.003918308764696121,0.0014261227333918214
1772807138296182000,6.69418212890625,-0.0018722022650763392,0.007035272661596537,0.0005462143453769386
1772807138306112800,6.70411279296875,-0.0016421051695942879,0.003947869874536991,-0.002942793071269989
1772807138316044800,6.714044921875,-0.0008045409340411425,0.00421285443007946,-0.0002479403046891093
1772807138325976800,6.723976806640625,-0.0012213257141411304,0.00740225613117218,0.0021763353142887354
1772807138335908900,6.733908935546875,0.000179230744834058,0.0075852153822779655,0.0015073491958901286
1772807138345839600,6.743839599609375,-0.0010809770319610834,0.05098089203238487,0.00549223693087697
1772807138355772000,6.75377197265625,-0.0021470405627042055,0.03644855320453644,0.0024684839881956577
1772807138365704000,6.763703857421875,-0.00037523938226513565,0.016217319294810295,0.0017385114915668964
1772807138375636000,6.773635986328125,-0.0004269047058187425,0.02437884360551834,0.0018109495285898447
1772807138385567000,6.78356689453125,-0.0023907197173684835,0.013579457998275757,-0.00020053602929692715
1772807138395498800,6.793498779296875,-0.002800047630444169,0.009256082586944103,-0.0007478156476281583
1772807138405430800,6.8034306640625,-0.0000958738019107841,-0.0005219795857556164,-0.0024114924017339945
1772807138415362800,6.81336279296875,0.0005374259199015796,-0.0044322991743683815,-0.0009816411184147
1772807138425293800,6.8232939453125,-0.0007747135823592544,0.004055195488035679,-0.00012783173588104546
1772807138435225900,6.833225830078125,0.0004697816038969904,-0.007653392385691404,0.0008420915110036731
1772807138445158000,6.843157958984375,0.0004767058417201042,-0.010971690528094769,-0.004512726329267025
1772807138455090000,6.85308984375,0.0007776430575177073,-0.017973408102989197,-0.0035244273021817207
1772807138465021000,6.86302099609375,0.0019403791520744562,-0.038899727165699005,-0.010490723885595798
1772807138474953000,6.872952880859375,0.0008535431115888059,0.006898385938256979,-0.00216514989733696
1772807138484884700,6.882884765625,0.0015299860388040543,0.0052086105570197105,0.001389104756526649
1772807138494816800,6.892816650390625,-0.000290018244413659,0.005374791566282511,-0.0015510249650105834
