time,seconds_elapsed,z,y,x
1772807131679150600,0.077150634765625,0.0004825617070309818,0.0012190225534141064,-0.0004215985245537013
1772807131689082400,0.087082275390625,0.0004007371608167887,0.0010805903002619743,-0.00210110773332417
1772807131699014400,0.097014404296875,-0.0008608022471889853,0.0007857787422835827,-0.001023859134875238
1772807131708945400,0.1069453125,-0.0011909434106200933,0.0013331077061593533,0.0020720527973026037
1772807131718877400,0.11687744140625,-0.000883614644408226,-0.002576678991317749,0.0008749619591981173
1772807131728809500,0.1268095703125,0.001995354425162077,-0.0006510782986879349,0.000014051467587705702
1772807131738741500,0.136741455078125,-0.00013091345317661762,0.00031671440228819847,0.00124922557733953
1772807131748672500,0.146672607421875,-0.00003520038444548845,0.002368566580116749,-0.0017666262574493885
1772807131758604500,0.1566044921875,0.00223940541036427,0.0028953393921256065,-0.0004984290571883321
1772807131768536600,0.16653662109375,0.0013241374399513006,0.0001753624528646469,-0.00041954530752263963
1772807131778468400,0.17646826171875,0.0003595405141822994,-0.00024248752743005753,0.0009810110786929727
1772807131788399400,0.1863994140625,-0.0017684574704617262,0.0003379913978278637,-0.00037233869079500437
1772807131798331400,0.196331298828125,0.0009948384249582887,-0.00010249530896544456,-0.00009137520100921392
1772807131808263400,0.206263427734375,0.0013840505853295326,-0.00028403429314494133,-0.0025698766112327576
1772807131818195500,0.216195556640625,-0.0009536721045151353,-0.0018116231076419353,0.001370536396279931
1772807131828126000,0.2261259765625,0.00021155917784199119,0.001635751686990261,0.0017025512643158436
1772807131838057700,0.2360576171875,-0.0006169502157717943,-0.0022380822338163853,0.0006133184651844203
1772807131847989800,0.24598974609375,-0.00019379425793886185,-0.0014887605793774128,0.0018141934415325522
1772807131857921800,0.255921875,-0.002020456362515688,-0.0002384064719080925,0.0011377505725249648
1772807131867852800,0.265852783203125,0.00040130113484337926,0.001619416754692793,-0.0028975820168852806
1772807131877785000,0.27578515625,-0.0013079156633466482,0.00026892777532339096,0.0007988856523297727
1772807131887716900,0.285716796875,0.001463681343011558,0.002471471671015024,-0.00009702951501822099
1772807131897649000,0.29564892578125,0.0006649993010796607,0.001580644864588976,-0.0008187461644411087
1772807131907580000,0.305579833984375,-0.0010900871129706502,0.0005589444190263748,-0.0012445037718862295
1772807131917512000,0.315511962890625,0.0005128695047460496,0.0000026100315153598785,0.00001623666685190983
1772807131927443700,0.325443603515625,0.000004135421477258205,-0.0019615557976067066,0.0016869445098564029
1772807131937375700,0.335375732421875,-0.0011186533374711871,0.0005284999497234821,-0.0017866163980215788
1772807131947306800,0.345306640625,0.0007532925810664892,-0.002309332601726055,0.0005138389533385634
1772807131957239000,0.355239013671875,0.0003463616012595594,0.002096867188811302,0.0021170619875192642
1772807131967171000,0.365171142578125,-0.0011784762609750032,0.0006731976754963398,-0.0011003842810168862
1772807131977102800,0.375102783203125,0.00036216253647580743,0.0029206397011876106,-0.0017022585961967707
1772807131987035000,0.385034912109375,-0.0008928612805902958,-0.0006495965644717216,0.0013335974654182792
1772807131996966000,0.3949658203125,0.0020800253842025995,0.0006111436523497105,0.0005354481399990618
1772807132006898000,0.40489794921875,0.002383363898843527,0.0007803444750607014,-0.0011215036502107978
1772807132016830000,0.414829833984375,-0.001036667381413281,0.0003121607005596161,-0.0004634365322999656
1772807132026761700,0.42476171875,0.002306779380887747,-0.000037599820643663406,0.001205855282023549
1772807132036692700,0.434692626953125,0.0020401966758072376,0.0007821209728717804,0.00012647610856220126
1772807132046625000,0.444625,0.0012897446285933256,-0.00008614780381321907,0.0004056874313391745
1772807132056557000,0.45455712890625,0.00037042138865217566,0.0012816516682505608,-0.0006212274311110377
1772807132066488800,0.46448876953125,0.0009721559472382069,0.0011451947502791882,-0.0012895152904093266
1772807132076419800,0.474419921875,0.0003969131503254175,-0.0006985119543969631,-0.0012980373576283455
1772807132086352000,0.484351806640625,0.0006326893344521523,0.0029130899347364902,-0.0005980469868518412
1772807132096284000,0.494283935546875,-0.00020407582633197308,-0.00006112875416874886,0.003106676274910569
1772807132106216000,0.5042158203125,0.0010006268275901675,0.0008146972395479679,0.0036805402487516403
1772807132116146700,0.514146728515625,-0.00014293461572378874,0.002070111222565174,0.000769971520639956
1772807132126078700,0.52407861328125,0.0012000110000371933,-0.0011969665065407753,-0.0008610370568931103
1772807132136011000,0.534010986328125,-0.0002980171702802181,-0.0005575418472290039,0.0001586873404448852
1772807132145943000,0.543943115234375,-0.0017793523147702217,-0.002854899037629366,0.0014095624210312963
1772807132155873800,0.553873779296875,0.001019629999063909,-0.0006015985272824764,-0.0012693112948909402
1772807132165805800,0.563805908203125,-0.000817629974335432,-0.001850866712629795,-0.001292473985813558
1772807132175737900,0.57373779296875,-0.00015210604760795832,-0.00019304873421788216,-0.00015290736337192357
1772807132185670000,0.583669921875,0.0009781355038285255,0.001204000785946846,0.001446335343644023
1772807132195600600,0.5936005859375,0.0018276837654411793,-0.0005579465068876743,0.0004567047581076622
1772807132205532700,0.60353271484375,-0.0010049627162516117,0.0011587529443204403,0.0006104588974267244
1772807132215464700,0.613464599609375,-0.000878196326084435,0.0003411625511944294,0.000963061407674104
1772807132225397000,0.62339697265625,-0.00043568573892116547,0.0007305587641894817,-0.0009844773449003696
1772807132235328000,0.633327880859375,0.00023543089628219604,0.0001478591002523899,-0.0010526543483138084
1772807132245259800,0.643259765625,0.00038314034463837743,0.000756463035941124,-0.0006919577135704458
1772807132255191800,0.65319189453125,-0.001403041766025126,-0.00033197086304426193,-0.000496215361636132
1772807132265123800,0.663123779296875,-0.000208225566893816,0.00016363849863409996,0.00235280254855752
1772807132275055900,0.673055908203125,0.000226136005949229,0.0026419758796691895,0.002415120368823409
1772807132284986600,0.682986572265625,0.000800501904450357,-0.0008876794017851353,0.00011280694889137521
1772807132294918700,0.692918701171875,0.0013613635674118996,0.0014377930201590061,0.001945594442076981
1772807132304851000,0.702850830078125,0.0005949789192527533,0.000016966834664344788,0.0007738211425021291
1772807132314783000,0.712782958984375,0.001326016616076231,0.0016737193800508976,0.002080368110910058
1772807132324714000,0.7227138671875,-0.0002933180658146739,-0.0007394319400191307,0.0018460886785760522
1772807132334645800,0.732645751953125,-0.000040584011003375053,0.0003916127607226372,0.000694271526299417
1772807132344577800,0.742577880859375,0.00001917436020448804,-0.0014654267579317093,-0.000357981538400054
1772807132354509800,0.752509765625,-0.0006074673729017377,0.000548455398529768,0.0012356539955362678
1772807132364440800,0.76244091796875,0.0022989721037447453,-0.0010548648424446583,0.001324548851698637
1772807132374372900,0.772372802734375,0.0003596580936573446,0.0016719456762075424,-0.0011428698198869824
1772807132384304600,0.7823046875,0.0005981007707305253,0.0018474701792001724,-0.0010070219868794084
1772807132394237000,0.79223681640625,0.0004241963615640998,0.0015153740532696247,-0.00017158836999442428
1772807132404168000,0.80216796875,-0.00003543973434716463,0.0015834043733775616,-0.00008668346708873287
1772807132414100000,0.812099853515625,0.0014106568414717913,0.0016148299910128117,-0.00020119939290452749
1772807132424031700,0.82203173828125,-0.0021810298785567284,0.0011872658506035805,-0.00027469603810459375
1772807132433963800,0.8319638671875,0.0004064973909407854,0.0004240041598677635,-0.0016153313918039203
1772807132443894800,0.841894775390625,-0.001318770577199757,-0.004367869812995195,0.0004532965540420264
1772807132453826800,0.851826904296875,0.00114225666038692,0.0026615438982844353,-0.0020559339318424463
1772807132463758800,0.8617587890625,-0.0005805294495075941,-0.001310574822127819,-0.002964039333164692
1772807132473690600,0.871690673828125,-0.0005584252066910267,-0.00023598922416567802,-0.001081983558833599
1772807132483622000,0.881621826171875,0.0004629214818123728,-0.0024269281420856714,0.0005304208607412875
1772807132493554000,0.891553955078125,-0.001793308649212122,0.0025044470094144344,0.00041989964665845037
1772807132503486000,0.90148583984375,-0.0009391233907081187,0.00264195678755641,-0.00020650985243264586
1772807132513418000,0.91141796875,0.0011946012964472175,0.00011248607188463211,-0.00254822731949389
1772807132523349800,0.921349853515625,0.0003423938760533929,-0.0011541214771568775,-0.003689226694405079
1772807132533280800,0.93128076171875,-0.00015029095811769366,0.0012903939932584763,0.00025651263422332704
1772807132543212800,0.941212890625,-0.0005481721600517631,0.001658175140619278,-0.0006478219293057919
1772807132553144800,0.951144775390625,-0.0012070381781086326,0.0031508770771324635,-0.001980467699468136
1772807132563076600,0.96107666015625,-0.0007281893049366772,0.0018224534578621387,0.0012769653694704175
1772807132573008000,0.9710078125,0.0016753135714679956,0.000497797504067421,-0.002628294052556157
1772807132582940000,0.98093994140625,0.00037479004822671413,0.0014811852015554905,-0.00031121799838729203
1772807132592872000,0.990871826171875,0.000005143345333635807,0.00012590223923325539,-0.0007972448947839439
1772807132602804000,1.000803955078125,-0.000607395195402205,-0.00019921129569411278,0.00022618948423769325
1772807132612734700,1.010734619140625,-0.0023514991626143456,0.0004817587323486805,-0.0005394692998379469
1772807132622666800,1.020666748046875,0.0001026069512590766,0.0009789885953068733,0.0013765784678980708
1772807132632598800,1.030598876953125,0.0002895608777180314,-0.00013128342106938362,-0.0003209204296581447
1772807132642530800,1.04053076171875,0.001261856290511787,-0.00014467164874076843,-0.0024081903975456953
1772807132652461800,1.0504619140625,-0.001736596692353487,-0.00047570234164595604,-0.0010217486415058374
1772807132662393900,1.060393798828125,0.00012195168528705835,-0.0007892800495028496,-0.00015206373063847423
1772807132672326000,1.070325927734375,0.001608528196811676,0.0010483013466000557,-0.0004572619800455868
1772807132682258000,1.0802578125,-0.002562762936577201,0.0005189031362533569,0.001050139544531703
1772807132692188700,1.090188720703125,-0.0005107971956022084,0.0006142444908618927,0.002009942661970854
1772807132702120700,1.10012060546875,0.0045427484437823296,-0.0004940642975270748,-0.000026476327548152767
1772807132712052700,1.110052734375,0.0014090066542848945,-0.000505516305565834,-0.0021138619631528854
1772807132721984800,1.11998486328125,0.00014486524742096663,0.0007309257052838802,0.00013649881293531507
1772807132731916000,1.129916015625,-0.0013073564041405916,-0.0029234637040644884,-0.0008126518223434687
1772807132741847800,1.139847900390625,-0.0015031761722639203,-0.00048711802810430527,0.0009767059236764908
1772807132751779800,1.14977978515625,0.000776223314460367,-0.00016407668590545654,0.003012692555785179
1772807132761711900,1.1597119140625,0.00037794787203893065,-0.003294226946309209,0.0014039496891200542
1772807132771643000,1.169642822265625,0.0017646558117121458,-0.0009559714235365391,-0.000727111822925508
1772807132781575000,1.179574951171875,-0.0007025449303910136,0.0009212573058903217,0.001741899293847382
1772807132791506700,1.189506591796875,-0.00006178842158988118,0.0011857091449201107,-0.0015433762455359101
1772807132801438700,1.199438720703125,0.00021392136113718152,-0.0015379469841718674,0.0009927947539836168
1772807132811370000,1.209369873046875,-0.00001777365105226636,0.0022741020657122135,0.0018671104917302728
1772807132821302000,1.219302001953125,0.0012479601427912712,0.0005428292788565159,0.0013856602599844337
1772807132831234300,1.229234375,-0.002845851005986333,0.0010957014746963978,0.00007831446419004351
1772807132841166300,1.239166259765625,-0.00038615899393334985,-0.0014535319060087204,-0.0006501262541860342
1772807132851098400,1.249098388671875,-0.0004942833329550922,-0.0005603078752756119,-0.00019232885097153485
1772807132861029000,1.259029052734375,0.0003851718211080879,-0.0020628338679671288,0.000857573642861098
1772807132870961200,1.268961181640625,-0.0016878328751772642,0.0014666533097624779,0.0007992504397407174
1772807132880893200,1.27889306640625,-0.00033126556081697345,-0.00044605229049921036,0.0015126727521419525
1772807132890825200,1.2888251953125,-0.00004870421253144741,-0.0006282124668359756,0.000379231438273564
1772807132900756200,1.298756103515625,0.000019660103134810925,0.00009173061698675156,-0.0003314566274639219
1772807132910688300,1.308688232421875,0.0008596210973337293,0.0008435412310063839,-0.0012262787204235792
1772807132920620300,1.318620361328125,-0.00015201687347143888,-0.0008509708568453789,-0.001199604943394661
1772807132930552300,1.32855224609375,-0.002747533842921257,0.0014990023337304592,0.000138899777084589
1772807132940483300,1.3384833984375,0.0007528663845732808,-0.0013711308129131794,0.000031700110412202775
1772807132950415000,1.3484150390625,-0.00028656539507210255,-0.0008837725035846233,0.00013476444291882217
1772807132960347100,1.35834716796875,-0.0016968785785138607,0.0010789493098855019,-0.00011488565360195935
1772807132970279200,1.368279052734375,-0.0006888721254654229,-0.002388752531260252,-0.0003327322192490101
1772807132980210400,1.37821044921875,-0.0004193630302324891,0.0005736113525927067,0.0004623248823918402
1772807132990142200,1.38814208984375,-0.001722181448712945,-0.0019614514894783497,0.0012471583904698491
1772807133000074200,1.39807421875,0.00021193374413996935,-0.0007176399230957031,0.0016502635553479195
1772807133010006300,1.40800634765625,-0.00028820789884775877,0.00038197916001081467,0.0019634512718766928
1772807133019937300,1.417937255859375,-0.0002572941011749208,0.0016183103434741497,-0.00039636954898014665
1772807133029869300,1.427869384765625,0.0002593591343611479,-0.0018951981328427792,0.0023951558396220207
1772807133039801000,1.437801025390625,0.00036355119664222,0.0011799694038927555,-0.0013330306392163038
1772807133049733000,1.447733154296875,0.0010221509728580713,-0.0002741166390478611,-0.00023181355209089816
1772807133059664100,1.4576640625,0.001148346345871687,0.0010806969366967678,0.0004978039069101214
1772807133069596400,1.467596435546875,0.0009392881183885038,0.0006455364637076855,0.0003590532287489623
1772807133079528400,1.477528564453125,0.002852511126548052,-0.0007495032623410225,0.0007282724836841226
1772807133089460200,1.487460205078125,0.002077531535178423,-0.0003811880014836788,0.0004025678790640086
1772807133099391200,1.49739111328125,0.00137806567363441,-0.01704752817749977,0.009984525851905346
1772807133109323300,1.5073232421875,-0.0014483471168205142,0.026132430881261826,-0.007211504969745874
1772807133119255300,1.51725537109375,0.0020873304456472397,-0.013053499162197113,0.0010387119837105274
1772807133129187000,1.52718701171875,0.0007320477743633091,0.000995740294456482,-0.00698059843853116
1772807133139118000,1.5371181640625,-0.00007413572166115046,0.01536102220416069,0.002924625063315034
1772807133149050000,1.547050048828125,0.0005152218509465456,-0.02344789355993271,-0.0008666510111652315
1772807133158982400,1.556982421875,-0.0011106417514383793,0.022218117490410805,0.004227681551128626
1772807133168914400,1.56691455078125,-0.0011191638186573982,-0.017625167965888977,-0.003761268686503172
1772807133178845200,1.57684521484375,-0.0002794021856971085,0.006142039317637682,0.0030486269388347864
1772807133188777200,1.586777099609375,0.0016910707345232368,-0.0006410316564142704,-0.0014768826076760888
1772807133198709200,1.596709228515625,-0.0011828067945316434,-0.006607937626540661,0.000026012643502326682
1772807133208641300,1.606641357421875,0.00015196960885077715,0.006108123809099197,0.0014840932562947273
1772807133218573300,1.6165732421875,0.0007270949427038431,-0.0056227464228868484,-0.0015535999555140734
1772807133228504000,1.626504150390625,-0.0012433778028935194,0.0031526354141533375,0.0006736016948707402
1772807133238436000,1.63643603515625,-0.002646706998348236,-0.0017871647141873837,-0.00027081937878392637
1772807133248368400,1.646368408203125,-0.0022229980677366257,0.000373191200196743,0.0002005601127166301
1772807133258300400,1.656300537109375,-0.0018703736132010818,0.002707886975258589,0.0011732015991583467
1772807133268231200,1.666231201171875,-0.0007710206555202603,-0.003895154921337962,-0.0004713003581855446
1772807133278163200,1.6761630859375,-0.00004012614954262972,0.0028271074406802654,-0.0011662936303764582
1772807133288095200,1.68609521484375,0.0010317962151020765,-0.0003084982745349407,-0.0006669509457424283
1772807133298027300,1.69602734375,0.0020384350791573524,-0.000913744792342186,-0.0001687829935690388
1772807133307958000,1.7059580078125,-0.000678788055665791,-0.0013867225497961044,-0.000766662647947669
1772807133317890000,1.71589013671875,0.0011193144600838423,-0.004402996506541967,0.0011474249185994267
1772807133327822300,1.725822265625,-0.0004373032716102898,-0.0011539398692548275,-0.0016864448552951217
1772807133337754400,1.73575439453125,-0.00034767395118251443,-0.001062522642314434,-0.0013832311378791928
1772807133347685400,1.745685302734375,-0.0015005562454462051,0.0005340422503650188,-0.00012968119699507952
1772807133357617200,1.7556171875,0.002072345232591033,0.0007170015014708042,-0.0014479459496214986
1772807133367549200,1.765549072265625,0.0010973620228469372,-0.0021826480515301228,-0.00005404742114478722
1772807133377481200,1.775481201171875,-0.002215067856013775,-0.00006994744762778282,-0.00009742863767314702
1772807133387412200,1.785412109375,0.0004425005754455924,-0.001361314207315445,0.00010630318138282746
1772807133397344000,1.795343994140625,-0.001657869666814804,0.001175981480628252,-0.0010607666335999966
1772807133407276000,1.805276123046875,0.001005025114864111,0.0008923551067709923,-0.000011214786354685202
1772807133417208300,1.815208251953125,0.00240934151224792,-0.0021317778155207634,0.00015262322267517447
1772807133427139300,1.825139404296875,0.00015763880219310522,-0.0007056551985442638,-0.002017586724832654
1772807133437071400,1.8350712890625,0.0022769509814679623,0.0001812586560845375,0.0002180265582865104
1772807133447003100,1.845003173828125,0.00043191289296373725,-0.0022129230201244354,0.000876626290846616
1772807133456935200,1.85493505859375,0.0008896572981029749,0.000758014153689146,-0.0012037340784445405
1772807133466866200,1.8648662109375,-0.0001191481132991612,-0.0017863698303699493,-0.0009547284571453929
1772807133476798200,1.874798095703125,0.0002376630436629057,-0.0012050648219883442,-0.0012763083213940263
1772807133486730200,1.884730224609375,-0.0017288150265812874,-0.0014250418171286583,-0.0004102483217138797
1772807133496662000,1.894662109375,0.0007674559601582587,-0.0004005380906164646,-0.0024598364252597094
1772807133506593300,1.90459326171875,0.00008435518248006701,-0.0017542229034006596,-0.0002142589946743101
1772807133516525300,1.914525390625,-0.0017238787841051817,-0.0011597322300076485,0.0002599209256004542
1772807133526457300,1.924457275390625,-0.0003262516693212092,-0.0009205802343785763,0.0033324097748845816
1772807133536389000,1.93438916015625,-0.0011439325753599405,-0.00021883845329284668,0.0000793495710240677
1772807133546320100,1.944320068359375,0.00023505225544795394,-0.0010817027650773525,0.0011688487138599157
1772807133556252200,1.954252197265625,0.0003456748672761023,-0.0007956698536872864,-0.0002468509483151138
1772807133566184200,1.96418408203125,-0.0005017430521547794,-0.0004382738843560219,-0.0011869468726217747
1772807133576116200,1.9741162109375,-0.0001221848651766777,-0.000570282805711031,-0.0016262033022940159
1772807133586047200,1.984047119140625,0.000016299542039632797,-0.0008914601057767868,0.0008856902131810784
1772807133595979300,1.993979248046875,0.0029556932859122753,-0.002906578592956066,-0.001561029115691781
1772807133605911300,2.003911376953125,-0.000391367357224226,-0.0007443581707775593,0.0012792323250323534
1772807133615843300,2.01384326171875,0.0014168034540489316,-0.002041477710008621,0.0006189713603816926
1772807133625774000,2.023774169921875,0.0010271829087287188,-0.0010230853222310543,-0.0024423322174698114
1772807133635706000,2.0337060546875,0.0008533659856766462,-0.0010326863266527653,0.0008375976467505097
1772807133645638100,2.04363818359375,-0.0006483905599452555,-0.002489435253664851,-0.0006774747162126005
1772807133655570200,2.053570068359375,0.000600247411057353,-0.00018837722018361092,-0.00176999531686306
1772807133665501200,2.063501220703125,0.00008679000893607736,-0.00028638122603297234,0.00126467680092901
1772807133675433200,2.07343310546875,0.0011778539046645164,-0.0003086728975176811,0.00024857022799551487
1772807133685365200,2.083365234375,0.0002505411976017058,0.00019812677055597305,-0.004141117911785841
1772807133695297300,2.09329736328125,-0.0017094239592552185,-0.0012190290726721287,-0.0006813137442804873
1772807133705229300,2.103229248046875,0.0005808945279568434,0.0006851311773061752,0.0005408108700066805
1772807133715160000,2.11316015625,0.0005775871686637402,-0.0030511824879795313,0.00003980656765634194
1772807133725092000,2.123092041015625,0.00024389306781813502,-0.0010327729396522045,-0.00027551170205697417
1772807133735024000,2.133024169921875,-0.0005740641499869525,0.0003486955538392067,0.00012068080832250416
1772807133744956200,2.1429560546875,-0.0025514611043035984,0.00032872194424271584,0.0006530466489493847
1772807133754887400,2.152887451171875,-0.0004959889338351786,0.0003932630643248558,-0.0002909496542997658
1772807133764819200,2.162819091796875,-0.0013529942370951176,-0.0006219339556992054,-0.0003404844319447875
1772807133774751200,2.172751220703125,0.00023824273375794291,0.00024077808484435081,-0.00008820005314191803
1772807133784683300,2.182683349609375,0.0011082974961027503,-0.0006484515033662319,0.00043777425889857113
1772807133794614300,2.1926142578125,0.0006227770354598761,-0.0019215415231883526,0.00016978276835288852
1772807133804546000,2.202546142578125,0.0009237142512574792,0.0017333808355033398,-0.00028721566195599735
1772807133814478000,2.21247802734375,0.000836434424854815,0.0009908229112625122,0.0010706919711083174
1772807133824409900,2.222409912109375,0.00006624823436141014,-0.0005916273221373558,0.000021939231373835355
1772807133834341000,2.232341064453125,-0.0019431666005402803,0.001156847458332777,-0.0005608695792034268
1772807133844273200,2.242273193359375,0.0020497108343988657,0.0005357982590794563,0.00038268836215138435
1772807133854205200,2.252205078125,0.0003779467660933733,0.00023062806576490402,-0.0009913286194205284
1772807133864137000,2.262136962890625,-0.0016825409838929772,-0.0008620666339993477,0.000774080865085125
1772807133874068000,2.27206787109375,-0.0003536673029884696,-0.0025383569300174713,0.001423775451257825
1772807133884000000,2.282,-0.0002993388334289193,0.0007170913740992546,-0.0009373830980621278
1772807133893932000,2.29193212890625,0.0018279189243912697,-0.0011824253015220165,0.0026052428875118494
1772807133903863800,2.30186376953125,0.0013216519728302956,0.0007073539309203625,-0.0007857601740397513
1772807133913795000,2.311795166015625,0.0003530808025971055,0.0011937590315937996,0.0009678155765868723
1772807133923727000,2.32172705078125,0.0007211296469904482,-0.0003407546319067478,0.001915634609758854
1772807133933659100,2.3316591796875,-0.0005916208028793335,-0.00037463707849383354,0.0023896300699561834
1772807133943591200,2.341591064453125,0.0002869560266844928,0.0010344418697059155,0.001150727504864335
1772807133953522000,2.35152197265625,-0.001737059559673071,-0.0010856022126972675,0.0013042419450357556
1772807133963454000,2.361453857421875,0.0018033466767519712,-0.0005532363429665565,0.0007412497070617974
1772807133973386000,2.371385986328125,-0.0003679743385873735,-0.002106859814375639,-0.0025013498961925507
1772807133983318000,2.381318115234375,0.00008236616849899292,-0.00045117270201444626,0.0016047117533162236
1772807133993249000,2.3912490234375,-0.0014625011244788766,-0.0005241152830421925,0.0006265614647418261
1772807134003181000,2.40118115234375,0.0013332853559404612,-0.0018146829679608345,0.0016366984928026795
1772807134013113000,2.411113037109375,0.0005539621924981475,0.0017212778329849243,0.0006153683643788099
1772807134023045000,2.421045166015625,-0.0011283565545454621,-0.0027765347622334957,-0.0003076832217629999
1772807134032976000,2.430975830078125,0.0007435071165673435,-0.0023404036182910204,-0.0001381386973662302
1772807134042908000,2.440907958984375,0.0001988906878978014,0.0023313132114708424,0.0015132874250411987
1772807134052840000,2.45083984375,0.0019826842471957207,0.0017497516237199306,0.001840030075982213
1772807134062772000,2.46077197265625,0.0006910509546287358,0.0012064669281244278,-0.00043137994362041354
1772807134072703200,2.470703125,-0.0000049309455789625645,-0.0007630777545273304,0.0018304684199392796
1772807134082635000,2.480635009765625,0.0002760325442068279,0.0015725144185125828,-0.0009666496771387756
1772807134092567000,2.490567138671875,-0.0004634844954125583,-0.0009059123694896698,-0.0011758654145523906
1772807134102499000,2.5004990234375,-0.0002501652925275266,-0.0016292273066937923,0.00007901612116256729
1772807134112430000,2.51043017578125,-0.00004908832488581538,0.0005416409112513065,0.0014203025493770838
1772807134122361900,2.52036181640625,-0.00023550959303975105,-0.0021279118955135345,0.000647453241981566
1772807134132294000,2.5302939453125,0.0011087087914347649,0.00024687033146619797,0.0014490693574771285
1772807134142226000,2.540225830078125,0.0023308333475142717,0.0013321083970367908,-0.00004469775012694299
1772807134152157200,2.5501572265625,-0.0007981527596712112,-0.001101123634725809,-0.0021856396924704313
1772807134162089200,2.560089111328125,-0.002492722123861313,0.001213163137435913,-0.0026229307986795902
1772807134172021000,2.57002099609375,-0.0014984633307904005,-0.000011241529136896133,-0.00036624062340706587
1772807134181953000,2.579953125,0.0006874592509120703,0.0004910305142402649,-0.002585985464975238
1772807134191884000,2.589884033203125,-0.000014732126146554947,-0.0018599224276840687,0.0012961439788341522
1772807134201816000,2.599816162109375,-0.00030661461642012,0.0004178793169558048,0.0001611046609468758
1772807134211748000,2.609748046875,0.0016116683837026358,-0.0015957746654748917,0.00018605509831104428
1772807134221679900,2.619679931640625,0.00007236131932586432,-0.00009801285341382027,0.0006608967087231576
1772807134231611100,2.629611083984375,0.0009620808414183557,-0.0019837645813822746,0.00002948100518551655
1772807134241543200,2.639543212890625,-0.0012813659850507975,0.000047960784286260605,0.002142166718840599
1772807134251475200,2.64947509765625,0.00013290269998833537,-0.000490888487547636,-0.000024041461074375547
1772807134261407000,2.659406982421875,0.0021286755800247192,-0.0005907570011913776,-0.000012589867765200324
1772807134271338000,2.669337890625,0.0013157257344573736,0.0005189999938011169,-0.0010690682101994753
1772807134281270000,2.67927001953125,0.0010696497047320008,0.0001996872015297413,-0.0009806513553485274
1772807134291202000,2.6892021484375,0.0022246786393225193,-0.000889139249920845,0.0017937087686732411
1772807134301134000,2.699134033203125,0.002211629180237651,-0.00038420362398028374,-0.0008532070787623525
1772807134311064800,2.70906494140625,0.0005003729602321982,-0.000739008653908968,-0.00019221630645915866
1772807134320997000,2.7189970703125,-0.0010868709068745375,0.0005201338790357113,-0.0007141958340071142
1772807134330929200,2.72892919921875,-0.0019834297709167004,0.0002534426748752594,0.0004064117674715817
1772807134340861200,2.738861083984375,0.0009412537910975516,-0.0018864073790609837,0.0015252057928591967
1772807134350792000,2.7487919921875,-0.00030549755319952965,-0.00022236211225390434,-0.0008852015598677099
1772807134360724000,2.758723876953125,-0.00127036077901721,0.0014831265434622765,-0.0005725465016439557
1772807134370656000,2.768656005859375,0.0014376677572727203,-0.00016144989058375359,0.0015409148763865232
1772807134380588000,2.778588134765625,-0.001395136583596468,-0.0030195540748536587,-0.0004793590633198619
1772807134390518800,2.788518798828125,-0.0009377356036566198,-0.00035949284210801125,-0.0025840396992862225
1772807134400451000,2.798451171875,-0.0016256303060799837,-0.0008841352537274361,0.0006663483800366521
1772807134410383000,2.808383056640625,0.00003628019476309419,0.0010490179993212223,0.00038875435711815953
1772807134420315100,2.818315185546875,-0.0034601837396621704,-0.003051451174542308,0.00040313543286174536
1772807134430246100,2.82824609375,0.00030651665292680264,0.0012364238500595093,0.0002853689657058567
1772807134440178000,2.838177978515625,0.0006689729052595794,-0.0000727861188352108,0.0024380020331591368
1772807134450110000,2.84810986328125,0.0023914563935250044,-0.00045172590762376785,0.0011922104749828577
1772807134460042000,2.8580419921875,-0.00005918438546359539,-0.0011004721745848656,-0.00046534102875739336
1772807134469973000,2.867972900390625,-0.0006187991821207106,0.00025893375277519226,-0.0003151734999846667
1772807134479905000,2.877905029296875,0.0021865747403353453,-0.0003711702302098274,-0.0005609833169728518
1772807134489837000,2.887837158203125,-0.0014448389410972595,0.0008526849560439587,0.0005524292937479913
1772807134499769000,2.89776904296875,0.0021842506248503923,0.00029235612601041794,-0.00000204086973099038
1772807134509700000,2.9077001953125,-0.0005887086736038327,-0.000991123728454113,0.00028578241472132504
1772807134519632100,2.917632080078125,-0.0021533158142119646,0.0017583239823579788,0.0000756590161472559
1772807134529564000,2.92756396484375,-0.0016862635966390371,-0.0005513327196240425,0.0015626467065885663
1772807134539496000,2.937495849609375,-0.0015834653750061989,-0.0006482717581093311,-0.0001782617182470858
1772807134549427000,2.947427001953125,0.000005712790880352259,-0.000710806343704462,0.0024005919694900513
1772807134559359000,2.95735888671875,-0.00011439574882388115,0.0005102530121803284,-0.0015741758979856968
1772807134569291000,2.967291015625,-0.00010199780808761716,-0.0008384175598621368,0.0011338291224092245
1772807134579223000,2.97722314453125,0.0024969810619950294,0.00035787466913461685,0.002480057068169117
1772807134589154000,2.987154052734375,0.0010576080530881882,0.0002414332702755928,0.0008388414862565696
1772807134599086000,2.997086181640625,-0.0006606634706258774,0.0006797895766794682,0.002088929293677211
1772807134609018000,3.00701806640625,0.0007034794543869793,-0.00026047416031360626,0.00197538360953331
1772807134618950100,3.0169501953125,0.00027977052377536893,0.0024330471642315388,0.00019372880342416465
1772807134628882000,3.0268818359375,0.000371782633010298,-0.0009054047986865044,-0.001772234565578401
1772807134638813000,3.03681298828125,-0.001196552999317646,-0.00022416841238737106,0.0002488383324816823
1772807134648745000,3.046744873046875,-0.002744379686191678,-0.0005735312588512897,-0.00085827597649768
1772807134658677000,3.056677001953125,-0.0013291758950799704,-0.0013290699571371078,0.0014663971960544586
1772807134668609000,3.066609130859375,0.0015809612814337015,-0.0022212560288608074,-0.0005166709306649864
1772807134678540000,3.0765400390625,-0.00042546429904177785,-0.0004180297255516052,0.0008191706729121506
1772807134688472000,3.08647216796875,-0.0016907111275941133,0.002455519512295723,0.0002567476767580956
1772807134698404000,3.096404052734375,0.0008944194414652884,0.00040967902168631554,0.0009427780169062316
1772807134708336000,3.106336181640625,-0.0011617493582889438,0.0013128709979355335,-0.00004938392521580681
1772807134718267000,3.116266845703125,0.0017397647025063634,0.00008408818393945694,0.0013676841044798493
1772807134728199000,3.126198974609375,-0.0015049465000629425,-0.00077455909922719,-0.0014804762322455645
1772807134738131000,3.136130859375,0.0011251912219449878,-0.00034312717616558075,-0.0012128285598009825
1772807134748063000,3.14606298828125,-0.0001296599511988461,0.002918615471571684,-0.001426677335985005
1772807134757994000,3.155993896484375,-0.0005677498993463814,0.003509571310132742,-0.0007947093108668923
1772807134767926000,3.165926025390625,0.001832256792113185,0.0005259229801595211,-0.0004099344660062343
1772807134777858000,3.175858154296875,-0.00047217647079378366,0.0013605579733848572,-0.0002139258140232414
1772807134787790000,3.1857900390625,-0.0011701146140694618,0.0007911715656518936,-0.00047030296991579235
1772807134797720800,3.195720947265625,0.0033066589385271072,0.0007477616891264915,-0.0032658232375979424
1772807134807652900,3.20565283203125,-0.0003078132285736501,-0.001225366722792387,-0.000727575272321701
1772807134817585000,3.2155849609375,-0.00151262735016644,-0.0006890059448778629,0.0012639365158975124
1772807134827517200,3.22551708984375,-0.000007496040780097246,-0.0005532382056117058,-0.0010230793850496411
1772807134837448400,3.235448486328125,0.0011531095951795578,-0.00029224855825304985,-0.0000869782961672172
1772807134847380500,3.24538037109375,0.00039253884460777044,-0.003656327724456787,-0.00018436339451000094
1772807134857312500,3.2553125,-0.00016033340943977237,0.0018036849796772003,0.00010565484990365803
1772807134867244300,3.265244384765625,0.0013847164809703827,-0.0013738754205405712,0.0006101934122852981
1772807134877175300,3.27517529296875,-0.0005937459063716233,-0.0001203254796564579,0.00004400536636239849
1772807134887107300,3.285107421875,-0.0021428032778203487,0.00020339805632829666,0.0012929714284837246
1772807134897039400,3.295039306640625,-0.0006386497989296913,0.0016095470637083054,0.0009667342528700829
1772807134906971400,3.304971435546875,0.0009903411846607924,0.00033610453829169273,-0.0015429769409820437
1772807134916902400,3.31490234375,0.00044119739322923124,0.0001606019213795662,0.0002653094124980271
1772807134926834400,3.32483447265625,-0.00004250125493854284,0.0011026225984096527,0.0003195680910721421
1772807134936766500,3.334766357421875,-0.0026476052589714527,0.0007638684473931789,0.0002838817599695176
1772807134946698500,3.344698486328125,0.0003659567446447909,-0.00010807812213897705,0.0018860144773498178
1772807134956629200,3.354629150390625,0.0007249508635140955,0.0015217764303088188,-0.0005145588656887412
1772807134966561300,3.364561279296875,-0.0005948985926806927,-0.0008602794259786606,-0.0008619208820164204
1772807134976493300,3.374493408203125,-0.0004580121021717787,0.0026593548245728016,0.00028030885732732713
1772807134986425300,3.38442529296875,-0.0011744730873033404,-0.0011010542511940002,-0.0011954212095588446
1772807134996356400,3.3943564453125,0.0007027892279438674,-0.00040383869782090187,-0.0015901017468422651
1772807135006288400,3.404288330078125,-0.0007551484741270542,0.0011986717581748962,0.0009237176273018122
1772807135016220400,3.414220458984375,0.00006483885226771235,0.001044475007802248,-0.0004187818558420986
1772807135026152400,3.42415234375,-0.001578991417773068,0.0017194421961903572,-0.0017020313534885645
1772807135036083500,3.43408349609375,0.000016774574760347605,0.0004922575317323208,0.0005318282637745142
1772807135046015200,3.44401513671875,-0.00014098855899646878,0.0013127666898071766,0.00038265768671408296
1772807135055947300,3.453947265625,0.0011714173015207052,-0.0005927248857915401,0.001489467453211546
1772807135065879300,3.46387939453125,0.00047652324428781867,0.00002297665923833847,0.00042546517215669155
1772807135075810600,3.473810546875,0.0006541560869663954,-0.0016422979533672333,-0.0003838694537989795
1772807135085742300,3.483742431640625,0.0009310313034802675,-0.0006973813287913799,-0.0020371475256979465
1772807135095674400,3.49367431640625,-0.0007345096091739833,-0.0014878073707222939,0.002430837834253907
1772807135105606400,3.5036064453125,0.001596466638147831,0.0012290989980101585,0.001096174237318337
1772807135115537400,3.513537353515625,0.00042254518484696746,0.002653091214597225,0.0008029601885937154
1772807135125469400,3.523469482421875,-0.0004446434904821217,0.0006513316184282303,0.0003581152996048331
1772807135135401200,3.533401123046875,-0.0005650183302350342,-0.0014762678183615208,0.0007402789196930826
1772807135145333200,3.543333251953125,0.0003317396040074527,0.0004323413595557213,-0.00012940281885676086
1772807135155264300,3.55326416015625,0.0002113647642545402,-0.0007716738618910313,-0.0010700313141569495
1772807135165196500,3.563196533203125,-0.0006490126834250987,0.001540930476039648,-0.0022947017569094896
1772807135175128600,3.573128662109375,-0.00022184167755767703,0.000773940235376358,-0.0023026911076158285
1772807135185060400,3.583060302734375,0.0013980795629322529,-0.0003708088770508766,-0.00010553382890066132
1772807135194991400,3.592991455078125,-0.0003271160530857742,0.0014001931995153427,-0.0013676058733835816
1772807135204923400,3.60292333984375,0.0019747561309486628,-0.0019649513997137547,0.0007103354437276721
1772807135214855400,3.61285546875,-0.0013914795126765966,-0.0009196605533361435,0.002489593345671892
1772807135224787200,3.622787109375,-0.0009487021015956998,-0.0002510854974389076,-0.00011419042130000889
1772807135234718200,3.63271826171875,-0.0003510888200253248,0.0012669162824749947,-0.0002569358330219984
1772807135244650200,3.642650146484375,0.0013912442373111844,-0.001832236535847187,0.001405388698913157
1772807135254582500,3.65258251953125,-0.0011262419866397977,-0.0005592452362179756,0.00035370636032894254
1772807135264514600,3.6625146484375,-0.0006463546887971461,-0.0003179926425218582,0.0014969329349696636
1772807135274445300,3.6724453125,0.0008090628543868661,-0.0006088097579777241,0.0008218216244131327
1772807135284377300,3.68237744140625,-0.0017543883295729756,0.002006381284445524,-0.0026197521947324276
1772807135294309400,3.692309326171875,0.0015756282955408096,0.0015829387120902538,-0.0006705846753902733
1772807135304241400,3.702241455078125,-0.00024877669056877494,-0.0014747963286936283,0.0006777998059988022
1772807135314172200,3.712172119140625,-0.0004594327765516937,-0.00025932956486940384,-0.00027161711477674544
1772807135324104200,3.722104248046875,-0.0005595147958956659,0.0011652950197458267,-0.0007626628503203392
1772807135334036200,3.7320361328125,0.003457064740359783,0.001383407972753048,0.002320478670299053
1772807135343968500,3.741968505859375,-0.0004785077180713415,-0.0022329925559461117,0.00107269745785743
1772807135353899300,3.751899169921875,0.00020592467626556754,-0.0023831946309655905,-0.00017845563706941903
1772807135363831300,3.761831298828125,0.0007560395752079785,-0.0004930812865495682,-0.00004638946120394394
1772807135373763300,3.771763427734375,-0.000049566617235541344,0.0021559647284448147,-0.0013406857615336776
1772807135383695400,3.7816953125,0.0009505942580290139,-0.0022659036330878735,0.00014426112466026098
1772807135393626400,3.79162646484375,-0.0000174648012034595,0.0015333620831370354,-0.0008208684157580137
1772807135403558100,3.80155810546875,0.0023058541119098663,0.00047733401879668236,-0.002484122524037957
1772807135413490200,3.811490234375,-0.0028257910162210464,0.0009644259698688984,-0.0007456109160557389
1772807135423422500,3.82142236328125,0.0014351936988532543,0.0012793634086847305,-0.0010075639002025127
1772807135433353500,3.831353515625,0.00031799759017303586,0.0004146350547671318,0.0006710264715366066
1772807135443285500,3.841285400390625,0.0004178349336143583,-0.0023782546631991863,-0.0016842583427205682
1772807135453217300,3.85121728515625,0.00039546439074911177,-0.00037449225783348083,0.0007043309160508215
1772807135463149300,3.8611494140625,0.0013203348498791456,-0.001301771029829979,-0.002199617912992835
1772807135473080300,3.871080322265625,-0.0016818465664982796,-0.00202961266040802,-0.0016336961416527629
1772807135483012400,3.881012451171875,0.0012912123929709196,0.0007777460850775242,0.002074872376397252
1772807135492944100,3.890944091796875,0.004602320492267609,0.0007636314257979393,-0.00003728069714270532
1772807135502876200,3.900876220703125,0.0011995257809758186,0.000358551274985075,-0.00041440039058215916
1772807135512807400,3.910807373046875,-0.0020729664247483015,0.0007401821203529835,0.000472698564408347
1772807135522739500,3.920739501953125,-0.0008709431858733296,-0.0008286084048449993,-0.0018815526273101568
1772807135532671500,3.93067138671875,-0.0009130211547017097,-0.00035536475479602814,0.0003903900214936584
1772807135542603300,3.940603271484375,-0.0020889677107334137,0.0017933943308889866,-0.00009802062413655221
1772807135552534300,3.9505341796875,0.0010088214185088873,-0.0005102404393255711,0.0000444584948127158
1772807135562466300,3.96046630859375,0.0006356617668643594,-0.0011012698523700237,-0.001472541014663875
1772807135572398300,3.9703984375,0.00033792038448154926,0.0006758575327694416,-0.0008685360662639141
1772807135582330400,3.980330322265625,0.0011237834114581347,0.0005998914130032063,-0.00038424061494879425
1772807135592261400,3.990261474609375,0.000256125524174422,0.0003144005313515663,0.0014727816451340914
1772807135602193400,4.000193359375,0.00046700556413270533,0.0006522270850837231,0.0028545144014060497
1772807135612124400,4.01012451171875,-0.0015841610729694366,0.002016298472881317,-0.0023964401334524155
1772807135622056200,4.02005615234375,-0.0026703644543886185,-0.00020760390907526016,-0.0016143984394147992
1772807135631988200,4.02998828125,-0.0011254646815359592,0.002174061257392168,0.0012263954849913716
1772807135641920300,4.039920166015625,0.0017379983328282833,-0.001511631067842245,-0.0022985665127635
1772807135651851500,4.0498515625,-0.0030479682609438896,0.0012884163297712803,-0.00130494125187397
1772807135661783600,4.059783447265625,-0.000831921468488872,-0.00011370377615094185,-0.0004132722970098257
1772807135671715300,4.06971533203125,0.001818989054299891,-0.0010253037326037884,0.0014911541948094964
1772807135681647400,4.0796474609375,-0.0016349332872778177,0.0007349159568548203,0.0002329489216208458
1772807135691578400,4.089578369140625,0.0007858800236135721,-0.000539140310138464,0.001298213261179626
1772807135701510400,4.099510498046875,-0.0014414775650948286,0.0007467628456652164,0.0009745662682689726
1772807135711442200,4.109442138671875,0.0010744105093181133,-0.0009528663940727711,-0.0009154791478067636
1772807135721374200,4.119374267578125,-0.00009010685607790947,-0.0010341978631913662,-0.0024841187987476587
1772807135731305500,4.129305419921875,0.00146730977576226,-0.001053905114531517,0.000576385878957808
1772807135741237500,4.139237548828125,0.0010406223591417074,0.0006188671104609966,0.0015265361871570349
1772807135751169500,4.14916943359375,0.0018685990944504738,0.00031952792778611183,0.003470377530902624
1772807135761101300,4.159101318359375,-0.0004779259907081723,-0.0005760584026575089,0.0019568921998143196
1772807135771032300,4.1690322265625,-0.0006124156061559916,-0.0001467568799853325,-0.002450106665492058
1772807135780964400,4.17896435546875,-0.0005581271252594888,0.0000027869828045368195,0.0013465334195643663
1772807135790896400,4.188896484375,0.0011018210789188743,0.0009250394068658352,-0.0015054458053782582
1772807135800828400,4.198828369140625,0.0002844555419869721,0.001195275690406561,-0.0008881417452357709
1772807135810759400,4.208759521484375,-0.0015659087803214788,0.0014072633348405361,0.0011148216435685754
1772807135820691500,4.21869140625,-0.001414154889062047,0.0013656411319971085,0.0009150507394224405
1772807135830623700,4.228623779296875,-0.0004458294133655727,0.0014942716807126999,0.00045965026947669685
1772807135840555800,4.2385556640625,0.0006686837878078222,-0.001541939564049244,0.000025811954401433468
1772807135850486500,4.248486572265625,-0.0026243149768561125,-0.0002748076803982258,-0.0015039077261462808
1772807135860418600,4.25841845703125,-0.0013854688731953502,0.00010940805077552795,-0.001243720529600978
1772807135870350600,4.2683505859375,0.0009027190390042961,0.0008417773060500622,-0.0037119381595402956
1772807135880282600,4.27828271484375,0.00011797074694186449,-0.000312908086925745,-0.0003436650731600821
1772807135890213400,4.28821337890625,0.0013552753953263164,-0.0016735168173909187,-0.00017455435590818524
1772807135900145400,4.2981455078125,0.0008497938979417086,0.001402189489454031,-0.001342552830465138
1772807135910077700,4.30807763671875,0.00033873331267386675,-0.00021887663751840591,-0.0008027301519177854
1772807135920009700,4.318009765625,-0.0012396075762808323,-0.0010330523364245892,-0.0005740502383559942
1772807135929940700,4.327940673828125,0.0006565630319528282,0.000249525997787714,-0.001638782094232738
1772807135939872500,4.33787255859375,0.0014320665504783392,-0.0014385427348315716,0.0018012681975960732
1772807135949804500,4.347804443359375,0.0016874638386070728,0.0015077125281095505,0.0002233452396467328
1772807135959737600,4.357737548828125,0.0020784668158739805,0.00007222406566143036,0.002419952303171158
1772807135969669600,4.367669677734375,0.0008944253204390407,-0.0002683941274881363,-0.0005699786706827581
1772807135979601700,4.3776015625,0.0003092004917562008,0.0010337578132748604,-0.0005184933543205261
1772807135989532700,4.38753271484375,0.00046872382517904043,-0.0016080979257822037,0.0010008399840444326
1772807135999464400,4.39746435546875,0.002363502513617277,-0.001117499079555273,0.0009061376913450658
1772807136009396500,4.407396484375,0.001316081266850233,-0.001157180406153202,0.001620397437363863
1772807136019328500,4.41732861328125,0.0007460130727849901,-0.0002610594965517521,0.00014565892342943698
1772807136029259800,4.427259765625,-0.002484401222318411,-0.00006318651139736176,0.002240767702460289
1772807136039191600,4.437191650390625,0.0008229807717725635,-0.000304647721350193,0.0010543290991336107
1772807136049123600,4.44712353515625,0.0005364245735108852,0.0006660744547843933,-0.001294578891247511
1772807136059055600,4.4570556640625,0.00013344432227313519,-0.00039361603558063507,-0.0002334864402655512
1772807136068986600,4.466986572265625,-0.0017685852944850922,-0.0003523370251059532,0.0004962197272107005
1772807136078918700,4.476918701171875,0.0027359623927623034,-0.0006309491582214832,0.0012073211837559938
1772807136088850400,4.486850341796875,-0.0005154910613782704,-0.0008131093345582485,0.00020464102271944284
1772807136098782500,4.496782470703125,-0.000412999652326107,0.0010567526333034039,0.0015220468631014228
1772807136108713700,4.506713623046875,-0.002316627185791731,-0.0010921517387032509,0.00035371811827644706
1772807136118645800,4.516645751953125,-0.0003189718700014055,0.0014018923975527287,-0.0018539931625127792
1772807136128577800,4.526577880859375,0.00021525821648538113,0.0013124104589223862,-0.0012158997124060988
1772807136138509600,4.536509521484375,0.0007253401563502848,0.0004362124018371105,0.00044092792086303234
1772807136148440600,4.546440673828125,-0.0017300944309681654,0.0012876251712441444,-0.0003510961541905999
1772807136158372600,4.55637255859375,0.001042923890054226,-0.0006037848070263863,-0.0016058944165706635
1772807136168304600,4.5663046875,0.0015646371757611632,-0.0023159312549978495,0.0002881456748582423
1772807136178236400,4.576236328125,-0.0024067030753940344,-0.00021760817617177963,0.0008416661294177175
1772807136188167700,4.586167724609375,0.00010092934826388955,-0.0003057587891817093,0.0017338250763714314
1772807136198099700,4.596099609375,-0.0009466246119700372,0.0002880869433283806,0.0013080236967653036
1772807136208031700,4.60603173828125,-0.00014714366989210248,0.0016705337911844254,-0.001276307855732739
1772807136217963800,4.6159638671875,-0.0006507866783067584,-0.00120960408821702,0.0012086250353604555
1772807136227894500,4.62589453125,0.0021093133836984634,-0.0001840204931795597,-0.0003482589963823557
1772807136237826600,4.63582666015625,0.00014407531125470996,-0.00026381295174360275,-0.0015528080984950066
1772807136247758600,4.645758544921875,-0.0013148044236004353,0.0005471198819577694,-0.0008942083222791553
1772807136257690600,4.655690673828125,-0.0016574063338339329,-0.0019168551079928875,0.0009045006590895355
1772807136267621600,4.66562158203125,0.0007330470834858716,0.001416889950633049,-0.0005927284946665168
1772807136277553700,4.6755537109375,0.00133550725877285,-0.001679436769336462,0.0006004608585499227
1772807136287485700,4.685485595703125,-0.0006922235479578376,0.0005323183722794056,0.0009357528178952634
1772807136297417700,4.695417724609375,0.00022763240849599242,-0.002403505612164736,-0.0004999605589546263
1772807136307348500,4.705348388671875,-0.0005478801322169602,0.0013728565536439419,0.0022702596615999937
1772807136317280500,4.715280517578125,0.00008701294427737594,-0.0006207204423844814,-0.0016776341944932938
1772807136327212500,4.725212646484375,-0.0016211385373026133,-0.00004387972876429558,-0.0012075862614437938
1772807136337144600,4.73514453125,0.0020764286164194345,-0.0023336000740528107,-0.0021449909545481205
1772807136347075600,4.74507568359375,0.002227163640782237,-0.00037857331335544586,0.0012023360468447208
1772807136357007600,4.755007568359375,0.000739500334020704,-0.0013804812915623188,0.0011497746454551816
1772807136366939600,4.764939697265625,-0.0013678589602932334,-0.0007543717510998249,0.00014815977192483842
1772807136376871700,4.77487158203125,-0.0011885307030752301,0.00003787735477089882,-0.001267750863917172
1772807136386802700,4.784802734375,-0.00015442515723407269,0.0012370985932648182,-0.000604357395786792
1772807136396734700,4.794734619140625,-0.0029922877438366413,0.0024035628885030746,-0.0021690968424081802
1772807136406666500,4.80466650390625,0.001183282700367272,0.0013401629403233528,-0.0017925257561728358
1772807136416598500,4.8145986328125,0.0021613037679344416,-0.0007155896164476871,0.000645692169200629
1772807136426529500,4.824529541015625,-0.0019652643240988255,0.0008143964223563671,0.0023261469323188066
1772807136436461600,4.834461669921875,-0.0006927299546077847,0.0012039090506732464,-0.0002632857649587095
1772807136446393600,4.8443935546875,-0.00002587441122159362,-0.000003834255039691925,0.000185190569027327
1772807136456325600,4.85432568359375,0.0012665014946833253,0.0004560728557407856,-0.00018782755068968982
1772807136466256600,4.864256591796875,0.0008254820131696761,-0.001533042173832655,-0.0016698766266927123
1772807136476188700,4.874188720703125,-0.0019487945828586817,-0.002347818808630109,0.001134776510298252
1772807136486120700,4.88412060546875,-0.0010646252194419503,0.0014810077846050262,-0.0010293081868439913
1772807136496052500,4.894052490234375,0.000685323728248477,-0.00014720391482114792,-0.002983895130455494
1772807136505983500,4.9039833984375,0.0007761375163681805,-0.00035306625068187714,0.001038010697811842
1772807136515915500,4.91391552734375,-0.000964572187513113,0.00001974683254957199,-0.002827342366799712
1772807136525847600,4.92384765625,-0.0012804230209439993,-0.00019783340394496918,-0.000430497428169474
1772807136535779800,4.93377978515625,0.0013279897393658757,-0.0006284499540925026,0.00026036269264295697
1772807136545710600,4.943710693359375,-0.00005738664185628295,-0.0001895609311759472,-0.0015639025950804353
1772807136555642600,4.953642578125,0.0011176057159900665,-0.0012677516788244247,-0.0016888122772797942
1772807136565574700,4.96357470703125,-0.0004914762102998793,-0.0010238061659038067,-0.0017900124657899141
1772807136575506700,4.973506591796875,-0.0017589404014870524,-0.0003907009959220886,0.0005766450194641948
1772807136585437400,4.9834375,-0.00013441219925880432,0.0008844207040965557,-0.001201813924126327
1772807136595369500,4.993369384765625,0.001406399649567902,-0.0008303290233016014,0.0009367084130644798
1772807136605301500,5.003301513671875,0.00002128956839442253,0.0014330917038023472,-0.00023268564837053418
1772807136615233500,5.013233642578125,-0.0015646920073777437,-0.0024009093176573515,0.0003639901988208294
1772807136625164500,5.02316455078125,-0.00012259039795026183,0.00007636286318302155,-0.0003779664693865925
1772807136635096600,5.0330966796875,-0.0015997235896065831,0.0007443292997777462,0.0008016407955437899
1772807136645028600,5.043028564453125,-0.0012441916624084115,0.0008196970447897911,0.00008072312630247325
1772807136654960600,5.052960693359375,0.00010918173938989639,0.0021251728758215904,-0.00020624064200092107
1772807136664891400,5.062891357421875,-0.002405108418315649,0.0010234233923256397,-0.00197138381190598
1772807136674823400,5.072823486328125,-0.0004627380985766649,0.001700724009424448,0.0019609066657721996
1772807136684755500,5.08275537109375,0.0013090630527585745,-0.001203186810016632,-0.0001557739160489291
1772807136694687500,5.0926875,-0.0009979887399822474,-0.0022899347823113203,0.0015456787077710032
1772807136704618800,5.10261865234375,0.0007043037912808359,0.0015894919633865356,0.0006487261853180826
1772807136714550500,5.112550537109375,0.0018408257747069001,-0.000018658116459846497,0.001031567924655974
1772807136724482600,5.122482666015625,0.0001385332434438169,-0.00014036474749445915,0.0016795151168480515
1772807136734414600,5.13241455078125,0.0002550733624957502,-0.0004166434518992901,-0.00019373797113075852
1772807136744345600,5.142345703125,-0.0006424119346775115,-0.0013508806005120277,-0.00042010669130831957
1772807136754277600,5.152277587890625,-0.0013674474321305752,0.00007874984294176102,0.0007843647035770118
1772807136764209400,5.16220947265625,0.0015985150821506977,0.0006542587652802467,-0.0014755938900634646
1772807136774141400,5.172141357421875,0.0011197347193956375,-0.0018574250862002373,-0.0007625349680893123
1772807136784072700,5.18207275390625,0.00030427478486672044,0.0002880170941352844,0.001071051461622119
1772807136794004700,5.192004638671875,-0.0012181171914562583,0.0007337662391364574,-0.0003935737768188119
1772807136803936500,5.2019365234375,-0.0014663237379863858,0.0005135228857398033,0.0006882022134959698
1772807136813868500,5.21186865234375,0.0005268782842904329,-0.0024238587357103825,0.00040913413977250457
1772807136823799600,5.221799560546875,-0.0012390636838972569,0.0014403876848518848,0.0013335172552615404
1772807136833731000,5.23173095703125,-0.0005424308474175632,-0.000045649707317352295,0.003139370121061802
1772807136843663000,5.2416630859375,-0.0023706909269094467,-0.00010929908603429794,0.00026022669044323266
1772807136853595100,5.25159521484375,0.00202008755877614,-0.0008034915663301945,-0.0015397003153339028
1772807136863526400,5.2615263671875,-0.000992480432614684,-0.000689242035150528,0.00030613664421252906
1772807136873458200,5.271458251953125,-0.000008191040251404047,-0.0005071652121841908,0.0012325189309194684
1772807136883390200,5.28139013671875,0.0002322923974134028,-0.00031168898567557335,0.0000309007300529629
1772807136893322200,5.291322265625,-0.0005372816231101751,0.0028207767754793167,-0.0009210429852828383
1772807136903253200,5.301253173828125,0.0003665952244773507,-0.0009979302994906902,0.0025655673816800117
1772807136913185300,5.311185302734375,-0.0010456535965204239,-0.0005859429948031902,0.0003769116010516882
1772807136923117000,5.321116943359375,0.0003122922498732805,-0.0005691647529602051,0.0006634677993133664
1772807136933049000,5.331049072265625,0.0011462762486189604,-0.00032486021518707275,0.0022167996503412724
1772807136942980400,5.34098046875,0.00009832228533923626,-0.00005188630893826485,0.00031663401750847697
1772807136952912400,5.350912353515625,0.001536499010398984,-0.0006457492709159851,-0.0015461279544979334
1772807136962844400,5.360844482421875,-0.001614553271792829,-0.0008984832093119621,-0.0015557153383269906
1772807136972776200,5.370776123046875,0.0004292032099328935,-0.0007770964875817299,0.0014098393730819225
1772807136982707200,5.380707275390625,0.00019511132268235087,-0.0005219657905399799,0.0014756196178495884
1772807136992639200,5.39063916015625,0.0010979088256135583,-0.0009555602446198463,0.0006625275709666312
1772807137002571300,5.4005712890625,0.002164504723623395,-0.0023619758430868387,0.0009970206301659346
1772807137012503000,5.4105029296875,-0.0009078264702111483,0.0004992019385099411,0.0007252003997564316
1772807137022434300,5.420434326171875,0.0008722303900867701,0.0006041303277015686,0.00012838597467634827
1772807137032366300,5.430366455078125,-0.0018958767177537084,-0.00005319342017173767,-0.0010457050520926714
1772807137042298400,5.44029833984375,0.00030282902298495173,-0.00020286301150918007,0.00033727442496456206
1772807137052230400,5.45023046875,0.002091864589601755,-0.0020745014771819115,-0.0013551529264077544
1772807137062161200,5.4601611328125,-0.0006242934614419937,-0.000651841051876545,-0.0002193147229263559
1772807137072093200,5.47009326171875,-0.0007793663535267115,-0.001697187777608633,-0.0006173868314363062
1772807137082025200,5.480025146484375,0.0011005591368302703,0.0016352254897356033,0.0025118275079876184
1772807137091957200,5.489957275390625,0.0012055400293320417,-0.0004999777302145958,-0.0011784506496042013
1772807137101888300,5.49988818359375,-0.00034175661858171225,0.0011112350039184093,0.0012671301374211907
1772807137111820300,5.5098203125,-0.0014922074042260647,-0.0024296208284795284,-0.00045803465764038265
1772807137121752300,5.51975244140625,-0.0024165904615074396,0.0003943950869143009,-0.0025486161466687918
1772807137131684400,5.529684326171875,0.00016746862092986703,-0.0016520079225301743,-0.002082446590065956
1772807137141615000,5.539614990234375,-0.00010284222662448883,0.0006947699002921581,-0.00119641306810081
1772807137151547100,5.549547119140625,-0.00030242069624364376,0.0010231011547148228,-0.0018223164370283484
1772807137161479200,5.559479248046875,-0.00015781109686940908,-0.00012046005576848984,-0.0016497435281053185
1772807137171411200,5.5694111328125,0.0003578377072699368,-0.0012674634344875813,-0.00010557491623330861
1772807137181342500,5.579342529296875,-0.0025798953138291836,0.001810884103178978,-0.00014445706619881094
1772807137191274200,5.589274169921875,0.0013579822843894362,-0.0018800664693117142,-0.000596910307649523
1772807137201206300,5.599206298828125,0.001794740674085915,0.0016707261092960835,-0.0007953158346936107
1772807137211138300,5.60913818359375,0.0014138040132820606,0.00001777801662683487,-0.0009064277401193976
1772807137221069300,5.6190693359375,-0.0015596153680235147,0.0007032756693661213,-0.00046167985419742763
1772807137231001300,5.62900146484375,-0.0009722699178382754,-0.00034517841413617134,0.00013218220556154847
1772807137240933000,5.63893310546875,-0.0012716091005131602,-0.0007656915113329887,0.00038278568536043167
1772807137250865200,5.648865234375,0.002572986762970686,0.0015221335925161839,-0.0002644648193381727
1772807137260796400,5.65879638671875,-0.00012106681242585182,-0.0004885527305305004,0.00026550423353910446
1772807137270728400,5.668728515625,0.0014660671586170793,-0.0007566246204078197,0.0016438993625342846
1772807137280660200,5.67866015625,-0.00015633052680641413,-0.00007272465154528618,-0.0002791692968457937
1772807137290592300,5.68859228515625,-0.0014518405077978969,0.002768267411738634,-0.0035477352794259787
1772807137300523300,5.698523193359375,0.0004184975987300277,0.0024873041547834873,0.0004249021294526756
1772807137310455300,5.708455322265625,-0.0011979327537119389,-0.0020517949014902115,-0.0004553889448288828
1772807137320387300,5.71838720703125,0.00034696690272539854,0.001001252792775631,0.0007425008807331324
1772807137330319000,5.728319091796875,-0.0012338602682575583,-0.0012682373635470867,0.00010792495595524088
1772807137340250400,5.73825048828125,0.00025724369334056973,-0.0018213759176433086,0.0001318934082519263
1772807137350182400,5.748182373046875,-0.0015165749937295914,-0.0014087804593145847,0.001229139743372798
1772807137360114400,5.758114501953125,0.0004805295029655099,0.0006072325631976128,-0.002334169577807188
1772807137370046500,5.76804638671875,0.00019730243366211653,0.003232230432331562,-0.001947441603988409
1772807137379977200,5.777977294921875,0.0008154221577569842,0.0003775879740715027,0.0010744471801444888
1772807137389909200,5.7879091796875,0.00012849923223257065,-0.0030746827833354473,-0.0010755234397947788
1772807137399841300,5.79784130859375,-0.00003102410119026899,0.0014225970953702927,-0.0008014841587282717
1772807137409773300,5.807773193359375,-0.0022894996218383312,-0.00021743541583418846,-0.0012835090747103095
1772807137419704300,5.817704345703125,-0.00047029450070112944,-0.0013290387578308582,0.0008795104222372174
1772807137429636400,5.82763623046875,0.001997326733544469,0.00011390307918190956,0.0017844695830717683
1772807137439568400,5.837568359375,-0.0007260218262672424,-0.0025468608364462852,-0.0013170478632673621
1772807137449500400,5.84750048828125,-0.0007613522466272116,-0.001562801655381918,-0.0002968630287796259
1772807137459431200,5.85743115234375,-0.0012697495985776186,-0.0002621137537062168,0.00000114471185952425
1772807137469363200,5.86736328125,-0.00006531900726258755,0.0014766212552785873,-0.0011588967172428966
1772807137479295200,5.877295166015625,0.0030979837756603956,-0.000562561210244894,0.00015590590192005038
1772807137489227300,5.887227294921875,-0.000020466395653784275,0.0007102144882082939,0.001349495374597609
1772807137499158300,5.897158203125,-0.0011214172700420022,-0.0021247207187116146,-0.0005240384489297867
1772807137509090300,5.90709033203125,-0.00020780472550541162,-0.0010122866369783878,-0.00045216255239211023
1772807137519022300,5.917022216796875,-0.0023396650794893503,-0.0000833761878311634,-0.0008132872171700001
1772807137528954400,5.926954345703125,-0.002105752006173134,0.002114389091730118,0.0006581541383638978
1772807137538885400,5.936885498046875,-0.0009763053385540843,-0.00023425230756402016,0.000959357712417841
1772807137548817200,5.946817138671875,0.00018675625324249268,-0.00023342669010162354,-0.000052279119699960575
1772807137558749200,5.956749267578125,-0.000707533210515976,0.0007570027373731136,-0.0008304547518491745
1772807137568681200,5.96668115234375,-0.00048714643344283104,-0.0012656114995479584,0.0006322776316665113
1772807137578612200,5.9766123046875,-0.0004474653396755457,0.0003085825592279434,-0.0016119681531563401
1772807137588544300,5.986544189453125,0.00008581206202507019,-0.0012297914363443851,-0.001764021348208189
1772807137598476300,5.996476318359375,-0.000726984697394073,0.0002735629677772522,-0.0006572116399183869
1772807137608408300,6.006408203125,0.00022314308444038033,0.0002603791654109955,-0.0013708681799471378
1772807137618339300,6.01633935546875,-0.001387803116813302,-0.002748992759734392,0.0026728755328804255
1772807137628271400,6.026271240234375,0.0004217271343804896,0.0005483720451593399,-0.0010233116336166859
1772807137638203400,6.036203369140625,-0.0002722926437854767,-0.0016729705967009068,0.0001181191619252786
1772807137648135200,6.04613525390625,-0.0004877258324995637,0.0007554362528026104,0.00078911695163697
1772807137658066200,6.056066162109375,-0.0013441984774544835,-0.001242200843989849,-0.00005776830221293494
1772807137667998200,6.065998291015625,-0.0025311019271612167,0.0010668588802218437,0.0003048551734536886
1772807137677930200,6.07593017578125,0.00038319535087794065,-0.0020967102609574795,0.001124043483287096
1772807137687862300,6.0858623046875,-0.0006250377045944333,0.001097570639103651,-0.0024812445044517517
1772807137697793300,6.095793212890625,-0.00034407421480864286,-0.00018447544425725937,-0.0005342075601220131
1772807137707725300,6.105725341796875,-0.0010641980916261673,0.0005576298572123051,-0.00012930651428177953
1772807137717657300,6.1156572265625,-0.0021925794426351786,0.00014617154374718666,0.0005402122042141855
1772807137727589400,6.12558935546875,0.0008040816755965352,-0.0007115425541996956,-0.000994493835605681
1772807137737521200,6.135521240234375,-0.0014151305658742785,0.0025194049812853336,-0.003192933276295662
1772807137747452200,6.1454521484375,-0.0018541200552135706,0.0004640878178179264,0.0015726489946246147
1772807137757384200,6.15538427734375,0.00037760892882943153,-0.00019957218319177628,0.0007593195769004524
1772807137767316200,6.165316162109375,0.0005585430772043765,-0.0011361194774508476,0.0010007967939600348
1772807137777248300,6.175248291015625,-0.0002832821337506175,-0.0010969708673655987,-0.003566258354112506
1772807137787179300,6.18517919921875,0.0001388539094477892,-0.0018983054906129837,-0.0005704771028831601
1772807137797111300,6.195111328125,-0.0007948504062369466,0.00006417790427803993,-0.001072482904419303
1772807137807043300,6.205043212890625,0.0028372127562761307,0.0007129758596420288,0.002436285838484764
1772807137816975400,6.214975341796875,0.0005650038365274668,0.0002956585958600044,-0.001394937513396144
1772807137826907000,6.224906982421875,0.0019652775954455137,-0.0018898551352322102,-0.001374091487377882
1772807137836839000,6.2348388671875,0.0018568870145827532,0.0003607822582125664,0.0001380513422191143
1772807137846770700,6.244770751953125,0.0005367576377466321,0.0015318258665502071,0.0015279441140592098
1772807137856702700,6.25470263671875,0.0005447471048682928,0.00034245802089571953,-0.0018920873990282416
1772807137866634000,6.264634033203125,0.0006546306540258229,0.00036243861541152,0.0010075259488075972
1772807137876566000,6.27456591796875,0.0009358604438602924,-0.0006146752275526524,-0.0021765492856502533
1772807137886497800,6.284497802734375,0.001099474262446165,-0.001016437541693449,0.001007029670290649
1772807137896429800,6.294429931640625,0.00008480984251946211,0.001372151542454958,-0.0003107025404460728
1772807137906360800,6.30436083984375,0.001243943814188242,-0.0004124986007809639,0.0002449122257530689
1772807137916292900,6.31429296875,-0.0010405158391222358,0.0027508041821420193,-0.002432896289974451
1772807137926225000,6.324224853515625,-0.0005367896519601345,0.0011480897665023804,-0.002735305344685912
1772807137936156700,6.33415673828125,-0.000059284851886332035,0.0015752608887851238,-0.002868996001780033
1772807137946088000,6.344087890625,-0.0016609266167506576,-0.0009148921817541122,-0.0012684057001024485
1772807137956020000,6.35402001953125,-0.00008593301754444838,-0.0006613596342504025,-0.0017158167902380228
1772807137965952000,6.363951904296875,0.0033227414824068546,0.00026898132637143135,0.0024733184836804867
1772807137975884000,6.373884033203125,0.00030218431493267417,-0.0004277019761502743,-0.00023564892762806267
1772807137985814800,6.383814697265625,0.00012616266030818224,0.0024515348486602306,-0.0009477317216806114
1772807137995746800,6.393746826171875,-0.000204601907171309,-0.00007047923281788826,-0.000512304890435189
1772807138005678800,6.403678955078125,0.00026545836590230465,-0.000753963366150856,0.00005270323163131252
1772807138015611000,6.41361083984375,0.002708109561353922,-0.0009182803332805634,-0.00027886033058166504
1772807138025542000,6.4235419921875,-0.0004551613237708807,-0.0013157231733202934,-0.001228655339218676
1772807138035474000,6.433473876953125,0.0010023866780102253,0.00012957444414496422,0.0010661905398592353
1772807138045406000,6.443406005859375,-0.00029268907383084297,-0.0010029654949903488,0.00015345517022069544
1772807138055338000,6.453337890625,-0.0002639269223436713,0.002527853474020958,0.00032443011878058314
1772807138065268700,6.463268798828125,0.0013789169024676085,-0.0004000491462647915,-0.000604163040407002
1772807138075200800,6.47320068359375,0.001469996990635991,-0.002534040017053485,-0.0006603557267226279
1772807138085132800,6.4831328125,0.00046366709284484386,-0.000815830659121275,0.00047397654270753264
1772807138095064800,6.49306494140625,-0.0009163828799501061,0.00010375911369919777,-0.0007987481658346951
1772807138104995800,6.502995849609375,-0.0022301627323031425,0.0011899378150701523,0.002312789438292384
1772807138114927900,6.512927978515625,0.001877763425000012,0.00034571532160043716,-0.0010526471305638552
1772807138124860000,6.52285986328125,0.002591445343568921,-0.0011501461267471313,0.0006898910505697131
1772807138134792000,6.5327919921875,0.00039966386975720525,0.00022138189524412155,0.00033382640685886145
1772807138144723000,6.542722900390625,-0.0003879326395690441,-0.0008917194791138172,0.00022679984977003187
1772807138154654700,6.55265478515625,-0.00032295146957039833,-0.0021916083060204983,-0.0006464506150223315
1772807138164586800,6.562586669921875,-0.0008494403446093202,0.001139787957072258,0.0012396463425830007
1772807138174518800,6.572518798828125,-0.001474484452046454,-0.00024265889078378677,-0.0012778397649526596
1772807138184449800,6.58244970703125,-0.001153681892901659,0.0007457723841071129,0.000055151725973701105
1772807138194382000,6.592382080078125,-0.0006609970005229115,0.001005963422358036,-0.00046416468103416264
1772807138204313900,6.60231396484375,0.0011636136332526803,-0.001863630022853613,-0.0009593011345714331
1772807138214246000,6.612245849609375,-0.00203883764334023,-0.00037225987762212753,0.0003368593752384186
1772807138224177000,6.622177001953125,0.0011691799154505134,0.0017069438472390175,-0.0005988780758343637
1772807138234109000,6.63210888671875,-0.0007019570330157876,-0.0004901639185845852,0.0015707992715761065
1772807138244041000,6.642041015625,0.0007917890325188637,0.0009452998638153076,0.0008365563699044287
1772807138253972700,6.65197265625,0.0015031193615868688,-0.00033621303737163544,0.0006751688197255135
1772807138263903700,6.66190380859375,-0.002280687913298607,0.00048505840823054314,-0.00018499785801395774
1772807138273835800,6.671835693359375,0.001907665515318513,-0.0009581088088452816,-0.00021429262415040284
1772807138283768000,6.68176806640625,0.0028518536128103733,-0.0013854168355464935,-0.00011880310194101185
1772807138293699800,6.691699951171875,-0.0009354279609397054,0.0006239381618797779,0.0018585938960313797
1772807138303630800,6.701630859375,0.0012962555047124624,-0.000571446493268013,-0.0004800600581802428
1772807138313563000,6.71156298828125,0.0001577541697770357,-0.00025745993480086327,0.0017732406267896295
1772807138323495000,6.721494873046875,0.00047746015479788184,-0.0010181260295212269,0.0016674506478011608
1772807138333427000,6.731427001953125,-0.003303962294012308,0.001414937898516655,-0.00013071569264866412
1772807138343357700,6.741357666015625,-0.0010397534351795912,0.05543459951877594,0.009383314289152622
1772807138353289700,6.751289794921875,-0.00020139047410339117,0.03511201962828636,0.0046772425994277
1772807138363221800,6.7612216796875,-0.0021399513352662325,0.012431517243385315,0.0026456897612661123
1772807138373154000,6.771154052734375,-0.000499444198794663,0.01535007543861866,0.0023372957948595285
1772807138383084800,6.781084716796875,-0.00039600126910954714,0.014507136307656765,0.004599123727530241
1772807138393016800,6.791016845703125,0.0014093556674197316,0.002837163396179676,0.0011953376233577728
1772807138402948900,6.800948974609375,0.0027387416921555996,-0.0013233264908194542,-0.0014202498132362962
1772807138412881000,6.810880859375,0.0018537731375545263,-0.012054001912474632,-0.0035518440417945385
1772807138422811600,6.820811767578125,-0.0003573368303477764,-0.004510329570621252,-0.00035373351420275867
1772807138432743700,6.83074365234375,0.0037990587297827005,-0.011478756554424763,-0.0024198140017688274
1772807138442675700,6.84067578125,0.001034292858093977,-0.013177916407585144,-0.0056931981816887856
1772807138452607700,6.850607666015625,0.0027898484840989113,-0.021792709827423096,-0.0032846354879438877
1772807138462539000,6.8605390625,0.000550605240277946,-0.046923913061618805,-0.007899000309407711
1772807138472470800,6.870470703125,0.0014100073603913188,-0.0022041131742298603,-0.0006943506305105984
1772807138482402800,6.88040283203125,-0.0000885821646079421,-0.0059420340694487095,-0.000029898765205871314
1772807138492334800,6.8903349609375,-0.002090214053168893,0.0015611560083925724,0.0009805045556277037
