time,seconds_elapsed,z,y,x
1772871561066137300,0.035137451171875,-0.711212158203125,0.60980224609375,0.121490478515625
1772871561076071200,0.0450712890625,-0.71826171875,0.605987548828125,0.1178131103515625
1772871561086004200,0.055004150390625,-0.71148681640625,0.5997314453125,0.12579345703125
1772871561095937300,0.064937255859375,-0.6941375732421875,0.6006927490234375,0.1403961181640625
1772871561105870300,0.074870361328125,-0.6770782470703125,0.5920562744140625,0.14849853515625
1772871561115804400,0.084804443359375,-0.6693115234375,0.5750274658203125,0.1494140625
1772871561125737500,0.094737548828125,-0.6796112060546875,0.5706329345703125,0.1342620849609375
1772871561135670500,0.10467041015625,-0.6948089599609375,0.58837890625,0.1058197021484375
1772871561145604400,0.114604248046875,-0.6963653564453125,0.6050567626953125,0.086395263671875
1772871561155537400,0.124537353515625,-0.70941162109375,0.6372222900390625,0.0831451416015625
1772871561165470500,0.134470458984375,-0.727935791015625,0.675750732421875,0.07574462890625
1772871561175403300,0.1444033203125,-0.751617431640625,0.7027587890625,0.06219482421875
1772871561185337300,0.15433740234375,-0.753509521484375,0.716583251953125,0.0673065185546875
1772871561195270400,0.1642705078125,-0.7364501953125,0.720123291015625,0.0699310302734375
1772871561205203200,0.174203125,-0.709716796875,0.702484130859375,0.0814361572265625
1772871561215137300,0.18413720703125,-0.6857147216796875,0.6761322021484375,0.0943145751953125
1772871561225070300,0.1940703125,-0.6723480224609375,0.668914794921875,0.109619140625
1772871561235003100,0.204003173828125,-0.6633148193359375,0.661773681640625,0.1130218505859375
1772871561244936200,0.213936279296875,-0.67083740234375,0.6569671630859375,0.1140899658203125
1772871561254870500,0.22387060546875,-0.6838836669921875,0.6598663330078125,0.10711669921875
1772871561264803300,0.23380322265625,-0.69366455078125,0.6730194091796875,0.0929107666015625
1772871561274736400,0.243736328125,-0.7135772705078125,0.6837921142578125,0.09771728515625
1772871561284669400,0.25366943359375,-0.738800048828125,0.694244384765625,0.1201019287109375
1772871561294603300,0.263603271484375,-0.766326904296875,0.6998443603515625,0.1385345458984375
1772871561304536300,0.273536376953125,-0.7739105224609375,0.7107696533203125,0.1509552001953125
1772871561314469400,0.283469482421875,-0.764495849609375,0.71441650390625,0.1516571044921875
1772871561324403200,0.2934033203125,-0.7653350830078125,0.7083282470703125,0.1308441162109375
1772871561334336300,0.303336181640625,-0.7465057373046875,0.7526702880859375,0.090850830078125
1772871561344269300,0.313269287109375,-0.7472991943359375,0.776641845703125,0.1086273193359375
1772871561354202400,0.323202392578125,-0.7874908447265625,0.7396392822265625,0.0962677001953125
1772871561364136200,0.33313623046875,-0.733673095703125,0.7052764892578125,0.086639404296875
1772871561374069200,0.3430693359375,-0.7509307861328125,0.7154693603515625,0.11419677734375
1772871561384002600,0.35300244140625,-0.749542236328125,0.70892333984375,0.08868408203125
1772871561393936400,0.362936279296875,-0.703765869140625,0.7290802001953125,0.095489501953125
1772871561403869400,0.372869384765625,-0.6902923583984375,0.701995849609375,0.0928802490234375
1772871561413802500,0.382802490234375,-0.67193603515625,0.68359375,0.08721923828125
1772871561423735300,0.3927353515625,-0.649139404296875,0.677764892578125,0.0914154052734375
1772871561433669400,0.40266943359375,-0.6473236083984375,0.6664276123046875,0.0969085693359375
1772871561443602400,0.4126025390625,-0.6429443359375,0.6568756103515625,0.1002349853515625
1772871561453535200,0.42253515625,-0.6379547119140625,0.659759521484375,0.10662841796875
1772871561463469300,0.43246923828125,-0.6315460205078125,0.6619873046875,0.1112213134765625
1772871561473402400,0.44240234375,-0.62701416015625,0.6644134521484375,0.1012420654296875
1772871561483335200,0.452335205078125,-0.63458251953125,0.669158935546875,0.095794677734375
1772871561493268200,0.462268310546875,-0.6395263671875,0.67919921875,0.09661865234375
1772871561503202600,0.47220263671875,-0.64654541015625,0.682708740234375,0.10284423828125
1772871561513135400,0.48213525390625,-0.64215087890625,0.6837921142578125,0.10992431640625
1772871561523068400,0.492068359375,-0.6260833740234375,0.66607666015625,0.131439208984375
1772871561533002500,0.50200244140625,-0.659423828125,0.696502685546875,0.111572265625
1772871561542935300,0.511935302734375,-0.657135009765625,0.728973388671875,0.113616943359375
1772871561552868400,0.521868408203125,-0.6635284423828125,0.699737548828125,0.1347503662109375
1772871561562801400,0.531801513671875,-0.7037200927734375,0.721405029296875,0.111968994140625
1772871561572735200,0.5417353515625,-0.703033447265625,0.7817535400390625,0.090545654296875
1772871561582668300,0.551668212890625,-0.7097625732421875,0.763702392578125,0.1103668212890625
1772871561592601300,0.561601318359375,-0.741180419921875,0.7759552001953125,0.114044189453125
1772871561602535200,0.57153515625,-0.746978759765625,0.779266357421875,0.1327972412109375
1772871561612468200,0.58146826171875,-0.7287139892578125,0.77178955078125,0.1492462158203125
1772871561622401300,0.5914013671875,-0.6923675537109375,0.75201416015625,0.15875244140625
1772871561632334300,0.601334228515625,-0.6521453857421875,0.733642578125,0.1614532470703125
1772871561642268400,0.611268310546875,-0.6238555908203125,0.7186126708984375,0.1636199951171875
1772871561652201500,0.621201416015625,-0.606597900390625,0.6969146728515625,0.19189453125
1772871561662134500,0.631134521484375,-0.623077392578125,0.703948974609375,0.192840576171875
1772871561672068400,0.641068359375,-0.670013427734375,0.7745513916015625,0.155242919921875
1772871561682001400,0.65100146484375,-0.6641387939453125,0.773193359375,0.1831512451171875
1772871561691934500,0.6609345703125,-0.6969451904296875,0.750335693359375,0.172821044921875
1772871561701867300,0.6708671875,-0.6973876953125,0.753570556640625,0.142059326171875
1772871561711801300,0.68080126953125,-0.67120361328125,0.7481231689453125,0.1355743408203125
1772871561721734400,0.690734375,-0.6439208984375,0.7283477783203125,0.12347412109375
1772871561731667200,0.700667236328125,-0.619384765625,0.7007598876953125,0.1198577880859375
1772871561741600300,0.710600341796875,-0.6063690185546875,0.67425537109375,0.12200927734375
1772871561751534300,0.720534423828125,-0.59228515625,0.649200439453125,0.11529541015625
1772871561761467100,0.730467041015625,-0.5785369873046875,0.623870849609375,0.1012115478515625
1772871561771400400,0.740400390625,-0.559814453125,0.6015472412109375,0.084320068359375
1772871561781334500,0.75033447265625,-0.5379486083984375,0.5832366943359375,0.067138671875
1772871561791267300,0.760267333984375,-0.52020263671875,0.5694122314453125,0.0537109375
1772871561801200400,0.770200439453125,-0.5028228759765625,0.554901123046875,0.0395965576171875
1772871561811133400,0.780133544921875,-0.4850311279296875,0.5419921875,0.03948974609375
1772871561821067300,0.7900673828125,-0.4639892578125,0.524261474609375,0.0496978759765625
1772871561831000300,0.800000244140625,-0.444244384765625,0.51324462890625,0.06463623046875
1772871561840933400,0.809933349609375,-0.443359375,0.514251708984375,0.0775604248046875
1772871561850867200,0.8198671875,-0.47412109375,0.5190277099609375,0.096649169921875
1772871561860800300,0.82980029296875,-0.53857421875,0.535186767578125,0.13507080078125
1772871561870733300,0.8397333984375,-0.6059112548828125,0.5570526123046875,0.1803436279296875
1772871561880666400,0.849666259765625,-0.6395111083984375,0.5872039794921875,0.195159912109375
1772871561890600400,0.859600341796875,-0.607421875,0.6331634521484375,0.18048095703125
1772871561900533500,0.869533447265625,-0.5463714599609375,0.69573974609375,0.15924072265625
1772871561910466600,0.879466552734375,-0.4722442626953125,0.787322998046875,0.12506103515625
1772871561920399400,0.8893994140625,-0.4425048828125,0.889923095703125,0.095794677734375
1772871561930333400,0.89933349609375,-0.4975738525390625,0.979400634765625,0.0763092041015625
1772871561940266500,0.9092666015625,-0.60638427734375,1.0444793701171875,0.046630859375
1772871561950199300,0.91919921875,-0.7187347412109375,1.0991668701171875,0.021270751953125
1772871561960133400,0.92913330078125,-0.812713623046875,1.1656951904296875,0.0258331298828125
1772871561970066400,0.93906640625,-0.9151458740234375,1.1981201171875,0.0567169189453125
1772871561979999200,0.948999267578125,-1.0571441650390625,1.1750335693359375,0.1420135498046875
1772871561989932300,0.958932373046875,-1.203857421875,1.1328125,0.2817230224609375
1772871561999866400,0.968866455078125,-1.30426025390625,1.0915679931640625,0.404327392578125
1772871562009799200,0.978799072265625,-1.316558837890625,1.06005859375,0.4912567138671875
1772871562019732200,0.988732177734375,-1.24749755859375,1.03656005859375,0.5221710205078125
1772871562029666000,0.998666015625,-1.17071533203125,1.0254974365234375,0.5088653564453125
1772871562039598800,1.008598876953125,-1.1093597412109375,1.02069091796875,0.494781494140625
1772871562049532000,1.018531982421875,-1.1107025146484375,1.0359954833984375,0.4956817626953125
1772871562059465000,1.02846484375,-1.13140869140625,1.07171630859375,0.4820709228515625
1772871562069398800,1.038398681640625,-1.1490936279296875,1.127044677734375,0.467620849609375
1772871562079331800,1.048331787109375,-1.1630706787109375,1.1937713623046875,0.44024658203125
1772871562089265000,1.058264892578125,-1.1458587646484375,1.2830657958984375,0.392578125
1772871562099198700,1.06819873046875,-1.116607666015625,1.400390625,0.34808349609375
1772871562109131800,1.0781318359375,-1.117095947265625,1.5316009521484375,0.324127197265625
1772871562119064800,1.08806494140625,-1.117767333984375,1.660186767578125,0.31591796875
1772871562128998000,1.097997802734375,-1.075775146484375,1.7193756103515625,0.2942962646484375
1772871562138932000,1.107931884765625,-0.9553680419921875,1.6836700439453125,0.29315185546875
1772871562148865000,1.117864990234375,-0.767242431640625,1.5787353515625,0.3654327392578125
1772871562158798000,1.127798095703125,-0.560577392578125,1.4061126708984375,0.416839599609375
1772871562168731000,1.13773095703125,-0.3538970947265625,1.2164459228515625,0.444580078125
1772871562178665000,1.1476650390625,-0.207550048828125,1.0560150146484375,0.4076385498046875
1772871562188598000,1.157597900390625,-0.15057373046875,0.9386749267578125,0.252471923828125
1772871562198530800,1.16753076171875,-0.13079833984375,0.8931121826171875,0.0583038330078125
1772871562208465000,1.17746484375,-0.149505615234375,0.8954315185546875,-0.1474151611328125
1772871562218398000,1.18739794921875,-0.212432861328125,0.8809967041015625,-0.331756591796875
1772871562228330800,1.197330810546875,-0.2491607666015625,0.8028106689453125,-0.4519500732421875
1772871562238263800,1.207263916015625,-0.241424560546875,0.69171142578125,-0.5800933837890625
1772871562248198100,1.2171982421875,-0.19366455078125,0.575042724609375,-0.6160888671875
1772871562258131000,1.227130859375,-0.19732666015625,0.40399169921875,-0.50396728515625
1772871562268064000,1.23706396484375,-0.1424102783203125,0.185516357421875,-0.3154144287109375
1772871562277997000,1.2469970703125,-0.0650482177734375,-0.0256195068359375,-0.11236572265625
1772871562287931000,1.256930908203125,0.00433349609375,-0.1851043701171875,0.0785369873046875
1772871562297864000,1.266864013671875,0.0264892578125,-0.255950927734375,0.2301177978515625
1772871562307797000,1.276796875,-0.028289794921875,-0.2710723876953125,0.2534332275390625
1772871562317730800,1.286730712890625,-0.1559295654296875,-0.2159881591796875,0.2500762939453125
1772871562327663900,1.296663818359375,-0.2275238037109375,-0.080780029296875,0.1753387451171875
1772871562337597000,1.306596923828125,-0.3188323974609375,-0.019439697265625,0.037933349609375
1772871562347530000,1.316530029296875,-0.371551513671875,0.0799713134765625,-0.0378265380859375
1772871562357463800,1.3264638671875,-0.313262939453125,0.12225341796875,-0.1181182861328125
1772871562367396900,1.33639697265625,-0.2105865478515625,0.093963623046875,-0.1818084716796875
1772871562377330000,1.346329833984375,0.0169525146484375,0.0213623046875,-0.207366943359375
1772871562387262700,1.3562626953125,0.0852508544921875,-0.0039520263671875,-0.2179107666015625
1772871562397197000,1.366197021484375,0.16546630859375,-0.0194244384765625,-0.259002685546875
1772871562407130000,1.376130126953125,0.1723480224609375,0.033905029296875,-0.2880401611328125
1772871562417063000,1.38606298828125,0.160919189453125,0.101348876953125,-0.3001708984375
1772871562426997000,1.3959970703125,0.034088134765625,0.1461181640625,-0.28118896484375
1772871562436930000,1.405929931640625,-0.115966796875,0.1804351806640625,-0.2138671875
1772871562446862800,1.41586279296875,-0.229949951171875,0.2034759521484375,-0.1118011474609375
1772871562456796000,1.4257958984375,-0.32391357421875,0.149566650390625,-0.033538818359375
1772871562466730000,1.43572998046875,-0.3979949951171875,0.0483551025390625,0.080596923828125
1772871562476662800,1.445662841796875,-0.44158935546875,0.1213836669921875,0.229278564453125
1772871562486595800,1.455595947265625,-0.3758697509765625,0.3260498046875,0.2798004150390625
1772871562496529000,1.46552880859375,-0.3491058349609375,0.596771240234375,0.2239227294921875
1772871562506462700,1.475462646484375,-0.3621063232421875,0.970184326171875,0.1039276123046875
1772871562516395800,1.485395751953125,-0.4500579833984375,1.3293609619140625,-0.04229736328125
1772871562526328800,1.495328857421875,-0.5464324951171875,1.6596832275390625,-0.2216339111328125
1772871562536263000,1.505262939453125,-0.6923675537109375,1.9423370361328125,-0.2993927001953125
1772871562546196000,1.515196044921875,-0.9814453125,2.0668487548828125,-0.2081146240234375
1772871562556129000,1.52512890625,-1.3491973876953125,2.07879638671875,0.009918212890625
1772871562566062000,1.53506201171875,-1.7591552734375,2.1398468017578125,0.3986358642578125
1772871562575996000,1.544995849609375,-1.9467620849609375,2.1156158447265625,0.69940185546875
1772871562585929000,1.554928955078125,-1.635955810546875,2.0121612548828125,0.7620697021484375
1772871562595862000,1.564862060546875,-1.1248931884765625,1.88226318359375,0.587646484375
1772871562605794800,1.574794921875,-0.7357330322265625,1.7294921875,0.365447998046875
1772871562615729000,1.58472900390625,-0.4781494140625,1.5726776123046875,0.234649658203125
1772871562625662000,1.594661865234375,-0.4089202880859375,1.42999267578125,0.2054443359375
1772871562635594800,1.6045947265625,-0.5748138427734375,1.346588134765625,0.2430419921875
1772871562645529000,1.614529052734375,-0.8535308837890625,1.3307647705078125,0.329193115234375
1772871562655462100,1.624462158203125,-1.1317596435546875,1.464080810546875,0.412750244140625
1772871562665395000,1.63439501953125,-1.4943084716796875,1.717254638671875,0.4536590576171875
1772871562675328000,1.644327880859375,-1.6674652099609375,1.90899658203125,0.3179779052734375
1772871562685262000,1.654261962890625,-1.5645904541015625,2.031402587890625,0.053497314453125
1772871562695195000,1.66419482421875,-1.259979248046875,2.0292205810546875,-0.159698486328125
1772871562705128000,1.6741279296875,-0.973358154296875,1.8867950439453125,-0.28900146484375
1772871562715061000,1.68406103515625,-0.73284912109375,1.68817138671875,-0.295166015625
1772871562724994800,1.693994873046875,-0.55755615234375,1.497039794921875,-0.2196502685546875
1772871562734928000,1.703927978515625,-0.50396728515625,1.3150634765625,-0.1353302001953125
1772871562744861000,1.71386083984375,-0.5483245849609375,1.1696929931640625,-0.0548248291015625
1772871562754794000,1.7237939453125,-0.6712799072265625,1.079620361328125,0.0239105224609375
1772871562764727800,1.733727783203125,-0.7975921630859375,1.0075225830078125,0.0938262939453125
1772871562774660900,1.743660888671875,-0.8491363525390625,0.87054443359375,0.1559295654296875
1772871562784594000,1.753593994140625,-0.757598876953125,0.6711578369140625,0.19451904296875
1772871562794526700,1.763526611328125,-0.4931488037109375,0.4306793212890625,0.182464599609375
1772871562804461000,1.7734609375,-0.1452178955078125,0.178619384765625,0.1568603515625
1772871562814394000,1.78339404296875,0.186981201171875,-0.0811767578125,0.1365203857421875
1772871562824327000,1.793326904296875,0.4561920166015625,-0.2986907958984375,0.0988311767578125
1772871562834261000,1.803260986328125,0.667755126953125,-0.4516143798828125,0.0388946533203125
1772871562844194000,1.813194091796875,0.7984466552734375,-0.549041748046875,-0.011871337890625
1772871562854126800,1.823126953125,0.79925537109375,-0.531707763671875,-0.070037841796875
1772871562864060000,1.833059814453125,0.68426513671875,-0.3562164306640625,-0.1163787841796875
1772871562873994000,1.842993896484375,0.411956787109375,-0.1045684814453125,-0.0844879150390625
1772871562883926800,1.8529267578125,0.1701202392578125,0.1446075439453125,-0.00787353515625
1772871562893859800,1.86285986328125,-0.1143798828125,0.2507476806640625,0.0532684326171875
1772871562903793000,1.87279296875,-0.27288818359375,0.2898406982421875,0.1040496826171875
1772871562913726700,1.882726806640625,-0.3887939453125,0.24163818359375,0.148712158203125
1772871562923659800,1.89265966796875,-0.4090423583984375,0.195770263671875,0.1545257568359375
1772871562933593000,1.902593017578125,-0.304351806640625,0.1810150146484375,0.111663818359375
1772871562943526100,1.912526123046875,-0.1509552001953125,0.129669189453125,0.0134735107421875
1772871562953460000,1.9224599609375,-0.0078582763671875,0.0565948486328125,-0.0800018310546875
1772871562963393000,1.93239306640625,0.11090087890625,0.0303802490234375,-0.1342315673828125
1772871562973326000,1.942326171875,0.142364501953125,0.0504608154296875,-0.13824462890625
1772871562983259000,1.9522587890625,0.083404541015625,0.086029052734375,-0.125640869140625
1772871562993193000,1.96219287109375,-0.0445404052734375,0.1254119873046875,-0.05352783203125
1772871563003126000,1.9721259765625,-0.21185302734375,0.165985107421875,0.0571746826171875
1772871563013058800,1.982058837890625,-0.3590545654296875,0.1891632080078125,0.14617919921875
1772871563022993000,1.991992919921875,-0.3907623291015625,0.280670166015625,0.125457763671875
1772871563032926500,2.001926513671875,-0.328826904296875,0.399322509765625,0.0902252197265625
1772871563042859500,2.011859619140625,-0.339996337890625,0.52740478515625,0.0703887939453125
1772871563052792600,2.02179248046875,-0.391845703125,0.759246826171875,0.0145263671875
1772871563062726400,2.031726318359375,-0.4575653076171875,1.05517578125,-0.0171966552734375
1772871563072659500,2.041659423828125,-0.474273681640625,1.421539306640625,-0.076995849609375
1772871563082592500,2.051592529296875,-0.6299285888671875,1.79248046875,-0.1003570556640625
1772871563092525600,2.061525634765625,-0.911163330078125,2.142242431640625,-0.061859130859375
1772871563102459400,2.07145947265625,-1.2144775390625,2.3724822998046875,0.059844970703125
1772871563112392400,2.081392333984375,-1.45062255859375,2.4223175048828125,0.212188720703125
1772871563122325800,2.09132568359375,-1.44549560546875,2.3425140380859375,0.2932281494140625
1772871563132258600,2.101258544921875,-1.2366790771484375,2.1759185791015625,0.283172607421875
1772871563142192600,2.111192626953125,-1.0474395751953125,1.9371337890625,0.339599609375
1772871563152125700,2.121125732421875,-0.8977508544921875,1.7363433837890625,0.458404541015625
1772871563162058500,2.13105859375,-0.76141357421875,1.6271820068359375,0.545684814453125
1772871563171991600,2.140991455078125,-0.654571533203125,1.633087158203125,0.51031494140625
1772871563181925600,2.150925537109375,-0.6167449951171875,1.7510833740234375,0.3685760498046875
1772871563191858400,2.1608583984375,-0.746917724609375,1.9514923095703125,0.263427734375
1772871563201791500,2.17079150390625,-0.990325927734375,2.1314544677734375,0.2275848388671875
1772871563211725600,2.1807255859375,-1.2633819580078125,2.225433349609375,0.2121734619140625
1772871563221658400,2.190658447265625,-1.43634033203125,2.199859619140625,0.2436370849609375
1772871563231591400,2.20059130859375,-1.449554443359375,2.0530242919921875,0.2733917236328125
1772871563241524500,2.2105244140625,-1.2793731689453125,1.8526611328125,0.243682861328125
1772871563251458600,2.22045849609375,-1.015594482421875,1.6373138427734375,0.1833038330078125
1772871563261391600,2.2303916015625,-0.76751708984375,1.4325103759765625,0.16656494140625
1772871563271324700,2.24032470703125,-0.5570068359375,1.2827911376953125,0.1488037109375
1772871563281257700,2.2502578125,-0.4090728759765625,1.176300048828125,0.098480224609375
1772871563291191600,2.260191650390625,-0.332763671875,1.10418701171875,0.07269287109375
1772871563301124600,2.27012451171875,-0.3552093505859375,1.076507568359375,0.0511932373046875
1772871563311057700,2.2800576171875,-0.4464874267578125,1.0633392333984375,0.009552001953125
1772871563320990500,2.289990478515625,-0.531524658203125,1.033447265625,-0.008819580078125
1772871563330924500,2.299924560546875,-0.5843505859375,0.941925048828125,-0.0144500732421875
1772871563340857600,2.309857666015625,-0.5570068359375,0.7852935791015625,-0.01611328125
1772871563350790400,2.319790283203125,-0.422882080078125,0.5966644287109375,0.01751708984375
1772871563360723500,2.329723388671875,-0.23126220703125,0.3826751708984375,0.06085205078125
1772871563370657500,2.339657470703125,-0.02874755859375,0.154876708984375,0.079132080078125
1772871563380590300,2.34959033203125,0.1771087646484375,-0.0492095947265625,0.1094512939453125
1772871563390523400,2.3595234375,0.3244171142578125,-0.2147216796875,0.136199951171875
1772871563400456400,2.36945654296875,0.4303436279296875,-0.27703857421875,0.1473846435546875
1772871563410390500,2.379390625,0.4731903076171875,-0.265411376953125,0.1119842529296875
1772871563420323600,2.389323486328125,0.4823760986328125,-0.207489013671875,0.09619140625
1772871563430256600,2.399256591796875,0.4378662109375,-0.1190032958984375,0.1085662841796875
1772871563440189700,2.409189697265625,0.3431396484375,-0.048370361328125,0.122894287109375
1772871563450123500,2.41912353515625,0.234100341796875,-0.011962890625,0.1274566650390625
1772871563460056600,2.429056640625,0.1358642578125,0.0061187744140625,0.12799072265625
1772871563469989600,2.43898974609375,0.0789337158203125,0.01861572265625,0.1215057373046875
1772871563479922400,2.44892236328125,0.0399627685546875,0.024627685546875,0.106292724609375
1772871563489856500,2.4588564453125,0.0372314453125,0.0375518798828125,0.05767822265625
1772871563499789600,2.46878955078125,0.0372314453125,0.060638427734375,-0.006439208984375
1772871563509722400,2.478722412109375,0.0126190185546875,0.087890625,-0.067138671875
1772871563519655400,2.488655517578125,-0.01715087890625,0.1131134033203125,-0.132904052734375
1772871563529589800,2.49858984375,-0.0345001220703125,0.1348876953125,-0.20086669921875
1772871563539522600,2.5085224609375,-0.1012115478515625,0.1543121337890625,-0.2090911865234375
1772871563549455600,2.51845556640625,-0.22216796875,0.1829376220703125,-0.1399078369140625
1772871563559389700,2.5283896484375,-0.3318023681640625,0.223846435546875,-0.04364013671875
1772871563569322500,2.538322509765625,-0.406280517578125,0.2377471923828125,0.032684326171875
1772871563579255600,2.548255615234375,-0.45355224609375,0.2144775390625,0.1251068115234375
1772871563589188600,2.558188720703125,-0.4845428466796875,0.16302490234375,0.2177276611328125
1772871563599122400,2.568122314453125,-0.475189208984375,0.127685546875,0.26312255859375
1772871563609055500,2.578055419921875,-0.3757171630859375,0.2074737548828125,0.1887054443359375
1772871563618988500,2.587988525390625,-0.3094329833984375,0.3724822998046875,0.1383056640625
1772871563628921600,2.597921630859375,-0.351318359375,0.614166259765625,0.09423828125
1772871563638855400,2.60785546875,-0.2567901611328125,1.0478668212890625,-0.0731201171875
1772871563648788500,2.61778857421875,-0.226165771484375,1.4393157958984375,-0.2106781005859375
1772871563658721500,2.627721435546875,-0.316864013671875,1.739837646484375,-0.2794342041015625
1772871563668654300,2.637654296875,-0.563751220703125,1.9582977294921875,-0.1805877685546875
1772871563678588700,2.647588623046875,-1.099212646484375,2.0783538818359375,0.1151885986328125
1772871563688521700,2.657521728515625,-1.7014617919921875,2.181304931640625,0.4869537353515625
1772871563698454500,2.66745458984375,-1.785491943359375,2.3479766845703125,0.591461181640625
1772871563708387600,2.6773876953125,-1.4441680908203125,2.393463134765625,0.3760223388671875
1772871563718321700,2.68732177734375,-1.054931640625,2.2919158935546875,0.150482177734375
1772871563728254500,2.69725439453125,-0.73895263671875,2.14044189453125,0.0763092041015625
1772871563738187500,2.7071875,-0.5462646484375,1.9472503662109375,0.1648101806640625
1772871563748120600,2.71712060546875,-0.5048065185546875,1.8105926513671875,0.3492279052734375
1772871563758054400,2.727054443359375,-0.5740966796875,1.794769287109375,0.5458526611328125
1772871563767987500,2.736987548828125,-0.7552947998046875,1.8629302978515625,0.6809539794921875
1772871563777920500,2.74692041015625,-0.9821929931640625,1.9615325927734375,0.7207794189453125
1772871563787853600,2.756853515625,-1.074951171875,2.084503173828125,0.579498291015625
1772871563797787400,2.766787353515625,-1.0413360595703125,2.1782379150390625,0.30975341796875
1772871563807720400,2.776720458984375,-1.0012664794921875,2.19189453125,0.0709075927734375
1772871563817653800,2.78665380859375,-0.9433135986328125,2.1298675537109375,-0.0517425537109375
1772871563827586600,2.796586669921875,-0.8703765869140625,2.00048828125,-0.0388946533203125
1772871563837520600,2.806520751953125,-0.8387451171875,1.8113861083984375,0.058258056640625
1772871563847453700,2.81645361328125,-0.8145294189453125,1.606536865234375,0.1692352294921875
1772871563857386500,2.826386474609375,-0.7573089599609375,1.419281005859375,0.26177978515625
1772871563867319600,2.836319580078125,-0.6748046875,1.2710723876953125,0.3164520263671875
1772871563877253600,2.846253662109375,-0.5806732177734375,1.1600494384765625,0.30084228515625
1772871563887186400,2.8561865234375,-0.49212646484375,1.033782958984375,0.224090576171875
1772871563897119500,2.866119384765625,-0.410400390625,0.895294189453125,0.1343536376953125
1772871563907053600,2.876053466796875,-0.3167266845703125,0.7288818359375,0.0676422119140625
1772871563916986400,2.885986328125,-0.2330322265625,0.511016845703125,0.0146636962890625
1772871563926919400,2.89591943359375,-0.1461944580078125,0.2627105712890625,-0.01251220703125
1772871563936852500,2.9058525390625,-0.0384521484375,0.0161285400390625,-0.0010528564453125
1772871563946785500,2.91578564453125,0.09808349609375,-0.2064666748046875,0.00775146484375
1772871563956719600,2.9257197265625,0.2663116455078125,-0.354949951171875,-0.026458740234375
1772871563966652700,2.935652587890625,0.4083099365234375,-0.4463043212890625,-0.085357666015625
1772871563976585700,2.945585693359375,0.494384765625,-0.4661865234375,-0.1684417724609375
1772871563986518500,2.9555185546875,0.5164337158203125,-0.4063873291015625,-0.221923828125
1772871563996452600,2.96545263671875,0.44085693359375,-0.284210205078125,-0.2166290283203125
1772871564006385700,2.9753857421875,0.2771453857421875,-0.1133270263671875,-0.1474151611328125
1772871564016318500,2.985318359375,0.07806396484375,0.04351806640625,-0.0441741943359375
1772871564026251500,2.99525146484375,-0.11358642578125,0.1557769775390625,0.0524749755859375
1772871564036185300,3.005185302734375,-0.2560272216796875,0.222015380859375,0.11871337890625
1772871564046118100,3.0151181640625,-0.3060455322265625,0.239166259765625,0.15643310546875
1772871564056051200,3.02505126953125,-0.279541015625,0.2133331298828125,0.1624908447265625
1772871564065984300,3.034984375,-0.2040252685546875,0.175079345703125,0.1411285400390625
1772871564075918000,3.04491796875,-0.103851318359375,0.1173553466796875,0.1050567626953125
1772871564085851100,3.05485107421875,-0.004669189453125,0.061004638671875,0.0694427490234375
1772871564095784200,3.0647841796875,0.0544891357421875,0.021392822265625,0.0370025634765625
1772871564105717200,3.07471728515625,0.06207275390625,-0.0036773681640625,0.0164947509765625
1772871564115651000,3.084651123046875,0.0307159423828125,-0.0021514892578125,0.00799560546875
1772871564125584100,3.094584228515625,-0.047027587890625,0.01849365234375,0.0279693603515625
1772871564135517200,3.10451708984375,-0.1503448486328125,0.0495758056640625,0.0558013916015625
1772871564145450200,3.1144501953125,-0.201812744140625,0.0646820068359375,0.0770111083984375
1772871564155384000,3.124384033203125,-0.208740234375,0.0401153564453125,0.0754547119140625
1772871564165317000,3.134317138671875,-0.1791534423828125,0.03656005859375,0.039581298828125
1772871564175250200,3.144250244140625,-0.082244873046875,0.1119384765625,-0.0754852294921875
1772871564185183000,3.154182861328125,0.0596160888671875,0.2718353271484375,-0.1853179931640625
1772871564195117300,3.164117431640625,0.118560791015625,0.43572998046875,-0.1763916015625
1772871564205050000,3.174050048828125,0.0554046630859375,0.6617584228515625,-0.07574462890625
1772871564214983200,3.183983154296875,-0.1366424560546875,0.963653564453125,0.1103363037109375
1772871564224916200,3.193916259765625,-0.4378204345703125,1.353851318359375,0.267059326171875
1772871564234850000,3.20385009765625,-0.731231689453125,1.835906982421875,0.3366851806640625
1772871564244783000,3.213783203125,-1.138946533203125,2.4048919677734375,0.422637939453125
1772871564254716200,3.223716064453125,-1.4698028564453125,2.886993408203125,0.4464263916015625
1772871564264649200,3.233649169921875,-1.7256622314453125,3.0626068115234375,0.4722137451171875
1772871564274583000,3.2435830078125,-1.770599365234375,3.01763916015625,0.5357666015625
1772871564284516000,3.25351611328125,-1.4051513671875,2.85516357421875,0.370513916015625
1772871564294449200,3.26344921875,-1.060577392578125,2.6096954345703125,0.1920013427734375
1772871564304383200,3.27338330078125,-0.9899444580078125,2.366119384765625,0.3221893310546875
1772871564314316300,3.28331640625,-1.0863494873046875,2.1455078125,0.68634033203125
1772871564324249300,3.293249267578125,-1.0437774658203125,2.0057830810546875,0.866912841796875
1772871564334182100,3.30318212890625,-0.9302215576171875,1.931732177734375,0.6978302001953125
1772871564344116200,3.3131162109375,-0.8283538818359375,1.95989990234375,0.48291015625
1772871564354049300,3.32304931640625,-0.836700439453125,2.013671875,0.3852081298828125
1772871564363982000,3.332982177734375,-0.9375,2.053009033203125,0.35723876953125
1772871564373915100,3.3429150390625,-1.012847900390625,2.085784912109375,0.3155059814453125
1772871564383849200,3.35284912109375,-1.0454559326171875,2.0605621337890625,0.2537689208984375
1772871564393782000,3.362781982421875,-0.998687744140625,1.968017578125,0.1714324951171875
1772871564403715000,3.372715087890625,-0.944305419921875,1.8420562744140625,0.0905609130859375
1772871564413648100,3.382648193359375,-0.8503570556640625,1.682952880859375,0.0093231201171875
1772871564423581200,3.392581298828125,-0.7173614501953125,1.4915618896484375,-0.06683349609375
1772871564433515000,3.402514892578125,-0.5730743408203125,1.2612457275390625,-0.106597900390625
1772871564443448000,3.412447998046875,-0.4542083740234375,1.0253143310546875,-0.144256591796875
1772871564453381000,3.422381103515625,-0.356689453125,0.7838134765625,-0.156585693359375
1772871564463315200,3.432315185546875,-0.2799530029296875,0.545166015625,-0.1292724609375
1772871564473248300,3.442248291015625,-0.2310333251953125,0.304840087890625,-0.0728912353515625
1772871564483181300,3.452181396484375,-0.1739349365234375,0.0699005126953125,0.02740478515625
1772871564493114000,3.462114013671875,-0.062103271484375,-0.113555908203125,0.087249755859375
1772871564503047200,3.472047119140625,0.113311767578125,-0.2414093017578125,0.0909576416015625
1772871564512981200,3.481981201171875,0.309661865234375,-0.3065032958984375,0.0420074462890625
1772871564522914000,3.4919140625,0.490814208984375,-0.33251953125,-0.00750732421875
1772871564532847000,3.50184716796875,0.6078338623046875,-0.3679656982421875,-0.0146942138671875
1772871564542780200,3.5117802734375,0.6337432861328125,-0.3502349853515625,-0.064056396484375
1772871564552714000,3.5217138671875,0.603729248046875,-0.2566070556640625,-0.1051788330078125
1772871564562647000,3.53164697265625,0.5030670166015625,-0.1251983642578125,-0.111907958984375
1772871564572580000,3.541580078125,0.346405029296875,-0.00323486328125,-0.0980072021484375
1772871564582513200,3.55151318359375,0.1760101318359375,0.1445465087890625,-0.0690460205078125
1772871564592447200,3.561447265625,0.0000457763671875,0.272369384765625,-0.05914306640625
1772871564602380300,3.57138037109375,-0.160125732421875,0.318756103515625,-0.0167694091796875
1772871564612313300,3.581313232421875,-0.2653961181640625,0.2839202880859375,0.0651397705078125
1772871564622246100,3.59124609375,-0.3121185302734375,0.2079925537109375,0.1522369384765625
1772871564632180200,3.60118017578125,-0.3032379150390625,0.1160430908203125,0.192657470703125
1772871564642113300,3.61111328125,-0.2335662841796875,0.0268707275390625,0.184844970703125
1772871564652046000,3.621046142578125,-0.13037109375,-0.0345458984375,0.1319427490234375
1772871564661979100,3.630979248046875,-0.05377197265625,-0.065277099609375,0.0741424560546875
1772871564671913200,3.640913330078125,-0.0219879150390625,-0.0557708740234375,0.0206146240234375
1772871564681846000,3.650845947265625,-0.005889892578125,-0.000213623046875,-0.0310821533203125
1772871564691779000,3.660779052734375,-0.0213165283203125,0.0633087158203125,-0.069732666015625
1772871564701712100,3.670712158203125,-0.0618133544921875,0.0919036865234375,-0.06353759765625
1772871564711646200,3.680646240234375,-0.1046600341796875,0.07293701171875,-0.0042724609375
1772871564721579000,3.6905791015625,-0.1792449951171875,0.0313873291015625,0.0971832275390625
1772871564731512000,3.700511962890625,-0.2274932861328125,0.041351318359375,0.1407318115234375
1772871564741445000,3.710445068359375,-0.1983489990234375,0.1924285888671875,0.0449066162109375
1772871564751379200,3.720379150390625,-0.172332763671875,0.421722412109375,-0.012451171875
1772871564761312300,3.730312255859375,-0.2613677978515625,0.6608734130859375,0.035430908203125
1772871564771245300,3.740245361328125,-0.3671722412109375,1.022186279296875,0.065155029296875
1772871564781178000,3.75017822265625,-0.5031280517578125,1.377288818359375,0.11370849609375
1772871564791112200,3.7601123046875,-0.57025146484375,1.7276153564453125,0.0876312255859375
1772871564801045200,3.770045166015625,-0.775146484375,2.1086883544921875,0.1690673828125
1772871564810978000,3.77997802734375,-1.11865234375,2.46417236328125,0.2749176025390625
1772871564820911000,3.7899111328125,-1.523284912109375,2.696014404296875,0.38092041015625
1772871564830845200,3.79984521484375,-1.90594482421875,2.7957611083984375,0.551239013671875
1772871564840778200,3.8097783203125,-1.7256317138671875,2.762939453125,0.5510406494140625
1772871564850711000,3.8197109375,-1.238555908203125,2.6071929931640625,0.2868499755859375
1772871564860644000,3.82964404296875,-0.9830322265625,2.4106903076171875,0.1937255859375
1772871564870578200,3.839578125,-0.8810272216796875,2.228546142578125,0.3817901611328125
1772871564880511200,3.84951123046875,-0.9942626953125,2.02349853515625,0.7099456787109375
1772871564890444300,3.8594443359375,-1.0634765625,1.9267730712890625,0.8068695068359375
1772871564900377300,3.86937744140625,-1.072845458984375,1.950225830078125,0.6397552490234375
1772871564910311200,3.879311279296875,-1.0933074951171875,2.0923614501953125,0.4491119384765625
1772871564920244200,3.889244140625,-1.1311798095703125,2.2362518310546875,0.256988525390625
1772871564930177300,3.89917724609375,-1.1424407958984375,2.2483367919921875,0.095977783203125
1772871564940110000,3.909110107421875,-0.99322509765625,2.1680908203125,0.032196044921875
1772871564950043100,3.919043212890625,-0.8455963134765625,1.9760284423828125,0.015869140625
1772871564959977200,3.928977294921875,-0.790557861328125,1.72088623046875,0.0009613037109375
1772871564969908200,3.938908203125,-0.7283935546875,1.4871826171875,0.011932373046875
1772871564979841300,3.94884130859375,-0.693084716796875,1.289093017578125,0.0448455810546875
1772871564989774300,3.9587744140625,-0.689361572265625,1.1036376953125,0.079193115234375
1772871564999708200,3.968708251953125,-0.662689208984375,0.9318084716796875,0.07269287109375
1772871565009641200,3.97864111328125,-0.5787353515625,0.7786102294921875,0.0200347900390625
1772871565019574300,3.98857421875,-0.4873199462890625,0.6334991455078125,-0.0166168212890625
1772871565029507000,3.998507080078125,-0.379364013671875,0.4999847412109375,-0.055816650390625
1772871565039440400,4.0084404296875,-0.235443115234375,0.372833251953125,-0.1094818115234375
1772871565049373400,4.01837353515625,-0.081787109375,0.24029541015625,-0.1480255126953125
1772871565059306500,4.028306396484375,0.0642242431640625,0.1258697509765625,-0.1457672119140625
1772871565069239300,4.0382392578125,0.1914520263671875,0.0045928955078125,-0.0987396240234375
1772871565079173400,4.04817333984375,0.29339599609375,-0.115325927734375,-0.033782958984375
1772871565089106400,4.0581064453125,0.3705596923828125,-0.217193603515625,0.044769287109375
1772871565099039200,4.068039306640625,0.4128570556640625,-0.287811279296875,0.1105194091796875
1772871565108972300,4.07797216796875,0.417266845703125,-0.288848876953125,0.13946533203125
1772871565118906600,4.08790673828125,0.375274658203125,-0.2033843994140625,0.1332550048828125
1772871565128839400,4.09783935546875,0.2731781005859375,-0.0960235595703125,0.124908447265625
1772871565138772500,4.1077724609375,0.1582794189453125,-0.020477294921875,0.1133270263671875
1772871565148705500,4.11770556640625,0.0632781982421875,0.0509490966796875,0.1022491455078125
1772871565158639400,4.127639404296875,-0.0061492919921875,0.133026123046875,0.0799407958984375
1772871565168572400,4.137572509765625,-0.0507965087890625,0.1885833740234375,0.0514984130859375
1772871565178505500,4.14750537109375,-0.0552520751953125,0.214874267578125,0.0301055908203125
1772871565188438500,4.1574384765625,-0.038848876953125,0.1968231201171875,0.0287322998046875
1772871565198371300,4.167371337890625,-0.019744873046875,0.1468505859375,0.0384368896484375
1772871565208305400,4.177305419921875,-0.000762939453125,0.081817626953125,0.0384979248046875
1772871565218238500,4.187238525390625,-0.0016632080078125,0.0284423828125,0.0343780517578125
1772871565228171300,4.197171142578125,-0.029876708984375,0.0048065185546875,0.051055908203125
1772871565238104300,4.207104248046875,-0.0797119140625,0.0084228515625,0.0633697509765625
1772871565248038700,4.21703857421875,-0.1440582275390625,0.03424072265625,0.066131591796875
1772871565257971500,4.226971435546875,-0.2080841064453125,0.064178466796875,0.0469970703125
1772871565267904500,4.236904541015625,-0.2360382080078125,0.1060638427734375,0.0139923095703125
1772871565277837600,4.246837646484375,-0.2180633544921875,0.1411285400390625,-0.0379791259765625
1772871565287771400,4.256771484375,-0.18121337890625,0.1440887451171875,-0.11065673828125
1772871565297704400,4.266704345703125,-0.153228759765625,0.1490936279296875,-0.17889404296875
1772871565307637500,4.276637451171875,-0.1351776123046875,0.1824493408203125,-0.1958465576171875
1772871565317570600,4.286570556640625,-0.128204345703125,0.2589874267578125,-0.1519012451171875
1772871565327504400,4.29650439453125,-0.1038818359375,0.4245452880859375,-0.106109619140625
1772871565337437400,4.3064375,-0.097381591796875,0.6606292724609375,-0.042388916015625
1772871565347372500,4.31637255859375,-0.158050537109375,0.943939208984375,0.0534820556640625
1772871565357305600,4.3263056640625,-0.4113311767578125,1.2144927978515625,0.264739990234375
1772871565367239400,4.336239501953125,-0.9639739990234375,1.5330657958984375,0.5172271728515625
1772871565377172500,4.34617236328125,-1.1801605224609375,2.005615234375,0.4140625
1772871565387105500,4.35610546875,-1.257415771484375,2.33648681640625,0.2431793212890625
1772871565397038300,4.366038330078125,-1.3489532470703125,2.51531982421875,0.1390838623046875
1772871565406972400,4.375972412109375,-1.3884735107421875,2.5479278564453125,0.227874755859375
1772871565416905500,4.385905517578125,-1.37469482421875,2.4791717529296875,0.3804473876953125
1772871565426838300,4.39583837890625,-1.2715911865234375,2.3960418701171875,0.5493621826171875
1772871565436771300,4.405771240234375,-1.159027099609375,2.2976226806640625,0.6315155029296875
1772871565446704400,4.415704345703125,-1.2244110107421875,2.1758270263671875,0.8291015625
1772871565456638500,4.425638427734375,-1.3046722412109375,2.1160430908203125,1.0509033203125
1772871565466571300,4.4355712890625,-1.11187744140625,2.1309814453125,0.904632568359375
1772871565476504300,4.44550439453125,-0.914031982421875,2.1440887451171875,0.5748443603515625
1772871565486437400,4.455437255859375,-0.84063720703125,2.166412353515625,0.3793182373046875
1772871565496371500,4.465371337890625,-0.90411376953125,2.130950927734375,0.31689453125
1772871565506304500,4.475304443359375,-1.0242462158203125,2.0807647705078125,0.3468017578125
1772871565516237600,4.485237548828125,-1.137786865234375,2.043701171875,0.3746490478515625
1772871565526170400,4.49517041015625,-1.212310791015625,2.00006103515625,0.368408203125
1772871565536104400,4.5051044921875,-1.196868896484375,1.912445068359375,0.3227386474609375
1772871565546037500,4.51503759765625,-1.1253814697265625,1.7664794921875,0.2512054443359375
1772871565555970300,4.52497021484375,-1.01507568359375,1.569549560546875,0.14801025390625
1772871565565903400,4.5349033203125,-0.868896484375,1.366973876953125,0.03155517578125
1772871565575837400,4.54483740234375,-0.6849212646484375,1.185516357421875,-0.0906982421875
1772871565585770500,4.5547705078125,-0.500091552734375,1.0165557861328125,-0.193206787109375
1772871565595703300,4.564703369140625,-0.3555908203125,0.8399810791015625,-0.253448486328125
1772871565605636400,4.57463623046875,-0.261688232421875,0.640655517578125,-0.267730712890625
1772871565615570400,4.5845703125,-0.1987152099609375,0.4141845703125,-0.2054901123046875
1772871565625503200,4.594503173828125,-0.130645751953125,0.1456146240234375,-0.0436859130859375
1772871565635436500,4.6044365234375,-0.0586395263671875,-0.0794830322265625,0.1322784423828125
1772871565645369600,4.61436962890625,0.0166168212890625,-0.1993865966796875,0.2575531005859375
1772871565655303400,4.624303466796875,0.0669097900390625,-0.235504150390625,0.3085174560546875
1772871565665236500,4.634236572265625,0.2019805908203125,-0.2238006591796875,0.2782745361328125
1772871565675169500,4.64416943359375,0.3352203369140625,-0.2950286865234375,0.22991943359375
1772871565685102300,4.654102294921875,0.429229736328125,-0.3043212890625,0.1422271728515625
1772871565695035400,4.664035400390625,0.4692840576171875,-0.1750640869140625,0.0566558837890625
1772871565704969500,4.673969482421875,0.4554901123046875,-0.0026092529296875,-0.0216522216796875
1772871565714902500,4.683902587890625,0.34136962890625,0.080230712890625,-0.117828369140625
1772871565724835300,4.69383544921875,0.1870880126953125,0.1820526123046875,-0.1695556640625
1772871565734768400,4.703768310546875,0.045135498046875,0.278289794921875,-0.1904754638671875
1772871565744702500,4.713702392578125,-0.0810546875,0.289031982421875,-0.1565704345703125
1772871565754635300,4.72363525390625,-0.173431396484375,0.2151947021484375,-0.0461273193359375
1772871565764568300,4.733568359375,-0.2505035400390625,0.0750885009765625,0.09906005859375
1772871565774501400,4.74350146484375,-0.2845611572265625,-0.0472564697265625,0.187896728515625
1772871565784435500,4.753435546875,-0.2512969970703125,-0.097412109375,0.192352294921875
1772871565794368500,4.763368408203125,-0.1878662109375,-0.114166259765625,0.1213836669921875
1772871565804301600,4.773301513671875,-0.1004180908203125,-0.089141845703125,0.00579833984375
1772871565814234400,4.783234375,-0.0146636962890625,-0.0232696533203125,-0.09326171875
1772871565824167400,4.79316748046875,0.02490234375,0.0546112060546875,-0.1508636474609375
1772871565834101500,4.8031015625,0.0146484375,0.101104736328125,-0.1630859375
1772871565844034600,4.81303466796875,-0.017486572265625,0.1283111572265625,-0.140289306640625
1772871565853967400,4.82296728515625,-0.056396484375,0.1505126953125,-0.0836181640625
1772871565863900400,4.832900390625,-0.0860443115234375,0.143402099609375,0.004547119140625
1772871565873834500,4.84283447265625,-0.124725341796875,0.1131591796875,0.1007843017578125
1772871565883767300,4.852767333984375,-0.144989013671875,0.10845947265625,0.1632232666015625
1772871565893700400,4.862700439453125,-0.135498046875,0.2176666259765625,0.140533447265625
1772871565903633400,4.87263330078125,-0.079620361328125,0.4051361083984375,0.088287353515625
1772871565913567200,4.882567138671875,-0.0798492431640625,0.5983428955078125,0.0713653564453125
1772871565923500300,4.892500244140625,-0.1629638671875,0.8011932373046875,0.093017578125
1772871565933433600,4.90243359375,-0.3618316650390625,1.0198211669921875,0.2250823974609375
1772871565943366400,4.912366455078125,-0.618011474609375,1.3216705322265625,0.3063507080078125
1772871565953300500,4.922300537109375,-0.7806243896484375,1.7138671875,0.3021392822265625
1772871565963233500,4.932233642578125,-1.0423736572265625,2.0552520751953125,0.253631591796875
1772871565973166600,4.94216650390625,-1.34033203125,2.302001953125,0.154693603515625
1772871565983099400,4.952099365234375,-1.64154052734375,2.42791748046875,0.238922119140625
1772871565993033500,4.962033447265625,-1.6976470947265625,2.4748077392578125,0.3737945556640625
1772871566002966500,4.971966552734375,-1.45257568359375,2.446197509765625,0.3906097412109375
1772871566012899300,4.9818994140625,-1.266265869140625,2.3215789794921875,0.4035797119140625
1772871566022832400,4.991832275390625,-1.1695556640625,2.20751953125,0.531402587890625
1772871566032765700,5.001765625,-1.0624847412109375,2.1695709228515625,0.6738739013671875
1772871566042699500,5.011699462890625,-1.075531005859375,2.1382904052734375,0.804718017578125
1772871566052632600,5.021632568359375,-1.160980224609375,2.1231689453125,0.8134765625
1772871566062565600,5.031565673828125,-1.1090850830078125,2.15057373046875,0.6344757080078125
1772871566072498400,5.04149853515625,-1.1002044677734375,2.1431427001953125,0.452667236328125
1772871566082432800,5.051432861328125,-1.1026153564453125,2.1186676025390625,0.3470458984375
1772871566092365800,5.06136572265625,-1.1151580810546875,2.006072998046875,0.3026580810546875
1772871566102298600,5.071298583984375,-1.093963623046875,1.826446533203125,0.32183837890625
1772871566112231700,5.081231689453125,-0.965240478515625,1.64013671875,0.3239288330078125
1772871566122165800,5.091165771484375,-0.8060760498046875,1.453521728515625,0.29595947265625
1772871566132098600,5.1010986328125,-0.6461639404296875,1.247467041015625,0.2685089111328125
1772871566142031600,5.111031494140625,-0.487396240234375,1.0537109375,0.26385498046875
1772871566151964700,5.120964599609375,-0.39337158203125,0.8936920166015625,0.2626953125
1772871566161898500,5.1308984375,-0.3755340576171875,0.7652587890625,0.248779296875
1772871566171831600,5.14083154296875,-0.391815185546875,0.69091796875,0.2043304443359375
1772871566181764600,5.1507646484375,-0.3923187255859375,0.6607818603515625,0.1264801025390625
1772871566191697700,5.16069775390625,-0.37591552734375,0.63189697265625,0.0142974853515625
1772871566201630700,5.170630615234375,-0.3743133544921875,0.598876953125,-0.0880584716796875
1772871566211564800,5.180564697265625,-0.3739471435546875,0.5159912109375,-0.1348419189453125
1772871566221497900,5.190497802734375,-0.3580322265625,0.3617095947265625,-0.1044158935546875
1772871566231430700,5.2004306640625,-0.286834716796875,0.177093505859375,-0.046875
1772871566241363700,5.21036376953125,-0.1521453857421875,-0.0033416748046875,-0.043701171875
1772871566251297800,5.2202978515625,0.0284423828125,-0.1344146728515625,-0.1104278564453125
1772871566261230600,5.230230712890625,0.207061767578125,-0.2031097412109375,-0.1715087890625
1772871566271163600,5.24016357421875,0.3312530517578125,-0.2382965087890625,-0.156158447265625
1772871566281096700,5.2500966796875,0.3542022705078125,-0.2648162841796875,-0.0675201416015625
1772871566291030500,5.260030517578125,0.2887725830078125,-0.2760467529296875,0.058624267578125
1772871566300963600,5.269963623046875,0.167144775390625,-0.2357330322265625,0.152679443359375
1772871566310896600,5.279896728515625,0.0635986328125,-0.1430511474609375,0.1888427734375
1772871566320829700,5.28982958984375,0.0078277587890625,-0.0526580810546875,0.179168701171875
1772871566330762800,5.2997626953125,-0.0308990478515625,-0.00054931640625,0.1552581787109375
1772871566340696600,5.309696533203125,-0.0546875,0.0033111572265625,0.120849609375
1772871566350629600,5.319629638671875,-0.076263427734375,-0.0043182373046875,0.079071044921875
1772871566360562700,5.329562744140625,-0.0713043212890625,0.0118560791015625,0.01251220703125
1772871566370495500,5.33949560546875,-0.0527496337890625,0.0306243896484375,-0.055755615234375
1772871566380429800,5.349429931640625,-0.0562286376953125,0.038787841796875,-0.0908203125
1772871566390362600,5.359362548828125,-0.0689239501953125,0.0347747802734375,-0.0790557861328125
1772871566400295700,5.369295654296875,-0.117279052734375,0.01214599609375,-0.0111083984375
1772871566410228700,5.379228759765625,-0.2138671875,-0.0043182373046875,0.0557403564453125
1772871566420162600,5.38916259765625,-0.24761962890625,0.021697998046875,0.063873291015625
1772871566430095600,5.399095703125,-0.234710693359375,0.079925537109375,0.061767578125
1772871566440028700,5.409028564453125,-0.206329345703125,0.1623382568359375,0.0642852783203125
1772871566449961700,5.418961669921875,-0.2081756591796875,0.28143310546875,0.0915679931640625
1772871566459894800,5.428894775390625,-0.230255126953125,0.4580841064453125,0.1410675048828125
1772871566469828600,5.43882861328125,-0.2081298828125,0.6751556396484375,0.2565155029296875
1772871566479761700,5.44876171875,-0.203704833984375,0.913787841796875,0.4215240478515625
1772871566489694700,5.45869482421875,-0.416717529296875,1.160430908203125,0.660369873046875
1772871566499627500,5.46862744140625,-0.7783966064453125,1.57037353515625,0.83917236328125
1772871566509561900,5.478561767578125,-1.1109466552734375,2.1906280517578125,0.7742767333984375
1772871566519494700,5.48849462890625,-1.462188720703125,2.8148193359375,0.5975189208984375
1772871566529427700,5.498427734375,-1.6802520751953125,3.13623046875,0.365203857421875
1772871566539360800,5.50836083984375,-1.733551025390625,3.071044921875,0.1691131591796875
1772871566549294600,5.518294677734375,-1.6295013427734375,2.76611328125,0.0819854736328125
1772871566559227600,5.5282275390625,-1.5411834716796875,2.29620361328125,0.1537322998046875
1772871566569160700,5.53816064453125,-1.4770660400390625,1.79693603515625,0.37786865234375
1772871566579093800,5.54809375,-1.388458251953125,1.4085693359375,0.5936431884765625
1772871566589026800,5.55802685546875,-1.308807373046875,1.133209228515625,0.655181884765625
1772871566598960600,5.567960693359375,-1.193572998046875,1.039459228515625,0.5426025390625
1772871566608893700,5.577893798828125,-1.0422821044921875,1.119598388671875,0.288177490234375
1772871566618826800,5.58782666015625,-0.880859375,1.294158935546875,-0.0088958740234375
1772871566628759600,5.597759521484375,-0.7943878173828125,1.41766357421875,-0.193115234375
1772871566638693600,5.607693603515625,-0.793701171875,1.4220428466796875,-0.1905517578125
1772871566648626700,5.617626708984375,-0.8188934326171875,1.3915557861328125,-0.0606536865234375
1772871566658559500,5.6275595703125,-0.879425048828125,1.3530120849609375,0.1865081787109375
1772871566668492500,5.637492431640625,-0.9636688232421875,1.2934417724609375,0.4901885986328125
1772871566678426600,5.647426513671875,-0.966339111328125,1.252105712890625,0.7313385009765625
1772871566688359700,5.657359619140625,-0.9020233154296875,1.2364501953125,0.82379150390625
1772871566698292700,5.667292724609375,-0.7680511474609375,1.2962799072265625,0.773101806640625
1772871566708225800,5.677225830078125,-0.6056365966796875,1.4334564208984375,0.571075439453125
1772871566718158800,5.687158935546875,-0.48553466796875,1.5553436279296875,0.2788238525390625
1772871566728092700,5.6970927734375,-0.3855743408203125,1.5836181640625,0.0185699462890625
1772871566738025700,5.707025634765625,-0.3337860107421875,1.5013580322265625,-0.18603515625
1772871566747958800,5.716958740234375,-0.2765350341796875,1.276336669921875,-0.33111572265625
1772871566757891600,5.7268916015625,-0.2075042724609375,0.99591064453125,-0.405426025390625
1772871566767825700,5.73682568359375,-0.13751220703125,0.7186126708984375,-0.3941802978515625
1772871566777758700,5.7467587890625,-0.0832977294921875,0.4390869140625,-0.34234619140625
1772871566787691500,5.75669140625,-0.0480804443359375,0.1703338623046875,-0.1780548095703125
1772871566797624600,5.76662451171875,-0.0310516357421875,-0.095672607421875,0.072723388671875
1772871566807558700,5.77655859375,-0.0172271728515625,-0.3271026611328125,0.33941650390625
1772871566817491700,5.78649169921875,-0.0267181396484375,-0.455810546875,0.5304718017578125
1772871566827424800,5.7964248046875,-0.0284271240234375,-0.447113037109375,0.5615692138671875
1772871566837357800,5.80635791015625,0.013519287109375,-0.34454345703125,0.4618988037109375
1772871566847291000,5.816290771484375,0.0772857666015625,-0.234405517578125,0.292999267578125
1772871566857224700,5.826224609375,0.1595458984375,-0.1539459228515625,0.1116790771484375
1772871566867157800,5.83615771484375,0.207611083984375,-0.0918731689453125,-0.036590576171875
1772871566877090800,5.8460908203125,0.216339111328125,-0.053955078125,-0.131011962890625
1772871566887023600,5.856023681640625,0.1788482666015625,-0.0451812744140625,-0.16326904296875
1772871566896957700,5.865957763671875,0.0804901123046875,-0.038299560546875,-0.1405181884765625
1772871566906890800,5.875890869140625,-0.0893096923828125,-0.03173828125,-0.0664215087890625
1772871566916823600,5.885823486328125,-0.2794342041015625,-0.00726318359375,0.0467987060546875
1772871566926756600,5.895756591796875,-0.42156982421875,0.0342254638671875,0.1162109375
1772871566936690700,5.905690673828125,-0.4914093017578125,0.1013336181640625,0.09796142578125
1772871566946623500,5.91562353515625,-0.4907379150390625,0.17462158203125,0.02484130859375
1772871566956556500,5.925556640625,-0.4088134765625,0.1947479248046875,-0.075836181640625
1772871566966489600,5.935489501953125,-0.267578125,0.182159423828125,-0.162261962890625
1772871566976422700,5.945422607421875,-0.13543701171875,0.1146697998046875,-0.1689605712890625
1772871566986356700,5.955356689453125,-0.077789306640625,0.0178070068359375,-0.05145263671875
1772871566996289800,5.965289794921875,-0.109954833984375,-0.07781982421875,0.1188812255859375
1772871567006222800,5.975222900390625,-0.1969146728515625,-0.067230224609375,0.2390899658203125
1772871567016155600,5.98515576171875,-0.281341552734375,0.1460418701171875,0.238311767578125
1772871567026088700,5.995088623046875,-0.335540771484375,0.4649200439453125,0.1569061279296875
1772871567036023000,6.00502294921875,-0.41326904296875,0.7750701904296875,0.116607666015625
1772871567045956000,6.0149560546875,-0.5015716552734375,1.1114959716796875,0.095489501953125
1772871567055889200,6.02488916015625,-0.600738525390625,1.42535400390625,0.05584716796875
1772871567065822200,6.034822265625,-0.69195556640625,1.6544952392578125,-0.02569580078125
1772871567075756000,6.044756103515625,-0.800994873046875,1.8650665283203125,-0.04754638671875
1772871567085689000,6.054689208984375,-1.01239013671875,2.0223236083984375,0.0320281982421875
1772871567095622100,6.0646220703125,-1.2990570068359375,2.079345703125,0.273406982421875
1772871567105555000,6.074554931640625,-1.710723876953125,2.0459747314453125,0.7490386962890625
1772871567115489000,6.084489013671875,-1.9932861328125,1.965118408203125,1.0946044921875
1772871567125422000,6.094422119140625,-1.9669647216796875,1.8699493408203125,1.0599517822265625
1772871567135355000,6.10435498046875,-1.73516845703125,1.825469970703125,0.8187408447265625
1772871567145288000,6.114287841796875,-1.4097442626953125,1.790771484375,0.572418212890625
1772871567155221000,6.124220947265625,-1.1804656982421875,1.701141357421875,0.4073028564453125
1772871567165154800,6.13415478515625,-1.018768310546875,1.6732177734375,0.2570343017578125
1772871567175087900,6.144087890625,-0.9580841064453125,1.6842193603515625,0.1524658203125
1772871567185021000,6.15402099609375,-1.0248565673828125,1.721160888671875,0.119140625
1772871567194954200,6.163954345703125,-1.170013427734375,1.7820281982421875,0.1893463134765625
1772871567204888000,6.17388818359375,-1.3391876220703125,1.778594970703125,0.3427276611328125
1772871567214821000,6.183821044921875,-1.38372802734375,1.6713104248046875,0.4836578369140625
1772871567224754200,6.193754150390625,-1.2898101806640625,1.5257720947265625,0.5285797119140625
1772871567234687000,6.20368701171875,-1.154266357421875,1.450439453125,0.4304046630859375
1772871567244621000,6.21362109375,-0.9961395263671875,1.403594970703125,0.2621307373046875
1772871567254554000,6.22355419921875,-0.856048583984375,1.3285675048828125,0.160980224609375
1772871567264487000,6.23348681640625,-0.77618408203125,1.2306365966796875,0.1423492431640625
1772871567274420000,6.243419921875,-0.7472381591796875,1.142578125,0.14801025390625
1772871567284353000,6.25335302734375,-0.74322509765625,1.06024169921875,0.146026611328125
1772871567294286800,6.263286865234375,-0.745025634765625,0.9579620361328125,0.132659912109375
1772871567304220000,6.273219970703125,-0.672607421875,0.8231658935546875,0.116943359375
1772871567314153000,6.283153076171875,-0.54461669921875,0.6483917236328125,0.0924530029296875
1772871567324086000,6.2930859375,-0.3897857666015625,0.4598846435546875,0.055023193359375
1772871567334020000,6.30302001953125,-0.21490478515625,0.27923583984375,0.0008087158203125
1772871567343953200,6.312953125,-0.0824127197265625,0.1368865966796875,-0.0375518798828125
1772871567353886200,6.32288623046875,0.0088043212890625,0.007965087890625,-0.0887298583984375
1772871567363819000,6.332819091796875,0.1028289794921875,-0.08917236328125,-0.1315460205078125
1772871567373752000,6.342751953125,0.14892578125,-0.14093017578125,-0.1248931884765625
1772871567383686100,6.35268603515625,0.1437530517578125,-0.15008544921875,-0.07470703125
1772871567393619000,6.362618896484375,0.1118927001953125,-0.1062469482421875,-0.004638671875
1772871567403552000,6.372552001953125,0.093780517578125,-0.041107177734375,0.0404510498046875
1772871567413485000,6.382485107421875,0.1087493896484375,-0.0040740966796875,0.062255859375
1772871567423419000,6.3924189453125,0.169830322265625,-0.0358428955078125,0.071563720703125
1772871567433352000,6.40235205078125,0.25201416015625,-0.0970611572265625,0.0555572509765625
1772871567443285000,6.412284912109375,0.318023681640625,-0.15057373046875,0.0341339111328125
1772871567453218000,6.422218017578125,0.3144683837890625,-0.1805267333984375,0.0424346923828125
1772871567463151000,6.432151123046875,0.239654541015625,-0.160491943359375,0.0554962158203125
1772871567473085000,6.4420849609375,0.1121673583984375,-0.084320068359375,0.071380615234375
1772871567483018200,6.452018310546875,-0.0138702392578125,0.0073699951171875,0.0686798095703125
1772871567492951000,6.461950927734375,-0.148101806640625,0.1103515625,0.06170654296875
1772871567502884000,6.471884033203125,-0.25372314453125,0.191009521484375,0.0250244140625
1772871567512818200,6.481818115234375,-0.2841796875,0.23974609375,-0.03216552734375
1772871567522751000,6.4917509765625,-0.2692108154296875,0.2306976318359375,-0.080474853515625
1772871567532684000,6.50168408203125,-0.217376708984375,0.1708526611328125,-0.0880584716796875
1772871567542617000,6.5116171875,-0.145172119140625,0.087066650390625,-0.0706024169921875
1772871567552550100,6.521550048828125,-0.1131439208984375,-0.0164947509765625,-0.016265869140625
1772871567562484000,6.53148388671875,-0.14178466796875,-0.1124420166015625,0.0968475341796875
1772871567572417000,6.5414169921875,-0.2393646240234375,-0.185028076171875,0.221954345703125
1772871567582350000,6.55135009765625,-0.31146240234375,-0.0736846923828125,0.21875
1772871567592283100,6.561283203125,-0.3291015625,0.1688079833984375,0.207550048828125
1772871567602217000,6.571217041015625,-0.450775146484375,0.39178466796875,0.268585205078125
1772871567612150000,6.58114990234375,-0.54168701171875,0.7567291259765625,0.2409820556640625
1772871567622083000,6.5910830078125,-0.618896484375,1.174346923828125,0.23150634765625
1772871567632016000,6.601015869140625,-0.7729339599609375,1.5218353271484375,0.1678924560546875
1772871567641949000,6.610948974609375,-0.92218017578125,1.8534698486328125,0.0932464599609375
1772871567651883000,6.620883056640625,-1.1810302734375,2.241241455078125,0.1655731201171875
1772871567661816000,6.630816162109375,-1.3894195556640625,2.647918701171875,0.2533721923828125
1772871567671749000,6.6407490234375,-1.52099609375,2.8023681640625,0.4060516357421875
1772871567681682200,6.65068212890625,-1.6262054443359375,2.6262664794921875,0.5597381591796875
1772871567691616000,6.660615966796875,-1.65203857421875,2.3403778076171875,0.7265167236328125
1772871567701549000,6.670549072265625,-1.6555023193359375,2.0314178466796875,0.8944854736328125
1772871567711482000,6.680482177734375,-1.6849365234375,1.7948760986328125,1.03302001953125
1772871567721415200,6.690415283203125,-1.604827880859375,1.7332000732421875,1.027984619140625
1772871567731348000,6.700347900390625,-1.4453887939453125,1.8337554931640625,0.7861328125
1772871567741282000,6.710281982421875,-1.283416748046875,2.02032470703125,0.45062255859375
1772871567751215000,6.720215087890625,-1.2098846435546875,2.19091796875,0.1569366455078125
1772871567761148000,6.73014794921875,-1.1532440185546875,2.2760772705078125,-0.0494232177734375
1772871567771081000,6.7400810546875,-1.1075439453125,2.1527557373046875,-0.103973388671875
1772871567781015000,6.75001513671875,-1.0419769287109375,1.911590576171875,-0.0238189697265625
1772871567790948000,6.759947998046875,-1.0445709228515625,1.6542510986328125,0.124420166015625
1772871567800881200,6.769881103515625,-1.1828460693359375,1.5384368896484375,0.2792816162109375
1772871567810814200,6.779814208984375,-1.3635711669921875,1.5406494140625,0.4010009765625
1772871567820747300,6.789747314453125,-1.3866424560546875,1.463287353515625,0.44140625
1772871567830681000,6.79968115234375,-1.179901123046875,1.318023681640625,0.396148681640625
1772871567840614100,6.8096142578125,-0.847320556640625,1.1476593017578125,0.273101806640625
1772871567850547200,6.819547119140625,-0.47564697265625,0.9373321533203125,0.143310546875
1772871567860480000,6.82947998046875,-0.13934326171875,0.7143096923828125,0.04571533203125
1772871567870413000,6.8394130859375,0.095245361328125,0.530059814453125,-0.0273590087890625
1772871567880347100,6.84934716796875,0.222015380859375,0.360504150390625,-0.092864990234375
1772871567890280000,6.859280029296875,0.28778076171875,0.177459716796875,-0.1233673095703125
1772871567900213000,6.869212890625,0.357025146484375,-0.0026092529296875,-0.0981292724609375
1772871567910146000,6.87914599609375,0.391387939453125,-0.17352294921875,0.004730224609375
1772871567920080000,6.889079833984375,0.3732757568359375,-0.3040771484375,0.137451171875
1772871567930013000,6.899012939453125,0.3341217041015625,-0.3582000732421875,0.2337799072265625
1772871567939946000,6.908946044921875,0.2804107666015625,-0.2957000732421875,0.2370758056640625
1772871567949879000,6.918879150390625,0.2143707275390625,-0.165283203125,0.18182373046875
1772871567959811800,6.928811767578125,0.1836700439453125,-0.077239990234375,0.1127471923828125
1772871567969746200,6.93874609375,0.1179656982421875,-0.0493927001953125,0.05615234375
1772871567979679200,6.94867919921875,0.04193115234375,-0.0180206298828125,0.02197265625
1772871567989612000,6.958612060546875,-0.0005950927734375,0.0250244140625,-0.0032806396484375
1772871567999545000,6.968545166015625,-0.0460968017578125,0.0603485107421875,-0.0250244140625
1772871568009479200,6.978479248046875,-0.08660888671875,0.0834808349609375,-0.0316314697265625
1772871568019412000,6.988411865234375,-0.105712890625,0.0886688232421875,-0.0394134521484375
1772871568029345000,6.998344970703125,-0.13330078125,0.0771484375,-0.03448486328125
1772871568039278000,7.008278076171875,-0.16949462890625,0.0591888427734375,-0.011993408203125
1772871568049211100,7.018211181640625,-0.194061279296875,0.0468902587890625,0.001068115234375
1772871568059145000,7.02814501953125,-0.2086181640625,0.0517730712890625,-0.006011962890625
1772871568069078000,7.038078125,-0.210418701171875,0.0374755859375,-0.014404296875
1772871568079011000,7.048010986328125,-0.1902923583984375,0.0077972412109375,-0.023895263671875
1772871568088943900,7.05794384765625,-0.1696624755859375,-0.0141448974609375,-0.0174560546875
1772871568098877000,7.067876953125,-0.14459228515625,-0.024627685546875,-0.0182647705078125
1772871568108811000,7.07781103515625,-0.13623046875,-0.0431365966796875,-0.01727294921875
1772871568118743800,7.087743896484375,-0.1705474853515625,-0.06671142578125,0.012451171875
1772871568128676900,7.0976767578125,-0.237152099609375,-0.09423828125,0.0637359619140625
1772871568138610000,7.10760986328125,-0.3085784912109375,-0.0969390869140625,0.115509033203125
1772871568148543700,7.117543701171875,-0.3533935546875,0.003936767578125,0.1103668212890625
1772871568158476800,7.127476806640625,-0.337554931640625,0.2411956787109375,0.0384521484375
1772871568168409900,7.137409912109375,-0.3192596435546875,0.5005645751953125,-0.01373291015625
1772871568178343000,7.147343017578125,-0.358062744140625,0.7709503173828125,-0.0030517578125
1772871568188275700,7.157275634765625,-0.4367218017578125,1.0811004638671875,0.0656585693359375
1772871568198210000,7.1672099609375,-0.64447021484375,1.386505126953125,0.2295684814453125
1772871568208143000,7.17714306640625,-0.8907318115234375,1.72772216796875,0.283935546875
1772871568218076000,7.187075927734375,-1.158172607421875,2.0355224609375,0.3480682373046875
1772871568228009000,7.197009033203125,-1.431304931640625,2.274993896484375,0.4479217529296875
1772871568237942000,7.20694189453125,-1.5761566162109375,2.407867431640625,0.6045074462890625
1772871568247875800,7.216875732421875,-1.715423583984375,2.2779998779296875,0.8550872802734375
1772871568257809000,7.226808837890625,-1.768157958984375,1.9865264892578125,1.0755157470703125
1772871568267742000,7.236741943359375,-1.6061553955078125,1.7943267822265625,1.051239013671875
1772871568277675000,7.246675048828125,-1.4341583251953125,1.7005157470703125,0.93487548828125
1772871568287608800,7.25660888671875,-1.331817626953125,1.64483642578125,0.892333984375
1772871568297542000,7.2665419921875,-1.2869873046875,1.6540985107421875,0.8769683837890625
1772871568307475000,7.276474853515625,-1.2820281982421875,1.726043701171875,0.742950439453125
1772871568317407700,7.28640771484375,-1.2645111083984375,1.8265838623046875,0.5279998779296875
1772871568327340800,7.2963408203125,-1.29974365234375,1.8712615966796875,0.366607666015625
1772871568337275100,7.306275146484375,-1.29693603515625,1.8148193359375,0.2999267578125
1772871568347208000,7.3162080078125,-1.2613525390625,1.692962646484375,0.365570068359375
1772871568357141000,7.32614111328125,-1.27154541015625,1.5887298583984375,0.4644012451171875
1772871568367074000,7.336073974609375,-1.316314697265625,1.5626678466796875,0.49725341796875
1772871568377007900,7.3460078125,-1.3629913330078125,1.5813140869140625,0.4850616455078125
1772871568386941000,7.35594091796875,-1.37347412109375,1.5748748779296875,0.47540283203125
1772871568396874000,7.3658740234375,-1.2962493896484375,1.52899169921875,0.450408935546875
1772871568406807000,7.37580712890625,-1.131927490234375,1.471466064453125,0.3639373779296875
1772871568416739800,7.38573974609375,-0.9524993896484375,1.41168212890625,0.2273712158203125
1772871568426674000,7.395673828125,-0.8144989013671875,1.3018951416015625,0.10430908203125
1772871568436607000,7.40560693359375,-0.656005859375,1.155731201171875,0.020538330078125
1772871568446539800,7.415539794921875,-0.475372314453125,0.9902496337890625,-0.0021514892578125
1772871568456472800,7.425472900390625,-0.3204803466796875,0.802886962890625,0.009368896484375
1772871568466406000,7.435406005859375,-0.1980133056640625,0.5783233642578125,0.034576416015625
1772871568476339700,7.445339599609375,-0.108734130859375,0.341552734375,0.06646728515625
1772871568486272800,7.455272705078125,-0.0385284423828125,0.121612548828125,0.101470947265625
1772871568496205800,7.465205810546875,0.0384979248046875,-0.0697021484375,0.1434326171875
1772871568506139000,7.475138916015625,0.1225128173828125,-0.2208099365234375,0.1813507080078125
1772871568516073000,7.485072998046875,0.208770751953125,-0.30108642578125,0.1682281494140625
1772871568526006000,7.495006103515625,0.3128204345703125,-0.3254241943359375,0.1398162841796875
1772871568535939000,7.50493896484375,0.3731689453125,-0.3131256103515625,0.1040496826171875
1772871568545872000,7.514871826171875,0.3524932861328125,-0.2695770263671875,0.088897705078125
1772871568555805000,7.524804931640625,0.29132080078125,-0.1732177734375,0.0787353515625
1772871568565739000,7.534739013671875,0.207733154296875,-0.0653839111328125,0.0637054443359375
1772871568575671800,7.544671875,0.1082916259765625,0.044647216796875,0.01385498046875
1772871568585604900,7.55460498046875,0.060943603515625,0.142852783203125,-0.0862579345703125
1772871568595538000,7.564537841796875,0.0443878173828125,0.1967315673828125,-0.17718505859375
1772871568605471000,7.574470947265625,-0.000213623046875,0.20941162109375,-0.1950225830078125
1772871568615404800,7.58440478515625,-0.0625,0.1720123291015625,-0.1373748779296875
1772871568625337900,7.594337890625,-0.146484375,0.09814453125,-0.0114898681640625
1772871568635271000,7.60427099609375,-0.2396240234375,0.0127105712890625,0.135589599609375
1772871568645203700,7.61420361328125,-0.3160552978515625,-0.05841064453125,0.2392425537109375
1772871568655136800,7.62413671875,-0.3239288330078125,-0.0740814208984375,0.2847442626953125
1772871568665071000,7.634071044921875,-0.2503814697265625,-0.061370849609375,0.2526397705078125
1772871568675004000,7.64400390625,-0.1389923095703125,-0.0453643798828125,0.1580963134765625
1772871568684937000,7.65393701171875,-0.0035247802734375,-0.0313873291015625,0.0447998046875
1772871568694870000,7.6638701171875,0.09930419921875,-0.0041046142578125,-0.056182861328125
1772871568704803800,7.673803955078125,0.141265869140625,0.032135009765625,-0.113555908203125
1772871568714737000,7.68373681640625,0.1090850830078125,0.033935546875,-0.09033203125
1772871568724670000,7.693669921875,-0.0007476806640625,0.0047454833984375,-0.002227783203125
1772871568734603000,7.70360302734375,-0.1213836669921875,-0.0129241943359375,0.105316162109375
1772871568744535800,7.713535888671875,-0.234222412109375,0.0052642822265625,0.190582275390625
1772871568754470000,7.723469970703125,-0.336090087890625,0.1339874267578125,0.20147705078125
1772871568764403000,7.73340283203125,-0.3077545166015625,0.4376678466796875,0.079833984375
1772871568774335700,7.743335693359375,-0.3115081787109375,0.7415313720703125,0.0933837890625
1772871568784268800,7.753268798828125,-0.42596435546875,1.0214080810546875,0.1538238525390625
1772871568794201900,7.763201904296875,-0.664520263671875,1.3383941650390625,0.256805419921875
1772871568804135700,7.7731357421875,-0.90087890625,1.631378173828125,0.261016845703125
1772871568814069000,7.783069091796875,-1.056915283203125,1.9118194580078125,0.2420654296875
1772871568824002000,7.793001953125,-1.320892333984375,2.1623382568359375,0.2732696533203125
1772871568833935000,7.80293505859375,-1.5318756103515625,2.4041748046875,0.3440399169921875
1772871568843868000,7.812867919921875,-1.818511962890625,2.4116973876953125,0.6118927001953125
1772871568853802000,7.822802001953125,-2.084320068359375,2.1604766845703125,0.9485015869140625
1772871568863735000,7.832735107421875,-1.917999267578125,1.8946075439453125,1.020751953125
1772871568873667800,7.842667724609375,-1.7532196044921875,1.6938934326171875,0.940521240234375
1772871568883601000,7.852600830078125,-1.58642578125,1.6067657470703125,0.8970184326171875
1772871568893535000,7.862534912109375,-1.50958251953125,1.5461273193359375,0.8739166259765625
1772871568903467800,7.8724677734375,-1.423370361328125,1.62518310546875,0.7126007080078125
1772871568913400800,7.88240087890625,-1.2520294189453125,1.825897216796875,0.3957366943359375
1772871568923334000,7.892333984375,-1.2314300537109375,2.0186767578125,0.140228271484375
1772871568933267000,7.902266845703125,-1.337493896484375,2.0933380126953125,0.086578369140625
1772871568943200800,7.91220068359375,-1.4629364013671875,2.035308837890625,0.2522735595703125
1772871568953133800,7.9221337890625,-1.562835693359375,1.9187774658203125,0.46026611328125
1772871568963067000,7.93206689453125,-1.5839385986328125,1.7966766357421875,0.5693511962890625
1772871568972998000,7.941997802734375,-1.5159149169921875,1.68133544921875,0.582366943359375
1772871568982931000,7.951930908203125,-1.3717498779296875,1.5707855224609375,0.51715087890625
1772871568992864800,7.96186474609375,-1.2191162109375,1.5017242431640625,0.424041748046875
1772871569002797800,7.9717978515625,-1.0356292724609375,1.4289398193359375,0.3157806396484375
1772871569012731000,7.98173095703125,-0.7672119140625,1.300079345703125,0.1884613037109375
1772871569022664000,7.991663818359375,-0.4730987548828125,1.142333984375,0.0501861572265625
1772871569032598000,8.001597900390625,-0.2738494873046875,0.9754180908203125,-0.0588531494140625
1772871569042531300,8.01153125,-0.18475341796875,0.79608154296875,-0.0958099365234375
1772871569052464000,8.021464111328125,-0.1683807373046875,0.5893707275390625,-0.0835723876953125
1772871569062397200,8.031397216796876,-0.14013671875,0.351959228515625,-0.0160369873046875
1772871569072330200,8.041330322265624,-0.0726165771484375,0.1190948486328125,0.0598297119140625
1772871569082264300,8.051264404296875,0.033172607421875,-0.0403594970703125,0.1238250732421875
1772871569092197400,8.061197265625,0.14794921875,-0.154541015625,0.149749755859375
1772871569102130400,8.07113037109375,0.2459716796875,-0.204986572265625,0.158538818359375
1772871569112063500,8.0810634765625,0.3327484130859375,-0.2021636962890625,0.1257476806640625
1772871569121996300,8.090996337890624,0.39105224609375,-0.1831817626953125,0.0595855712890625
1772871569131930400,8.100930419921875,0.33172607421875,-0.13165283203125,0.0016937255859375
1772871569141863400,8.110863525390625,0.3120574951171875,0.0349884033203125,-0.033447265625
1772871569151796200,8.120796142578126,0.2436981201171875,0.1414794921875,-0.0686187744140625
1772871569161729300,8.130729248046874,0.14825439453125,0.19146728515625,-0.07421875
1772871569171662300,8.140662353515625,0.0789947509765625,0.2104339599609375,-0.0558624267578125
1772871569181596200,8.15059619140625,0.023040771484375,0.1744842529296875,-0.0250091552734375
1772871569191529200,8.160529296875,-0.026611328125,0.1052703857421875,0.037261962890625
1772871569201462300,8.170462158203126,-0.078857421875,0.01312255859375,0.1283111572265625
1772871569211395300,8.180395263671874,-0.140716552734375,-0.0889739990234375,0.209716796875
1772871569221328400,8.190328369140625,-0.1859588623046875,-0.1565093994140625,0.264739990234375
1772871569231262500,8.200262451171875,-0.21826171875,-0.1708526611328125,0.2783203125
1772871569241195500,8.210195556640626,-0.2364501953125,-0.1270294189453125,0.2359466552734375
1772871569251128300,8.22012841796875,-0.213134765625,-0.06744384765625,0.1385498046875
1772871569261061400,8.230061279296875,-0.1748809814453125,-0.0080718994140625,0.0286407470703125
1772871569270994400,8.239994384765625,-0.1441497802734375,0.0447540283203125,-0.071380615234375
1772871569280928300,8.24992822265625,-0.11651611328125,0.06884765625,-0.1455841064453125
1772871569290861300,8.259861328125,-0.0914306640625,0.06591796875,-0.1717071533203125
1772871569300794400,8.26979443359375,-0.10198974609375,0.0264129638671875,-0.1523590087890625
1772871569310727400,8.2797275390625,-0.1340179443359375,-0.02642822265625,-0.1100616455078125
1772871569320660500,8.289660400390625,-0.175567626953125,-0.0557403564453125,-0.0514984130859375
1772871569330594300,8.29959423828125,-0.2232666015625,-0.0818634033203125,0.0190277099609375
1772871569340527400,8.30952734375,-0.2709808349609375,-0.0924224853515625,0.0852203369140625
1772871569350462500,8.31946240234375,-0.317657470703125,-0.0586395263671875,0.11688232421875
1772871569360395500,8.3293955078125,-0.2885284423828125,0.1151123046875,0.0475921630859375
1772871569370328300,8.339328369140626,-0.22314453125,0.4098358154296875,-0.027984619140625
1772871569380262400,8.349262451171874,-0.311737060546875,0.736572265625,-0.0567779541015625
1772871569390195500,8.359195556640625,-0.4617919921875,1.1144561767578125,0.04217529296875
1772871569400128300,8.369128173828125,-0.81329345703125,1.4837493896484375,0.2462615966796875
1772871569410061300,8.379061279296875,-1.1520843505859375,2.0564727783203125,0.35137939453125
1772871569419995400,8.388995361328124,-1.5121307373046875,2.3932037353515625,0.5415191650390625
1772871569429928200,8.39892822265625,-1.8316192626953125,2.5266265869140625,0.5271453857421875
1772871569439861200,8.408861328125,-2.0646820068359375,2.7033843994140625,0.7753143310546875
1772871569449794300,8.418794189453125,-2.151458740234375,2.5501708984375,1.0642852783203125
1772871569459727400,8.428727294921876,-1.8624420166015625,2.2250823974609375,0.9345703125
1772871569469661200,8.4386611328125,-1.412322998046875,1.98114013671875,0.6930389404296875
1772871569479594200,8.44859423828125,-0.9572906494140625,1.7517242431640625,0.5993499755859375
1772871569489527300,8.45852734375,-0.7668609619140625,1.471954345703125,0.786865234375
1772871569499460000,8.468460205078125,-0.7598876953125,1.3372039794921875,0.9502410888671875
1772871569509393200,8.47839306640625,-0.839630126953125,1.447418212890625,0.9480133056640625
1772871569519327500,8.488327392578125,-1.035430908203125,1.709381103515625,0.88055419921875
1772871569529260300,8.49826025390625,-1.35345458984375,2.0087127685546875,0.8010101318359375
1772871569539193300,8.508193359375,-1.6767578125,2.221405029296875,0.6618804931640625
1772871569549126400,8.51812646484375,-1.8009490966796875,2.30322265625,0.4986114501953125
1772871569559059500,8.5280595703125,-1.798309326171875,2.2478179931640625,0.353271484375
1772871569568993300,8.5379931640625,-1.7168731689453125,2.102508544921875,0.222015380859375
1772871569578926300,8.54792626953125,-1.5685577392578125,1.87750244140625,0.202667236328125
1772871569588859400,8.557859375,-1.3718109130859375,1.6036224365234375,0.284576416015625
1772871569598792200,8.567792236328126,-1.135650634765625,1.339508056640625,0.3067474365234375
1772871569608725200,8.577725341796874,-0.9123992919921875,1.161529541015625,0.2092742919921875
1772871569618659300,8.587659423828125,-0.6902923583984375,1.0760040283203125,0.0462188720703125
1772871569628592000,8.597592041015625,-0.4825897216796875,1.01458740234375,-0.0736541748046875
1772871569638525200,8.607525146484376,-0.2996368408203125,0.8992156982421875,-0.1245880126953125
1772871569648458200,8.617458251953124,-0.159423828125,0.693756103515625,-0.1341552734375
1772871569658391300,8.627391357421875,-0.0225830078125,0.46331787109375,-0.1275787353515625
1772871569668325400,8.637325439453125,0.0975341796875,0.232666015625,-0.083282470703125
1772871569678258400,8.647258544921876,0.22998046875,0.0228424072265625,-0.0174407958984375
1772871569688191500,8.65719140625,0.359375,-0.1444091796875,0.0818023681640625
1772871569698124300,8.667124267578124,0.448272705078125,-0.2912750244140625,0.190643310546875
1772871569708057300,8.677057373046875,0.5543365478515625,-0.376678466796875,0.2335052490234375
1772871569717991400,8.686991455078125,0.5992889404296875,-0.4004669189453125,0.2541046142578125
1772871569727924200,8.69692431640625,0.5552520751953125,-0.327423095703125,0.284454345703125
1772871569737857300,8.706857177734374,0.38665771484375,-0.1781463623046875,0.2841033935546875
1772871569747790300,8.716790283203125,0.1637725830078125,-0.01580810546875,0.2826690673828125
1772871569757723400,8.726723388671875,-0.0384521484375,0.1357574462890625,0.2466278076171875
1772871569767657200,8.7366572265625,-0.1792144775390625,0.2188568115234375,0.1959075927734375
1772871569777590300,8.74659033203125,-0.226287841796875,0.21429443359375,0.126251220703125
1772871569787523300,8.7565234375,-0.22308349609375,0.1689605712890625,0.0698699951171875
1772871569797456400,8.766456298828125,-0.21429443359375,0.09625244140625,0.0343170166015625
1772871569807389200,8.77638916015625,-0.21173095703125,0.0074005126953125,0.02197265625
1772871569817323500,8.786323486328126,-0.19268798828125,-0.0650482177734375,0.0071563720703125
1772871569827256300,8.79625634765625,-0.1610870361328125,-0.102996826171875,-0.032501220703125
1772871569837189400,8.806189453125,-0.147369384765625,-0.124237060546875,-0.0945281982421875
1772871569847122400,8.816122314453125,-0.1693267822265625,-0.122161865234375,-0.14312744140625
1772871569857055500,8.826055419921875,-0.2388763427734375,-0.0750732421875,-0.16888427734375
1772871569866989300,8.8359892578125,-0.299224853515625,0.0172882080078125,-0.1995086669921875
1772871569876922400,8.84592236328125,-0.2867584228515625,0.089752197265625,-0.2353057861328125
1772871569886855400,8.85585546875,-0.232635498046875,0.1045379638671875,-0.2619171142578125
1772871569896788500,8.86578857421875,-0.174041748046875,0.0812530517578125,-0.2540740966796875
1772871569906721300,8.87572119140625,-0.1201019287109375,0.037506103515625,-0.2105865478515625
1772871569916655400,8.8856552734375,-0.0868072509765625,0.011383056640625,-0.1429443359375
1772871569926588400,8.89558837890625,-0.085205078125,-0.004180908203125,-0.079071044921875
1772871569936521200,8.905521240234375,-0.1063232421875,-0.01251220703125,0.010467529296875
1772871569946454300,8.915454345703125,-0.14459228515625,0.007720947265625,0.098876953125
1772871569956387300,8.92538720703125,-0.1542510986328125,0.201171875,0.0458526611328125
1772871569966321200,8.935321044921874,-0.0733184814453125,0.4533233642578125,0.001495361328125
1772871569976254200,8.945254150390625,-0.1416015625,0.5894012451171875,0.1301727294921875
1772871569986187300,8.955187255859375,-0.31884765625,0.8018951416015625,0.340728759765625
1772871569996120300,8.965120361328125,-0.634002685546875,1.082305908203125,0.659912109375
1772871570006054400,8.975054443359374,-0.9762420654296875,1.496612548828125,0.718994140625
1772871570015987500,8.984987548828125,-1.2774658203125,1.986968994140625,0.74822998046875
1772871570025920500,8.99492041015625,-1.6620941162109375,2.5172271728515625,0.737762451171875
1772871570035852800,9.004852783203125,-1.974395751953125,2.871673583984375,0.7784576416015625
1772871570045785900,9.014785888671875,-2.2791748046875,2.9282989501953125,0.902679443359375
1772871570055719000,9.024718994140626,-2.096771240234375,2.815032958984375,0.8476409912109375
1772871570065652700,9.03465283203125,-1.78045654296875,2.496673583984375,0.6148834228515625
1772871570075585800,9.044585693359375,-1.7415618896484375,2.10186767578125,0.531097412109375
1772871570085518800,9.054518798828125,-1.5865936279296875,1.7875213623046875,0.66546630859375
1772871570095452000,9.064451904296876,-1.435302734375,1.519256591796875,0.7377166748046875
1772871570105384700,9.074384765625,-1.26904296875,1.4234161376953125,0.6587066650390625
1772871570115318800,9.08431884765625,-1.079925537109375,1.4787139892578125,0.514007568359375
1772871570125251800,9.094251953125,-0.9481201171875,1.5267791748046875,0.370452880859375
1772871570135184600,9.1041845703125,-0.9115753173828125,1.549896240234375,0.3086700439453125
1772871570145117700,9.11411767578125,-0.993865966796875,1.5759429931640625,0.343780517578125
1772871570155051800,9.1240517578125,-1.20465087890625,1.7022552490234375,0.383331298828125
1772871570164984600,9.133984619140625,-1.488037109375,1.8744964599609375,0.36376953125
1772871570174917600,9.143917724609375,-1.7031707763671875,1.94219970703125,0.33807373046875
1772871570184850700,9.1538505859375,-1.73675537109375,1.9014892578125,0.37127685546875
1772871570194783700,9.16378369140625,-1.6068267822265625,1.7798919677734375,0.3744964599609375
1772871570204717800,9.1737177734375,-1.35089111328125,1.6174774169921875,0.29718017578125
1772871570214651000,9.18365087890625,-1.0159912109375,1.413970947265625,0.179443359375
1772871570224584000,9.193583984375,-0.6627197265625,1.1905517578125,0.045440673828125
1772871570234516700,9.203516845703126,-0.353363037109375,0.98333740234375,-0.089508056640625
1772871570244449800,9.21344970703125,-0.12890625,0.7689056396484375,-0.2160186767578125
1772871570254383900,9.2233837890625,0.0004119873046875,0.5169830322265625,-0.2718048095703125
1772871570264316700,9.233316650390625,0.1066436767578125,0.265289306640625,-0.25091552734375
1772871570274249700,9.243249755859376,0.196136474609375,-0.012298583984375,-0.1435394287109375
1772871570284182800,9.253182861328124,0.2375640869140625,-0.312713623046875,0.0802459716796875
1772871570294115800,9.26311572265625,0.2264862060546875,-0.5079345703125,0.288970947265625
1772871570304049700,9.273049560546875,0.1924896240234375,-0.5342864990234375,0.34710693359375
1772871570313982700,9.282982666015625,0.196807861328125,-0.4234161376953125,0.2534942626953125
1772871570323915800,9.292915771484376,0.2156219482421875,-0.18865966796875,0.0917816162109375
1772871570333848800,9.302848876953124,0.1948089599609375,0.0430145263671875,-0.003662109375
1772871570343781600,9.31278173828125,0.077117919921875,0.16412353515625,-0.0276641845703125
1772871570353716000,9.322716064453125,-0.0440673828125,0.240234375,-0.01739501953125
1772871570363648800,9.332648681640626,-0.084686279296875,0.280731201171875,-0.048980712890625
1772871570373581800,9.342581787109374,-0.059417724609375,0.2518157958984375,-0.1014251708984375
1772871570383515000,9.352514892578125,-0.0407562255859375,0.1558685302734375,-0.0809173583984375
1772871570393448000,9.362447998046875,-0.070556640625,0.0166015625,0.0080718994140625
1772871570403381000,9.372381103515625,-0.1608123779296875,-0.1223297119140625,0.1226654052734375
1772871570413314800,9.382314697265626,-0.27093505859375,-0.216888427734375,0.2017059326171875
1772871570423248000,9.392247802734374,-0.3240203857421875,-0.24237060546875,0.1974639892578125
1772871570433181000,9.402180908203125,-0.2826995849609375,-0.1999359130859375,0.088104248046875
1772871570443113700,9.41211376953125,-0.20147705078125,-0.1597442626953125,-0.047637939453125
1772871570453047800,9.4220478515625,-0.1155548095703125,-0.106658935546875,-0.123443603515625
1772871570462980900,9.43198095703125,-0.046905517578125,-0.0679473876953125,-0.1901397705078125
1772871570472913700,9.44191357421875,0.0028533935546875,-0.0333709716796875,-0.23382568359375
1772871570482846700,9.4518466796875,0.007537841796875,0.0176849365234375,-0.250457763671875
1772871570492779800,9.46177978515625,-0.02850341796875,0.0772705078125,-0.244537353515625
1772871570502712800,9.471712890625,-0.0832672119140625,0.1350250244140625,-0.224945068359375
1772871570512646700,9.481646728515624,-0.136077880859375,0.166717529296875,-0.1651763916015625
1772871570522580000,9.491580078125,-0.1672821044921875,0.1575927734375,-0.0677032470703125
1772871570532513000,9.501512939453125,-0.1324310302734375,0.1173248291015625,0.0164794921875
1772871570542445800,9.51144580078125,-0.044708251953125,0.0861358642578125,0.0562744140625
1772871570552379000,9.52137890625,0.043304443359375,0.04339599609375,0.049530029296875
1772871570562313000,9.53131298828125,0.1017608642578125,0.086517333984375,-0.005126953125
1772871570572245800,9.541245849609375,0.127777099609375,0.275390625,-0.1410369873046875
1772871570582178800,9.5511787109375,0.1444244384765625,0.522186279296875,-0.131072998046875
1772871570592111900,9.56111181640625,0.0039215087890625,0.8316497802734375,0.005950927734375
1772871570602045000,9.571044921875,-0.2483367919921875,1.1768035888671875,0.22479248046875
1772871570611978800,9.580978759765625,-0.5824432373046875,1.58843994140625,0.526519775390625
1772871570621911800,9.590911865234375,-1.0360107421875,1.99639892578125,0.8224029541015625
1772871570631844900,9.600844970703125,-1.5702972412109375,2.3632354736328125,1.1331634521484375
1772871570641777700,9.610777587890626,-2.1360015869140625,2.549407958984375,1.431396484375
1772871570651710700,9.620710693359374,-2.736572265625,2.4473114013671875,1.7634429931640625
1772871570661644800,9.630644775390625,-2.9313507080078125,2.2682952880859375,1.871978759765625
1772871570671577600,9.64057763671875,-2.3052520751953125,2.171539306640625,1.3714752197265625
1772871570681510700,9.6505107421875,-1.779998779296875,1.984039306640625,0.6741790771484375
1772871570691443700,9.660443603515626,-1.38189697265625,1.8681488037109375,0.281646728515625
1772871570701376800,9.670376708984374,-1.136962890625,1.754791259765625,0.186737060546875
1772871570711310800,9.680310791015625,-1.1831512451171875,1.6284637451171875,0.226318359375
1772871570721244000,9.690243896484375,-1.33355712890625,1.614349365234375,0.3628692626953125
1772871570731177000,9.700177001953126,-1.563507080078125,1.5809783935546875,0.6480712890625
1772871570741109800,9.71010986328125,-1.7976531982421875,1.44818115234375,0.950103759765625
1772871570751042800,9.720042724609375,-1.9681549072265625,1.614471435546875,0.94140625
1772871570760977000,9.729976806640625,-1.9514923095703125,1.937286376953125,0.6142578125
1772871570770909700,9.73990966796875,-1.8314666748046875,1.9947509765625,0.29620361328125
1772871570780842800,9.7498427734375,-1.6123199462890625,1.8299713134765625,0.1148529052734375
1772871570790775800,9.75977587890625,-1.4333953857421875,1.6409912109375,0.074249267578125
1772871570800708900,9.769708984375,-1.37664794921875,1.4677734375,0.1153717041015625
1772871570810642700,9.779642578125,-1.3673248291015625,1.291290283203125,0.162139892578125
1772871570820575700,9.78957568359375,-1.27978515625,1.1522064208984375,0.151763916015625
1772871570830508800,9.7995087890625,-1.0160369873046875,1.0979156494140625,0.031219482421875
1772871570840441600,9.809441650390625,-0.703399658203125,1.0423583984375,-0.13739013671875
1772871570850374700,9.819374755859375,-0.4371490478515625,0.9199676513671875,-0.2467041015625
1772871570860309000,9.82930908203125,-0.2444610595703125,0.7356414794921875,-0.295318603515625
1772871570870241800,9.83924169921875,-0.105682373046875,0.5150299072265625,-0.2980194091796875
1772871570880174800,9.8491748046875,0.023162841796875,0.2885894775390625,-0.2513580322265625
1772871570890108000,9.85910791015625,0.150543212890625,0.0944061279296875,-0.194854736328125
1772871570900041000,9.869041015625,0.2427215576171875,-0.052581787109375,-0.128692626953125
1772871570909974800,9.878974853515626,0.2822418212890625,-0.1514739990234375,-0.032440185546875
1772871570919907800,9.888907958984374,0.2805633544921875,-0.1623077392578125,0.0277252197265625
1772871570929841000,9.8988408203125,0.19012451171875,-0.16278076171875,0.0511627197265625
1772871570939773700,9.908773681640625,0.071319580078125,-0.10955810546875,0.0684356689453125
1772871570949706800,9.918706787109375,-0.0115509033203125,-0.02850341796875,0.0705108642578125
1772871570959640800,9.928640869140626,-0.090728759765625,0.0504150390625,0.0845184326171875
1772871570969573600,9.93857373046875,-0.1598968505859375,0.1014556884765625,0.085205078125
1772871570979506700,9.948506591796875,-0.181640625,0.1313629150390625,0.0655975341796875
1772871570989439700,9.958439697265625,-0.178680419921875,0.1513824462890625,0.046173095703125
1772871570999372800,9.968372802734375,-0.1636810302734375,0.1453094482421875,0.0030670166015625
1772871571009305600,9.9783056640625,-0.1254119873046875,0.1231536865234375,-0.065521240234375
1772871571019240000,9.988239990234375,-0.0751190185546875,0.093658447265625,-0.099945068359375
1772871571029173000,9.998173095703125,-0.0507354736328125,0.0611572265625,-0.09613037109375
1772871571039106000,10.00810595703125,-0.080474853515625,0.048126220703125,-0.1058197021484375
1772871571049039000,10.0180390625,-0.127471923828125,0.0778350830078125,-0.1181640625
1772871571058972200,10.02797216796875,-0.1667938232421875,0.042510986328125,-0.03741455078125
1772871571068906000,10.037906005859375,-0.2349395751953125,-0.015289306640625,0.0275421142578125
1772871571078839000,10.047839111328125,-0.2311553955078125,0.02777099609375,0.05926513671875
1772871571088772000,10.057772216796875,-0.200469970703125,0.0685272216796875,0.0856781005859375
1772871571098705200,10.067705078125,-0.258697509765625,0.0904388427734375,0.067840576171875
1772871571108638000,10.077637939453124,-0.2555084228515625,0.153594970703125,0.416290283203125
1772871571118572300,10.087572265625,-0.3209381103515625,0.05645751953125,0.56610107421875
1772871571128505300,10.09750537109375,-0.5261383056640625,-0.1497955322265625,0.5091552734375
1772871571138438100,10.107438232421876,-0.3824462890625,-0.19158935546875,0.616851806640625
1772871571148371200,10.11737109375,-0.504913330078125,-0.1639556884765625,0.576019287109375
1772871571158304300,10.12730419921875,-0.521575927734375,-0.0131072998046875,0.5012054443359375
1772871571168238000,10.137238037109375,-0.5697174072265625,0.1213531494140625,0.320281982421875
1772871571178171100,10.147171142578125,-0.6326751708984375,0.2256622314453125,0.1389923095703125
1772871571188104200,10.157104248046876,-0.6434173583984375,0.37548828125,0.0040740966796875
1772871571198037200,10.167037353515624,-0.6461944580078125,0.6343231201171875,-0.0680389404296875
1772871571207970000,10.176969970703125,-0.686431884765625,0.9960479736328125,-0.10205078125
1772871571217904000,10.186904052734375,-0.935546875,1.1807861328125,0.0785980224609375
1772871571227837200,10.196837158203126,-1.2863311767578125,1.4611968994140625,0.2021484375
1772871571237770000,10.20677001953125,-1.5466766357421875,1.66656494140625,0.1533050537109375
1772871571247703000,10.216703125,-1.580841064453125,1.7866668701171875,0.01080322265625
1772871571257636000,10.226635986328125,-1.5647430419921875,1.775146484375,-0.0182342529296875
1772871571267569200,10.236569091796875,-1.483062744140625,1.5735626220703125,0.160888671875
1772871571277503200,10.246503173828126,-1.4569244384765625,1.5401763916015625,0.4690093994140625
1772871571287436300,10.256436279296874,-1.6206207275390625,1.470367431640625,0.646514892578125
1772871571297369300,10.266369384765625,-1.721282958984375,1.4628753662109375,0.7535858154296875
1772871571307302100,10.27630224609375,-1.8429718017578125,1.433685302734375,0.6619415283203125
1772871571317235200,10.286235107421875,-1.8548736572265625,1.347625732421875,0.5665130615234375
1772871571327169300,10.296169189453124,-1.7487030029296875,1.1737213134765625,0.409576416015625
1772871571337102000,10.30610205078125,-1.59375,1.0247955322265625,0.2755126953125
1772871571347035100,10.31603515625,-1.517608642578125,0.922088623046875,0.197418212890625
1772871571356968200,10.32596826171875,-1.4907379150390625,0.7930908203125,0.28802490234375
1772871571366901200,10.3359013671875,-1.3844451904296875,0.59564208984375,0.5318756103515625
1772871571376835000,10.3458349609375,-1.341156005859375,0.4765472412109375,0.643768310546875
1772871571386768100,10.35576806640625,-1.3328094482421875,0.3672332763671875,0.55377197265625
1772871571396701200,10.365701171875,-1.21923828125,0.24853515625,0.44708251953125
1772871571406634000,10.375634033203125,-1.07635498046875,0.1726531982421875,0.3405303955078125
1772871571416567000,10.385567138671876,-0.94805908203125,0.107147216796875,0.252471923828125
1772871571426501400,10.39550146484375,-0.8393402099609375,0.0760040283203125,0.2004241943359375
1772871571436434200,10.40543408203125,-0.7530059814453125,0.0249786376953125,0.158233642578125
1772871571446367200,10.4153671875,-0.7078704833984375,0.0489501953125,0.1368408203125
1772871571456300300,10.42530029296875,-0.6270904541015625,0.11041259765625,0.0693359375
1772871571466233300,10.4352333984375,-0.6495361328125,0.1352691650390625,0.019073486328125
1772871571476166100,10.445166259765625,-0.6649169921875,0.157073974609375,0.04638671875
1772871571486100200,10.455100341796875,-0.6457061767578125,0.1190948486328125,0.0958404541015625
1772871571496033300,10.465033203125,-0.604736328125,0.0450439453125,0.1570587158203125
1772871571505966000,10.474966064453126,-0.5461883544921875,0.0049591064453125,0.24383544921875
1772871571515899100,10.484899169921874,-0.4843292236328125,0.0020599365234375,0.297637939453125
1772871571525832200,10.494832275390625,-0.4426727294921875,-0.014404296875,0.295440673828125
1772871571535766000,10.50476611328125,-0.4011077880859375,0.0577239990234375,0.2432098388671875
1772871571545699000,10.514698974609376,-0.444671630859375,0.211334228515625,0.1520233154296875
1772871571555632000,10.524632080078124,-0.55914306640625,0.31732177734375,0.16015625
1772871571565565200,10.534565185546874,-0.627899169921875,0.389678955078125,0.176055908203125
1772871571575498000,10.544498046875,-0.6528167724609375,0.4301605224609375,0.1851043701171875
1772871571585432000,10.55443212890625,-0.631561279296875,0.459991455078125,0.1729736328125
1772871571595365000,10.564365234375,-0.68280029296875,0.4226837158203125,0.173431396484375
1772871571605298200,10.574298095703124,-0.7483367919921875,0.5088653564453125,0.1694793701171875
1772871571615231200,10.584231201171875,-0.7935943603515625,0.625579833984375,0.1642303466796875
1772871571625164300,10.594164306640625,-0.8528289794921875,0.6304168701171875,0.16143798828125
1772871571635098000,10.60409814453125,-0.888397216796875,0.6090087890625,0.1584625244140625
1772871571645031200,10.61403125,-0.8531646728515625,0.6220245361328125,0.1836395263671875
1772871571654964200,10.623964111328124,-0.844512939453125,0.589874267578125,0.18988037109375
1772871571664897300,10.633897216796875,-0.8446044921875,0.4804840087890625,0.177337646484375
1772871571674830000,10.643830078125,-0.852874755859375,0.43487548828125,0.1784210205078125
1772871571684764200,10.65376416015625,-0.8370819091796875,0.4391632080078125,0.1576690673828125
1772871571694697200,10.663697265625,-0.848388671875,0.4094696044921875,0.1170196533203125
1772871571704630000,10.673630126953125,-0.83648681640625,0.42108154296875,0.093597412109375
1772871571714563000,10.68356298828125,-0.841583251953125,0.4694671630859375,0.0819091796875
1772871571724496100,10.69349609375,-0.8300018310546875,0.465789794921875,0.0467071533203125
1772871571734429200,10.70342919921875,-0.78692626953125,0.3931732177734375,0.059783935546875
1772871571744363000,10.713363037109374,-0.7419281005859375,0.3217926025390625,0.1067657470703125
1772871571754296000,10.723296142578125,-0.7668914794921875,0.2922515869140625,0.1526641845703125
1772871571764229000,10.73322900390625,-0.85003662109375,0.3123779296875,0.1820220947265625
1772871571774162200,10.743162109375,-0.910247802734375,0.34100341796875,0.162933349609375
1772871571784095000,10.753094970703126,-0.9389190673828125,0.3774261474609375,0.1474151611328125
1772871571794029300,10.763029296875,-0.959503173828125,0.368194580078125,0.1475982666015625
1772871571803962000,10.772962158203125,-0.9511260986328125,0.348846435546875,0.1595306396484375
1772871571813895200,10.782895263671875,-0.93646240234375,0.3446502685546875,0.1780853271484375
1772871571823828200,10.792828125,-0.94720458984375,0.3584442138671875,0.204376220703125
1772871571833761300,10.80276123046875,-0.970428466796875,0.3704986572265625,0.220123291015625
1772871571843695000,10.812695068359375,-0.9723663330078125,0.3834075927734375,0.203704833984375
1772871571853628200,10.822628173828125,-0.96697998046875,0.395172119140625,0.1663818359375
1772871571863561200,10.832561279296876,-0.9666290283203125,0.4001007080078125,0.129180908203125
1772871571873494300,10.842494384765626,-0.9585723876953125,0.39788818359375,0.1157684326171875
1772871571883427000,10.852427001953124,-0.94097900390625,0.3954925537109375,0.117767333984375
1772871571893361200,10.862361083984375,-0.9334869384765625,0.38104248046875,0.122467041015625
1772871571903294200,10.872294189453125,-0.9222564697265625,0.3856201171875,0.1282806396484375
1772871571913227000,10.88222705078125,-0.940765380859375,0.394378662109375,0.133392333984375
1772871571923160000,10.89216015625,-0.9860687255859375,0.4187164306640625,0.15679931640625
1772871571933093000,10.902093017578125,-1.006500244140625,0.430938720703125,0.1826019287109375
1772871571943026200,10.912026123046875,-1.0015869140625,0.4178009033203125,0.2120208740234375
1772871571952960300,10.921960205078125,-0.95819091796875,0.40576171875,0.2039794921875
1772871571962893300,10.931893310546876,-0.8860321044921875,0.40814208984375,0.1880035400390625
1772871571972826400,10.941826416015624,-0.848541259765625,0.4122467041015625,0.18658447265625
1772871571982759200,10.95175927734375,-0.83673095703125,0.3744964599609375,0.1746063232421875
1772871571992692200,10.961692138671875,-0.8065948486328125,0.3460235595703125,0.1792144775390625
1772871572002626300,10.971626220703126,-0.8025054931640625,0.3403167724609375,0.173370361328125
1772871572012559000,10.98155908203125,-0.84808349609375,0.334930419921875,0.1760406494140625
1772871572022492200,10.9914921875,-0.905548095703125,0.3706512451171875,0.167205810546875
1772871572032425200,11.00142529296875,-0.9436492919921875,0.414154052734375,0.159515380859375
