time,seconds_elapsed,z,y,x
1772871561073586200,0.042586181640625,0.3062017919123173,-0.5302759202361107,0.3110958475641906
1772871561083519200,0.052519287109375,0.22767887481749055,-0.5861047749638557,0.33593254798315464
1772871561093452300,0.062452392578125,0.2892074024915695,-0.6607827070683241,0.47952612233832476
1772871561103386400,0.072386474609375,0.4577110347628593,-0.6606301468551159,0.6905531375624239
1772871561113319400,0.0823193359375,0.6229296540141105,-0.7539245166242122,0.8330846356440335
1772871561123252500,0.09225244140625,0.6930868938237428,-0.9324047685086727,0.8953402354836464
1772871561133186300,0.102186279296875,0.5794914943039416,-0.9926824193388223,0.7863385934948921
1772871561143119400,0.112119384765625,0.41142800701558585,-0.8412900808662176,0.530075027369149
1772871561153052400,0.122052490234375,0.37355274212956424,-0.7024316452741622,0.3404769499471411
1772871561162985200,0.131985107421875,0.2235375372290611,-0.40898645908236503,0.2843651866247877
1772871561172919300,0.141919189453125,0.025208675536513327,-0.04535772959589958,0.16687164715528488
1772871561182852400,0.151852294921875,-0.21492226909697054,0.2162134779512882,-0.02320814936906099
1772871561192785200,0.16178515625,-0.23365327305197714,0.3575654839247465,-0.03313837255723774
1772871561202719500,0.171719482421875,-0.06294599325656891,0.4024912518441677,-0.0676999097853899
1772871561212652500,0.181652587890625,0.2028378635495901,0.2400339139997959,-0.011306333846971392
1772871561222585300,0.19158544921875,0.43756490331292147,-0.013144143733382223,0.06755582513958215
1772871561232518400,0.201518310546875,0.5594821409761905,-0.08873042285442352,0.1792476560603827
1772871561242452500,0.211452392578125,0.6292658712983131,-0.17446692458987234,0.17998429977186023
1772871561252385300,0.22138525390625,0.5289502245903015,-0.24549860914647578,0.15922463953346014
1772871561262318300,0.231318359375,0.36933483217358587,-0.24589257690012453,0.05862681488320231
1772871561272252400,0.24125244140625,0.23891981527805328,-0.1475607974857092,-0.11743227426894008
1772871561282185200,0.251185302734375,0.010347206491231917,-0.07000058794319629,-0.11222067710049449
1772871561292118300,0.2611181640625,-0.2650970435857773,0.010660510224103926,0.06312142288871109
1772871561302051300,0.27105126953125,-0.5566892953872681,0.05079553673565387,0.19967026636414228
1772871561311985200,0.280985107421875,-0.6464934849530458,0.14926234070658684,0.2806383115887642
1772871561321918200,0.290918212890625,-0.5673445449143648,0.17697744610607624,0.2574970899760723
1772871561331851300,0.300851318359375,-0.592559065669775,0.10346855778098106,0.03467237719148397
1772871561341785300,0.310785400390625,-0.4336345781266689,0.5122738150775432,-0.3567126664876938
1772871561351718400,0.320718505859375,-0.4728606730997562,0.7131716504752635,-0.1668124643139541
1772871561361651500,0.3306513671875,-0.8955033170908689,0.32099370285272594,-0.28168592094555495
1772871561371584500,0.34058447265625,-0.3890355579435825,-0.036596330991387364,-0.3778676827192306
1772871561381518300,0.350518310546875,-0.5728863969504833,0.04957973120510578,-0.11039821091368794
1772871561391451400,0.360451416015625,-0.5697843392819166,-0.024397943675518036,-0.36315161349400876
1772871561401384400,0.370384521484375,-0.1285416242390871,0.16605331650972366,-0.2976908609375358
1772871561411318300,0.380318359375,-0.0019879589468240737,-0.10484452230930327,-0.32391938104107976
1772871561421251300,0.390251220703125,0.17231763760149477,-0.29048750542998314,-0.3813784673191607
1772871561431184400,0.400184326171875,0.3887333601266145,-0.3537649225980043,-0.3446517879463732
1772871561441117200,0.4101171875,0.3979483477175236,-0.47200844018459315,-0.2976297784000635
1772871561451051300,0.42005126953125,0.4303028033554554,-0.5743073696643114,-0.2737289705917239
1772871561460984300,0.429984375,0.4655681780040264,-0.5572457602262496,-0.2214648226082325
1772871561470917000,0.439917236328125,0.5112812969088554,-0.5495417617201804,-0.1886319358035922
1772871561480851500,0.4498515625,0.5356733953654765,-0.5421838001728058,-0.3007745061665773
1772871561490784500,0.459784423828125,0.44022856956422324,-0.5129436771631241,-0.3691194358572364
1772871561500717300,0.46971728515625,0.3712380354464054,-0.43078678748011584,-0.3769561208322644
1772871561510650400,0.479650390625,0.2829243766993284,-0.410776849630475,-0.336098333004117
1772871561520584400,0.48958447265625,0.30668519151508805,-0.4123381075978279,-0.2969723374046385
1772871561530517200,0.499517333984375,0.4437286866396665,-0.5978577565997839,-0.12282996859401464
1772871561540450300,0.5094501953125,0.09204758457839489,-0.314361717492342,-0.356949105592072
1772871561550383400,0.51938330078125,0.08668810337185859,-0.013331775259971618,-0.3760109489366412
1772871561560317200,0.529317138671875,-0.005361234772205352,-0.319018603387475,-0.2053134598828852
1772871561570250200,0.539250244140625,-0.43127953943312164,-0.12826339181959628,-0.46099151773825287
1772871561580183300,0.549183349609375,-0.45678865922093387,0.4406272134929895,-0.6982284944958984
1772871561590117000,0.5591171875,-0.5506137748658657,0.24371289477348326,-0.5256754407033324
1772871561600050400,0.569050537109375,-0.8791343660920858,0.3497048335522413,-0.5068808699928223
1772871561609983500,0.5789833984375,-0.9477776942074299,0.37420740664601326,-0.33359409509822724
1772871561619916500,0.58891650390625,-0.7748153289616108,0.29631051249504087,-0.1759343667939305
1772871561629850400,0.598850341796875,-0.4252817603230476,0.09590016835331916,-0.08076338949799537
1772871561639783400,0.608783447265625,-0.04371171595454216,-0.0967699369251728,-0.04862111530601978
1772871561649716500,0.618716552734375,0.21239655001163482,-0.2629746446043253,-0.0260550632327795
1772871561659650300,0.628650390625,0.3541302487790584,-0.4984662389993667,0.24663389678671954
1772871561669583400,0.638583251953125,0.16122633474469183,-0.4551321241855621,0.25081322829797864
1772871561679516400,0.648516357421875,-0.33102760561108585,0.21134616417586802,-0.12342837287858127
1772871561689449200,0.65844921875,-0.2997697130382061,0.1773152997583151,0.1436401169106364
1772871561699383300,0.66838330078125,-0.640825376188755,-0.061812605312466615,0.03691547994315624
1772871561709316400,0.67831640625,-0.6605255174368619,-0.042539749565720555,-0.2662983821995556
1772871561719249200,0.688249267578125,-0.4170382481127977,-0.10839140113592147,-0.3235875187382102
1772871561729183500,0.69818359375,-0.16226853727400303,-0.31619244005084035,-0.4272843323171138
1772871561739116500,0.708116455078125,0.06553016453087329,-0.6020043548852205,-0.44110900566056366
1772871561749049300,0.71804931640625,0.18141279820501804,-0.8775999961316585,-0.3918317645333707
1772871561758982400,0.727982421875,0.3096159842699766,-1.1386287673652171,-0.42317631247639653
1772871561768916500,0.73791650390625,0.43588615644574163,-1.4021511089801788,-0.5213073086217046
1772871561778849300,0.747849365234375,0.6117933429718018,-1.6362106247454882,-0.6420549179837107
1772871561788782300,0.7577822265625,0.819302705463767,-1.8308458926171063,-0.7610625518105923
1772871561798716400,0.76771630859375,0.9881102891176938,-1.9805273355185984,-0.8390113222792744
1772871561808649200,0.777649169921875,1.1554437085658311,-2.1350410208821295,-0.9224829478226602
1772871561818582300,0.787582275390625,1.3283745096296071,-2.2718933773487806,-0.8702868966393172
1772871561828515300,0.797515380859375,1.5327221932202577,-2.4552047026515007,-0.7220058951202779
1772871561838449200,0.80744921875,1.7209142763018608,-2.5738585546046493,-0.5354642826594412
1772871561848382200,0.81738232421875,1.7191940283805132,-2.5769559360980985,-0.3778472975183278
1772871561858315300,0.827315185546875,1.4037585441768168,-2.544258366110921,-0.16899667648524044
1772871561868248300,0.837248291015625,0.7594207759529352,-2.397773088902235,0.223432834745571
1772871561878182400,0.847182373046875,0.09205518336296081,-2.1913889310479164,0.6849899504773318
1772871561888115500,0.857115478515625,-0.2425783377856016,-1.9034452648818492,0.8567458625428378
1772871561898048500,0.867048583984375,0.06161562143564224,-1.4663000482857227,0.7521303266838193
1772871561907982300,0.876982421875,0.6369277842283249,-0.8781851025432348,0.6003677666593342
1772871561917915400,0.886915283203125,1.3212228843092917,-0.02171031202673912,0.3374634108122438
1772871561927848400,0.896848388671875,1.5529712005227803,0.9301958602875471,0.12913535234853624
1772871561937781200,0.90678125,0.9478039976924657,1.7518904293239115,0.008839797602966427
1772871561947715300,0.91671533203125,-0.17527999453842638,2.34414437456727,-0.2303275626953691
1772871561957648400,0.9266484375,-1.3132067511141299,2.851899835437536,-0.4524376974698156
1772871561967581200,0.936581298828125,-2.246739646869898,3.495780507543683,-0.408507151132822
1772871561977515300,0.946515380859375,-3.24013109126091,3.8241841943919654,-0.13364764214120806
1772871561987448300,0.9564482421875,-4.601488417559862,3.62456470836699,0.6569850683510303
1772871561997381400,0.96638134765625,-5.99369973180592,3.2495582602977753,1.9769874709546564
1772871562007314400,0.976314453125,-6.924214741045236,2.889748796838522,3.1370380887940525
1772871562017248500,0.98624853515625,-6.994691714328527,2.6214105793744324,3.963815367922187
1772871562027180800,0.996180908203125,-6.282596753174066,2.4184885446727273,4.258981678818166
1772871562037113900,1.00611376953125,-5.516344085374474,2.319741170194745,4.132787786749005
1772871562047048000,1.0160478515625,-4.919944126367569,2.267618184247613,4.0029321573019025
1772871562056980700,1.025980712890625,-4.948512049204111,2.4051596920222043,4.018318819265067
1772871562066913800,1.035913818359375,-5.170289591023326,2.741467283862829,3.881909238129854
1772871562076846800,1.045846923828125,-5.359793925747275,3.2737276559144255,3.72282254576236
1772871562086781000,1.055781005859375,-5.506482032051682,3.9242870751321313,3.423424004124105
1772871562096714000,1.0657138671875,-5.342837530249357,4.801431144189834,2.9104169063359495
1772871562106647000,1.07564697265625,-5.057598446866869,5.95858165667355,2.411488456652313
1772871562116580000,1.085580078125,-5.0562891178339715,7.259963529959321,2.1016838179424404
1772871562126514000,1.095513916015625,-5.045812147483229,8.543664200603962,1.9535335301309822
1772871562136447000,1.105447021484375,-4.6090638212502,9.149127171510457,1.7025072436042128
1772871562146380000,1.115380126953125,-3.402009167912602,8.820129025900364,1.6857666828140616
1772871562156313900,1.12531396484375,-1.5366723921507597,7.803778730726242,2.4154843944206834
1772871562166247000,1.135246826171875,0.49587914511561393,6.111352882283926,2.9471953158959745
1772871562176180000,1.145179931640625,2.5065187103033066,4.237247109133005,3.2293370177850127
1772871562186112800,1.15511279296875,3.900180807879567,2.6346108372092245,2.848551986314356
1772871562196046800,1.165046875,4.391130095377564,1.4383926351845264,1.2860824512146412
1772871562205980000,1.17497998046875,4.495649038994312,0.9319523485660552,-0.664056760302931
1772871562215912700,1.18491259765625,4.218391017493605,0.8911024517834186,-2.7117437612503767
1772871562225845800,1.194845703125,3.5189749206483363,0.6927291664272547,-4.531010859754681
1772871562235780000,1.204780029296875,3.099869218611717,-0.11638006180226802,-5.702497356104851
1772871562245713000,1.214712890625,3.143361154335737,-1.2322697586148976,-6.933581704327464
1772871562255646000,1.22464599609375,3.6102404149383305,-2.383388005197048,-7.247526657712459
1772871562265580000,1.234580078125,3.6017338678777215,-4.048687361782789,-6.102278764468431
1772871562275512800,1.244512939453125,4.18699517775476,-6.1655339698046445,-4.205245704716444
1772871562285446000,1.25444580078125,4.993655843788385,-8.20766698988676,-2.17487618766427
1772871562295379000,1.26437890625,5.703332637885213,-9.753390703499317,-0.28400691123902794
1772871562305312800,1.274312744140625,5.918654719954729,-10.449455736351013,1.2017927872866392
1772871562315245800,1.284245849609375,5.346470333793759,-10.619566803818941,1.4080246771886944
1772871562325179000,1.294178955078125,4.026703493511676,-10.12179848395586,1.337037708556652
1772871562335112000,1.30411181640625,3.233894242697954,-8.85314749840498,0.5690731953378766
1772871562345045800,1.314045654296875,2.243988302335143,-8.311669216153025,-0.8006878021690994
1772871562354978800,1.323978759765625,1.6418004075765609,-7.392052033025026,-1.546625046366453
1772871562364912000,1.333912109375,2.1479367428123948,-7.0222969296127555,-2.313332033804804
1772871562374846000,1.343845947265625,3.1014924358993765,-7.339001410838961,-2.8968656431064006
1772871562384779000,1.353779052734375,5.287893057140708,-8.084530439561606,-3.1051679095417257
1772871562394712000,1.363712158203125,5.9161336770445105,-8.36179021462798,-3.1809996878564357
1772871562404644900,1.373644775390625,6.662819474586844,-8.538484752139448,-3.578336625677347
1772871562414579000,1.383578857421875,6.691354664197564,-8.03692814590931,-3.8788328994244337
1772871562424512000,1.393511962890625,6.5499377762943505,-7.389042329815029,-4.028752534995973
1772871562434444800,1.40344482421875,5.296044799414277,-6.951508990684151,-3.876706116528809
1772871562444377900,1.4133779296875,3.836294903424382,-6.60501142874062,-3.238555220246315
1772871562454312000,1.42331201171875,2.7500714460790157,-6.36157209021151,-2.2277577368937433
1772871562464244700,1.43324462890625,1.8768121095001697,-6.868718479272723,-1.4033094852350652
1772871562474177800,1.443177734375,1.2018500704318285,-7.841257105249166,-0.19148067629821597
1772871562484112100,1.453112060546875,0.8082341989606618,-7.116109185776114,1.3731672988191246
1772871562494045000,1.463044921875,1.4608920517623423,-5.114502821871638,1.9751526567429303
1772871562503978000,1.47297802734375,1.7033821267426013,-2.480786303153634,1.529522374265641
1772871562513911000,1.4829111328125,1.529840500304103,1.1459838063031433,0.4474057677172124
1772871562523844900,1.492844970703125,0.6067284607976675,4.626691247877479,-0.9056023940399288
1772871562533778000,1.50277783203125,-0.40507133146524427,7.823950581139326,-2.6164628938391803
1772871562543711000,1.5127109375,-1.9013965156584978,10.558267993247508,-3.3847663566887376
1772871562553644000,1.52264404296875,-4.788037409609556,11.752367887943983,-2.537396371386945
1772871562563577900,1.532577880859375,-8.416050212603807,11.860564058768748,-0.452364376505278
1772871562573511000,1.542510986328125,-12.401435022777319,12.479923453080653,3.3468460836172103
1772871562583444000,1.55244384765625,-14.140201766633986,12.29721360080242,6.351626450258493
1772871562593377800,1.562377685546875,-10.950412038600444,11.361251432073116,7.080188562089204
1772871562603310800,1.572310791015625,-5.8025914690166704,10.166757569622993,5.492027390241622
1772871562613244000,1.582243896484375,-1.9016659802496432,8.72041485221684,3.3872286551490425
1772871562623176700,1.5921767578125,0.6325491307526826,7.18810474692881,2.094972045344114
1772871562633111000,1.602111083984375,1.24724170229733,5.7507934772402045,1.7086128670029341
1772871562643044000,1.612044189453125,-0.49789925276637076,4.866678984647989,1.910340869614482
1772871562652977000,1.621976806640625,-3.39164442576468,4.628296929508448,2.5554414389044044
1772871562662910000,1.631909912109375,-6.298761121511459,5.850515834230184,3.1772733608096835
1772871562672844000,1.641843994140625,-10.00846085858941,8.264511743658781,3.4290547034874557
1772871562682776800,1.65177685546875,-11.804653370976448,10.101417374706267,2.025159965710342
1772871562692710000,1.6617099609375,-10.840180562555789,11.278749674475192,-0.5701833485368639
1772871562702643000,1.671642822265625,-7.866970223176479,11.244814671647548,-2.6185698029905558
1772871562712576800,1.68157666015625,-5.064606864324212,9.837412218010424,-3.8332355158537625
1772871562722509800,1.691509765625,-2.7296391911640763,7.8729551428049795,-3.854247908744216
1772871562732443000,1.70144287109375,-1.0587605731412768,5.972648175948858,-3.1009704578518864
1772871562742376700,1.711376708984375,-0.6001157646596431,4.155765926754475,-2.285423305529356
1772871562752309800,1.721309814453125,-1.1051678117901087,2.6987749740839004,-1.52354651472643
1772871562762243000,1.7312431640625,-2.36051858626306,1.795189472824335,-0.7838380819160491
1772871562772176100,1.741176025390625,-3.6020056705564256,1.0892705699563026,-0.11918715511225163
1772871562782110000,1.75110986328125,-4.050563092526793,-0.22725860357880592,0.4964320297580212
1772871562792043000,1.76104296875,-3.04508782711029,-2.1350410208821295,0.9258673295639455
1772871562801976000,1.77097607421875,-0.3131704618811607,-4.433732973307371,0.9146607297644018
1772871562811908900,1.780908935546875,3.237562702077627,-6.845916280356049,0.8164715006258338
1772871562821843000,1.790843017578125,6.604722674927115,-9.345894190713762,0.7839386927463113
1772871562831776000,1.80077587890625,9.302474151182174,-11.454580873155594,0.5561518640423193
1772871562841708800,1.810708740234375,11.37140808442831,-12.961062125182151,0.04932071494273841
1772871562851641900,1.820641845703125,12.586907325506209,-13.95397309257984,-0.43747707889899606
1772871562861576000,1.830575927734375,12.480912464118003,-13.844614892238377,-1.048913863518089
1772871562871508700,1.8405087890625,11.208010835385322,-12.196350841605662,-1.5864347864463924
1772871562881441800,1.85044189453125,8.380154138836264,-9.80206208768785,-1.379995537403971
1772871562891374800,1.860374755859375,5.86145282330811,-7.422725403708219,-0.7310301093794405
1772871562901309000,1.870308837890625,2.9473446612387892,-6.4344572936803095,-0.19866934569329023
1772871562911242000,1.880241943359375,1.3074223224937915,-6.08875818863809,0.2877151911724359
1772871562921175000,1.890175048828125,0.1343386200800538,-6.580616992196441,0.763187581140548
1772871562931108900,1.90010888671875,-0.06020604689866304,-7.032960946968197,0.8780885833662003
1772871562941042000,1.9100419921875,0.9928384866833686,-7.169447392731905,0.5085551598805934
1772871562950975000,1.91997509765625,2.5304730018645523,-7.6598308630406855,-0.4271058704776689
1772871562960908000,1.929907958984375,3.958278776583075,-8.365302022141218,-1.3453551627859472
1772871562970841900,1.939841796875,5.128587461325526,-8.618090788295865,-1.903853115030378
1772871562980775000,1.94977490234375,5.4252896034866565,-8.423754795631766,-1.9839182931311428
1772871562990708000,1.9597080078125,4.829021454165876,-8.079778276598454,-1.905725630903989
1772871563000640800,1.969640869140625,3.5648312474161385,-7.694620436871051,-1.2396522700816393
1772871563010574800,1.979574951171875,1.9323487032830715,-7.290789460855722,-0.1812416794218123
1772871563020508000,1.9895078125,0.5139876332581043,-7.051659217697382,0.6860786224968731
1772871563030441500,1.99944140625,0.23460575147122142,-6.141209091365337,0.49843730516582724
1772871563040374500,2.00937451171875,0.8651938112840056,-4.969221659755706,0.1806875526703894
1772871563050308400,2.019308349609375,0.7580415965542197,-3.7144115680307146,0.01640088050700724
1772871563060241400,2.029241455078125,0.22331804925948381,-1.4550205293804406,-0.5022854319613427
1772871563070174500,2.039174560546875,-0.4766679564282298,1.4199784420937298,-0.7860895141046493
1772871563080107500,2.049107421875,-0.7183323942393064,4.976653271061182,-1.3492052623428403
1772871563090041600,2.05904150390625,-2.3292089635029436,8.57662129831016,-1.5605338908620179
1772871563099974700,2.068974609375,-5.145367915734648,11.98111351521015,-1.169578251576051
1772871563109907700,2.07890771484375,-8.115105610567332,14.240297633111476,0.035222741083242
1772871563119841500,2.088841552734375,-10.352868170255421,14.761967053043842,1.5333172365039587
1772871563129774600,2.098774658203125,-10.171550649118423,14.037439311295747,2.3198835012748837
1772871563139707600,2.108707763671875,-7.973101862686872,12.474153052985667,2.1992682861208914
1772871563149640400,2.118640380859375,-5.98099924018681,10.200161826574801,2.715474764472246
1772871563159574500,2.128574462890625,-4.419801186327636,8.28130038137436,3.8245144492596386
1772871563169507600,2.138507568359375,-3.05018924190253,7.234068041202425,4.5964846179232
1772871563179440400,2.1484404296875,-2.032220113354921,7.2882415299385785,4.128755170232058
1772871563189373400,2.15837353515625,-1.7398945788428186,8.42346428825259,2.58133634313941
1772871563199307500,2.1683076171875,-3.1148984454393385,10.363402423751353,1.3746876402541994
1772871563209240300,2.178240234375,-5.583758748477697,12.113546301668881,0.8587520877987146
1772871563219173400,2.18817333984375,-8.300877773025631,13.036949433076382,0.5840045878142118
1772871563229106400,2.1981064453125,-9.99169326366186,12.799894242626427,0.8279295179031789
1772871563239040500,2.20804052734375,-10.093283168089389,11.374047785282134,1.114134815969318
1772871563248973600,2.2179736328125,-8.39655699210465,9.415320193639397,0.862268571487069
1772871563258906600,2.22790673828125,-5.793674003067612,7.300549807369708,0.33204613500386476
1772871563268839700,2.237839599609375,-3.363911492447555,5.281098574694991,0.22625454110279677
1772871563278773500,2.2477734375,-1.324976683884859,3.7951317029088734,0.08795490843728185
1772871563288706600,2.25770654296875,0.0777513482004404,2.72803730892539,-0.4034761712282896
1772871563298639600,2.2676396484375,0.7616165324315428,1.9961638805896043,-0.6880163125611841
1772871563308572400,2.277572509765625,0.47517917917519803,1.7034376563221216,-0.9524602990657091
1772871563318506500,2.287506591796875,-0.47138592437207694,1.5615917293518782,-1.421224350501597
1772871563328439600,2.297439453125,-1.3232032444715498,1.2692068658679723,-1.6510228478215634
1772871563338372400,2.307372314453125,-1.8112065416455267,0.38949908380210396,-1.731922869311273
1772871563348306700,2.317306640625,-1.463166426435113,-1.111508120727539,-1.7437965547174215
1772871563358239700,2.32723974609375,-0.03087532299607992,-2.9138468807846305,-1.3774112199991941
1772871563368172500,2.337172607421875,1.9796447074651717,-4.960568397700786,-0.8886986055120826
1772871563378105600,2.347105712890625,4.085141653954983,-7.147689734432101,-0.6349221434943377
1772871563388039700,2.357039794921875,6.1917462694257495,-9.114308371585606,-0.2748008376069367
1772871563397972500,2.366972412109375,7.684444495293498,-10.717709198141097,0.021626433135569095
1772871563407905500,2.376905517578125,8.735028483980894,-11.322602844727038,0.131015759267658
1772871563417838600,2.386838623046875,9.141067783695458,-11.211889722645282,-0.24269962607771156
1772871563427772400,2.3967724609375,9.198727945503592,-10.654774895322323,-0.43538653636053204
1772871563437705500,2.40670556640625,8.718640828281641,-9.80360814808607,-0.35037338046357036
1772871563447638500,2.416638427734375,7.742655861243605,-9.130624715614319,-0.23561185977384447
1772871563457571600,2.426571533203125,6.628078416073322,-8.794223015749454,-0.20352643033564088
1772871563467505400,2.43650537109375,5.622789613139629,-8.637517957821489,-0.1994233789309859
1772871563477438500,2.4464384765625,5.026176303642988,-8.535062376475334,-0.2551991882972419
1772871563487371500,2.45637158203125,4.60839337464273,-8.496161860194801,-0.3875131706818938
1772871563497304300,2.46630419921875,4.546600058552623,-8.390372165989875,-0.8386356208346784
1772871563507238700,2.47623876953125,4.509846198911965,-8.186571010366082,-1.4348562777519225
1772871563517171700,2.486171630859375,4.2284290119051935,-7.943696904504299,-1.9937889681518077
1772871563527104500,2.4961044921875,3.8916625703811643,-7.722434910991788,-2.602981773236394
1772871563537037600,2.50603759765625,3.675217914022505,-7.534174438849091,-3.241002028876543
1772871563546971600,2.5159716796875,2.9829847144186497,-7.362850488460063,-3.3073668906658886
1772871563556904400,2.525904541015625,1.7790508234500884,-7.090419448724389,-2.6263825225681066
1772871563566837500,2.53583740234375,0.7119561372056603,-6.685270960369706,-1.6849997900947928
1772871563576770600,2.5457705078125,0.011883914539217949,-6.53468233949542,-0.941233094869554
1772871563586704400,2.555704345703125,-0.406535851059854,-6.74179130449295,-0.03905643749460578
1772871563596637400,2.565637451171875,-0.6581178717732429,-7.2218445194453,0.8662691854305565
1772871563606570500,2.575570556640625,-0.5160656085759401,-7.5444573479324575,1.3085519110456107
1772871563616503600,2.585503662109375,0.49575727230161426,-6.74415978718996,0.5744027928628027
1772871563626437400,2.595437255859375,1.1611588713422416,-5.1186564344197505,0.08026172358617185
1772871563636370700,2.60537060546875,0.7398001296818256,-2.756622182896733,-0.3310037863440811
1772871563646303700,2.6153037109375,1.6273106944531202,1.4708306774526834,-1.9222974109984934
1772871563656236500,2.625236572265625,1.8612024524360895,5.269828992661833,-3.2046406756848094
1772871563666170600,2.635170654296875,0.8867994938924908,8.171509634834527,-3.824986742946505
1772871563676103700,2.645103759765625,-1.6214458940729497,10.272143359202145,-2.8297762664347887
1772871563686036500,2.655036376953125,-6.939265595182776,11.419383303046226,0.08111994785070419
1772871563695969500,2.664969482421875,-12.866205912923812,12.41816053212881,3.743302146950364
1772871563705903600,2.674903564453125,-13.647137678939103,14.067606486022472,4.799209084226191
1772871563715836400,2.68483642578125,-10.193213030350208,14.557487267506122,2.713053674805164
1772871563725769500,2.69476953125,-6.232609610211849,13.627565547984839,0.49557205192781983
1772871563735703600,2.70470361328125,-2.9945021337330338,12.213947288572788,-0.28152459290400145
1772871563745636400,2.71463623046875,-1.008731636863947,10.37750810599327,0.4979455030608922
1772871563755569400,2.7245693359375,-0.5709238647058605,9.067895579978822,2.196132326182723
1772871563765502500,2.73450244140625,-1.2810682763144372,8.913912055969238,4.012221379172802
1772871563775436500,2.7444365234375,-3.1261200966775418,9.564017886200547,5.240289009922742
1772871563785369600,2.75436962890625,-5.4269665967881675,10.506266587853432,5.558950470435619
1772871563795302700,2.764302734375,-6.401359910720586,11.689676746231317,4.1256344078630205
1772871563805235700,2.774235595703125,-6.119241589707136,12.591380087006092,1.4534952195093034
1772871563815169500,2.78416943359375,-5.755841992801428,12.713161715590953,-0.8975491437047719
1772871563825102600,2.7941025390625,-5.202213838550448,12.097024205935,-2.094385916019231
1772871563835035600,2.80403564453125,-4.493320303785801,10.822343292570114,-1.9518428005650639
1772871563844968400,2.813968505859375,-4.188305383570492,8.961806026044487,-0.9782422444455325
1772871563854902500,2.823902587890625,-3.958637673023343,6.946388578930497,0.12696107704937457
1772871563864835600,2.833835693359375,-3.406430199225247,5.105462021803856,1.0373540663667022
1772871563874768400,2.843768310546875,-2.6002666690587994,3.653563423836231,1.5570866730175912
1772871563884701400,2.853701416015625,-1.6652683769255876,2.576511699461937,1.3686375464349985
1772871563894635500,2.863635498046875,-0.763121384036541,1.3626584720253943,0.567609041069448
1772871563904568300,2.873568359375,0.09765022689104079,0.04209025223255157,-0.36433921584337947
1772871563914501400,2.88350146484375,1.0992898596674203,-1.5409990231782198,-1.0655002566598355
1772871563924434400,2.893434326171875,2.0181696684315797,-3.6228818698465823,-1.617062126030773
1772871563934368500,2.903368408203125,2.968960865241289,-6.006306115400791,-1.8907108709931373
1772871563944301600,2.913301513671875,4.11321507127285,-8.38385533144176,-1.7542958830304443
1772871563954234600,2.923234619140625,5.520028326845169,-10.541509750670194,-1.6146468815825878
1772871563964167700,2.933167724609375,7.210234745672345,-11.989361119073628,-1.8808163767054675
1772871563974101500,2.9431015625,8.607395791280268,-12.894681481301784,-2.394444675131887
1772871563984034600,2.95303466796875,9.416631276237965,-13.115815464520454,-3.16806714104712
1772871563993967600,2.962967529296875,9.563852466505764,-12.568097411096096,-3.6801995018273588
1772871564003900400,2.972900390625,8.733442676094175,-11.414013884967565,-3.6404905917733905
1772871564013834500,2.98283447265625,7.03564214887619,-9.780536484578251,-2.985964022490382
1772871564023767600,2.992767578125,5.0055456035465,-8.277441367858648,-1.9919031544052064
1772871564033700400,3.002700439453125,3.0741829886913297,-7.201935119360685,-1.0425340993531047
1772871564043633200,3.012633056640625,1.6531740345060824,-6.568674625468254,-0.36590514998584983
1772871564053567200,3.022567138671875,1.160333818694949,-6.409793977066874,0.05166399013325572
1772871564063500300,3.032500244140625,1.4324638296574352,-6.6667451235979795,0.16783333179429172
1772871564073433000,3.04243310546875,2.194693817812204,-7.04004301418364,0.011625555863976478
1772871564083366100,3.0523662109375,3.2019583047330378,-7.600097986611724,-0.3036763650879264
1772871564093300200,3.06230029296875,4.195020371039211,-8.145224854499101,-0.6371624697670341
1772871564103233000,3.07223291015625,4.784777531030774,-8.527772803989052,-0.963505863084644
1772871564113166000,3.082166015625,4.856498366895318,-8.770897085219621,-1.1908287640713155
1772871564123099100,3.09209912109375,4.539404301829636,-8.755375106438994,-1.3074471646741033
1772871564133033200,3.102033203125,3.7731735536009072,-8.55034353223741,-1.1392058366008102
1772871564142966300,3.11196630859375,2.7714439044535157,-8.238150975477694,-0.8773962902531027
1772871564152899300,3.1218994140625,2.2930109841793773,-8.078457841649652,-0.6614676205925643
1772871564162832400,3.131832275390625,2.257278284280002,-8.306934004324674,-0.6555538665041327
1772871564172766200,3.14176611328125,2.5772604720026253,-8.331575693628192,-0.9784117557935416
1772871564182699300,3.15169921875,3.546575459757447,-7.587761652129888,-2.0754542749255895
1772871564192632300,3.16163232421875,4.933161335337162,-6.025646191164851,-3.1286712424650784
1772871564202565000,3.171565185546875,5.468232673156261,-4.441047680234909,-3.032543987357616
1772871564212499200,3.181499267578125,4.755886367589235,-2.269182364824414,-2.049686942593008
1772871564222432300,3.191432373046875,2.7292987071633337,0.6247171219527721,-0.23013123640567063
1772871564232365000,3.201364990234375,-0.4107943852871656,4.3664697013735765,1.3145214869745074
1772871564242298000,3.211298095703125,-3.495901503574848,9.00221636236608,2.0247744735240936
1772871564252232200,3.221232177734375,-7.669167431184649,14.506132343322038,2.9144886858195065
1772871564262165000,3.2311650390625,-11.00271622633338,19.19133481687903,3.2147941131696105
1772871564272098000,3.24109814453125,-13.504026846599578,20.9069778747797,3.5444261727690693
1772871564282031000,3.251031005859375,-13.867149380129575,20.487192958307265,4.238979047492146
1772871564291965200,3.260965087890625,-10.180332505989075,18.928548972845075,2.669002351632714
1772871564301898200,3.270898193359375,-6.714651953154802,16.553555871027708,0.9431037841122597
1772871564311831300,3.280831298828125,-5.969655423873663,14.186231696403025,2.2214856708869335
1772871564321764400,3.290764404296875,-6.88521076439023,12.038172203993797,5.76454552373886
1772871564331698200,3.3006982421875,-6.444596410378813,10.685221471512317,7.467358326160907
1772871564341631200,3.31063134765625,-5.321802341005206,9.976184728884697,5.699843626725674
1772871564351564300,3.320564208984375,-4.3475376218885184,10.259422993838786,3.462726671464741
1772871564361497000,3.3304970703125,-4.491957783260942,10.777187807548046,2.3927779109634457
1772871564371431200,3.34043115234375,-5.573054983633757,11.135715999025106,2.0516237558744845
1772871564381364200,3.3503642578125,-6.4206812817841765,11.417847179520129,1.6195156566627322
1772871564391297000,3.360297119140625,-6.846635826802253,11.129397317397594,1.01746351711303
1772871564401230000,3.37022998046875,-6.472043220230937,10.189172815048694,0.2198487657137215
1772871564411164200,3.3801640625,-5.98329407312572,8.937087764373421,-0.5688305456884205
1772871564421097200,3.39009716796875,-5.060533331274986,7.378897367897629,-1.3752568184442817
1772871564431030300,3.4000302734375,-3.713027712456882,5.522751614329218,-2.1534202887900173
1772871564440963300,3.40996337890625,-2.221550552816689,3.301184987160563,-2.5956609288290142
1772871564450897200,3.419897216796875,-0.9563678278982639,1.0367167913764714,-3.029457711780071
1772871564460830200,3.429830322265625,0.11566051535606384,-1.2740759332090617,-3.214545399105549
1772871564470763300,3.43976318359375,0.9970397377654909,-3.551646187150478,-2.9974475395351647
1772871564480696300,3.4496962890625,1.6141460924535989,-5.843208141565323,-2.4759102215498685
1772871564490630100,3.459630126953125,2.3130092315912245,-8.083064458662271,-1.5011872372716664
1772871564500563200,3.469563232421875,3.539406298780441,-9.824251123142242,-0.9009335254460573
1772871564510496300,3.479496337890625,5.369592266184092,-11.031111130690574,-0.8333962588764726
1772871564520429000,3.489428955078125,7.379391288894414,-11.63526827969551,-1.2743394064508378
1772871564530363100,3.499363037109375,9.211789087128638,-11.867190198910235,-1.7334421878330408
1772871564540296200,3.509296142578125,10.384396111941337,-12.202177355802059,-1.8027809508666395
1772871564550229000,3.51922900390625,10.623673654615878,-12.03050093871355,-2.314638001836836
1772871564560162000,3.529162109375,10.270933398890495,-11.13260984970331,-2.765389426720142
1772871564570096000,3.53909619140625,9.193201875558495,-9.878882877039908,-2.8815023620188236
1772871564580029200,3.549029296875,7.553582903674244,-8.725622942253947,-2.780436773726344
1772871564589962200,3.558962158203125,5.7866047953337425,-7.320584295138716,-2.501397714027762
1772871564599895300,3.568895263671875,3.9868057828873393,-6.107243693399429,-2.3747727370649576
1772871564609829000,3.5788291015625,2.372897006320953,-5.6833414047360415,-1.9017942828044294
1772871564619762200,3.58876220703125,1.3299649936914444,-6.0436342677980655,-1.0262534111596644
1772871564629695200,3.5986953125,0.8874807541549206,-6.794650788021087,-0.09931114584058523
1772871564639628300,3.608628173828125,1.0071773931592702,-7.692599744698405,0.35855829435437914
1772871564649562000,3.61856201171875,1.7273346647381782,-8.557602125063537,0.324317002056539
1772871564659495200,3.6284951171875,2.7693840493142603,-9.149394882535933,-0.1751147209741175
1772871564669428200,3.63842822265625,3.5400489805981517,-9.441978483462334,-0.7407941091552376
1772871564679361000,3.648361083984375,3.863113352245092,-9.34231808579266,-1.2727370858207345
1772871564689294000,3.658294189453125,4.029582263818383,-8.792350207614898,-1.7865113685891032
1772871564699228200,3.668228271484375,3.8910415158733724,-8.162901965487002,-2.1689222476959227
1772871564709161200,3.6781611328125,3.5142762414380906,-7.872299893766641,-2.111962050850689
1772871564719094300,3.68809423828125,3.1197441319048402,-8.044016058343649,-1.543604967892915
1772871564729027300,3.69802734375,2.4144807703360915,-8.43471165845394,-0.5736977133333683
1772871564738961200,3.707961181640625,1.9639064555853605,-8.320190960782766,-0.18053060854300856
1772871564748894200,3.717894287109375,2.264206329977512,-6.825812819004058,-1.1525099932014942
1772871564758827300,3.7278271484375,2.517215753145516,-4.575200130093098,-1.7315024519421158
1772871564768760300,3.73776025390625,1.6153051993608474,-2.2466449543237683,-1.2462712498299777
1772871564778694100,3.747694091796875,0.5141887087881565,1.256139294502139,-0.8968021247297525
1772871564788627200,3.757627197265625,-0.9214216022014617,4.674497539669275,-0.32147958667352794
1772871564798560300,3.767560302734375,-1.7164894455969333,8.030358119869232,-0.4556694459326565
1772871564808493000,3.7774931640625,-3.8702784215688704,11.69002512127757,0.45674313957877455
1772871564818427100,3.78742724609375,-7.341655140218139,15.121831461560726,1.5915151584506033
1772871564828360200,3.797360107421875,-11.330928774523734,17.377220863354204,2.713971374171972
1772871564838293000,3.80729296875,-15.020994421327114,18.373318644094468,4.4503807412475345
1772871564848226000,3.81722607421875,-13.135301086235046,18.09470044015646,4.499638400891423
1772871564858160400,3.827160400390625,-8.22525291545987,16.621227139240503,1.9436746916785834
1772871564868093200,3.83709326171875,-5.608711403426527,14.742269834405183,1.0434745950736104
1772871564878026200,3.847026123046875,-4.542317851188779,12.988438792407512,2.8656343462795015
1772871564887959300,3.856959228515625,-5.633086550748348,10.994441734462976,6.009238661721349
1772871564897893000,3.86689306640625,-6.321691915243863,10.056404513025283,6.828651841822266
1772871564907826200,3.876826171875,-6.433473543339967,10.300290426278114,5.015428115135431
1772871564917759200,3.88675927734375,-6.648751786267757,11.714522433674334,2.968390371876955
1772871564927692300,3.8966923828125,-7.022102283823489,13.146686403602361,0.9554451600953936
1772871564937626000,3.906626220703125,-7.131402031975984,13.275572311234473,-0.6778318954162299
1772871564947559200,3.91655908203125,-5.6790930996418,12.481286558127403,-1.2910967722453177
1772871564957492200,3.9264921875,-4.260895695745945,10.574186862391233,-1.3954491271235048
1772871564967425000,3.936425048828125,-3.7643893586426973,8.040242969545721,-1.4706744639776645
1772871564977358000,3.946358154296875,-3.1972850522249936,5.7195016823977225,-1.3030704108946025
1772871564987291100,3.956291015625,-2.8762162383094427,3.7614813622415064,-0.9534519404515623
1772871564997224200,3.96622412109375,-2.8351421773821115,1.9469675957441328,-0.6303510361865162
1772871565007158300,3.976158203125,-2.5347566705331204,0.2858499087572098,-0.7355467100210488
1772871565017091300,3.98609130859375,-1.644388670504093,-1.1780687973499298,-1.300479663749039
1772871565027024400,3.9960244140625,-0.6624310587972402,-2.554843473011255,-1.6985506149329244
1772871565036956400,4.005956298828125,0.492913573308289,-3.8148832820832728,-2.1013234601974484
1772871565046890500,4.015890380859375,2.0049904533848166,-5.01334137198925,-2.622500420437753
1772871565056823600,4.025823486328125,3.6092426360726355,-6.268367152291536,-2.9756425349622964
1772871565066756600,4.035756591796875,5.126989963001012,-7.35276748586297,-2.9151269837230442
1772871565076689400,4.045689453125,6.44219636349976,-8.513674136009811,-2.4113451026588675
1772871565086623500,4.05562353515625,7.490284443718195,-9.66951473493874,-1.7395739685863256
1772871565096556500,4.065556640625,8.275239473900198,-10.655808330023287,-0.9532274840459227
1772871565106489300,4.0754892578125,8.695435893782973,-11.34436342563629,-0.3146991327531636
1772871565116422400,4.08542236328125,8.720918125563859,-11.36144783142805,-0.047530689720809455
1772871565126356500,4.0953564453125,8.27144943396747,-10.540517232501506,-0.12730901370421052
1772871565136289300,4.105289306640625,7.223240357717871,-9.509559150782227,-0.2280626134380698
1772871565146222300,4.115222412109375,6.049505205658078,-8.790560986110567,-0.3586059328883886
1772871565156155400,4.1251552734375,5.07815082103014,-8.108439138415456,-0.4809009178228676
1772871565166089500,4.13508935546875,4.369593386352062,-7.316660399693251,-0.7064495026133955
1772871565176022500,4.1450224609375,3.91927246184051,-6.778703861826658,-0.9826384335778653
1772871565185955600,4.15495556640625,3.878364112868905,-6.521717059460282,-1.1792314113885163
1772871565195888600,4.164888671875,4.052067067348957,-6.695591278854012,-1.172415301632881
1772871565205821400,4.174821533203125,4.252622080658376,-7.182333762311935,-1.0564655940718948
1772871565215755500,4.184755615234375,4.442866127833724,-7.8202569873183965,-1.0420851865418255
1772871565225688600,4.1946884765625,4.425767693516612,-8.34815799511671,-1.0812388008005915
1772871565235621400,4.204621337890625,4.1335424045085905,-8.586227331045269,-0.9280357596442103
1772871565245554400,4.214554443359375,3.6305817766994237,-8.554888774451612,-0.8262741519115865
1772871565255488500,4.224488525390625,2.9940070436924695,-8.300724628290533,-0.8217552131824195
1772871565265421300,4.23442138671875,2.3745140861287712,-7.999521667578816,-1.028819608385861
1772871565275354400,4.244354248046875,2.125177506254613,-7.5744421518296,-1.3616530943751335
1772871565285287400,4.254287353515625,2.340925997042656,-7.2105971492439505,-1.8685491619370878
1772871565295221200,4.26422119140625,2.7509417991727587,-7.157850478440523,-2.570871355487406
1772871565305154300,4.274154296875,3.075810589893162,-7.084070371958613,-3.227717599889636
1772871565315087400,4.28408740234375,3.297072583405673,-6.7344456179052585,-3.3862375982850788
1772871565325020400,4.2940205078125,3.3985242484062907,-5.965691780939697,-2.9561788328185674
1772871565334954500,4.30395458984375,3.6544089347496627,-4.331490742450952,-2.513509592103958
1772871565344887600,4.313887451171875,3.7079409107118844,-2.021373725169897,-1.8917042659446597
1772871565354821400,4.3238212890625,3.060946782760322,0.72656889218688,-0.9396975558653473
1772871565364754400,4.33375439453125,0.47593379693478344,3.3184488411724566,1.176251518794894
1772871565374687500,4.3436875,-5.079820215547085,6.360346347808838,3.7283307877898215
1772871565384620500,4.35362060546875,-7.319618080455064,10.92201596519947,2.8048189353108404
1772871565394554400,4.363554443359375,-8.127436684352158,14.132804057598113,1.1988565146390349
1772871565404487400,4.3734873046875,-8.995179303336142,15.89533629244566,0.22029351380653678
1772871565414420500,4.38342041015625,-9.305901203021406,16.24955772663951,1.114633851532638
1772871565424353300,4.393353271484375,-9.084412415015697,15.61649597018957,2.6259908929020166
1772871565434287400,4.403287353515625,-8.001311473605035,14.83649593206644,4.294721100719273
1772871565444220400,4.413220458984375,-6.852392198371887,13.892966542953252,5.114354353311658
1772871565454153200,4.4231533203125,-7.480005041766166,12.705766344642639,7.051237192893028
1772871565464086500,4.43308642578125,-8.268594044536352,12.123459792917966,9.188982212036848
1772871565474020600,4.4430205078125,-6.371786025711893,12.285476401257514,7.663372481170296
1772871565483953400,4.452953369140625,-4.421622264274955,12.441097171080111,4.282779610773921
1772871565493886500,4.462886474609375,-3.7076398819386958,12.685242612051963,2.1968035034425557
1772871565503819500,4.472819580078125,-4.3649154576689,12.344929291701316,1.4459319446481764
1772871565513753300,4.48275341796875,-5.608631908449531,11.832053419077395,1.6709272794701158
1772871565523686400,4.492686279296875,-6.809966430574655,11.422353843289613,1.9506459919959305
1772871565533619500,4.502619384765625,-7.6286536344885825,10.939836868572234,1.944621324878931
1772871565543552500,4.512552490234375,-7.537833545878529,10.037622655665874,1.5687370710618793
1772871565553486300,4.522486328125,-6.858567087614536,8.584905142530799,0.9275875774852931
1772871565563419400,4.53241943359375,-5.7653398889869445,6.654100746080279,-0.055202831783890724
1772871565573352400,4.5423525390625,-4.298524292394519,4.684472405716776,-1.2025702013999222
1772871565583285200,4.55228515625,-2.4476073793902993,2.932942041876912,-2.4309515742741525
1772871565593218300,4.56221826171875,-0.5781885950118303,1.3111977493792772,-3.4752702189564704
1772871565603152600,4.572152587890625,0.9028004883617162,-0.38142099128663537,-4.102454607805609
1772871565613085400,4.58208544921875,1.8879650794163345,-2.2987755390554665,-4.265234893994033
1772871565623018500,4.5920185546875,2.5561387735188004,-4.492602510905265,-3.658144321885705
1772871565632951600,4.60195166015625,3.2513162098810073,-7.114789335349202,-2.055559780149162
1772871565642885400,4.611885498046875,3.9748949803411957,-9.318636765953897,-0.2999202274248004
1772871565652818400,4.621818359375,4.735802195459604,-10.487776991438865,0.95839392689839
1772871565662751500,4.63175146484375,5.259318704563379,-10.828626902884244,1.474420664768666
1772871565672684500,4.6416845703125,6.625674277541041,-10.690621284729241,1.1749113562323152
1772871565682618400,4.651618408203125,7.981437144833802,-11.359030248892307,0.684150284782797
1772871565692551400,4.661551513671875,8.935201512235402,-11.427160951310395,-0.2038593155518174
1772871565702484500,4.671484375,9.321939899152516,-10.15628059927225,-1.0779717618286608
1772871565712417300,4.681417236328125,9.153670075637102,-8.476851595047115,-1.8796965788953006
1772871565722351400,4.691351318359375,7.991910608053207,-7.681570985683798,-2.855035210853815
1772871565732284400,4.701284423828125,6.43725598448813,-6.70104077643156,-3.3857080214530226
1772871565742217200,4.71121728515625,5.015477799496054,-5.773675171133876,-3.589088321316242
1772871565752150300,4.721150390625,3.7664626577854152,-5.682033829268812,-3.218983089292049
1772871565762083600,4.73108349609375,2.867379728642106,-6.414571858993172,-2.073523014602065
1772871565772017400,4.741017333984375,2.135360754355788,-7.788173749837279,-0.5830635075718165
1772871565781950500,4.750950439453125,1.8387527202188967,-8.977716127359866,0.3438198671668768
1772871565791883500,4.760883544921875,2.211343339318037,-9.450327209612727,0.4226823914796114
1772871565801816600,4.770816650390625,2.8824007721632716,-9.589410101610422,-0.2619958627000451
1772871565811750400,4.78075048828125,3.783860659570992,-9.31738238197863,-1.4070317206285894
1772871565821683500,4.790683349609375,4.660871749898791,-8.64661428746879,-2.403129062977433
1772871565831616500,4.800616455078125,5.079062675178051,-7.860464494544267,-2.9965280866026878
1772871565841549300,4.81054931640625,5.005500010839104,-7.3839102276235815,-3.1437837636619803
1772871565851483400,4.8204833984375,4.717518643011153,-7.096960833191871,-2.943442100842297
1772871565861416400,4.83041650390625,4.366058197963238,-6.858059138092398,-2.406106763613969
1772871565871349200,4.840349365234375,4.1092110963284965,-6.9046133839964865,-1.5575373393945395
1772871565881282300,4.8502822265625,3.7642601793050763,-7.177451250967383,-0.6300305720604956
1772871565891216600,4.860216552734375,3.5951708561003204,-7.201811200720071,-0.03713423726037145
1772871565901149400,4.8701494140625,3.706144090422988,-6.115128893691301,-0.283827755279839
1772871565911082500,4.88008251953125,4.252480918622017,-4.272002196171879,-0.8241232574880123
1772871565921015600,4.890015625,4.224036914426088,-2.38786076669693,-1.0160961742825805
1772871565930948600,4.899948486328125,3.355291255879402,-0.4283849870353937,-0.8158266999162733
1772871565940882400,4.90988232421875,1.3235118720293044,1.664679763382673,0.4924957862876355
1772871565950815500,4.9198154296875,-1.29724228926301,4.555000807151198,1.325860480982065
1772871565960748500,4.92974853515625,-3.0105303084701296,8.326439499783515,1.3285064654462038
1772871565970681300,4.939681396484375,-5.668756414544582,11.616756471449136,0.8958474543534218
1772871565980615400,4.949615478515625,-8.62658330683112,14.009787918782234,-0.03223623608574271
1772871565990548500,4.959548583984375,-11.553607064574956,15.251228241324425,0.8361442424103617
1772871566000481300,4.969481201171875,-12.02496200928688,15.746921508479117,2.1959151763007045
1772871566010414300,4.979414306640625,-9.51716319604516,15.520407585787773,2.3808239999279377
1772871566020348400,4.989348388671875,-7.594591790410876,14.352254617774486,2.50850725377202
1772871566030281200,4.99928125,-6.583437310314178,13.271721481025217,3.7520758205145595
1772871566040214800,5.00921484375,-5.510781775072217,12.914972574180364,5.136982949227094
1772871566050147800,5.01914794921875,-5.649917274039983,12.604936318671703,6.401583198082447
1772871566060081700,5.02908154296875,-6.5135191399574275,12.447995698422194,6.452439525094628
1772871566070014700,5.0390146484375,-6.0233268083065745,12.717732676768302,4.633249291218817
1772871566079947800,5.04894775390625,-5.938274197182059,12.661457247316836,2.759330857333541
1772871566089880800,5.058880859375,-5.945443358159065,12.451446715658902,1.625077674704045
1772871566099814700,5.068814697265625,-6.039745443665981,11.381840631115436,1.1088996917948126
1772871566109747700,5.078747802734375,-5.802230819010735,9.649706457141042,1.2452068354688584
1772871566119680800,5.0886806640625,-4.517353505802154,7.842386401540041,1.2388093895167112
1772871566129613600,5.098613525390625,-2.943369327867031,6.0219578580409285,0.9570980418689549
1772871566139546600,5.108546630859375,-1.37620652038455,3.99929993827939,0.6935181248478591
1772871566149480700,5.118480712890625,0.1599427246749401,2.083869636571407,0.6599070932775736
1772871566159413500,5.12841357421875,1.0389017342001199,0.48555531949996944,0.6632125645637512
1772871566169346600,5.1383466796875,1.1513178608074783,-0.8137976783066988,0.5406903467446565
1772871566179279600,5.148279541015625,0.9212725491195917,-1.5858552329927682,0.11591741272658108
1772871566189213700,5.158213623046875,0.8544909232228994,-1.9181214404881,-0.6395080099798739
1772871566199146800,5.168146728515625,0.9781199332401156,-2.2228192575782537,-1.7365188187994063
1772871566209079800,5.178079833984375,0.9918421691223979,-2.548341836032271,-2.737569984163344
1772871566219012900,5.188012939453125,1.0279621147736906,-3.345621510258317,-3.184930597564578
1772871566228946700,5.19794677734375,1.2426812625139951,-4.831743864867091,-2.85862534430027
1772871566238879700,5.207879638671875,2.0144699371308086,-6.610649142366647,-2.24542491100952
1772871566248812800,5.217812744140625,3.4105402648925778,-8.350789512664079,-2.1448634728468954
1772871566258745600,5.22774560546875,5.244345591837168,-9.615167643201351,-2.718347689560056
1772871566268678700,5.2376787109375,7.033920147389173,-10.28010104020834,-3.2444545074179767
1772871566278612700,5.24761279296875,8.263210597932337,-10.626374145746231,-3.0503900251716374
1772871566288545500,5.257545654296875,8.482129827710986,-10.890394500011205,-2.1798253345042466
1772871566298478600,5.267478515625,7.8273308712273835,-11.000956815445422,-0.9832419524289667
1772871566308411600,5.27741162109375,6.622293987452983,-10.600517235434054,-0.12593494887202977
1772871566318345700,5.287345703125,5.599919609683751,-9.68318553289473,0.16561507122293115
1772871566328278800,5.29727880859375,5.050255098366737,-8.790075248420237,0.030470833848416805
1772871566338211800,5.3072119140625,4.667677338260412,-8.279141157513857,-0.21167700356543062
1772871566348145000,5.317144775390625,4.426696498799323,-8.250275128513573,-0.5280997452408075
1772871566358077700,5.32707763671875,4.202169366011023,-8.34062526152432,-0.8996602906398474
1772871566368011800,5.33701171875,4.236110798579454,-8.199361518356204,-1.5091165689662098
1772871566377944800,5.34694482421875,4.406365658432245,-8.029158096429706,-2.14292432147786
1772871566387877600,5.356877685546875,4.365721513354778,-7.956483320841193,-2.468264675232768
1772871566397810700,5.366810791015625,4.240412879687548,-7.995894709253311,-2.355116142697632
1772871566407744800,5.376744873046875,3.7728842152655124,-8.210067036765814,-1.7087022988520562
1772871566417677600,5.386677490234375,2.840520947811007,-8.357118131163716,-1.0820796355389057
1772871566427610600,5.396610595703125,2.5309704299926756,-8.08293586384654,-1.0339993491113186
1772871566437543700,5.406543701171875,2.6820067946344612,-7.490742708879709,-1.0868152857586741
1772871566447477500,5.4164775390625,2.980893295097351,-6.662631843060255,-1.098330074724555
1772871566457410600,5.42641064453125,2.974518499368429,-5.478791476571559,-0.8722181569628417
1772871566467343600,5.436343505859375,2.754160761219263,-3.7395863412976262,-0.4290158322848379
1772871566477276700,5.446276611328125,2.933682631111145,-1.6253578068196772,0.66631535288468
1772871566487210800,5.456210693359375,2.8835744921177624,0.6650748513042927,2.2580350939966736
1772871566497143800,5.466143798828125,0.6348942325741053,2.9960633917003867,4.5816880308076735
1772871566507076900,5.476076904296875,-3.129854607030749,6.901485607364774,6.315993995863199
1772871566517009700,5.486009765625,-6.617272944420575,12.872764248526096,5.658396933093667
1772871566526942700,5.495942626953125,-10.207019437384604,18.92584146745205,3.913856574271619
1772871566536876800,5.505876708984375,-12.357957115578651,22.06745957751274,1.6554652141831814
1772871566546809600,5.5158095703125,-12.792415869569778,21.459561488413808,-0.21732436180263756
1772871566556742700,5.52574267578125,-11.645661078894138,18.516639904314278,-1.0009922747835516
1772871566566675700,5.53567578125,-10.651894371449947,13.95679282617569,-0.2146041430585086
1772871566576609500,5.545609619140625,-9.904120194149018,9.106901310199499,2.06864576395452
1772871566586542600,5.55554248046875,-8.926647618901729,5.343769842663407,4.257852090266347
1772871566596475600,5.5654755859375,-8.054080356240272,2.6862527616411445,4.907505500555038
1772871566606408700,5.57540869140625,-6.850926801994443,1.8060563192754984,3.81854355815649
1772871566616342800,5.5853427734375,-5.306964837357402,2.628164729809761,1.3178159984752535
1772871566626275800,5.59527587890625,-3.6693010911941526,4.375281953382491,-1.6111863658651708
1772871566636209000,5.605208984375,-2.770770535236597,5.620546802648902,-3.437710888151824
1772871566646141700,5.6151416015625,-2.7240900326043365,5.691393778288364,-3.4314807615906
1772871566656074800,5.62507470703125,-2.946082678478956,5.409999095374346,-2.169009049196541
1772871566666008800,5.6350087890625,-3.525480649280548,5.0401013686209915,0.2585084589757025
1772871566675941600,5.644941650390625,-4.343417327088117,4.457492619079352,3.255136352691054
1772871566685874700,5.654874755859375,-4.368241387221217,4.048092903020978,5.646083394965529
1772871566695807700,5.664807861328125,-3.7528152407050133,3.8818554621160026,6.570312455803156
1772871566705741600,5.674741455078125,-2.4786779326975346,4.445872323912382,6.06408493515253
1772871566715674600,5.684674560546875,-0.9402052131265402,5.764980408024788,4.0461598891317845
1772871566725607700,5.694607666015625,0.18925123674571512,6.941874900898337,1.124738773700595
1772871566735540700,5.704540771484375,1.1462556089818476,7.218014147502183,-1.491722951094806
1772871566745474600,5.714474609375,1.661722082620859,6.4277271086424586,-3.5562338072016835
1772871566755407600,5.72440771484375,2.251371398323774,4.2453006517291065,-5.014145674109459
1772871566765340700,5.734340576171875,2.9631343510448933,1.5158996532350777,-5.741275122788548
1772871566775273500,5.7442734375,3.681954821062088,-1.192977028146386,-5.587311472523212
1772871566785206500,5.75420654296875,4.2391181637018915,-3.9341140571415423,-5.002974291753769
1772871566795140900,5.764140869140625,4.600350353440642,-6.5767153085827825,-3.30549934322834
1772871566805073700,5.77407373046875,4.775490647247433,-9.194185625898838,-0.771117497356981
1772871566815006700,5.7840068359375,4.918212772530317,-11.467943043553829,1.8929284009121357
1772871566824939800,5.793939697265625,4.839240358102321,-12.72458093522787,3.7847394882321357
1772871566834873600,5.80387353515625,4.84504232237935,-12.624627692091464,4.085791934557259
1772871566844806700,5.813806640625,5.281172808974981,-11.6011953297019,3.0962019282758235
1772871566854739700,5.82373974609375,5.9240773295253515,-10.509051250135897,1.433964735739678
1772871566864672800,5.8336728515625,6.73416329383254,-9.719223060959576,-0.3364949311062693
1772871566874606600,5.843606689453125,7.192821254056692,-9.122126936382054,-1.7694383609741926
1772871566884539600,5.85353955078125,7.250281509378552,-8.772514457288384,-2.6679163099616763
1772871566894472700,5.86347265625,6.841686679962277,-8.715262291759252,-2.9633985549390314
1772871566904405500,5.873405517578125,5.831376833996177,-8.675960208940506,-2.7389333814710377
1772871566914338600,5.883338623046875,4.127544040876627,-8.631375217282772,-2.0341589724630116
1772871566924273000,5.89327294921875,2.2439251739710566,-8.396085282939673,-0.9639074296228587
1772871566934205700,5.903205810546875,0.8582955762028693,-7.975811706167459,-0.33185850347727536
1772871566944138800,5.913138671875,0.21215923412442206,-7.285661450317502,-0.5586974203392863
1772871566954071800,5.92307177734375,0.2829898431509733,-6.5202008096784345,-1.315186380624026
1772871566964005600,5.933005615234375,1.1614596078544854,-6.270404795598983,-2.331038809278607
1772871566973938700,5.942938720703125,2.616704009118676,-6.345370312473178,-3.197382375119626
1772871566983871700,5.952871826171875,3.967611837595701,-6.967748177823424,-3.2817525569379327
1772871566993804800,5.9628046875,4.570411726772785,-7.886200993347168,-2.1628113636001944
1772871567003737600,5.972737548828125,4.280270258301496,-8.794260425150394,-0.5539239223271608
1772871567013671700,5.982671630859375,3.4506419736564156,-8.655528246286512,0.5369330400377512
1772871567023604700,5.992604736328125,2.644097042956948,-6.527513178518414,0.4344116999790072
1772871567033538000,6.0025380859375,2.1252479411423204,-3.371682418709993,-0.44599648544117804
1772871567043471000,6.01247119140625,1.3673919302880764,-0.31022388703525067,-0.9075915220305323
1772871567053405000,6.022405029296875,0.5040250421702861,3.005076719239354,-1.1691298502214251
1772871567063338000,6.032337890625,-0.4688561136335134,6.091770229935646,-1.5915855933383107
1772871567073271000,6.04227099609375,-1.379481596532464,8.328461360999942,-2.3935496259883045
1772871567083204000,6.0522041015625,-2.487335870927572,10.359740978634356,-2.5800071403622624
1772871567093137200,6.06213720703125,-4.611289096084237,11.850977899777888,-1.7355713088162243
1772871567103071000,6.072071044921875,-7.4683128504067655,12.356568291568756,0.7248579966157674
1772871567113004000,6.082004150390625,-11.519839235007762,11.998095045149325,5.4809343338191505
1772871567122937000,6.09193701171875,-14.254566981482505,11.213893463683128,8.935788372212647
1772871567132870000,6.101869873046875,-13.922240568232535,10.322738404929638,8.627873346641659
1772871567142804200,6.11180419921875,-11.56814412397146,9.93938439975381,6.271265796342492
1772871567152737000,6.121737060546875,-8.316286939081548,9.641125091278553,3.8545059751585122
1772871567162670000,6.131670166015625,-6.043941726312041,8.780757384976743,2.22661163559854
1772871567172603100,6.14160302734375,-4.472539966085553,8.502435533636808,0.7284834936365485
1772871567182537000,6.151536865234375,-3.9186189663678404,8.59353560823202,-0.3484498650550842
1772871567192470000,6.161469970703125,-4.623332585099339,8.940161764991283,-0.7538401993416249
1772871567202403000,6.171403076171875,-6.090866559094191,9.52852104088366,-0.15191197843253612
1772871567212336000,6.181336181640625,-7.781167085945606,9.48896410652101,1.292880002400279
1772871567222269200,6.191269287109375,-8.239494206780195,8.426285775414108,2.660069103592634
1772871567232203000,6.201203125,-7.33096423485577,6.985988183391094,3.118707774594426
1772871567242136000,6.211135986328125,-6.006807050660252,6.235140589994192,2.189886417530477
1772871567252069000,6.221069091796875,-4.464547798287868,5.760544471403956,0.5778755835399031
1772871567262002000,6.231001953125,-3.111163350564241,5.0024651731878516,-0.3783075354412198
1772871567271936000,6.24093603515625,-2.35876677415967,4.015390656858682,-0.5340748741276562
1772871567281869000,6.250869140625,-2.1069477298200128,3.128931646966934,-0.4697989474415779
1772871567291801900,6.2608017578125,-2.0873726762562987,2.310804415023327,-0.49794937551841134
1772871567301735000,6.27073486328125,-2.1026140845298764,1.3112287290394304,-0.6369342139691114
1772871567311668200,6.280668212890625,-1.3696955310553312,0.0020317980885505675,-0.7827925914511084
1772871567321602000,6.29060205078125,-0.07707973254919051,-1.6946879481554031,-0.992897523394227
1772871567331535000,6.30053515625,1.488700096142292,-3.5246576424598692,-1.3062290210559964
1772871567341468200,6.31046826171875,3.255073224326968,-5.276936194318533,-1.7719947674587369
1772871567351401200,6.320401123046875,4.602950306805968,-6.651926324650645,-2.094723623540997
1772871567361335000,6.3303349609375,5.539343268167972,-7.892569359335303,-2.5740815497055647
1772871567371268000,6.34026806640625,6.492172400546074,-8.819733304581046,-3.013888386726379
1772871567381201200,6.350201171875,6.963516823863983,-9.300544059902428,-3.0092426067471503
1772871567391134000,6.360134033203125,6.926231341564655,-9.36279505663216,-2.5958017986044286
1772871567401067000,6.37006689453125,6.628116994518042,-8.90695215382874,-1.9746733487933874
1772871567411001000,6.3800009765625,6.468779249998927,-8.24733498340845,-1.564472399354726
1772871567420934000,6.389933837890625,6.6371355827540155,-7.871210929486155,-1.341258248861134
1772871567430867000,6.399866943359375,7.254578914311527,-8.180480292275547,-1.2058851711668073
1772871567440800000,6.409800048828125,8.066282250687479,-8.792133349993824,-1.2984616019248962
1772871567450734000,6.419734130859375,8.699694720271228,-9.342754139122366,-1.4393540275625885
1772871567460667100,6.429667236328125,8.631600258210302,-9.67289093337357,-1.299446521309018
1772871567470600200,6.43960009765625,7.8528885063320395,-9.515880170497297,-1.1337643761992453
1772871567480533200,6.449533203125,6.5552364672243595,-8.805210273709893,-0.9604662031278014
1772871567490467000,6.459467041015625,5.278440169140696,-7.934334617397188,-0.9842511294715106
1772871567500400000,6.469400146484375,3.9359582237035036,-6.941909387689829,-1.0532312883257866
1772871567510333200,6.479333251953125,2.8913644153416156,-6.158003574299812,-1.4072602686874567
1772871567520266000,6.489265869140625,2.5992852568060156,-5.67894346203804,-1.951966573075205
1772871567530199000,6.499198974609375,2.7626065180033446,-5.761470354077219,-2.401515051909536
1772871567540133000,6.509133056640625,3.2892373597353695,-6.341303793686628,-2.44924696329087
1772871567550066000,6.51906591796875,4.009674617299437,-7.158748888584971,-2.2569484678037464
1772871567559999000,6.5289990234375,4.3265299051731825,-8.173768227416277,-1.7173865405671298
1772871567569932000,6.53893212890625,4.043094656342268,-9.113180828860402,-0.6247454712644219
1772871567579865000,6.548864990234375,3.0908178971499205,-9.814459212446213,0.5650204858809709
1772871567589799000,6.558798828125,2.3926526771485803,-8.707532574290036,0.4896601244702935
1772871567599732000,6.56873193359375,2.2153630963534114,-6.323672275406122,0.3381223861776292
1772871567609665300,6.578665283203125,1.0073591794669627,-4.139992603561282,0.9036078592218458
1772871567619598000,6.58859814453125,0.08960954377651215,-0.5713713162124157,0.5986028758786618
1772871567629532200,6.5985322265625,-0.7062158399879932,3.5095670408338306,0.45421413255780935
1772871567639465200,6.60846533203125,-2.263524192932248,6.900553879472613,-0.23215675088390705
1772871567649398000,6.61839794921875,-3.784182438871264,10.125823501688242,-1.0089267210446298
1772871567659331000,6.6283310546875,-6.395078053972124,13.878894762980938,-0.2877991431288421
1772871567669264100,6.63826416015625,-8.513253280249238,17.801755604702233,0.6516691340252757
1772871567679198000,6.648197998046875,-9.85086791191101,19.259596452200412,2.275924532561004
1772871567689131000,6.658131103515625,-10.884619423741102,17.505660196262596,3.912208222542703
1772871567699064000,6.66806396484375,-11.106962198227643,14.705470674318075,5.631915168881416
1772871567708997000,6.6779970703125,-11.09857781624198,11.69863980488777,7.2973174013197415
1772871567718931000,6.687930908203125,-11.345617809611559,9.411830013436079,8.618931915295123
1772871567728864000,6.697864013671875,-10.527748936343192,8.840588461083174,8.500382692760228
1772871567738797000,6.707797119140625,-8.94820770880282,9.852881005299091,6.048524377927183
1772871567748729900,6.717729736328125,-7.354223529890179,11.702303588092326,2.68085294842422
1772871567758663000,6.727662841796875,-6.6207987804591655,13.396825532031059,-0.2615123169668019
1772871567768597200,6.73759716796875,-6.040631578850745,14.25649590371847,-2.3227613947987553
1772871567778530000,6.747530029296875,-5.581022016990184,13.055615555101632,-2.8620988656297324
1772871567788463000,6.757463134765625,-4.965916772991418,10.665864444613456,-2.0472516782701016
1772871567798396200,6.767396240234375,-5.046069921636581,8.096012787562609,-0.5439904112033546
1772871567808330000,6.777330078125,-6.444567768806219,6.923446679282188,1.0206092677928507
1772871567818263000,6.787262939453125,-8.215621748283505,6.9426429626613855,2.229984034641087
1772871567828196000,6.797196044921875,-8.388223463523387,6.224481833335757,2.59605109719038
1772871567838129200,6.807129150390625,-6.2709367105185985,4.871877722334862,2.0899426728747783
1772871567848062000,6.81706201171875,-2.9112358215034004,3.2805916964650153,0.8223658924266696
1772871567857996000,6.82699609375,0.8181751627385616,1.284025080293417,-0.48488677258864044
1772871567867929000,6.83692919921875,4.18098921533823,-0.8572229785352945,-1.4441799864143132
1772871567877862000,6.84686181640625,6.531579697304964,-2.634308054870367,-2.136756446497887
1772871567887795000,6.856794921875,7.815534050449728,-4.2762844035357235,-2.743300052247941
1772871567897729300,6.866729248046875,8.488789285600184,-6.058128657096624,-3.0110677763476965
1772871567907662000,6.876662109375,9.176225606316327,-7.820672582381963,-2.7515543781131506
1772871567917595100,6.88659521484375,9.502043368324637,-9.502568853503465,-1.7528998986274003
1772871567927528200,6.896528076171875,9.301700244200228,-10.792941841518878,-0.47882454994022844
1772871567937461200,6.906461181640625,8.89204976825118,-11.33466503844261,0.4338885528877377
1772871567947395000,6.91639501953125,8.340254090124368,-10.733886425960064,0.44190673190951346
1772871567957328100,6.926328125,7.665731611517071,-9.472507477238773,-0.10636574052721261
1772871567967261200,6.93626123046875,7.334059278261661,-8.633731425020098,-0.771067228474468
1772871567977194000,6.946194091796875,6.656797730079293,-8.389885259255767,-1.2997048799842594
1772871567987128000,6.956128173828125,5.878289391818642,-8.113288916534184,-1.598984325287491
1772871567997061000,6.96606103515625,5.430421705678105,-7.720948471826315,-1.8083184189885855
1772871568006994000,6.975993896484375,4.9571185495078565,-7.400632814365625,-1.9866653998821973
1772871568016927000,6.985927001953125,4.538439548450708,-7.194533318671584,-2.022160053241998
1772871568026860000,6.995860107421875,4.334326842659712,-7.158941780808568,-2.0794395451694725
1772871568036793900,7.0057939453125,4.050992131593823,-7.281182259076833,-2.0276680030085146
1772871568046727000,7.015726806640625,3.688446521168947,-7.460112592816352,-1.8178176303483544
1772871568056660000,7.025659912109375,3.446547982341051,-7.577743531462549,-1.7068053791895508
1772871568066593000,7.035593017578125,3.3095921654999256,-7.522608504217863,-1.792016980268061
1772871568076525800,7.04552587890625,3.3022324503868816,-7.653224012121558,-1.8868521497383712
1772871568086460000,7.0554599609375,3.5132173800349236,-7.932379391676187,-1.9925744777955114
1772871568096393000,7.06539306640625,3.7316076175034043,-8.133928384459018,-1.9421442672409117
1772871568106325800,7.07532568359375,3.9936148783802983,-8.222772789081931,-1.9636909131385385
1772871568116258800,7.0852587890625,4.089247335708141,-8.390804712188244,-1.972707163286954
1772871568126193000,7.09519287109375,3.7659874414891004,-8.606994809263945,-1.707251807782799
1772871568136125700,7.105125732421875,3.128053695088625,-8.858345067048072,-1.2393791522286832
1772871568146058800,7.115058837890625,2.448782560649514,-8.859409481409191,-0.7770357814900577
1772871568155992000,7.124991943359375,2.0402000061929226,-7.837038610771298,-0.874885476475954
1772871568165925000,7.134925048828125,2.2266104665547606,-5.479117639786005,-1.617400125813484
1772871568175859000,7.14485888671875,2.4214777896165844,-2.9182985994964836,-2.1539377367928623
1772871568185792000,7.1547919921875,2.031411135059595,-0.2675666485697031,-2.0719857220321893
1772871568195725000,7.16472509765625,1.2274492065906524,2.7599299922704694,-1.4321946573272346
1772871568205657900,7.174657958984375,-0.8523404671907424,5.738220411393046,0.12665318014398216
1772871568215591000,7.1845908203125,-3.3062071992367503,9.072319826161861,0.6056185998596251
1772871568225525000,7.19452490234375,-5.950422315615415,12.086876905930042,1.195595686212182
1772871568235457800,7.204457763671875,-8.621783213073014,14.440602763313054,2.173413567765802
1772871568245390800,7.214390869140625,-10.007197122263907,15.755275495326519,3.7541555493980643
1772871568255324000,7.224323974609375,-11.318398963296413,14.500091894114016,6.283741247034072
1772871568265257700,7.2342578125,-11.772705742573738,11.670906579309701,8.503025900745392
1772871568275190800,7.244190673828125,-10.126028084349631,9.824779530930519,8.276162433964014
1772871568285123800,7.254123779296875,-8.400235388356446,8.944745585650205,7.091707734969258
1772871568295057000,7.264056884765625,-7.380517078053951,8.432796180221438,6.5934595226347446
1772871568304989700,7.27398974609375,-6.940484323322773,8.551152510532736,6.347867974507809
1772871568314924000,7.283924072265625,-6.900075740566849,9.279054112628101,4.938829444101453
1772871568324857000,7.293857177734375,-6.739549663046002,10.283508802825212,2.7450883969694373
1772871568334790000,7.303789794921875,-7.096325457897782,10.732470713943242,1.1029986510574816
1772871568344723000,7.313722900390625,-7.091094571506977,10.169957242447138,0.4262672642290592
1772871568354656000,7.323656005859375,-6.781169959679246,8.943338641461729,1.0790677403718232
1772871568364589800,7.33358984375,-6.928278337222337,7.877147918319702,2.0786638846218586
1772871568374523000,7.34352294921875,-7.4099582765936844,7.578099505293369,2.441720221047848
1772871568384456000,7.3534560546875,-7.898536743307113,7.724919129022956,2.3680685632511973
1772871568394389000,7.363388916015625,-8.017500976383685,7.635147672683,2.323829608552158
1772871568404322800,7.37332275390625,-7.262377605363726,7.167821837356686,2.132283538867533
1772871568414255900,7.383255859375,-5.643127467769384,6.595147621852159,1.3326995332218705
1772871568424189000,7.39318896484375,-3.8675463662564753,6.0098489025741815,0.029373686261475084
1772871568434121700,7.403121826171875,-2.489591540899873,4.943181209570169,-1.1513796739973128
1772871568444054800,7.4130546875,-0.9047411010354757,3.5255689120858906,-1.9519674498580395
1772871568453989000,7.422989013671875,0.9004904578536749,1.9209183777302503,-2.1530751286141574
1772871568463922000,7.432921875,2.4545634821385143,0.10155307954847811,-2.013894767591357
1772871568473855000,7.44285498046875,3.6895799091130494,-2.084291076853871,-1.7361201748706399
1772871568483788000,7.4527880859375,4.597965504130721,-4.391570824882388,-1.3883506932951508
1772871568493721900,7.462721923828125,5.319383004903793,-6.534206538677215,-1.0070008675485849
1772871568503655000,7.472655029296875,6.106708855870366,-8.396099311465024,-0.5589737530626356
1772871568513588000,7.482587890625,6.959566624933481,-9.863991597378254,-0.1570506564952433
1772871568523521000,7.49252099609375,7.827713733065128,-10.640002858126163,-0.26395284198671576
1772871568533453800,7.502453857421875,8.857826011610031,-10.8735450720191,-0.5337354130402207
1772871568543388000,7.512387939453125,9.443303010064364,-10.755008708965777,-0.8953580634012818
1772871568553321000,7.522321044921875,9.219851982074976,-10.337850633865594,-1.0664097727201878
1772871568563253800,7.532253662109375,8.5921198962152,-9.408449138826132,-1.1866907874837518
1772871568573186800,7.542186767578125,7.744410595956444,-8.368212941151857,-1.3478196532033384
1772871568583120000,7.552119873046875,6.74214669380188,-7.308681091377139,-1.8383356638506054
1772871568593053700,7.5620537109375,6.2494362418502565,-6.37024581053257,-2.8047014464110136
1772871568602986800,7.57198681640625,6.0555877404421565,-5.872600824788212,-3.6646114720731973
1772871568612919800,7.581919921875,5.585524004584551,-5.7824698874861,-3.7952024300575253
1772871568622852900,7.591852783203125,4.944182495567202,-6.182256556546688,-3.181847244596481
1772871568632786000,7.601785888671875,4.096477871483565,-6.933012380006909,-1.9064663662686943
1772871568642720000,7.611719970703125,3.171233496123552,-7.784530424898862,-0.44014220645502206
1772871568652653000,7.621653076171875,2.4274375748038293,-8.478664197427033,0.5793965094968676
1772871568662585900,7.6315859375,2.374164249777794,-8.612242062267661,1.0109016743794084
1772871568672519000,7.641518798828125,3.1313889769911762,-8.456079440653324,0.6694828770048916
1772871568682453000,7.651452880859375,4.260630907329917,-8.26536865274906,-0.2892901123389602
1772871568692385800,7.6613857421875,5.6158028229922055,-8.100760274350643,-1.435112882861495
1772871568702318800,7.67131884765625,6.63533642437756,-7.815992900133132,-2.462963938476145
1772871568712252000,7.681251953125,7.041655125555396,-7.454818578061461,-3.0640725135654208
1772871568722185000,7.69118505859375,6.708722563105821,-7.440368027904629,-2.8734231004595756
1772871568732118800,7.701118896484375,5.608654704803228,-7.733614476653933,-2.046770178363472
1772871568742051800,7.7110517578125,4.401607650250196,-7.913454910975694,-1.0329527626678348
1772871568751985000,7.72098486328125,3.2805963726401326,-7.733731381031871,-0.24046689858958123
1772871568761918000,7.73091796875,2.2787211775422094,-6.463264285969734,-0.1709149311967194
1772871568771850800,7.740850830078125,2.5429718334317206,-3.4884628780066964,-1.387134303242713
1772871568781785000,7.75078515625,2.473643445661664,-0.5308019899368286,-1.2575504764743148
1772871568791718000,7.7607177734375,1.3113181608885527,2.1841578107506034,-0.6591336246870457
1772871568801651000,7.77065087890625,-1.067326449173689,5.2677106853336095,0.34240415515005584
1772871568811584000,7.780583984375,-3.4253380210518833,8.120418914544581,0.3578036765947938
1772871568821517000,7.79051708984375,-4.99644518224597,10.849144790256023,0.14884206946790218
1772871568831451000,7.800450927734375,-7.612511477982998,13.286306471216678,0.4587041374534368
1772871568841384000,7.810384033203125,-9.687914899504184,15.637237144923208,1.212028057835996
1772871568851317000,7.82031689453125,-12.479170588886737,15.696050568419693,3.9450311724752187
1772871568861250000,7.83025,-15.034305153799057,13.235861063092946,7.371469848245382
1772871568871184000,7.840183837890625,-13.337875330412388,10.648781207865476,8.18389097750187
1772871568881117000,7.850116943359375,-11.664636997520923,8.707919527781009,7.4513763286530965
1772871568891050000,7.860050048828125,-9.989408952116966,7.881132604041695,7.025480235823989
1772871568900982800,7.869982666015625,-9.214273305159807,7.313767016339302,6.746463972479105
1772871568910915800,7.879915771484375,-8.361260053274036,8.118917277809977,5.0622144162297245
1772871568920850000,7.889849853515625,-6.684551413923502,10.119639260095358,1.8181059457704425
1772871568930783000,7.899782958984375,-6.496583202725649,12.035525488877296,-0.8171257998161018
1772871568940716000,7.909716064453125,-7.564975235304236,12.767913880997895,-1.4145900270536542
1772871568950649000,7.919649169921875,-8.82948079161346,12.173943779486416,0.21188114783540365
1772871568960582100,7.92958203125,-9.830553438156842,11.005088216161727,2.28972421759367
1772871568970515000,7.939514892578125,-10.042298830783366,9.796604991325735,3.3867601608544584
1772871568980448000,7.949447998046875,-9.375230759835242,8.66584271955192,3.5131203494012353
1772871568990381000,7.959381103515625,-7.962889680752157,7.585750896829366,2.8557074110269545
1772871569000315000,7.96931494140625,-6.461949696239829,6.915680136933922,1.9275166069515048
1772871569010248000,7.979248046875,-4.648886128550767,6.212798994326591,0.8614435188397764
1772871569020181000,7.989180908203125,-2.0019155759841203,4.960217684566975,-0.3896133578315377
1772871569030114000,7.999114013671875,0.8881284044086932,3.4217034639418125,-1.7606724323250351
1772871569040047400,8.00904736328125,2.836345707952976,1.7909142797231674,-2.8648627773851154
1772871569049981400,8.0189814453125,3.6983261101484297,0.03701251057684421,-3.2714673097670075
1772871569059914200,8.028914306640624,3.850133459162712,-1.985403417122364,-3.187582573378086
1772871569069847300,8.038847412109375,4.126911588191986,-4.307703039628267,-2.5450498087495563
1772871569079780400,8.0487802734375,4.796405424982309,-6.584891600775718,-1.8050022801779209
1772871569089713400,8.05871337890625,5.845460304406285,-8.140890040165186,-1.1756303181566297
1772871569099647200,8.068647216796874,6.976395594659447,-9.255254719367622,-0.9264078661814331
1772871569109580300,8.078580322265625,7.931582688340544,-9.749924488693475,-0.8543113288722932
1772871569119513300,8.088513427734375,8.773445016136765,-9.724603584954142,-1.1891492865517734
1772871569129446100,8.098446044921875,9.336773311147093,-9.53978477769792,-1.8528566488951443
1772871569139379200,8.108379150390626,8.732743003392219,-9.045623542416095,-2.4351415733098984
1772871569149313500,8.1183134765625,8.507033967342972,-7.4342907538175576,-2.7804928878277537
1772871569159246300,8.128246337890625,7.804317075386643,-6.417745812854171,-3.108724140718579
1772871569169179400,8.138179443359375,6.838829536965489,-5.956486730220914,-3.1359356805101033
1772871569179112400,8.148112548828125,6.131065298491716,-5.801496659517288,-2.918241316351294
1772871569189046300,8.15804638671875,5.554698658210039,-6.187038530126213,-2.567792386433482
1772871569198979300,8.167979248046874,5.041732184693217,-6.898796222150326,-1.903657300197333
1772871569208912400,8.177912353515625,4.50680522378087,-7.8313459520876405,-0.9617083121433854
1772871569218845400,8.187845458984375,3.8816041177034375,-8.853986871838568,-0.13034385135546325
1772871569228778200,8.1977783203125,3.423744614380598,-9.528277295255661,0.41899756548702716
1772871569238712300,8.20771240234375,3.099526104262471,-9.67097077896595,0.5417626521512866
1772871569248645400,8.217645263671875,2.921422868996858,-9.235477421230078,0.10599778399765492
1772871569258578200,8.227578125,3.1548674677342174,-8.641351252374053,-0.8730291810847818
1772871569268511200,8.23751123046875,3.536508239251375,-8.047718419992924,-1.9761498510867357
1772871569278444300,8.2474443359375,3.8462341136366125,-7.517362420257926,-2.980872252309322
1772871569288378000,8.257378173828124,4.12526265194118,-7.2695315687716,-3.7301843067020175
1772871569298311200,8.267311279296875,4.376322402346134,-7.288576460981369,-4.008088224890828
1772871569308244200,8.277244140625,4.275198361864685,-7.667553566247224,-3.841509715463221
1772871569318177300,8.28717724609375,3.963376391983032,-8.176993619203566,-3.451036525931954
1772871569328110300,8.2971103515625,3.56199339364171,-8.453221128612757,-2.900524457874894
1772871569338044400,8.30704443359375,3.105984486621618,-8.695053616467117,-2.2301544227719305
1772871569347977500,8.3169775390625,2.6530373052597045,-8.784427013400197,-1.5943912984088062
1772871569357911300,8.326911376953126,2.214360641312599,-8.441233169177174,-1.2806912596955895
1772871569367844400,8.33684423828125,2.5127812778294083,-6.735126585906744,-1.9391162977218628
1772871569377777400,8.34677734375,3.1460727513819933,-3.859354291972518,-2.6502599495008585
1772871569387710200,8.356710205078125,2.242895830923319,-0.6837152543663978,-2.9146558590799567
1772871569397643300,8.366643310546875,0.7037550028324127,2.9773072533041236,-1.944748896781355
1772871569407577300,8.376577392578126,-2.8305414055883884,6.541703031912446,0.05803410968706012
1772871569417510100,8.38651025390625,-6.20592034072876,12.132269706839322,1.0622469539523125
1772871569427443200,8.396443115234375,-9.721879128426313,15.4551550691545,2.8894048057064414
1772871569437376300,8.406376220703125,-12.79768708797097,16.79919067377448,2.75241362529099
1772871569447310300,8.416310302734376,-14.994770431268215,18.572876755321026,5.244864647275209
1772871569457243400,8.426243408203124,-15.715049867922067,17.12987925668955,8.175881274047493
1772871569467176400,8.436176513671874,-12.720081285721063,14.028362855392693,6.994102516263723
1772871569477109500,8.446109619140625,-8.151071242439746,11.735193465781212,4.673612573528289
1772871569487042300,8.456042236328125,-3.574928863060474,9.573979308244585,3.744234459364414
1772871569496976400,8.465976318359376,-1.6531459774553774,6.889622735613584,5.522286334905028
1772871569506909400,8.475909423828124,-1.5990929002285004,5.583330878454446,7.035897584941983
1772871569516842200,8.48584228515625,-2.458370473206043,6.631628217509388,6.926473333626985
1772871569526775300,8.495775390625,-4.480983969303965,9.14515066909492,6.196061210015416
1772871569536708400,8.505708251953125,-7.6812231951594345,12.03473287719488,5.371883591991662
1772871569546642200,8.51564208984375,-10.892294196152687,14.094119229894876,3.9981837937310334
1772871569556575200,8.5255751953125,-12.120146722847222,14.881747278678416,2.4205159588471052
1772871569566508300,8.53550830078125,-12.085218032807111,14.329395135712623,1.0441682764261961
1772871569576441300,8.54544140625,-11.260862135607004,12.9020371047616,-0.1753860852614045
1772871569586374400,8.55537451171875,-9.770554604268073,10.698985792970657,-0.2902325077556073
1772871569596308200,8.56530810546875,-7.804772417938709,8.019273246753215,0.5832017469987273
1772871569606241300,8.5752412109375,-5.4577223850578065,5.437650487887859,0.8515252052851021
1772871569616174300,8.58517431640625,-3.2409915074825286,3.7058331247776746,-0.08028934224545956
1772871569626107100,8.595107177734375,-1.0344354024410247,2.8888422033876178,-1.6812318158634005
1772871569636040400,8.60504052734375,1.0362094263762236,2.317342876881361,-2.8760037646025416
1772871569645974300,8.614974365234374,2.8710779986381527,1.2234890707880257,-3.3986943442761897
1772871569655907300,8.6249072265625,4.28869321873188,-0.7545271586924791,-3.5066456004291773
1772871569665840400,8.63484033203125,5.669429783761501,-2.9845687687397002,-3.4407542013704773
1772871569675773400,8.6447734375,6.881180485960841,-5.225073905134201,-2.9886060614317653
1772871569685706500,8.65470654296875,8.206607836222648,-7.270180972591042,-2.31344645396471
1772871569695640300,8.664640380859375,9.492294712248444,-8.905985939145088,-1.3086404661118984
1772871569705573400,8.674573486328125,10.36993620943427,-10.349891784793138,-0.2115750044956803
1772871569715506400,8.68450634765625,11.397944209176302,-11.202116516649722,0.2270668803989887
1772871569725439200,8.694439208984376,11.798658514475822,-11.467004301398992,0.4287913758791983
1772871569735372300,8.704372314453124,11.299596063148975,-10.801941140532493,0.7225516193695366
1772871569745306400,8.714306396484375,9.566987841922044,-9.397550143671035,0.715555184610933
1772871569755239200,8.7242392578125,7.310720488250255,-7.857776278373598,0.6996313470311463
1772871569765172200,8.734172119140625,5.277147206720709,-6.409803913938998,0.35099998792931436
1772871569775105300,8.744105224609376,3.8656747271656986,-5.623147340536117,-0.12496858805790542
1772871569785038300,8.754038330078124,3.384173066970706,-5.6925826958119865,-0.7682718986675143
1772871569794972400,8.763972412109375,3.400979824864864,-6.160049400913715,-1.2722927030541002
1772871569804905500,8.773905517578125,3.47818055344522,-6.890684227365255,-1.575666285803169
1772871569814838500,8.783838623046876,3.5000539470791816,-7.771617751833796,-1.666680435680598
1772871569824771300,8.793771240234374,3.68633347453773,-8.485765553864836,-1.798022358162701
1772871569834704400,8.803704345703125,3.9948172399073836,-8.859664917474985,-2.18379555330947
1772871569844638500,8.813638427734375,4.1238440173149105,-9.069776571419835,-2.8008298656746744
1772871569854571300,8.8235712890625,3.902383286359906,-9.04839242260754,-3.299840586814284
1772871569864504300,8.83350439453125,3.2236914131134746,-8.57697727214098,-3.5822038224995136
1772871569874437400,8.843437255859374,2.651376094049215,-7.650828056895732,-3.908798706360161
1772871569884370400,8.853370361328125,2.8054975652247665,-6.912424934530258,-4.279371848157048
1772871569894304300,8.86330419921875,3.3732693956404924,-6.7366253000319,-4.555982803925872
1772871569904237300,8.8732373046875,3.9862107396036386,-6.93334614200592,-4.492848594620823
1772871569914170400,8.88317041015625,4.55315079537034,-7.330583711105585,-4.08042865395844
1772871569924103200,8.893103271484375,4.91621136958003,-7.554623352637886,-3.4352523890838027
1772871569934036200,8.9030361328125,4.964861126458644,-7.675285037282109,-2.835283047157526
1772871569943970600,8.912970458984375,4.786896422880888,-7.726257099628448,-1.9883882781520485
1772871569953903400,8.9229033203125,4.447230168262124,-7.493256153005361,-1.1470685327999293
1772871569963836400,8.93283642578125,4.383693223375082,-5.568253136309981,-1.6799598962314426
1772871569973769500,8.94276953125,5.181604765763878,-3.0935008526235817,-2.110272782589495
1772871569983702500,8.95270263671875,4.488336670154333,-1.7839947095930575,-0.8250539624668657
1772871569993636400,8.96263623046875,2.6973084086626766,0.25387130069434644,1.2588105595380068
1772871570003569400,8.9725693359375,-0.45640696642696854,2.956498858553171,4.386657918399572
1772871570013502500,8.98250244140625,-3.8689153165221213,6.985314229652285,4.937167648369074
1772871570023435300,8.992435302734375,-6.865953106212616,11.768584863251448,5.201152931320667
1772871570033368300,9.002368408203125,-10.66155067306757,16.941338214039803,5.13497745462358
1772871570043302000,9.012302001953126,-13.723035508227348,20.38322288074493,5.667200417274237
1772871570053234700,9.022234619140624,-16.681664364546535,20.91216842916012,7.087074229949712
1772871570063167700,9.032167724609375,-14.82756326854825,19.803636693894862,6.761516580182313
1772871570073100800,9.042100830078125,-11.642620396023988,16.714316926348207,4.631090067358315
1772871570083033900,9.052033935546875,-11.176759957075118,12.897868294644354,3.8580581146821378
1772871570092967700,9.0619677734375,-9.569469137343765,9.8930750685215,5.11977754740417
1772871570102900700,9.071900634765624,-7.998300601351261,7.358419228014349,5.691714096283913
1772871570112833800,9.081833740234375,-6.296717632985115,6.517043222430348,4.731590130722522
1772871570122766800,9.091766845703125,-4.40249495447874,7.138750056651234,3.124063748669624
1772871570132700700,9.10170068359375,-3.1191713004529475,7.642173041275143,1.5691872990474105
1772871570142633700,9.1116337890625,-2.832489032524824,7.831745180538296,0.883636061425507
1772871570152566800,9.12156689453125,-3.7544238449454306,7.996281078222394,1.2179343592703342
1772871570162499800,9.131499755859375,-5.9391521490603685,9.130535868287087,1.6463457959212362
1772871570172433000,9.141432861328125,-8.812592200654745,10.731922432410716,1.5108070062711834
1772871570182366700,9.15136669921875,-10.988097333872318,11.33528463164568,1.301734924507141
1772871570192299800,9.1612998046875,-11.354033755779266,10.901768126940727,1.6556448085337876
1772871570202232800,9.17123291015625,-10.087192449998854,9.697362526807188,1.7130895740255712
1772871570212166000,9.181165771484375,-7.562082436472177,8.109029505524038,0.9817639888308942
1772871570222099000,9.191098876953125,-4.251261021438241,6.12766396561563,-0.15188129103332756
1772871570232032800,9.20103271484375,-0.7563666490793227,3.9583904202640054,-1.4624642695151269
1772871570241965800,9.2109658203125,2.3093664911746976,1.9562001189917324,-2.8098353021681306
1772871570251899000,9.22089892578125,4.544705623108149,-0.10854103873968124,-4.098721558757126
1772871570261831700,9.230831787109375,5.845753734394908,-2.54023159481287,-4.698001749375463
1772871570271764700,9.2407646484375,6.908450770202279,-4.983749366801977,-4.525198374083638
1772871570281698800,9.25069873046875,7.784211860468983,-7.7064383004367345,-3.4757176704630255
1772871570291631600,9.260631591796875,8.169522260409593,-10.672146885883807,-1.2682255997456608
1772871570301564700,9.270564697265625,8.038117063432932,-12.60695642632246,0.7895198538795113
1772871570311497700,9.280497802734375,7.691595536091923,-12.875918328642845,1.3616596702463923
1772871570321430800,9.2904306640625,7.718405217084288,-11.798562652885913,0.4366305450722575
1772871570331364900,9.30036474609375,7.8742030970394605,-9.514992866268754,-1.1605733265392482
1772871570341298000,9.3102978515625,7.63537154456675,-7.266499069207907,-2.1059315385147928
1772871570351231000,9.32023095703125,6.452088811960816,-6.098937052825093,-2.3468629858762022
1772871570361163800,9.330163818359376,5.2459109414577485,-5.365574262714386,-2.246376220384985
1772871570371096800,9.340096923828124,4.841846741208434,-4.974440855708718,-2.5494308003127575
1772871570381030000,9.35002978515625,5.088582198673486,-5.262074725273251,-3.0514100158691404
1772871570390963700,9.359963623046875,5.265255108875036,-6.211288005241752,-2.836519603215158
1772871570400896800,9.369896728515625,4.95949930716455,-7.59037037332356,-1.9506350322104988
1772871570410829800,9.379829833984376,4.061045908096433,-8.965747457146644,-0.8145201473623513
1772871570420763000,9.389762939453124,2.9776152963399887,-9.898187296968699,-0.029363018736988305
1772871570430695700,9.39969580078125,2.466948916459083,-10.142509263551235,-0.0646397915624082
1772871570440629800,9.409629638671875,2.8930186122894286,-9.711418524688481,-1.1361277443297206
1772871570450562800,9.419562744140626,3.7138919280707836,-9.297982100459933,-2.472828037625551
1772871570460495600,9.42949560546875,4.578583342790603,-8.758352660945057,-3.226743786421418
1772871570470428700,9.4394287109375,5.266805260926485,-8.363287759709358,-3.8971675975382327
1772871570480361700,9.44936181640625,5.7615971953272815,-8.013150964480639,-4.348060768979788
1772871570490295800,9.4592958984375,5.809899746203422,-7.50355309061408,-4.537706265740097
1772871570500228900,9.469228759765626,5.458619626158476,-6.909655469816923,-4.508726839493215
1772871570510162000,9.479161865234374,4.92710335047245,-6.330685953560471,-4.347024703930318
1772871570520095000,9.489094970703125,4.422042535513639,-6.002050211521983,-3.7899282890468835
1772871570530027800,9.49902783203125,4.138831158566474,-6.066986501812934,-2.85954801210314
1772871570539961900,9.5089619140625,4.51016271751523,-6.431963138777017,-2.0593673557385803
1772871570549895000,9.51889501953125,5.400955372697115,-6.705340519452094,-1.6995144915290177
1772871570559827700,9.52882763671875,6.291900003570317,-7.0925009311735625,-1.8000233227215707
1772871570569760800,9.5387607421875,6.883831292730569,-6.647130907067656,-2.3617571881473065
1772871570579693800,9.54869384765625,7.125075751563906,-4.802220833262801,-3.706175070083141
1772871570589627600,9.558627685546876,7.235279755079746,-2.418220833647251,-3.6245711381077763
1772871570599560700,9.568560791015624,5.775534535264969,0.5660439837098121,-2.3193466179192064
1772871570609493800,9.57849365234375,3.189691528356075,3.887537599405646,-0.23714359938576815
1772871570619426800,9.5884267578125,-0.2187058792889118,7.847939944013953,2.662693022355437
1772871570629359600,9.598359619140625,-4.787724105876684,11.771181309485435,5.542111563837528
1772871570639294000,9.6082939453125,-10.106114592611789,15.305789852595328,8.618371943324803
1772871570649227000,9.61822705078125,-15.669351946586369,17.09055730012655,11.641558904272317
1772871570659159800,9.628159912109375,-21.518747836875914,16.070269665503503,15.05486980292201
1772871570669092900,9.6380927734375,-23.35520806224346,14.315347905659674,16.300571290040015
1772871570679026000,9.64802587890625,-17.129897961390018,13.383595463579892,11.558735659635067
1772871570688959700,9.657959716796874,-11.910763967698811,11.567695211160181,4.82676607645452
1772871570698892800,9.667892822265625,-7.9650950818419455,10.456030438566208,0.9976727749720216
1772871570708825900,9.677825927734375,-5.542095197224617,9.376419092836976,-0.007382949858158827
1772871570718759000,9.687759033203125,-5.993235036903619,8.17797678502202,0.22152005992680787
1772871570728691700,9.697691650390626,-7.497947525691986,8.073263195616006,1.3566292748637496
1772871570738625800,9.707625732421874,-9.827723183166981,7.746112723699212,3.9724487562328576
1772871570748558800,9.717558837890625,-12.198524093991518,6.4302586729466915,6.810571995252371
1772871570758491600,9.72749169921875,-13.890727824115752,8.069720992964506,6.655674863529205
1772871570768424700,9.7374248046875,-13.701122951626777,11.265071862256526,3.413749874588847
1772871570778357800,9.747357666015626,-12.486589340710639,11.856205863559245,0.2914250785410404
1772871570788291600,9.75729150390625,-10.306577543723582,10.254216072845459,-1.4630515678837894
1772871570798224600,9.767224609375,-8.526955057865381,8.407641865220665,-1.8276681393638252
1772871570808157700,9.77715771484375,-7.943256174999475,6.721373370364308,-1.402622233623266
1772871570818090800,9.7870908203125,-7.81129743579328,5.020448573645949,-0.9447831885665655
1772871570828023600,9.7970234375,-6.890944339606166,3.7087165712594983,-1.0659481465578078
1772871570837958000,9.8069580078125,-4.221965953370929,3.24919527220428,-2.2793533379659054
1772871570847891000,9.816890869140625,-1.0601613798499108,2.791395390114188,-3.969465356507897
1772871570857823700,9.82682373046875,1.653398490911722,1.6866566173911093,-5.079810863196849
1772871570867756800,9.8367568359375,3.650205930101871,-0.01974573395550251,-5.591984725031256
1772871570877689900,9.84668994140625,5.121119025141001,-2.0796166553020474,-5.645400088876485
1772871570887623700,9.856623779296875,6.489174972295761,-4.202521832710504,-5.203542456805706
1772871570897556700,9.866556640625,7.824417614129185,-6.028485798504948,-4.651293774214387
1772871570907489800,9.87648974609375,8.786658717975019,-7.424624515327811,-3.9813928179278966
1772871570917422800,9.8864228515625,9.2020714107126,-8.38704331382811,-2.9900568447619675
1772871570927355600,9.896355712890625,9.190932177060843,-8.513652508699893,-2.3337068594440815
1772871570937289700,9.906289794921875,8.300280391654372,-8.549008484241366,-2.0303081422537566
1772871570947222800,9.916222900390625,7.131642854994535,-8.05443749911487,-1.79378135959208
1772871570957155600,9.926155517578126,6.321214360859989,-7.273880411630868,-1.7265185260497034
1772871570967088600,9.936088623046874,5.560480748742819,-6.493684558674692,-1.5652346158988772
1772871570977021700,9.946021728515625,4.91509201016128,-5.965604102656245,-1.5498052838377654
1772871570986954800,9.955954833984375,4.749273671451211,-5.628423235112428,-1.7404193333692848
1772871570996888800,9.965888916015626,4.836966567951441,-5.378478167951107,-1.9244442137688398
1772871571006822000,9.97582177734375,5.051078689709305,-5.382640548327565,-2.31957794245705
1772871571016755000,9.9857548828125,5.496874830272794,-5.549672939002513,-2.935762067733705
1772871571026687700,9.995687744140625,6.060163962316513,-5.794298856967687,-3.196464968013763
1772871571036621000,10.00562109375,6.367938118112087,-6.070328797978163,-3.074758742752671
1772871571046555400,10.015555419921874,6.1405889136403795,-6.156359898746013,-3.0905355730772017
1772871571056488200,10.02548828125,5.744421019598842,-5.812008701181411,-3.1619781765222545
1772871571066421200,10.035421142578125,5.438354252243042,-6.076807638603449,-2.356933859644085
1772871571076354300,10.045354248046875,4.865319386732578,-6.52938540213108,-1.7483984955549239
1772871571086287400,10.055287353515626,5.009207633185387,-5.962898350828886,-1.5047177494853734
1772871571096221200,10.06522119140625,5.426903468424081,-5.3936067634999745,-1.3333558051735162
1772871571106154200,10.075154296875,4.9759804863661525,-5.01108453297317,-1.5573048458129166
1772871571116087300,10.08508740234375,5.139097164902091,-4.251229457256198,1.9425170460760592
1772871571126020000,10.09502001953125,4.598447150167822,-5.1188843979567284,3.5526547796711325
1772871571135953200,10.104953125,2.6615391761451956,-7.0947548475801945,3.1627772179454565
1772871571145887200,10.11488720703125,4.1344846537947655,-7.473773453900217,4.407917856310307
1772871571155820000,10.124820068359375,2.989211041587591,-7.179053425467014,4.207595190452039
1772871571165753000,10.134753173828125,2.8737463410645723,-5.68248624921143,3.6882054058894513
1772871571175686100,10.14468603515625,2.4383447532653806,-4.354730163741111,2.131367885327339
1772871571185619200,10.154619140625,1.834535394784808,-3.3437136308103796,0.5453977937832475
1772871571195553000,10.164552978515625,1.7343518500238655,-1.8790198486775158,-0.6911006153773516
1772871571205486000,10.174486083984375,1.7262357635855674,0.6912129166454076,-1.4292147647336124
1772871571215419100,10.184419189453125,1.3704039715856313,4.308296913868189,-1.8497535683132706
1772871571225352000,10.19435205078125,-1.0000760367214678,6.258510359665751,-0.2462372986845672
1772871571235285200,10.20428515625,-4.332995301795005,9.241583336889743,0.6789205674357712
1772871571245218300,10.21421826171875,-6.767527803295851,11.570278797912597,-0.1771731148086488
1772871571255152000,10.224152099609375,-7.004128235715627,13.093445811802148,-1.9769807489529252
1772871571265085200,10.234085205078125,-6.792588594794273,13.259568101894855,-2.590681386850774
1772871571275018200,10.244018310546876,-5.9754831071138375,11.420922933703661,-1.0047127566114067
1772871571284951300,10.253951416015624,-5.724661841639876,11.097275501471758,1.99292679836452
1772871571294884000,10.263884033203125,-7.3354767438441515,10.326063165438175,3.8529111071825026
1772871571304818200,10.273818115234375,-8.320628183156252,10.13990697209835,5.1061283767580985
1772871571314751200,10.283751220703126,-9.504558566015959,9.764265148735046,4.418900730356574
1772871571324684000,10.29368408203125,-9.605593759170175,8.877433213877678,3.6434777908906337
1772871571334617000,10.3036171875,-8.547044490692018,7.179056932598352,2.167596405919641
1772871571344550100,10.313550048828125,-7.007762792825698,5.776812300115823,0.8097330592162907
1772871571354484000,10.32348388671875,-6.238019360300898,4.861507427228987,-0.05373626636266708
1772871571364417000,10.3334169921875,-5.956183947882056,3.6613989397674795,0.77988956348598
1772871571374350000,10.34335009765625,-4.902357616272568,1.7375749037235975,3.194831229332089
1772871571384283100,10.353283203125,-4.4670103890091175,0.5553448950409889,4.369187728160619
1772871571394216000,10.3632158203125,-4.375309425911307,-0.5409224019348621,3.5846745965272184
1772871571404150300,10.373150390625,-3.259446617105603,-1.7362822335645556,2.6207521154657005
1772871571414083300,10.383083251953124,-1.8653589875936507,-2.519098205891251,1.6336171011209486
1772871571424016100,10.39301611328125,-0.6309241598993539,-3.219481686463952,0.7937406864449381
1772871571433949200,10.40294921875,0.39973406209051604,-3.5987069212719796,0.2897710277236998
1772871571443882200,10.41288232421875,1.2089841600954532,-4.171019609987735,-0.12818418910354376
1772871571453816000,10.422816162109376,1.617978217962384,-4.000125575448572,-0.33973537433221934
1772871571463749000,10.4327490234375,2.389570493224263,-3.440717668752372,-0.9903684433080255
1772871571473682200,10.44268212890625,2.1696260120511055,-3.208905347391963,-1.4496566642597317
1772871571483615200,10.452615234375,2.0401421385258436,-2.9756258760884404,-1.1229868154667317
1772871571493548000,10.462548095703125,2.2618062830984593,-3.309315394385159,-0.5659636119499802
1772871571503481000,10.472481201171876,2.6991403002649546,-3.9903672747611996,0.1058965155802667
1772871571513415200,10.482415283203125,3.304518515497446,-4.343447722226381,1.0235016282334923
1772871571523348000,10.492347900390625,3.935539121508598,-4.3410482598692175,1.6083245466932654
1772871571533281000,10.502281005859375,4.360260909861326,-4.484489639337361,1.6353775349222122
1772871571543214000,10.512214111328126,4.775597030231356,-3.771827107428014,1.1586264302551745
1772871571553147100,10.522147216796874,4.353043233567476,-2.2587468955278394,0.2739374257106334
1772871571563081200,10.532081298828125,3.236208949381113,-1.2016919572606681,0.33227745954170823
1772871571573014300,10.54201416015625,2.5687808129489422,-0.46473815692067144,0.44218072654530405
1772871571582947300,10.551947265625,2.331743742677569,-0.03763502638936043,0.4814858781039715
1772871571592880000,10.561880126953126,2.5507699399620294,0.28924481189250945,0.3232971574895084
1772871571602813200,10.571813232421874,2.0596973183453082,-0.040081835019588466,0.2891885516606271
1772871571612747300,10.581747314453125,1.4243366373032331,0.833631675067544,0.21206308027356863
1772871571622680000,10.59168017578125,0.9853764802396296,1.996738757868111,0.13718977172747254
1772871571632613000,10.601613037109376,0.4135170882493257,2.0693708633586763,0.09313494142368435
1772871571642546200,10.611546142578124,0.0773766696691513,1.890133071105182,0.0542089984409511
1772871571652479200,10.621479248046874,0.4308662824571132,2.0324097907081247,0.30812501505985856
1772871571662413000,10.6314130859375,0.5184720851957798,1.7148773342251777,0.39189708485454317
1772871571672346000,10.64134619140625,0.5149339741975069,0.6254378374427557,0.2997046849779785
1772871571682279200,10.651279052734376,0.42935938502550125,0.15810674141943454,0.3404296402066946
1772871571692212200,10.661212158203124,0.5807552306294441,0.1858262307330966,0.15718889592215418
1772871571702145000,10.67114501953125,0.4692231933802366,-0.10822159752696751,-0.23708690076246855
1772871571712078000,10.681078125,0.5905412961065769,0.020995441755652426,-0.4830843993417918
1772871571722012200,10.69101220703125,0.5485322924166918,0.5220210098490119,-0.6249244810931385
1772871571731945200,10.7009453125,0.667795216178894,0.5067512522637844,-0.994149715412408
1772871571741878300,10.710878173828124,1.0884142453879118,-0.20485826346129177,-0.8782650359116494
1772871571751811300,10.720811279296875,1.518894743397832,-0.9292883900538086,-0.41450273828580975
1772871571761744400,10.730744384765625,1.2585802579134702,-1.2559917027249932,0.046314299668371674
1772871571771678200,10.74067822265625,0.42949674766957757,-1.090028987108171,0.34092297668159005
1772871571781611300,10.750611328125,-0.17058102306723594,-0.8274065169423818,0.14761939580515027
1772871571791544300,10.76054443359375,-0.45650399706065653,-0.4729191252887249,-0.025347207224369048
1772871571801477000,10.77047705078125,-0.6588292349129915,-0.5530854256764054,-0.05534136347174644
1772871571811410200,10.78041015625,-0.5748620809376239,-0.7259209496721625,0.025930998461693524
1772871571821344300,10.79034423828125,-0.4277192166030407,-0.7497364172846078,0.1805180413223803
1772871571831277000,10.800277099609374,-0.527712791749835,-0.598463613538444,0.4262057433001697
1772871571841210000,10.810210205078125,-0.7495750892430544,-0.46715457041263575,0.5792405882827937
1772871571851143200,10.82014306640625,-0.7631354125618934,-0.3289756415173411,0.41842166529521346
1772871571861076200,10.830076171875,-0.704556382343173,-0.20027561184614895,0.04994476512521505
1772871571871010000,10.840010009765624,-0.6944885773152113,-0.13567717520743608,-0.3199031311370432
1772871571880943000,10.849943115234375,-0.608778963586688,-0.1404696701809764,-0.4574677275262773
1772871571890876200,10.859876220703125,-0.4305412882864475,-0.14927198531776667,-0.4435682353809476
1772871571900809000,10.86980908203125,-0.35432606361210345,-0.2821720970273018,-0.4045332790657878
1772871571910742300,10.8797421875,-0.24240882643759248,-0.23073709334433076,-0.35409400842189787
1772871571920675300,10.88967529296875,-0.42046120829880235,-0.1341866443887353,-0.31155732759609817
1772871571930609200,10.899609130859375,-0.8581032685011625,0.12352993355691433,-0.09285027926340698
1772871571940542200,10.909542236328125,-1.0463953048259018,0.2760524451032281,0.14608210323527454
1772871571950475300,10.919475341796876,-0.981284242489934,0.19562807830125092,0.41011400180757046
1772871571960408300,10.929408203125,-0.533845010894537,0.14232055874466895,0.29746406644433737
1772871571970341000,10.939341064453124,0.19362053787112235,0.22307722624093293,0.11590046159178018
1772871571980275200,10.949275146484375,0.5766010335594415,0.3067360449194908,0.08648615105897188
1772871571990208300,10.959208251953125,0.7019120053142309,-0.03863835821300745,-0.03553907702341676
1772871572000141000,10.96914111328125,0.9997036962777376,-0.3149418554678559,0.014967852029204368
1772871572010074000,10.97907421875,1.0373246941417456,-0.38218817626684903,-0.030947511449456212
1772871572020007200,10.989007080078125,0.5875900450855494,-0.4441384364843368,0.0006508651241660118
1772871572029941000,10.99894091796875,0.024151275438070295,-0.09128858290463686,-0.09098959995806216
