time,seconds_elapsed,z,y,x
1772871561066137300,0.035137451171875,-0.23849086463451385,-0.5768933892250061,-0.27575409412384033
1772871561076071200,0.0450712890625,-0.27266108989715576,-0.5783088803291321,-0.2402874380350113
1772871561086004200,0.055004150390625,-0.31678861379623413,-0.6019308567047119,-0.1667114794254303
1772871561095937300,0.064937255859375,-0.3656077980995178,-0.6073514819145203,-0.09765172749757767
1772871561105870300,0.074870361328125,-0.37987595796585083,-0.5595820546150208,-0.0757935643196106
1772871561115804400,0.084804443359375,-0.30349302291870117,-0.5020279884338379,-0.11731410771608353
1772871561125737500,0.094737548828125,-0.15769162774085999,-0.4537850618362427,-0.20181114971637726
1772871561135670500,0.10467041015625,-0.002572879893705249,-0.3769720494747162,-0.30173376202583313
1772871561145604400,0.114604248046875,0.15137913823127747,-0.233511820435524,-0.3582010269165039
1772871561155537400,0.124537353515625,0.28412067890167236,-0.004516987595707178,-0.3483760952949524
1772871561165470500,0.134470458984375,0.35613253712654114,0.2521888315677643,-0.2615991234779358
1772871561175403300,0.1444033203125,0.37015753984451294,0.44174492359161377,-0.11397717148065567
1772871561185337300,0.15433740234375,0.3439757525920868,0.5325251817703247,0.02648274041712284
1772871561195270400,0.1642705078125,0.2920755445957184,0.5849388241767883,0.10515278577804565
1772871561205203200,0.174203125,0.21233542263507843,0.6312277913093567,0.1352963000535965
1772871561215137300,0.18413720703125,0.15642262995243073,0.5538285970687866,0.08491968363523483
1772871561225070300,0.1940703125,0.13568858802318573,0.4477007985115051,-0.042030274868011475
1772871561235003100,0.204003173828125,0.15099883079528809,0.3307611346244812,-0.2065768837928772
1772871561244936200,0.213936279296875,0.17771673202514648,0.28064924478530884,-0.3394222855567932
1772871561254870500,0.22387060546875,0.18548864126205444,0.2757652699947357,-0.4209618866443634
1772871561264803300,0.23380322265625,0.18404600024223328,0.33158963918685913,-0.46524810791015625
1772871561274736400,0.243736328125,0.19448159635066986,0.40395572781562805,-0.45109474658966064
1772871561284669400,0.25366943359375,0.20849275588989258,0.44103679060935974,-0.37431102991104126
1772871561294603300,0.263603271484375,0.20819607377052307,0.4389467239379883,-0.27590829133987427
1772871561304536300,0.273536376953125,0.21154020726680756,0.4181368052959442,-0.1739899069070816
1772871561314469400,0.283469482421875,0.17414890229701996,0.32307925820350647,-0.13487978279590607
1772871561324403200,0.2934033203125,0.1296703815460205,0.1772163212299347,-0.19291219115257263
1772871561334336300,0.303336181640625,0.03670714795589447,0.09099941700696945,-0.3234025537967682
1772871561344269300,0.313269287109375,-0.09536673128604889,-0.16084560751914978,-0.49285444617271423
1772871561354202400,0.323202392578125,-0.03683764114975929,-0.09623731672763824,-0.45979583263397217
1772871561364136200,0.33313623046875,0.027656927704811096,-0.0007552724564447999,-0.3384994864463806
1772871561374069200,0.3430693359375,0.007539409212768078,0.04103771597146988,-0.22322216629981995
1772871561384002600,0.35300244140625,-0.021258417516946793,0.06679154932498932,-0.15228141844272614
1772871561393936400,0.362936279296875,-0.051112718880176544,0.08339235931634903,-0.10646305978298187
1772871561403869400,0.372869384765625,-0.0938202366232872,0.10569154471158981,-0.06447353214025497
1772871561413802500,0.382802490234375,-0.12428253889083862,0.15939445793628693,-0.05149728059768677
1772871561423735300,0.3927353515625,-0.12450118362903595,0.19106289744377136,-0.06487460434436798
1772871561433669400,0.40266943359375,-0.10338550806045532,0.20591402053833008,-0.08371167629957199
1772871561443602400,0.4126025390625,-0.08170364797115326,0.21309949457645416,-0.10434184968471527
1772871561453535200,0.42253515625,-0.0620439313352108,0.21775949001312256,-0.14613856375217438
1772871561463469300,0.43246923828125,-0.03725655749440193,0.21991665661334991,-0.19370955228805542
1772871561473402400,0.44240234375,-0.03236779198050499,0.2461482584476471,-0.2365827113389969
1772871561483335200,0.452335205078125,-0.03314436972141266,0.2655786871910095,-0.25517502427101135
1772871561493268200,0.462268310546875,-0.039800677448511124,0.2815967798233032,-0.24538366496562958
1772871561503202600,0.47220263671875,-0.0490487702190876,0.3241381347179413,-0.21876004338264465
1772871561513135400,0.48213525390625,-0.011202320456504822,0.4512649178504944,-0.18873795866966248
1772871561523068400,0.492068359375,0.06130170822143555,0.48561277985572815,-0.18562445044517517
1772871561533002500,0.50200244140625,0.08245226740837097,0.5036498308181763,-0.235696941614151
1772871561542935300,0.511935302734375,0.10499485582113266,0.4946081340312958,-0.28601524233818054
1772871561552868400,0.521868408203125,0.14829333126544952,0.42354515194892883,-0.3181798458099365
1772871561562801400,0.531801513671875,0.10783112794160843,0.4020632803440094,-0.35236018896102905
1772871561572735200,0.5417353515625,0.029533658176660538,0.4232383370399475,-0.3699144124984741
1772871561582668300,0.551668212890625,-0.02815653756260872,0.3931843042373657,-0.3264521360397339
1772871561592601300,0.561601318359375,-0.07696029543876648,0.38664332032203674,-0.22834129631519318
1772871561602535200,0.57153515625,-0.12732014060020447,0.3469773828983307,-0.11505495011806488
1772871561612468200,0.58146826171875,-0.16562677919864655,0.27482011914253235,-0.028331240639090538
1772871561622401300,0.5914013671875,-0.18628092110157013,0.2070293426513672,-0.032762739807367325
1772871561632334300,0.601334228515625,-0.1872764229774475,0.13656796514987946,-0.12083373963832855
1772871561642268400,0.611268310546875,-0.15433870255947113,0.10379936546087265,-0.24423104524612427
1772871561652201500,0.621201416015625,-0.04692303389310837,0.11972427368164062,-0.33680465817451477
1772871561662134500,0.631134521484375,0.0014122743159532547,0.09831351786851883,-0.3984227478504181
1772871561672068400,0.641068359375,-0.01739150658249855,0.11053263396024704,-0.42840781807899475
1772871561682001400,0.65100146484375,-0.00814847368746996,0.12303458154201508,-0.3642197549343109
1772871561691934500,0.6609345703125,-0.01847221702337265,0.13150076568126678,-0.25118428468704224
1772871561701867300,0.6708671875,-0.06136428937315941,0.13100434839725494,-0.18982400000095367
1772871561711801300,0.68080126953125,-0.1502600759267807,0.12469585984945297,-0.15736086666584015
1772871561721734400,0.690734375,-0.25354892015457153,0.09987705945968628,-0.1492547243833542
1772871561731667200,0.700667236328125,-0.33058109879493713,0.07620475441217422,-0.15789856016635895
1772871561741600300,0.710600341796875,-0.39530259370803833,0.05355137586593628,-0.1555381864309311
1772871561751534300,0.720534423828125,-0.4658806025981903,0.03338432312011719,-0.1338062733411789
1772871561761467100,0.730467041015625,-0.5285966992378235,0.01398532371968031,-0.11624165624380112
1772871561771400400,0.740400390625,-0.5840698480606079,0.0004170510219410062,-0.10428059846162796
1772871561781334500,0.75033447265625,-0.6437851190567017,0.0018658105982467532,-0.09833402931690216
1772871561791267300,0.760267333984375,-0.7151452898979187,0.021077588200569153,-0.07369499653577805
1772871561801200400,0.770200439453125,-0.7835233211517334,0.06563067436218262,-0.03737480193376541
1772871561811133400,0.780133544921875,-0.8247077465057373,0.1358390599489212,0.001987517112866044
1772871561821067300,0.7900673828125,-0.8385846614837646,0.22521474957466125,0.017002684995532036
1772871561831000300,0.800000244140625,-0.8285842537879944,0.34082895517349243,-0.0015627428656443954
1772871561840933400,0.809933349609375,-0.795293927192688,0.4524654746055603,-0.05410238355398178
1772871561850867200,0.8198671875,-0.7068127989768982,0.5014471411705017,-0.10618502646684647
1772871561860800300,0.82980029296875,-0.5469043850898743,0.435043066740036,-0.11506347358226776
1772871561870733300,0.8397333984375,-0.3722420036792755,0.2126254439353943,-0.07679038494825363
1772871561880666400,0.849666259765625,-0.2696368098258972,-0.041066475212574005,-0.06652230024337769
1772871561890600400,0.859600341796875,-0.2607591450214386,-0.2530282735824585,-0.1413150429725647
1772871561900533500,0.869533447265625,-0.33002158999443054,-0.44317078590393066,-0.307685911655426
1772871561910466600,0.879466552734375,-0.43930280208587646,-0.5957123637199402,-0.5633810758590698
1772871561920399400,0.8893994140625,-0.5054261684417725,-0.6789316534996033,-0.817405641078949
1772871561930333400,0.89933349609375,-0.4968039095401764,-0.615225076675415,-0.914693295955658
1772871561940266500,0.9092666015625,-0.4278416335582733,-0.4188862144947052,-0.8096816539764404
1772871561950199300,0.91919921875,-0.33908432722091675,-0.10856855660676956,-0.5469453930854797
1772871561960133400,0.92913330078125,-0.27283287048339844,0.26952415704727173,-0.2072937935590744
1772871561970066400,0.93906640625,-0.22770479321479797,0.705923855304718,0.13091540336608887
1772871561979999200,0.948999267578125,-0.18445585668087006,1.0230607986450195,0.4315021336078644
1772871561989932300,0.958932373046875,-0.15357890725135803,1.102764368057251,0.6631971597671509
1772871561999866400,0.968866455078125,-0.10777200013399124,0.9441941976547241,0.7876754403114319
1772871562009799200,0.978799072265625,-0.04598213732242584,0.5835915207862854,0.7445197105407715
1772871562019732200,0.988732177734375,0.034030936658382416,0.15802931785583496,0.5358138680458069
1772871562029666000,0.998666015625,0.15028750896453857,-0.23656220734119415,0.2139327973127365
1772871562039598800,1.008598876953125,0.3273419141769409,-0.5519502758979797,-0.0901690423488617
1772871562049532000,1.018531982421875,0.518088161945343,-0.8084017634391785,-0.2736557722091675
1772871562059465000,1.02846484375,0.6899102330207825,-0.907151460647583,-0.3453179895877838
1772871562069398800,1.038398681640625,0.8746129870414734,-0.9115161299705505,-0.3313036262989044
1772871562079331800,1.048331787109375,1.0392663478851318,-0.9004443287849426,-0.2498633712530136
1772871562089265000,1.058264892578125,1.1407320499420166,-0.7945280075073242,-0.1670001745223999
1772871562099198700,1.06819873046875,1.223253846168518,-0.613811731338501,-0.11562833189964294
1772871562109131800,1.0781318359375,1.3048197031021118,-0.44899991154670715,-0.016884973272681236
1772871562119064800,1.08806494140625,1.2981128692626953,-0.4478592574596405,0.12135279178619385
1772871562128998000,1.097997802734375,1.0929924249649048,-0.6118080019950867,0.21807081997394562
1772871562138932000,1.107931884765625,0.826143205165863,-0.8395237326622009,0.22184930741786957
1772871562148865000,1.117864990234375,0.6247555017471313,-1.077268123626709,0.1374068558216095
1772871562158798000,1.127798095703125,0.567633867263794,-1.2310606241226196,-0.04218926653265953
1772871562168731000,1.13773095703125,0.7620084285736084,-1.2598416805267334,-0.3177545368671417
1772871562178665000,1.1476650390625,1.12069833278656,-1.2459319829940796,-0.6406074166297913
1772871562188598000,1.157597900390625,1.4377431869506836,-1.2348670959472656,-0.9833360314369202
1772871562198530800,1.16753076171875,1.5080692768096924,-1.1658179759979248,-1.2982436418533325
1772871562208465000,1.17746484375,1.3305773735046387,-1.1860387325286865,-1.4130522012710571
1772871562218398000,1.18739794921875,0.9692590832710266,-1.0684927701950073,-1.2859259843826294
1772871562228330800,1.197330810546875,0.4699648320674896,-0.7019131183624268,-0.9425020217895508
1772871562238263800,1.207263916015625,-0.16648298501968384,-0.15222015976905823,-0.521831214427948
1772871562248198100,1.2171982421875,-0.7676929235458374,0.45386257767677307,-0.05211113765835762
1772871562258131000,1.227130859375,-1.1811214685440063,0.8966740965843201,0.4001713693141937
1772871562268064000,1.23706396484375,-1.346989631652832,1.085727572441101,0.713177502155304
1772871562277997000,1.2469970703125,-1.3021233081817627,1.0502697229385376,0.7881143093109131
1772871562287931000,1.256930908203125,-1.0318620204925537,1.035430669784546,0.6000168323516846
1772871562297864000,1.266864013671875,-0.613280713558197,0.7940481305122375,0.1807096004486084
1772871562307797000,1.276796875,-0.18445985019207,0.5554507374763489,-0.2584714889526367
1772871562317730800,1.286730712890625,0.19822387397289276,0.39510178565979004,-0.7157455682754517
1772871562327663900,1.296663818359375,0.39029479026794434,0.1249118447303772,-1.0955179929733276
1772871562337597000,1.306596923828125,0.43434959650039673,-0.13573439419269562,-1.2097043991088867
1772871562347530000,1.316530029296875,0.31148144602775574,-0.30928540229797363,-1.1668161153793335
1772871562357463800,1.3264638671875,0.04213866591453552,-0.331033319234848,-0.896094024181366
1772871562367396900,1.33639697265625,-0.2345656305551529,-0.37302470207214355,-0.7374697923660278
1772871562377330000,1.346329833984375,-0.34254562854766846,-0.3319028317928314,-0.6071711778640747
1772871562387262700,1.3562626953125,-0.2947349548339844,-0.1662297248840332,-0.5322990417480469
1772871562397197000,1.366197021484375,-0.20338214933872223,0.10990626364946365,-0.46936509013175964
1772871562407130000,1.376130126953125,-0.19105277955532074,0.5417602062225342,-0.4139540195465088
1772871562417063000,1.38606298828125,-0.2629493474960327,1.0192676782608032,-0.27567046880722046
1772871562426997000,1.3959970703125,-0.3488328158855438,1.3102874755859375,-0.017888452857732773
1772871562436930000,1.405929931640625,-0.4803905785083771,1.379441499710083,0.26488280296325684
1772871562446862800,1.41586279296875,-0.7231265306472778,1.253612756729126,0.4935702979564667
1772871562456796000,1.4257958984375,-1.0349688529968262,0.8100792765617371,0.6528398394584656
1772871562466730000,1.43572998046875,-1.219904899597168,0.27827343344688416,0.6890191435813904
1772871562476662800,1.445662841796875,-1.2161353826522827,-0.10627956688404083,0.4804441034793854
1772871562486595800,1.455595947265625,-1.0619487762451172,-0.38823962211608887,0.14076723158359528
1772871562496529000,1.46552880859375,-0.8582299947738647,-0.6402620077133179,-0.2081896811723709
1772871562506462700,1.475462646484375,-0.6828669905662537,-0.7979360818862915,-0.557536780834198
1772871562516395800,1.485395751953125,-0.5746864676475525,-0.7604605555534363,-0.7541598081588745
1772871562526328800,1.495328857421875,-0.5303727984428406,-0.3249261677265167,-0.8046813011169434
1772871562536263000,1.505262939453125,-0.40003901720046997,0.5360841751098633,-0.7756720185279846
1772871562546196000,1.515196044921875,-0.21704043447971344,1.2477977275848389,-0.6085879802703857
1772871562556129000,1.52512890625,-0.08149352669715881,1.386389970779419,-0.3093152344226837
1772871562566062000,1.53506201171875,-0.18636508285999298,0.933661937713623,0.2649019658565521
1772871562575996000,1.544995849609375,-0.6195024251937866,0.32407286763191223,1.0484750270843506
1772871562585929000,1.554928955078125,-1.0926084518432617,-0.2865864932537079,1.6345406770706177
1772871562595862000,1.564862060546875,-1.2728191614151,-0.47868403792381287,1.7323769330978394
1772871562605794800,1.574794921875,-0.986270010471344,-0.22648826241493225,1.2473093271255493
1772871562615729000,1.58472900390625,-0.3400627672672272,0.2664910852909088,0.3512965142726898
1772871562625662000,1.594661865234375,0.44150710105895996,0.8324117660522461,-0.580475926399231
1772871562635594800,1.6045947265625,1.1968629360198975,1.1100162267684937,-1.2539142370224
1772871562645529000,1.614529052734375,1.7914050817489624,0.9427164196968079,-1.7747305631637573
1772871562655462100,1.624462158203125,2.1593122482299805,0.4992540180683136,-2.1072137355804443
1772871562665395000,1.63439501953125,2.0963988304138184,-0.2089305818080902,-1.996459722518921
1772871562675328000,1.644327880859375,1.561430811882019,-0.8641605973243713,-1.4374550580978394
1772871562685262000,1.654261962890625,0.832876980304718,-1.237619161605835,-0.7932906746864319
1772871562695195000,1.66419482421875,0.2480979561805725,-1.2956358194351196,-0.3700595498085022
1772871562705128000,1.6741279296875,-0.061398912221193314,-1.1133278608322144,-0.20281542837619781
1772871562715061000,1.68406103515625,-0.10169094055891037,-0.8301088809967041,-0.2963283360004425
1772871562724994800,1.693994873046875,0.013244965113699436,-0.4687221944332123,-0.5423825979232788
1772871562734928000,1.703927978515625,0.13355140388011932,-0.10707718133926392,-0.7527217268943787
1772871562744861000,1.71386083984375,0.16015291213989258,0.255313515663147,-0.8043910264968872
1772871562754794000,1.7237939453125,0.06579738855361938,0.6660725474357605,-0.6020488142967224
1772871562764727800,1.733727783203125,-0.11707575619220734,0.8836397528648376,-0.10189254581928253
1772871562774660900,1.743660888671875,-0.35134151577949524,0.8026096224784851,0.5819499492645264
1772871562784594000,1.753593994140625,-0.6440079808235168,0.44118964672088623,1.1730045080184937
1772871562794526700,1.763526611328125,-0.9541967511177063,-0.2443990856409073,1.5395883321762085
1772871562804461000,1.7734609375,-1.2323559522628784,-0.8770721554756165,1.5866999626159668
1772871562814394000,1.78339404296875,-1.344334363937378,-1.1798104047775269,1.322123646736145
1772871562824327000,1.793326904296875,-1.2068942785263062,-1.0899015665054321,0.7954981923103333
1772871562834261000,1.803260986328125,-0.839000940322876,-0.5933783650398254,0.09375525265932083
1772871562844194000,1.813194091796875,-0.3592076897621155,0.09169503301382065,-0.6190539002418518
1772871562854126800,1.823126953125,0.10755575448274612,0.4417142868041992,-1.2113982439041138
1772871562864060000,1.833059814453125,0.4899294972419739,0.7122541666030884,-1.5954936742782593
1772871562873994000,1.842993896484375,0.6970872282981873,1.0110478401184082,-1.775726556777954
1772871562883926800,1.8529267578125,0.7163767218589783,1.0486457347869873,-1.6646631956100464
1772871562893859800,1.86285986328125,0.5154175162315369,0.8502181768417358,-1.440928339958191
1772871562903793000,1.87279296875,0.23525911569595337,0.1448642462491989,-1.0877149105072021
1772871562913726700,1.882726806640625,-0.08704275637865067,-0.5506508946418762,-0.5949152708053589
1772871562923659800,1.89265966796875,-0.25976234674453735,-0.8754135370254517,-0.10095085203647614
1772871562933593000,1.902593017578125,-0.24104377627372742,-0.8699785470962524,0.19965878129005432
1772871562943526100,1.912526123046875,-0.08631917834281921,-0.675895094871521,0.3389735221862793
1772871562953460000,1.9224599609375,0.07988284528255463,-0.3147425055503845,0.3062424957752228
1772871562963393000,1.93239306640625,0.20104922354221344,0.10396075248718262,0.12846636772155762
1772871562973326000,1.942326171875,0.243617445230484,0.44103172421455383,-0.07024113833904266
1772871562983259000,1.9522587890625,0.20108065009117126,0.6931750178337097,-0.16510267555713654
1772871562993193000,1.96219287109375,0.16007116436958313,0.7412427067756653,-0.09654384851455688
1772871563003126000,1.9721259765625,0.10117881745100021,0.5909112095832825,0.08854398131370544
1772871563013058800,1.982058837890625,-0.020374780520796776,0.3331020474433899,0.27861645817756653
1772871563022993000,1.991992919921875,-0.18585774302482605,0.12993349134922028,0.37587881088256836
1772871563032926500,2.001926513671875,-0.27326029539108276,-0.05293804779648781,0.30604061484336853
1772871563042859500,2.011859619140625,-0.223611518740654,-0.25977060198783875,0.08242084085941315
1772871563052792600,2.02179248046875,-0.08778578042984009,-0.5314175486564636,-0.24977600574493408
1772871563062726400,2.031726318359375,0.005028847139328718,-0.7120935916900635,-0.6058712601661682
1772871563072659500,2.041659423828125,0.08371619880199432,-0.8063295483589172,-0.8885123133659363
1772871563082592500,2.051592529296875,0.14263518154621124,-0.8184005618095398,-1.0303053855895996
1772871563092525600,2.061525634765625,0.1536039412021637,-0.7175701260566711,-0.8403820395469666
1772871563102459400,2.07145947265625,0.10526569932699203,-0.5767048597335815,-0.1978454440832138
1772871563112392400,2.081392333984375,0.06772631406784058,-0.3487188518047333,0.671402096748352
1772871563122325800,2.09132568359375,0.06368789821863174,-0.01636672206223011,1.3747261762619019
1772871563132258600,2.101258544921875,0.07467024028301239,0.29463961720466614,1.725222110748291
1772871563142192600,2.111192626953125,0.10660447180271149,0.5762451887130737,1.685856580734253
1772871563152125700,2.121125732421875,0.19199153780937195,0.7814332246780396,1.2855638265609741
1772871563162058500,2.13105859375,0.39164501428604126,0.9448032379150391,0.6377389430999756
1772871563171991600,2.140991455078125,0.7192077040672302,1.1152315139770508,-0.07851211726665497
1772871563181925600,2.150925537109375,1.0614066123962402,1.3446627855300903,-0.67081618309021
1772871563191858400,2.1608583984375,1.3023762702941895,1.459229826927185,-0.9606447815895081
1772871563201791500,2.17079150390625,1.3337472677230835,1.3411437273025513,-0.8523263335227966
1772871563211725600,2.1807255859375,1.1590704917907715,0.8925568461418152,-0.45371130108833313
1772871563221658400,2.190658447265625,0.8300231695175171,0.19255107641220093,-0.003421895671635866
1772871563231591400,2.20059130859375,0.4400154650211334,-0.47797563672065735,0.21975579857826233
1772871563241524500,2.2105244140625,0.07230881601572037,-0.9173649549484253,0.1806028038263321
1772871563251458600,2.22045849609375,-0.13378815352916718,-1.180601954460144,0.030427947640419006
1772871563261391600,2.2303916015625,-0.1477830708026886,-1.2070924043655396,-0.174110546708107
1772871563271324700,2.24032470703125,-0.05073188617825508,-0.9464182257652283,-0.3763810992240906
1772871563281257700,2.2502578125,0.06618034839630127,-0.41456255316734314,-0.5570847988128662
1772871563291191600,2.260191650390625,0.18450726568698883,0.21490804851055145,-0.6802645325660706
1772871563301124600,2.27012451171875,0.2602137327194214,0.6954152584075928,-0.6696542501449585
1772871563311057700,2.2800576171875,0.26096341013908386,0.9829349517822266,-0.49706730246543884
1772871563320990500,2.289990478515625,0.16299957036972046,1.0508044958114624,-0.15218740701675415
1772871563330924500,2.299924560546875,-0.028962941840291023,0.9208345413208008,0.35202276706695557
1772871563340857600,2.309857666015625,-0.2623578608036041,0.6888678669929504,0.9063386917114258
1772871563350790400,2.319790283203125,-0.5034157633781433,0.3788421154022217,1.3314132690429688
1772871563360723500,2.329723388671875,-0.7374013662338257,0.13055828213691711,1.5404490232467651
1772871563370657500,2.339657470703125,-0.8851625919342041,0.02959917113184929,1.4646337032318115
1772871563380590300,2.34959033203125,-0.8200607895851135,0.042575690895318985,1.1444895267486572
1772871563390523400,2.3595234375,-0.5426968336105347,0.0871032103896141,0.6891493797302246
1772871563400456400,2.36945654296875,-0.19405415654182434,0.20375312864780426,0.2556261718273163
1772871563410390500,2.379390625,0.08662676811218262,0.33810028433799744,-0.057736799120903015
1772871563420323600,2.389323486328125,0.24294234812259674,0.3728817105293274,-0.27919596433639526
1772871563430256600,2.399256591796875,0.29907965660095215,0.2873324453830719,-0.4458081126213074
1772871563440189700,2.409189697265625,0.2924680709838867,0.09547805041074753,-0.5362693071365356
1772871563450123500,2.41912353515625,0.2670380771160126,-0.1612863540649414,-0.5657970905303955
1772871563460056600,2.429056640625,0.2559513449668884,-0.43136072158813477,-0.5698232650756836
1772871563469989600,2.43898974609375,0.27276575565338135,-0.6846217513084412,-0.5711103677749634
1772871563479922400,2.44892236328125,0.27667129039764404,-0.9094407558441162,-0.5656343698501587
1772871563489856500,2.4588564453125,0.24186083674430847,-1.0655986070632935,-0.5736038684844971
1772871563499789600,2.46878955078125,0.1739148050546646,-1.1125123500823975,-0.5933863520622253
1772871563509722400,2.478722412109375,0.09946427494287491,-1.0825086832046509,-0.6153750419616699
1772871563519655400,2.488655517578125,-0.0257535669952631,-0.8450372815132141,-0.625077486038208
1772871563529589800,2.49858984375,-0.1409989297389984,-0.4772736132144928,-0.6074260473251343
1772871563539522600,2.5085224609375,-0.14627332985401154,-0.12483114749193192,-0.49872565269470215
1772871563549455600,2.51845556640625,-0.08566723018884659,0.09081938862800598,-0.26497840881347656
1772871563559389700,2.5283896484375,-0.05569974705576897,0.17331719398498535,0.04328435659408569
1772871563569322500,2.538322509765625,-0.04271497204899788,0.21437327563762665,0.32439911365509033
1772871563579255600,2.548255615234375,-0.0021409152541309595,0.12426283210515976,0.49724307656288147
1772871563589188600,2.558188720703125,0.06912980228662491,-0.06967654824256897,0.5820870995521545
1772871563599122400,2.568122314453125,0.13797570765018463,-0.22328528761863708,0.5660948157310486
1772871563609055500,2.578055419921875,0.20897452533245087,-0.3411506712436676,0.4219227433204651
1772871563618988500,2.587988525390625,0.2552088499069214,-0.44296279549598694,0.17629674077033997
1772871563628921600,2.597921630859375,0.15005367994308472,-0.6316403150558472,-0.1295665204524994
1772871563638855400,2.60785546875,-0.11976394802331924,-0.7855992317199707,-0.48251792788505554
1772871563648788500,2.61778857421875,-0.3698725998401642,-0.8362802267074585,-0.8033974170684814
1772871563658721500,2.627721435546875,-0.36045724153518677,-0.7309051156044006,-1.0323683023452759
1772871563668654300,2.637654296875,0.003579821204766631,-0.8106443881988525,-1.111251950263977
1772871563678588700,2.647588623046875,0.4051285982131958,-1.2105337381362915,-0.9999562501907349
1772871563688521700,2.657521728515625,0.47188204526901245,-1.4117382764816284,-0.566581130027771
1772871563698454500,2.66745458984375,0.196524515748024,-1.225811243057251,0.14831756055355072
1772871563708387600,2.6773876953125,-0.0749589279294014,-0.6694044470787048,0.9799764156341553
1772871563718321700,2.68732177734375,-0.11932612955570221,0.1373828947544098,1.6039289236068726
1772871563728254500,2.69725439453125,-0.009344233199954033,0.9693067669868469,1.7846870422363281
1772871563738187500,2.7071875,0.18138444423675537,1.532659888267517,1.4648102521896362
1772871563748120600,2.71712060546875,0.4393848180770874,1.6276979446411133,0.7700186967849731
1772871563758054400,2.727054443359375,0.7010492086410522,1.2516348361968994,-0.032654616981744766
1772871563767987500,2.736987548828125,0.9030225276947021,0.5781773328781128,-0.6449837684631348
1772871563777920500,2.74692041015625,0.9646142721176147,-0.11408049613237381,-0.9197530150413513
1772871563787853600,2.756853515625,0.8585799336433411,-0.5061888694763184,-0.8870542049407959
1772871563797787400,2.766787353515625,0.6492578983306885,-0.6062137484550476,-0.7087768912315369
1772871563807720400,2.776720458984375,0.38775917887687683,-0.512789785861969,-0.48125210404396057
1772871563817653800,2.78665380859375,0.11644245684146881,-0.31809327006340027,-0.25631460547447205
1772871563827586600,2.796586669921875,-0.0985281690955162,-0.14967603981494904,-0.11144690215587616
1772871563837520600,2.806520751953125,-0.21073167026042938,-0.061233796179294586,-0.06545224040746689
1772871563847453700,2.81645361328125,-0.2221694141626358,-0.001282045734114945,-0.08204133808612823
1772871563857386500,2.826386474609375,-0.14505013823509216,0.1314419060945511,-0.0881519615650177
1772871563867319600,2.836319580078125,-0.007014233618974686,0.3034067451953888,-0.015629559755325317
1772871563877253600,2.846253662109375,0.12824904918670654,0.5004585385322571,0.16613571345806122
1772871563887186400,2.8561865234375,0.21433545649051666,0.7029101848602295,0.441724956035614
1772871563897119500,2.866119384765625,0.208572119474411,0.8413761854171753,0.7643740773200989
1772871563907053600,2.876053466796875,0.15429715812206268,0.8932641744613647,1.0716235637664795
1772871563916986400,2.885986328125,0.047816790640354156,0.7985424399375916,1.2783952951431274
1772871563926919400,2.89591943359375,-0.10367979109287262,0.5450963377952576,1.292154312133789
1772871563936852500,2.9058525390625,-0.2829347550868988,0.1903505027294159,1.1187976598739624
1772871563946785500,2.91578564453125,-0.469301700592041,-0.16914135217666626,0.8354328274726868
1772871563956719600,2.9257197265625,-0.5809033513069153,-0.42154884338378906,0.4894442558288574
1772871563966652700,2.935652587890625,-0.570982813835144,-0.44032570719718933,0.0907733142375946
1772871563976585700,2.945585693359375,-0.4351131021976471,-0.25607919692993164,-0.3464412987232208
1772871563986518500,2.9555185546875,-0.24502307176589966,0.044618599116802216,-0.7251593470573425
1772871563996452600,2.96545263671875,-0.08407226949930191,0.33075955510139465,-0.960048258304596
1772871564006385700,2.9753857421875,0.03771941363811493,0.4827283024787903,-1.0154640674591064
1772871564016318500,2.985318359375,0.0677414983510971,0.39490363001823425,-0.8997782468795776
1772871564026251500,2.99525146484375,-0.006481867749243975,0.13450907170772552,-0.6609600782394409
1772871564036185300,3.005185302734375,-0.1556314080953598,-0.177903413772583,-0.38565075397491455
1772871564046118100,3.0151181640625,-0.3092667758464813,-0.4178933799266815,-0.14571379125118256
1772871564056051200,3.02505126953125,-0.392336368560791,-0.5429272055625916,0.016380304470658302
1772871564065984300,3.034984375,-0.3970578610897064,-0.5126497149467468,0.14606505632400513
1772871564075918000,3.04491796875,-0.3556041717529297,-0.3023148477077484,0.2417396605014801
1772871564085851100,3.05485107421875,-0.25590822100639343,0.00484295841306448,0.2625826299190521
1772871564095784200,3.0647841796875,-0.1068420261144638,0.29151707887649536,0.1904466450214386
1772871564105717200,3.07471728515625,0.03687599301338196,0.47598251700401306,0.07450086623430252
1772871564115651000,3.084651123046875,0.12982670962810516,0.5318021178245544,-0.028750954195857048
1772871564125584100,3.094584228515625,0.16135214269161224,0.4128386974334717,-0.02034734934568405
1772871564135517200,3.10451708984375,0.11643579602241516,0.15155410766601562,0.1059352234005928
1772871564145450200,3.1144501953125,0.031255125999450684,-0.14917750656604767,0.2477341741323471
1772871564155384000,3.124384033203125,-0.03358832001686096,-0.37789642810821533,0.310109406709671
1772871564165317000,3.134317138671875,-0.08237583190202713,-0.46537619829177856,0.2905535399913788
1772871564175250200,3.144250244140625,-0.17759555578231812,-0.3855583369731903,0.21235300600528717
1772871564185183000,3.154182861328125,-0.2370876520872116,-0.15436400473117828,0.014795990660786629
1772871564195117300,3.164117431640625,-0.1742519587278366,0.05645661801099777,-0.3511010408401489
1772871564205050000,3.174050048828125,0.0065476479940116405,0.04747670516371727,-0.9157124757766724
1772871564214983200,3.183983154296875,0.1656598001718521,-0.1619414985179901,-1.5337631702423096
1772871564224916200,3.193916259765625,0.18362654745578766,-0.4644222557544708,-2.0906500816345215
1772871564234850000,3.20385009765625,0.09748367965221405,-0.8218674659729004,-2.4792943000793457
1772871564244783000,3.213783203125,-0.06601976603269577,-0.9788243174552917,-2.2955398559570312
1772871564254716200,3.223716064453125,-0.24847212433815002,-1.1767560243606567,-1.4290826320648193
1772871564264649200,3.233649169921875,-0.39579153060913086,-1.2073224782943726,-0.3025508224964142
1772871564274583000,3.2435830078125,-0.515029788017273,-0.8290556073188782,0.6390691995620728
1772871564284516000,3.25351611328125,-0.5681566596031189,-0.17396754026412964,1.130698323249817
1772871564294449200,3.26344921875,-0.504482090473175,0.4188624918460846,1.103585958480835
1772871564304383200,3.27338330078125,-0.40143904089927673,0.765558660030365,0.7516516447067261
1772871564314316300,3.28331640625,-0.19815009832382202,0.9871123433113098,0.45847010612487793
1772871564324249300,3.293249267578125,0.20606368780136108,1.016085147857666,0.38775306940078735
1772871564334182100,3.30318212890625,0.7027837038040161,1.015777349472046,0.29229605197906494
1772871564344116200,3.3131162109375,1.0914872884750366,0.8708747029304504,-0.051299408078193665
1772871564354049300,3.32304931640625,1.1868339776992798,0.44557985663414,-0.5414986610412598
1772871564363982000,3.332982177734375,0.9800163507461548,-0.22101600468158722,-1.0089691877365112
1772871564373915100,3.3429150390625,0.6896114349365234,-0.8337526321411133,-1.3374533653259277
1772871564383849200,3.35284912109375,0.4808686077594757,-1.2630784511566162,-1.4282561540603638
1772871564393782000,3.362781982421875,0.3813883662223816,-1.3273913860321045,-1.2425944805145264
1772871564403715000,3.372715087890625,0.3185175359249115,-1.0950071811676025,-0.7936062812805176
1772871564413648100,3.382648193359375,0.2609192132949829,-0.5760553479194641,-0.20069529116153717
1772871564423581200,3.392581298828125,0.23269423842430115,0.14407168328762054,0.3978613615036011
1772871564433515000,3.402514892578125,0.21822021901607513,0.8599621653556824,0.913416862487793
1772871564443448000,3.412447998046875,0.15709587931632996,1.4431304931640625,1.3051843643188477
1772871564453381000,3.422381103515625,0.029316077008843422,1.830560564994812,1.5830212831497192
1772871564463315200,3.432315185546875,-0.17573507130146027,1.9602705240249634,1.7881978750228882
1772871564473248300,3.442248291015625,-0.3565482795238495,1.821332335472107,1.9001436233520508
1772871564483181300,3.452181396484375,-0.4696796238422394,1.447058916091919,1.8870117664337158
1772871564493114000,3.462114013671875,-0.5535635948181152,0.991126298904419,1.7398815155029297
1772871564503047200,3.472047119140625,-0.6249775886535645,0.6383072733879089,1.4673479795455933
1772871564512981200,3.481981201171875,-0.679619550704956,0.4176137447357178,1.14488685131073
1772871564522914000,3.4919140625,-0.6172325611114502,0.4792342483997345,0.8282228708267212
1772871564532847000,3.50184716796875,-0.4428645074367523,0.6660046577453613,0.5247748494148254
1772871564542780200,3.5117802734375,-0.1649886816740036,0.8113634586334229,0.11641715466976166
1772871564552714000,3.5217138671875,0.10228509455919266,0.8338344097137451,-0.40466412901878357
1772871564562647000,3.53164697265625,0.2829616665840149,0.6573895812034607,-0.8661838173866272
1772871564572580000,3.541580078125,0.325769305229187,0.3346906304359436,-1.1351969242095947
1772871564582513200,3.55151318359375,0.18645137548446655,-0.04542287439107895,-1.169027328491211
1772871564592447200,3.561447265625,-0.07474188506603241,-0.369515985250473,-1.0137500762939453
1772871564602380300,3.57138037109375,-0.3420628011226654,-0.5620571970939636,-0.7053632140159607
1772871564612313300,3.581313232421875,-0.5089694857597351,-0.6721858382225037,-0.33846646547317505
1772871564622246100,3.59124609375,-0.5579620599746704,-0.6571488380432129,-0.004999286029487848
1772871564632180200,3.60118017578125,-0.5100715160369873,-0.524448037147522,0.2479991465806961
1772871564642113300,3.61111328125,-0.40139323472976685,-0.3224925696849823,0.37412112951278687
1772871564652046000,3.621046142578125,-0.2451825886964798,-0.08294148743152618,0.36085620522499084
1772871564661979100,3.630979248046875,-0.09195335954427719,0.0968642309308052,0.2669968008995056
1772871564671913200,3.640913330078125,-0.010484598577022552,0.1912280172109604,0.17226152122020721
1772871564681846000,3.650845947265625,-0.03248950093984604,0.2658716142177582,0.13691283762454987
1772871564691779000,3.660779052734375,-0.11342376470565796,0.34805038571357727,0.18221747875213623
1772871564701712100,3.670712158203125,-0.1690548062324524,0.418643593788147,0.2819019854068756
1772871564711646200,3.680646240234375,-0.11459395289421082,0.4848601520061493,0.36661022901535034
1772871564721579000,3.6905791015625,0.02641882374882698,0.47818467020988464,0.3895251154899597
1772871564731512000,3.700511962890625,0.12817847728729248,0.5399641394615173,0.3706164062023163
1772871564741445000,3.710445068359375,0.1101379543542862,0.6006352305412292,0.3114931583404541
1772871564751379200,3.720379150390625,0.030306773260235786,0.49793389439582825,0.13469842076301575
1772871564761312300,3.730312255859375,-0.13564598560333252,0.15106354653835297,-0.21562257409095764
1772871564771245300,3.740245361328125,-0.3572736978530884,-0.3826368451118469,-0.6885600090026855
1772871564781178000,3.75017822265625,-0.6791915893554688,-0.7528026700019836,-1.193467140197754
1772871564791112200,3.7601123046875,-0.8789685964584351,-1.1214007139205933,-1.6641970872879028
1772871564801045200,3.770045166015625,-0.8053606748580933,-1.2333234548568726,-1.8709944486618042
1772871564810978000,3.77997802734375,-0.5559694766998291,-1.3630926609039307,-1.5297287702560425
1772871564820911000,3.7899111328125,-0.31122925877571106,-1.637574315071106,-0.6897030472755432
1772871564830845200,3.79984521484375,-0.2010801136493683,-1.4477462768554688,0.3446093201637268
1772871564840778200,3.8097783203125,-0.25486689805984497,-0.8695042729377747,1.128067135810852
1772871564850711000,3.8197109375,-0.34915345907211304,-0.21517808735370636,1.5002049207687378
1772871564860644000,3.82964404296875,-0.35987722873687744,0.31934231519699097,1.393024206161499
1772871564870578200,3.839578125,-0.17740194499492645,0.641003429889679,0.9531442523002625
1772871564880511200,3.84951123046875,0.26087525486946106,0.9088926911354065,0.4242101311683655
1772871564890444300,3.8594443359375,0.8395370244979858,1.0784598588943481,0.049276202917099
1772871564900377300,3.86937744140625,1.3704464435577393,1.1786082983016968,-0.07897817343473434
1772871564910311200,3.879311279296875,1.6502083539962769,1.0078685283660889,-0.05663052201271057
1772871564920244200,3.889244140625,1.494482398033142,0.41638922691345215,0.01691346988081932
1772871564930177300,3.89917724609375,0.9715720415115356,-0.2915303707122803,-0.014274010434746742
1772871564940110000,3.909110107421875,0.42372170090675354,-0.8788356781005859,-0.23613104224205017
1772871564950043100,3.919043212890625,0.04999685287475586,-1.3324711322784424,-0.5282369256019592
1772871564959977200,3.928977294921875,-0.1889326423406601,-1.3773466348648071,-0.7171362638473511
1772871564969908200,3.938908203125,-0.29781144857406616,-1.0241923332214355,-0.6867030262947083
1772871564979841300,3.94884130859375,-0.22777511179447174,-0.4460568428039551,-0.4310121238231659
1772871564989774300,3.9587744140625,-0.03056749701499939,0.19290687143802643,-0.01660800538957119
1772871564999708200,3.968708251953125,0.13616423308849335,0.6580247282981873,0.45454567670822144
1772871565009641200,3.97864111328125,0.151340514421463,0.929557740688324,0.8549578189849854
1772871565019574300,3.98857421875,0.027895281091332436,1.0200258493423462,1.1125293970108032
1772871565029507000,3.998507080078125,-0.1767209768295288,0.9731030464172363,1.2641456127166748
1772871565039440400,4.0084404296875,-0.39553987979888916,0.8243463635444641,1.3114699125289917
1772871565049373400,4.01837353515625,-0.566436767578125,0.6536654233932495,1.2745784521102905
1772871565059306500,4.028306396484375,-0.6641106009483337,0.47308871150016785,1.1331406831741333
1772871565069239300,4.0382392578125,-0.6856617331504822,0.3349899649620056,0.9097771048545837
1772871565079173400,4.04817333984375,-0.6000344157218933,0.28325408697128296,0.6713847517967224
1772871565089106400,4.0581064453125,-0.4172491729259491,0.29550889134407043,0.4443899691104889
1772871565099039200,4.068039306640625,-0.16815678775310516,0.3612511456012726,0.192134290933609
1772871565108972300,4.07797216796875,0.03334224224090576,0.2926497161388397,-0.09580136090517044
1772871565118906600,4.08790673828125,0.15673474967479706,0.12040737271308899,-0.38123205304145813
1772871565128839400,4.09783935546875,0.2440779060125351,-0.029166141524910927,-0.5602222681045532
1772871565138772500,4.1077724609375,0.28867998719215393,-0.15271151065826416,-0.595199704170227
1772871565148705500,4.11770556640625,0.2969171702861786,-0.2287175953388214,-0.5369047522544861
1772871565158639400,4.127639404296875,0.242606520652771,-0.2649427056312561,-0.4151647090911865
1772871565168572400,4.137572509765625,0.13968946039676666,-0.269734263420105,-0.2397899627685547
1772871565178505500,4.14750537109375,-0.002561428351327777,-0.23978810012340546,-0.0518709197640419
1772871565188438500,4.1574384765625,-0.1335093230009079,-0.1806294322013855,0.1058201715350151
1772871565198371300,4.167371337890625,-0.21652750670909882,-0.07749132812023163,0.1586732715368271
1772871565208305400,4.177305419921875,-0.23077861964702606,0.07532884180545807,0.09713320434093475
1772871565218238500,4.187238525390625,-0.17302876710891724,0.2290443629026413,-0.027392741292715073
1772871565228171300,4.197171142578125,-0.07689584791660309,0.33323174715042114,-0.12122389674186707
1772871565238104300,4.207104248046875,0.014658304862678051,0.3684097230434418,-0.12462688237428665
1772871565248038700,4.21703857421875,0.07632912695407867,0.371049702167511,-0.036259472370147705
1772871565257971500,4.226971435546875,0.08424270898103714,0.32479700446128845,0.10498207807540894
1772871565267904500,4.236904541015625,0.03930586203932762,0.20930048823356628,0.27969077229499817
1772871565277837600,4.246837646484375,-0.05248717591166496,0.09472145140171051,0.4414122998714447
1772871565287771400,4.256771484375,-0.1325652301311493,0.05194682255387306,0.563080906867981
1772871565297704400,4.266704345703125,-0.16645023226737976,0.03154674172401428,0.605815052986145
1772871565307637500,4.276637451171875,-0.11859162896871567,0.0029254823457449675,0.5516549348831177
1772871565317570600,4.286570556640625,-0.03916657716035843,0.043586891144514084,0.43507397174835205
1772871565327504400,4.29650439453125,0.051837097853422165,0.046065494418144226,0.2772068381309509
1772871565337437400,4.3064375,0.11755459010601044,-0.09517578035593033,-0.026385001838207245
1772871565347372500,4.31637255859375,0.18372535705566406,-0.43596214056015015,-0.5482721328735352
1772871565357305600,4.3263056640625,0.24749474227428436,-1.2278165817260742,-1.2605023384094238
1772871565367239400,4.336239501953125,0.000287088769255206,-1.5759942531585693,-1.8237169981002808
1772871565377172500,4.34617236328125,-0.2877686619758606,-1.5281516313552856,-1.7778732776641846
1772871565387105500,4.35610546875,-0.3955744802951813,-1.0180857181549072,-0.9758946299552917
1772871565397038300,4.366038330078125,-0.3003763258457184,-0.5265663266181946,0.09207240492105484
1772871565406972400,4.375972412109375,-0.2635064721107483,-0.06528712809085846,0.8148567080497742
1772871565416905500,4.385905517578125,-0.36587199568748474,0.3533543348312378,1.0648574829101562
1772871565426838300,4.39583837890625,-0.5172029137611389,0.7580962181091309,0.9967724680900574
1772871565436771300,4.405771240234375,-0.5527702569961548,0.73775714635849,0.711840033531189
1772871565446704400,4.415704345703125,-0.38546299934387207,0.5798135995864868,0.3133033215999603
1772871565456638500,4.425638427734375,-0.048775263130664825,0.6641265749931335,0.053336191922426224
1772871565466571300,4.4355712890625,0.4125311076641083,0.9012802839279175,0.15287582576274872
1772871565476504300,4.44550439453125,0.9681037664413452,1.190605878829956,0.31112992763519287
1772871565486437400,4.455437255859375,1.3796521425247192,1.1880944967269897,0.20112964510917664
1772871565496371500,4.465371337890625,1.4268453121185303,0.7355394959449768,-0.18171599507331848
1772871565506304500,4.475304443359375,1.0806697607040405,-0.06545756757259369,-0.7033807635307312
1772871565516237600,4.485237548828125,0.5880395174026489,-0.9329361915588379,-1.188991665840149
1772871565526170400,4.49517041015625,0.20723174512386322,-1.5366684198379517,-1.3849164247512817
1772871565536104400,4.5051044921875,0.031383756548166275,-1.7795921564102173,-1.1540100574493408
1772871565546037500,4.51503759765625,0.025908563286066055,-1.6621054410934448,-0.6656155586242676
1772871565555970300,4.52497021484375,0.1429225355386734,-1.2224260568618774,-0.15804874897003174
1772871565565903400,4.5349033203125,0.26830148696899414,-0.6089938282966614,0.23529507219791412
1772871565575837400,4.54483740234375,0.28415635228157043,0.034699924290180206,0.515326738357544
1772871565585770500,4.5547705078125,0.16654051840305328,0.5812418460845947,0.7341834306716919
1772871565595703300,4.564703369140625,-0.047382693737745285,1.0025616884231567,0.9100942611694336
1772871565605636400,4.57463623046875,-0.3061836361885071,1.2230501174926758,1.0023118257522583
1772871565615570400,4.5845703125,-0.4918381869792938,1.136171579360962,0.8836850523948669
1772871565625503200,4.594503173828125,-0.6041479706764221,0.8920678496360779,0.5526501536369324
1772871565635436500,4.6044365234375,-0.6639047265052795,0.6271603107452393,0.31251049041748047
1772871565645369600,4.61436962890625,-0.6448684930801392,0.5032737851142883,0.3445693552494049
1772871565655303400,4.624303466796875,-0.5413466095924377,0.5356133580207825,0.4245952367782593
1772871565665236500,4.634236572265625,-0.3111885190010071,0.5568773746490479,0.5591839551925659
1772871565675169500,4.64416943359375,-0.05853122100234032,0.40514349937438965,0.6625950336456299
1772871565685102300,4.654102294921875,0.15595018863677979,0.2693409323692322,0.541260838508606
1772871565695035400,4.664035400390625,0.24422384798526764,0.3131280839443207,0.09188225120306015
1772871565704969500,4.673969482421875,0.274736225605011,0.23703305423259735,-0.3070787191390991
1772871565714902500,4.683902587890625,0.32444092631340027,0.12386548519134521,-0.47822198271751404
1772871565724835300,4.69383544921875,0.3135371506214142,0.03050304763019085,-0.5123652815818787
1772871565734768400,4.703768310546875,0.14951571822166443,-0.1028938889503479,-0.42906373739242554
1772871565744702500,4.713702392578125,-0.1472693383693695,-0.3721911311149597,-0.267564594745636
1772871565754635300,4.72363525390625,-0.3184773027896881,-0.7100061774253845,-0.11066526174545288
1772871565764568300,4.733568359375,-0.3027958273887634,-0.9393182396888733,0.057682204991579056
1772871565774501400,4.74350146484375,-0.20270544290542603,-0.943073034286499,0.23931804299354553
1772871565784435500,4.753435546875,-0.07249604165554047,-0.7514905333518982,0.4001724421977997
1772871565794368500,4.763368408203125,0.06421813368797302,-0.4914003610610962,0.5035268068313599
1772871565804301600,4.773301513671875,0.1655665934085846,-0.14738598465919495,0.5200328230857849
1772871565814234400,4.783234375,0.18631847202777863,0.1648760288953781,0.4781825542449951
1772871565824167400,4.79316748046875,0.15061134099960327,0.33419421315193176,0.4347195029258728
1772871565834101500,4.8031015625,0.09172485768795013,0.4327186644077301,0.40578505396842957
1772871565844034600,4.81303466796875,0.016596287488937378,0.48110297322273254,0.4070362150669098
1772871565853967400,4.82296728515625,-0.034748394042253494,0.4619458019733429,0.43756401538848877
1772871565863900400,4.832900390625,-0.03563788905739784,0.39524930715560913,0.4763106107711792
1772871565873834500,4.84283447265625,-0.0019214707426726818,0.3287225067615509,0.48799630999565125
1772871565883767300,4.852767333984375,0.057341318577528,0.27449628710746765,0.4367147386074066
1772871565893700400,4.862700439453125,0.08965452015399933,0.31368017196655273,0.33024317026138306
1772871565903633400,4.87263330078125,0.1266293078660965,0.3489079177379608,0.11994611471891403
1772871565913567200,4.882567138671875,0.1737225204706192,0.2750414311885834,-0.18174156546592712
1772871565923500300,4.892500244140625,0.23974761366844177,-0.03015204332768917,-0.5747472047805786
1772871565933433600,4.90243359375,0.25516918301582336,-0.5465608239173889,-1.0166054964065552
1772871565943366400,4.912366455078125,0.13402624428272247,-0.9103853702545166,-1.4256141185760498
1772871565953300500,4.922300537109375,0.014315023086965084,-0.9638637900352478,-1.6434135437011719
1772871565963233500,4.932233642578125,-0.10222836583852768,-0.7516300678253174,-1.3740345239639282
1772871565973166600,4.94216650390625,-0.19113613665103912,-0.5703553557395935,-0.7180231213569641
1772871565983099400,4.952099365234375,-0.3023073971271515,-0.36845606565475464,0.07378660887479782
1772871565993033500,4.962033447265625,-0.42626050114631653,-0.09105826914310455,0.7948819398880005
1772871566002966500,4.971966552734375,-0.4228503108024597,0.22918790578842163,1.2639812231063843
1772871566012899300,4.9818994140625,-0.2745588421821594,0.3971553444862366,1.2899314165115356
1772871566022832400,4.991832275390625,-0.11530475318431854,0.3994946777820587,0.9427254796028137
1772871566032765700,5.001765625,0.0368935689330101,0.18051864206790924,0.42107531428337097
1772871566042699500,5.011699462890625,0.22860680520534515,-0.07072876393795013,-0.07635336369276047
1772871566052632600,5.021632568359375,0.4391978681087494,-0.15339460968971252,-0.33951520919799805
1772871566062565600,5.031565673828125,0.6961175203323364,-0.049489520490169525,-0.28524264693260193
1772871566072498400,5.04149853515625,0.939491868019104,0.17920996248722076,-0.049144111573696136
1772871566082432800,5.051432861328125,1.0011413097381592,0.37347611784935,0.22634285688400269
1772871566092365800,5.06136572265625,0.7965980768203735,0.46709340810775757,0.42780593037605286
1772871566102298600,5.071298583984375,0.44203200936317444,0.4626224935054779,0.48250967264175415
1772871566112231700,5.081231689453125,0.14721927046775818,0.41641372442245483,0.3956437408924103
1772871566122165800,5.091165771484375,-0.02539297379553318,0.2770896553993225,0.2578328847885132
1772871566132098600,5.1010986328125,-0.13774961233139038,0.16600148379802704,0.07859121263027191
1772871566142031600,5.111031494140625,-0.16650162637233734,0.05753280222415924,-0.17735853791236877
1772871566151964700,5.120964599609375,-0.0998552218079567,-0.12171977758407593,-0.48556482791900635
1772871566161898500,5.1308984375,0.0033593112602829933,-0.3035236597061157,-0.7861851453781128
1772871566171831600,5.14083154296875,0.09443861991167068,-0.40114662051200867,-0.9518385529518127
1772871566181764600,5.1507646484375,0.11602433770895004,-0.4018968343734741,-0.8922412395477295
1772871566191697700,5.16069775390625,0.0876864418387413,-0.24439935386180878,-0.6020698547363281
1772871566201630700,5.170630615234375,0.017890317365527153,-0.06085163354873657,-0.14918895065784454
1772871566211564800,5.180564697265625,-0.12707512080669403,0.06621896475553513,0.3125975728034973
1772871566221497900,5.190497802734375,-0.3214973509311676,0.08600332587957382,0.6627923250198364
1772871566231430700,5.2004306640625,-0.5329749584197998,0.028366127982735634,0.8672370910644531
1772871566241363700,5.21036376953125,-0.735973596572876,-0.08729016035795212,0.9084292650222778
1772871566251297800,5.2202978515625,-0.8811342716217041,-0.15210218727588654,0.793200671672821
1772871566261230600,5.230230712890625,-0.9302150011062622,-0.039327964186668396,0.5386568307876587
1772871566271163600,5.24016357421875,-0.7927740216255188,0.2419670969247818,0.2508801519870758
1772871566281096700,5.2500966796875,-0.44893065094947815,0.4932728111743927,0.043407659977674484
1772871566291030500,5.260030517578125,-0.00040240364614874125,0.6390686631202698,-0.04063264653086662
1772871566300963600,5.269963623046875,0.39930930733680725,0.6141273379325867,-0.0511539988219738
1772871566310896600,5.279896728515625,0.6030302047729492,0.3621979057788849,-0.03263038024306297
1772871566320829700,5.28982958984375,0.5921421647071838,-0.006924218963831663,-0.0390416756272316
1772871566330762800,5.2997626953125,0.45551371574401855,-0.4302690923213959,-0.11412817239761353
1772871566340696600,5.309696533203125,0.2722003757953644,-0.7638542652130127,-0.23603090643882751
1772871566350629600,5.319629638671875,0.11182373762130737,-0.9071035385131836,-0.33431434631347656
1772871566360562700,5.329562744140625,-0.02882206067442894,-0.8413410782814026,-0.3528864085674286
1772871566370495500,5.33949560546875,-0.1234646812081337,-0.5898033380508423,-0.2706621289253235
1772871566380429800,5.349429931640625,-0.13331438601016998,-0.25437554717063904,-0.14442695677280426
1772871566390362600,5.359362548828125,-0.06232063099741936,0.04878884553909302,-0.02076679654419422
1772871566400295700,5.369295654296875,0.056778326630592346,0.2545694410800934,0.10228802263736725
1772871566410228700,5.379228759765625,0.15477147698402405,0.3092752993106842,0.2174692004919052
1772871566420162600,5.38916259765625,0.2132965624332428,0.28952130675315857,0.2999363839626312
1772871566430095600,5.399095703125,0.25913649797439575,0.21219535171985626,0.34459811449050903
1772871566440028700,5.409028564453125,0.3237043023109436,0.16312581300735474,0.3074225187301636
1772871566449961700,5.418961669921875,0.42828503251075745,0.11793675273656845,0.20027689635753632
1772871566459894800,5.428894775390625,0.5379968881607056,-0.02177853137254715,0.020615529268980026
1772871566469828600,5.43882861328125,0.6076257824897766,-0.2067374587059021,-0.35452932119369507
1772871566479761700,5.44876171875,0.6611321568489075,-0.49336737394332886,-1.0507230758666992
1772871566489694700,5.45869482421875,0.758974015712738,-0.9103550314903259,-1.9380593299865723
1772871566499627500,5.46862744140625,0.8452143669128418,-1.1124674081802368,-2.7425477504730225
1772871566509561900,5.478561767578125,0.7440917491912842,-0.942110002040863,-3.0226423740386963
1772871566519494700,5.48849462890625,0.46863698959350586,-0.5348405241966248,-2.1981024742126465
1772871566529427700,5.498427734375,0.09076452255249023,-0.44775301218032837,-0.6161550879478455
1772871566539360800,5.50836083984375,-0.3867549002170563,-0.277726411819458,0.7922792434692383
1772871566549294600,5.518294677734375,-0.7770278453826904,0.0068331388756632805,1.448465347290039
1772871566559227600,5.5282275390625,-1.0156632661819458,0.13007678091526031,1.5473886728286743
1772871566569160700,5.53816064453125,-1.0216871500015259,0.011062238365411758,1.4282865524291992
1772871566579093800,5.54809375,-0.8062006235122681,-0.231438547372818,1.2783721685409546
1772871566589026800,5.55802685546875,-0.38688939809799194,-0.46811580657958984,1.06224524974823
1772871566598960600,5.567960693359375,0.03423413634300232,-0.5166543126106262,0.8200908899307251
1772871566608893700,5.577893798828125,0.2685457170009613,-0.40590834617614746,0.6693621277809143
1772871566618826800,5.58782666015625,0.29530009627342224,-0.20671989023685455,0.6299020648002625
1772871566628759600,5.597759521484375,0.2638385593891144,-0.034094586968421936,0.6243250966072083
1772871566638693600,5.607693603515625,0.23062574863433838,0.025416143238544464,0.5389819741249084
1772871566648626700,5.617626708984375,0.14016003906726837,0.06840328872203827,0.35669687390327454
1772871566658559500,5.6275595703125,0.0024074974935501814,0.011289938353002071,0.19905371963977814
1772871566668492500,5.637492431640625,-0.11537958681583405,-0.12168195843696594,0.09230808913707733
1772871566678426600,5.647426513671875,-0.12439252436161041,-0.3050653636455536,-0.009192166849970818
1772871566688359700,5.657359619140625,0.0015813850332051516,-0.4568999111652374,-0.19378358125686646
1772871566698292700,5.667292724609375,0.22074143588542938,-0.33473432064056396,-0.4790922999382019
1772871566708225800,5.677225830078125,0.3965204358100891,-0.02179024927318096,-0.6588277220726013
1772871566718158800,5.687158935546875,0.38138625025749207,0.4198646545410156,-0.5670005679130554
1772871566728092700,5.6970927734375,0.24882872402668,0.8879426121711731,-0.20856785774230957
1772871566738025700,5.707025634765625,0.023069899529218674,1.239568829536438,0.26260578632354736
1772871566747958800,5.716958740234375,-0.29392215609550476,1.3799967765808105,0.5982250571250916
1772871566757891600,5.7268916015625,-0.6544649004936218,1.2747409343719482,0.6961537599563599
1772871566767825700,5.73682568359375,-1.036108136177063,1.0360060930252075,0.6329146027565002
1772871566777758700,5.7467587890625,-1.3626689910888672,0.8108683824539185,0.5044921636581421
1772871566787691500,5.75669140625,-1.4867287874221802,0.6883597373962402,0.35785508155822754
1772871566797624600,5.76662451171875,-1.3876081705093384,0.657893717288971,0.2346620410680771
1772871566807558700,5.77655859375,-1.065840721130371,0.614692211151123,0.18397410213947296
1772871566817491700,5.78649169921875,-0.6354254484176636,0.5415926575660706,0.23443780839443207
1772871566827424800,5.7964248046875,-0.21715176105499268,0.36190176010131836,0.3186160624027252
1772871566837357800,5.80635791015625,0.0815848708152771,0.11989498138427734,0.3341910243034363
1772871566847291000,5.816290771484375,0.20855027437210083,-0.15227395296096802,0.22643260657787323
1772871566857224700,5.826224609375,0.20632441341876984,-0.39872315526008606,0.018555574119091034
1772871566867157800,5.83615771484375,0.14714764058589935,-0.5902464985847473,-0.21086110174655914
1772871566877090800,5.8460908203125,0.086009182035923,-0.6771270632743835,-0.4183626174926758
1772871566887023600,5.856023681640625,0.08614394068717957,-0.623216450214386,-0.5773227214813232
1772871566896957700,5.865957763671875,0.1702928990125656,-0.4156203866004944,-0.6334205865859985
1772871566906890800,5.875890869140625,0.31060129404067993,-0.1799234300851822,-0.5459384322166443
1772871566916823600,5.885823486328125,0.43864554166793823,0.015801599249243736,-0.3093533217906952
1772871566926756600,5.895756591796875,0.475128173828125,0.1734093427658081,0.038852058351039886
1772871566936690700,5.905690673828125,0.4373405873775482,0.2795672118663788,0.4286176562309265
1772871566946623500,5.91562353515625,0.3119451105594635,0.3374406099319458,0.793719470500946
1772871566956556500,5.925556640625,0.1332845538854599,0.40879201889038086,0.996738612651825
1772871566966489600,5.935489501953125,-0.07908443361520767,0.5193750262260437,1.0028918981552124
1772871566976422700,5.945422607421875,-0.18430885672569275,0.6005569100379944,0.8580337166786194
1772871566986356700,5.955356689453125,-0.0991433635354042,0.6758695244789124,0.6514257192611694
1772871566996289800,5.965289794921875,0.1515330672264099,0.7774866819381714,0.49529415369033813
1772871567006222800,5.975222900390625,0.41303789615631104,0.963397741317749,0.49049779772758484
1772871567016155600,5.98515576171875,0.4817160367965698,1.0994399785995483,0.5413085222244263
1772871567026088700,5.995088623046875,0.3874920606613159,1.0490790605545044,0.4439302980899811
1772871567036023000,6.00502294921875,0.3173838257789612,0.8341878056526184,0.27796611189842224
1772871567045956000,6.0149560546875,0.32496798038482666,0.6084036827087402,0.1856984943151474
1772871567055889200,6.02488916015625,0.26765862107276917,0.38458842039108276,0.1273992359638214
1772871567065822200,6.034822265625,0.09263672679662704,0.05794772133231163,-0.11532100290060043
1772871567075756000,6.044756103515625,-0.110619455575943,-0.2013522833585739,-0.4894314706325531
1772871567085689000,6.054689208984375,-0.3354552388191223,-0.5145373940467834,-0.7740051746368408
1772871567095622100,6.0646220703125,-0.4973407983779907,-0.9685131311416626,-0.8857247829437256
1772871567105555000,6.074554931640625,-0.4334947168827057,-1.1868654489517212,-0.6249248385429382
1772871567115489000,6.084489013671875,-0.1756913959980011,-1.150667428970337,0.032176047563552856
1772871567125422000,6.094422119140625,0.11666376888751984,-0.9235272407531738,0.6637750267982483
1772871567135355000,6.10435498046875,0.29785165190696716,-0.6585326194763184,0.9089198112487793
1772871567145288000,6.114287841796875,0.2972505986690521,-0.43940773606300354,0.7743966579437256
1772871567155221000,6.124220947265625,0.2235308289527893,-0.20204924046993256,0.38711389899253845
1772871567165154800,6.13415478515625,0.2057827264070511,0.04274160414934158,-0.06912394613027573
1772871567175087900,6.144087890625,0.2544780969619751,0.43946659564971924,-0.3738875687122345
1772871567185021000,6.15402099609375,0.3508855998516083,0.8395487666130066,-0.4489801824092865
1772871567194954200,6.163954345703125,0.43921199440956116,1.0360537767410278,-0.35149437189102173
1772871567204888000,6.17388818359375,0.4045836925506592,0.7381049394607544,-0.24104323983192444
1772871567214821000,6.183821044921875,0.2567383050918579,0.09298613667488098,-0.27493515610694885
1772871567224754200,6.193754150390625,0.1479705572128296,-0.4662103056907654,-0.3141627311706543
1772871567234687000,6.20368701171875,0.049204032868146896,-0.6763907074928284,-0.24607235193252563
1772871567244621000,6.21362109375,-0.06351612508296967,-0.6208909749984741,-0.23117463290691376
1772871567254554000,6.22355419921875,-0.16539375483989716,-0.45400479435920715,-0.3293864130973816
1772871567264487000,6.23348681640625,-0.1907036304473877,-0.2876269817352295,-0.43887004256248474
1772871567274420000,6.243419921875,-0.09710444509983063,-0.124301977455616,-0.4527333974838257
1772871567284353000,6.25335302734375,0.08278649300336838,0.008619320578873158,-0.3114801347255707
1772871567294286800,6.263286865234375,0.18857869505882263,-0.07323453575372696,-0.06235445290803909
1772871567304220000,6.273219970703125,0.1716356724500656,-0.32053035497665405,0.15435734391212463
1772871567314153000,6.283153076171875,0.07730011641979218,-0.5827481150627136,0.28942301869392395
1772871567324086000,6.2930859375,-0.14221253991127014,-0.70368492603302,0.4032561182975769
1772871567334020000,6.30302001953125,-0.38867104053497314,-0.6711381673812866,0.4902735650539398
1772871567343953200,6.312953125,-0.45122337341308594,-0.4453985095024109,0.5302523970603943
1772871567353886200,6.32288623046875,-0.37784343957901,-0.04669533297419548,0.5461528301239014
1772871567363819000,6.332819091796875,-0.2055230587720871,0.46516209840774536,0.5274563431739807
1772871567373752000,6.342751953125,0.02972433902323246,0.9301036596298218,0.47402191162109375
1772871567383686100,6.35268603515625,0.17104472219944,1.2130738496780396,0.44941243529319763
1772871567393619000,6.362618896484375,0.13203100860118866,1.1466690301895142,0.44497185945510864
1772871567403552000,6.372552001953125,-0.036857616156339645,0.8267221450805664,0.4231390058994293
1772871567413485000,6.382485107421875,-0.24961090087890625,0.36693060398101807,0.36106792092323303
1772871567423419000,6.3924189453125,-0.42568260431289673,-0.07241454720497131,0.24586862325668335
1772871567433352000,6.40235205078125,-0.5454028844833374,-0.34455710649490356,0.04987115412950516
1772871567443285000,6.412284912109375,-0.5876395106315613,-0.44020506739616394,-0.2164105921983719
1772871567453218000,6.422218017578125,-0.5406414270401001,-0.38014599680900574,-0.45938676595687866
1772871567463151000,6.432151123046875,-0.3859410285949707,-0.22754953801631927,-0.605808436870575
1772871567473085000,6.4420849609375,-0.2229531854391098,-0.07309205085039139,-0.6253269910812378
1772871567483018200,6.452018310546875,-0.08145251870155334,0.04097246751189232,-0.5474734902381897
1772871567492951000,6.461950927734375,0.006298642139881849,0.029157884418964386,-0.38009408116340637
1772871567502884000,6.471884033203125,0.002769687445834279,-0.05679057911038399,-0.17815881967544556
1772871567512818200,6.481818115234375,-0.0631595253944397,-0.15614406764507294,0.008842493407428265
1772871567522751000,6.4917509765625,-0.12195679545402527,-0.24020221829414368,0.14408446848392487
1772871567532684000,6.50168408203125,-0.17593428492546082,-0.2413303256034851,0.19082801043987274
1772871567542617000,6.5116171875,-0.17849943041801453,-0.17725254595279694,0.14885392785072327
1772871567552550100,6.521550048828125,-0.08190232515335083,-0.1032443642616272,0.04262096434831619
1772871567562484000,6.53148388671875,0.14842994511127472,-0.02394368313252926,-0.041787393391132355
1772871567572417000,6.5414169921875,0.39687463641166687,0.05524807423353195,0.023805730044841766
1772871567582350000,6.55135009765625,0.48312538862228394,0.09955321997404099,0.16340170800685883
1772871567592283100,6.561283203125,0.481853723526001,0.10568887740373611,0.013135509565472603
1772871567602217000,6.571217041015625,0.45754146575927734,-0.019656525924801826,-0.1678481251001358
1772871567612150000,6.58114990234375,0.5251460671424866,-0.2022886574268341,-0.3267086148262024
1772871567622083000,6.5910830078125,0.6996427774429321,-0.15668441355228424,-0.49670910835266113
1772871567632016000,6.601015869140625,0.8099597096443176,-0.030399717390537262,-0.5778217911720276
1772871567641949000,6.610948974609375,0.7735843658447266,-0.10407020896673203,-0.6898713707923889
1772871567651883000,6.620883056640625,0.4446176588535309,-0.5757802128791809,-1.004948616027832
1772871567661816000,6.630816162109375,-0.11443256586790085,-1.037235975265503,-1.2189618349075317
1772871567671749000,6.6407490234375,-0.6585398316383362,-1.3359915018081665,-1.0149836540222168
1772871567681682200,6.65068212890625,-0.9169463515281677,-1.2291191816329956,-0.40743035078048706
1772871567691616000,6.660615966796875,-0.7232000231742859,-0.8218445777893066,0.1710369884967804
1772871567701549000,6.670549072265625,-0.2732113003730774,-0.23112615942955017,0.46849504113197327
1772871567711482000,6.680482177734375,0.23088008165359497,0.1564822793006897,0.5546342134475708
1772871567721415200,6.690415283203125,0.604458212852478,0.3110763728618622,0.4985019266605377
1772871567731348000,6.700347900390625,0.7573180794715881,0.36180347204208374,0.31526127457618713
1772871567741282000,6.710281982421875,0.6922416090965271,0.4716032147407532,0.15504764020442963
1772871567751215000,6.720215087890625,0.4933987855911255,0.5391998291015625,0.21204248070716858
1772871567761148000,6.73014794921875,0.2246490865945816,0.5278260111808777,0.4195021986961365
1772871567771081000,6.7400810546875,-0.0014708638191223145,0.26352643966674805,0.31172114610671997
1772871567781015000,6.75001513671875,-0.13831552863121033,-0.20193365216255188,-0.26654061675071716
1772871567790948000,6.759947998046875,-0.25550419092178345,-0.5149421691894531,-0.78961580991745
1772871567800881200,6.769881103515625,-0.3315534293651581,-0.47523176670074463,-0.7405292391777039
1772871567810814200,6.779814208984375,-0.26064276695251465,-0.11076965928077698,-0.17872820794582367
1772871567820747300,6.789747314453125,-0.03881237655878067,0.44433218240737915,0.6060518622398376
1772871567830681000,6.79968115234375,0.16627579927444458,0.8852880001068115,1.2469921112060547
1772871567840614100,6.8096142578125,0.1785963773727417,0.9887201189994812,1.480459213256836
1772871567850547200,6.819547119140625,-0.00196381495334208,0.7960656881332397,1.3201510906219482
1772871567860480000,6.82947998046875,-0.2581023871898651,0.5584297180175781,1.0147972106933594
1772871567870413000,6.8394130859375,-0.5384587049484253,0.41386908292770386,0.7727481126785278
1772871567880347100,6.84934716796875,-0.7449005246162415,0.40425798296928406,0.6514959931373596
1772871567890280000,6.859280029296875,-0.8074110746383667,0.49637460708618164,0.5356655716896057
1772871567900213000,6.869212890625,-0.7258576154708862,0.6803241968154907,0.33602994680404663
1772871567910146000,6.87914599609375,-0.5236272811889648,0.8117730617523193,0.09038688987493515
1772871567920080000,6.889079833984375,-0.29449740052223206,0.8514232635498047,-0.07858961820602417
1772871567930013000,6.899012939453125,-0.10830490291118622,0.7445260882377625,-0.16155320405960083
1772871567939946000,6.908946044921875,-0.0213638786226511,0.5372309684753418,-0.19467175006866455
1772871567949879000,6.918879150390625,-0.05170287564396858,0.2861958146095276,-0.2655477821826935
1772871567959811800,6.928811767578125,-0.11963851749897003,0.018939869478344917,-0.3787161409854889
1772871567969746200,6.93874609375,-0.1429201364517212,-0.22306397557258606,-0.48016953468322754
1772871567979679200,6.94867919921875,-0.15309368073940277,-0.40573710203170776,-0.523247241973877
1772871567989612000,6.958612060546875,-0.15105076134204865,-0.4966800808906555,-0.5136592984199524
1772871567999545000,6.968545166015625,-0.12143481522798538,-0.48484498262405396,-0.46786201000213623
1772871568009479200,6.978479248046875,-0.10195699334144592,-0.42668500542640686,-0.37795689702033997
1772871568019412000,6.988411865234375,-0.09929729253053665,-0.27471280097961426,-0.2828977406024933
1772871568029345000,6.998344970703125,-0.05323179438710213,-0.05696927756071091,-0.1881837546825409
1772871568039278000,7.008278076171875,0.014564828015863895,0.13621270656585693,-0.08521928638219833
1772871568049211100,7.018211181640625,0.04603620246052742,0.2557835578918457,0.019098326563835144
1772871568059145000,7.02814501953125,0.022068018093705177,0.2889561653137207,0.11764833331108093
1772871568069078000,7.038078125,-0.019637083634734154,0.27167704701423645,0.17711645364761353
1772871568079011000,7.048010986328125,-0.02833443507552147,0.2777075171470642,0.21906976401805878
1772871568088943900,7.05794384765625,-0.004876248072832823,0.2430696338415146,0.2497725486755371
1772871568098877000,7.067876953125,0.028597289696335793,0.20254698395729065,0.25364986062049866
1772871568108811000,7.07781103515625,0.0864773690700531,0.18962664902210236,0.21784551441669464
1772871568118743800,7.087743896484375,0.1753116250038147,0.19134119153022766,0.204407200217247
1772871568128676900,7.0976767578125,0.2755807042121887,0.19691146910190582,0.22716417908668518
1772871568138610000,7.10760986328125,0.39458513259887695,0.23265428841114044,0.29224252700805664
1772871568148543700,7.117543701171875,0.4226790964603424,0.29939523339271545,0.44000428915023804
1772871568158476800,7.127476806640625,0.2992013394832611,0.31894949078559875,0.5107937455177307
1772871568168409900,7.137409912109375,0.12101083993911743,0.3220382332801819,0.35595250129699707
1772871568178343000,7.147343017578125,0.05823321267962456,0.29606202244758606,0.03918521851301193
1772871568188275700,7.157275634765625,0.1645551174879074,0.3187875747680664,-0.2858967185020447
1772871568198210000,7.1672099609375,0.32561007142066956,0.3747405707836151,-0.44586801528930664
1772871568208143000,7.17714306640625,0.4580431878566742,0.3714611828327179,-0.43427714705467224
1772871568218076000,7.187075927734375,0.46377190947532654,0.1960320919752121,-0.3061780333518982
1772871568228009000,7.197009033203125,0.2862192392349243,-0.1632816046476364,-0.053527671843767166
1772871568237942000,7.20694189453125,-0.00743128452450037,-0.6213884353637695,0.1964757740497589
1772871568247875800,7.216875732421875,-0.23144839704036713,-0.9891193509101868,0.38655704259872437
1772871568257809000,7.226808837890625,-0.20185242593288422,-0.937040388584137,0.5533406734466553
1772871568267742000,7.236741943359375,0.08540171384811401,-0.5726022720336914,0.6443992257118225
1772871568277675000,7.246675048828125,0.46632564067840576,-0.07688573002815247,0.5666442513465881
1772871568287608800,7.25660888671875,0.7954281568527222,0.26587429642677307,0.3423807919025421
1772871568297542000,7.2665419921875,0.9682396054267883,0.36453163623809814,0.1377440094947815
1772871568307475000,7.276474853515625,0.9715115427970886,0.3905720114707947,0.028745096176862717
1772871568317407700,7.28640771484375,0.8746180534362793,0.4350587725639343,-0.017549432814121246
1772871568327340800,7.2963408203125,0.6900692582130432,0.2911309003829956,-0.0496453158557415
1772871568337275100,7.306275146484375,0.43764418363571167,-0.02371251955628395,-0.2454342544078827
1772871568347208000,7.3162080078125,0.2254648208618164,-0.3518717586994171,-0.5879021286964417
1772871568357141000,7.32614111328125,0.07763806730508804,-0.5889024138450623,-0.8160346150398254
1772871568367074000,7.336073974609375,0.0005755090969614685,-0.7191946506500244,-0.8210381865501404
1772871568377007900,7.3460078125,-0.05649443343281746,-0.7381243705749512,-0.6797422766685486
1772871568386941000,7.35594091796875,-0.10969187319278717,-0.7481607794761658,-0.48614194989204407
1772871568396874000,7.3658740234375,-0.17677077651023865,-0.7383475303649902,-0.2864176332950592
1772871568406807000,7.37580712890625,-0.24466007947921753,-0.5940588116645813,-0.09891965240240097
1772871568416739800,7.38573974609375,-0.30200299620628357,-0.2845369279384613,0.0941280946135521
1772871568426674000,7.395673828125,-0.38331782817840576,0.04320579394698143,0.30127862095832825
1772871568436607000,7.40560693359375,-0.5173656344413757,0.34784024953842163,0.47648799419403076
1772871568446539800,7.415539794921875,-0.6443440914154053,0.5413793921470642,0.5747802257537842
1772871568456472800,7.425472900390625,-0.7349978089332581,0.5808340907096863,0.6112199425697327
1772871568466406000,7.435406005859375,-0.7937820553779602,0.5746278762817383,0.5999374985694885
1772871568476339700,7.445339599609375,-0.8108319044113159,0.5183459520339966,0.5639209151268005
1772871568486272800,7.455272705078125,-0.8006830811500549,0.4231869578361511,0.5378029942512512
1772871568496205800,7.465205810546875,-0.7393918037414551,0.33665284514427185,0.5102187991142273
1772871568506139000,7.475138916015625,-0.6159601211547852,0.2686897814273834,0.4625636339187622
1772871568516073000,7.485072998046875,-0.48714780807495117,0.2304108440876007,0.37739256024360657
1772871568526006000,7.495006103515625,-0.3882819712162018,0.28762245178222656,0.25241467356681824
1772871568535939000,7.50493896484375,-0.22039975225925446,0.40650808811187744,0.07080439478158951
1772871568545872000,7.514871826171875,-0.04957234486937523,0.45582371950149536,-0.12407854199409485
1772871568555805000,7.524804931640625,0.022950856015086174,0.36452603340148926,-0.2668066620826721
1772871568565739000,7.534739013671875,0.08001680672168732,0.1781044900417328,-0.3347020745277405
1772871568575671800,7.544671875,0.10502761602401733,-0.0374206081032753,-0.3648373484611511
1772871568585604900,7.55460498046875,0.027883296832442284,-0.23391582071781158,-0.41844919323921204
1772871568595538000,7.564537841796875,-0.09226547926664352,-0.36926060914993286,-0.49674397706985474
1772871568605471000,7.574470947265625,-0.1906849890947342,-0.4887568950653076,-0.5487499237060547
1772871568615404800,7.58440478515625,-0.2602694034576416,-0.5114265084266663,-0.5301110148429871
1772871568625337900,7.594337890625,-0.23796676099300385,-0.4656531810760498,-0.44845953583717346
1772871568635271000,7.60427099609375,-0.13765080273151398,-0.3325928747653961,-0.28040051460266113
1772871568645203700,7.61420361328125,-0.0031196267809718847,-0.1358603686094284,-0.019051454961299896
1772871568655136800,7.62413671875,0.11514869332313538,0.03507037088274956,0.2639578878879547
1772871568665071000,7.634071044921875,0.19754450023174286,0.17729595303535461,0.48284441232681274
1772871568675004000,7.64400390625,0.20047104358673096,0.27362167835235596,0.5581937432289124
1772871568684937000,7.65393701171875,0.15476427972316742,0.39684614539146423,0.4844740033149719
1772871568694870000,7.6638701171875,0.08825662732124329,0.5422486066818237,0.32645800709724426
1772871568704803800,7.673803955078125,0.023872043937444687,0.6639854311943054,0.14142876863479614
1772871568714737000,7.68373681640625,0.012538428418338299,0.6557661294937134,-0.033609360456466675
1772871568724670000,7.693669921875,0.08933893591165543,0.5322769284248352,-0.15332697331905365
1772871568734603000,7.70360302734375,0.24934005737304688,0.37625592947006226,-0.2271503359079361
1772871568744535800,7.713535888671875,0.39342159032821655,0.24565690755844116,-0.1817290484905243
1772871568754470000,7.723469970703125,0.3626628816127777,0.23148222267627716,0.0276822280138731
1772871568764403000,7.73340283203125,0.2178335189819336,0.20525382459163666,-0.04886980354785919
1772871568774335700,7.743335693359375,0.06630206108093262,0.06430548429489136,-0.36406823992729187
1772871568784268800,7.753268798828125,-0.025541579350829124,-0.10651765763759613,-0.5432483553886414
1772871568794201900,7.763201904296875,0.12899179756641388,-0.13082006573677063,-0.5452753305435181
1772871568804135700,7.7731357421875,0.31294167041778564,0.008107461035251617,-0.5026479363441467
1772871568814069000,7.783069091796875,0.3646980822086334,-0.028424451127648354,-0.5571902990341187
1772871568824002000,7.793001953125,0.2133045494556427,-0.15302470326423645,-0.46170929074287415
1772871568833935000,7.80293505859375,-0.08839350938796997,-0.703761100769043,-0.34565725922584534
1772871568843868000,7.812867919921875,-0.45061883330345154,-1.1897610425949097,-0.1827503740787506
1772871568853802000,7.822802001953125,-0.6021550893783569,-1.4685930013656616,0.19503048062324524
1772871568863735000,7.832735107421875,-0.5030354261398315,-1.412021279335022,0.4989349842071533
1772871568873667800,7.842667724609375,-0.18812809884548187,-0.9639815092086792,0.5584840774536133
1772871568883601000,7.852600830078125,0.21318897604942322,-0.5576938986778259,0.43980586528778076
1772871568893535000,7.862534912109375,0.6218052506446838,-0.1605806201696396,0.285603791475296
1772871568903467800,7.8724677734375,0.9791207313537598,0.2702229619026184,0.19351673126220703
1772871568913400800,7.88240087890625,1.2095611095428467,0.7124046683311462,0.16366775333881378
1772871568923334000,7.892333984375,1.196155071258545,0.8547535538673401,0.07850120216608047
1772871568933267000,7.902266845703125,0.833470344543457,0.4970840811729431,-0.1847544014453888
1772871568943200800,7.91220068359375,0.29832276701927185,-0.17468605935573578,-0.5178684592247009
1772871568953133800,7.9221337890625,-0.013154684565961361,-0.6662688255310059,-0.539534330368042
1772871568963067000,7.93206689453125,0.06701391935348511,-0.723263144493103,-0.3012455999851227
1772871568972998000,7.941997802734375,0.2987363636493683,-0.5139269828796387,-0.13920076191425323
1772871568982931000,7.951930908203125,0.4465758800506592,-0.31795960664749146,-0.11440940201282501
1772871568992864800,7.96186474609375,0.4419387876987457,-0.29492777585983276,-0.06968134641647339
1772871569002797800,7.9717978515625,0.2818412780761719,-0.2772606313228607,0.07643885165452957
1772871569012731000,7.98173095703125,0.07598131895065308,-0.0915304496884346,0.1827186793088913
1772871569022664000,7.991663818359375,-0.06298189610242844,0.27416443824768066,0.1917390674352646
1772871569032598000,8.001597900390625,-0.10462813824415207,0.7051374316215515,0.15856248140335083
1772871569042531300,8.01153125,-0.1309385746717453,1.0038700103759766,0.14175739884376526
1772871569052464000,8.021464111328125,-0.24465902149677277,1.0811371803283691,0.18091972172260284
1772871569062397200,8.031397216796876,-0.3756990432739258,0.9864010214805603,0.2734760046005249
1772871569072330200,8.041330322265624,-0.5253974795341492,0.8644348978996277,0.33598625659942627
1772871569082264300,8.051264404296875,-0.5619394779205322,0.7464339733123779,0.38588646054267883
1772871569092197400,8.061197265625,-0.5267828702926636,0.7738230228424072,0.35101500153541565
1772871569102130400,8.07113037109375,-0.4558258354663849,0.8950117230415344,0.22328022122383118
1772871569112063500,8.0810634765625,-0.3569954037666321,0.7613117098808289,0.10200732201337814
1772871569121996300,8.090996337890624,-0.1939191371202469,0.5298033952713013,0.08433325588703156
1772871569131930400,8.100930419921875,-0.10469472408294678,0.45912256836891174,-0.0868384912610054
1772871569141863400,8.110863525390625,-0.13425607979297638,0.3002501130104065,-0.327939510345459
1772871569151796200,8.120796142578126,-0.20125001668930054,0.040973000228405,-0.4154171645641327
1772871569161729300,8.130729248046874,-0.24284033477306366,-0.12360876053571701,-0.4337330758571625
1772871569171662300,8.140662353515625,-0.2799738645553589,-0.24141448736190796,-0.44541075825691223
1772871569181596200,8.15059619140625,-0.34020790457725525,-0.35451599955558777,-0.4657977819442749
1772871569191529200,8.160529296875,-0.3817540109157562,-0.4384615123271942,-0.4684377908706665
1772871569201462300,8.170462158203126,-0.35935255885124207,-0.44474709033966064,-0.4279926121234894
1772871569211395300,8.180395263671874,-0.2414799928665161,-0.3668728172779083,-0.35067999362945557
1772871569221328400,8.190328369140625,-0.06298588961362839,-0.20561280846595764,-0.2504276931285858
1772871569231262500,8.200262451171875,0.13079236447811127,-0.054972704499959946,-0.13986122608184814
1772871569241195500,8.210195556640626,0.2580629587173462,-0.021255753934383392,-0.02472159080207348
1772871569251128300,8.22012841796875,0.30222830176353455,-0.0027893949300050735,0.05097982659935951
1772871569261061400,8.230061279296875,0.3088907301425934,0.02088956907391548,0.08037393540143967
1772871569270994400,8.239994384765625,0.2730579078197479,0.06681817770004272,0.1199711486697197
1772871569280928300,8.24992822265625,0.19663316011428833,0.12630094587802887,0.14364585280418396
1772871569290861300,8.259861328125,0.15514270961284637,0.1820044219493866,0.1298093944787979
1772871569300794400,8.26979443359375,0.15805648267269135,0.2010928988456726,0.0897301509976387
1772871569310727400,8.2797275390625,0.19115132093429565,0.18024007976055145,0.07296475768089294
1772871569320660500,8.289660400390625,0.23831403255462646,0.10746733844280243,0.089323490858078
1772871569330594300,8.29959423828125,0.3013012409210205,-0.019632024690508842,0.13083498179912567
1772871569340527400,8.30952734375,0.35228320956230164,-0.19635432958602905,0.11582433432340622
1772871569350462500,8.31946240234375,0.2793261706829071,-0.3688507378101349,0.1215064600110054
1772871569360395500,8.3293955078125,0.050030410289764404,-0.40815046429634094,0.09540028870105743
1772871569370328300,8.339328369140626,-0.14532870054244995,-0.3400627672672272,-0.12880352139472961
1772871569380262400,8.349262451171874,-0.17916202545166016,-0.20747676491737366,-0.40077006816864014
1772871569390195500,8.359195556640625,0.12151578068733215,-0.16329677402973175,-0.8104494214057922
1772871569400128300,8.369128173828125,0.2605530321598053,-0.48125797510147095,-1.259893536567688
1772871569410061300,8.379061279296875,0.5517052412033081,-0.5133453607559204,-1.053674578666687
1772871569419995400,8.388995361328124,0.9951186180114746,-0.6769571900367737,-0.18563777208328247
1772871569429928200,8.39892822265625,0.924249529838562,-1.2375224828720093,0.25773805379867554
1772871569439861200,8.408861328125,0.406982421875,-1.5122976303100586,0.5357753038406372
1772871569449794300,8.418794189453125,-0.21634002029895782,-1.4681352376937866,1.090073585510254
1772871569459727400,8.428727294921876,-0.5349225401878357,-1.047921895980835,1.7276815176010132
1772871569469661200,8.4386611328125,-0.5837393403053284,-0.30370742082595825,2.0222132205963135
1772871569479594200,8.44859423828125,-0.4230186343193054,0.5029089450836182,1.8167089223861694
1772871569489527300,8.45852734375,-0.004543352872133255,0.8934229016304016,1.1901477575302124
1772871569499460000,8.468460205078125,0.5432153344154358,0.7812409400939941,0.2761743366718292
1772871569509393200,8.47839306640625,0.9383488297462463,0.37926554679870605,-0.7664452195167542
1772871569519327500,8.488327392578125,1.1195995807647705,-0.17358963191509247,-1.442125678062439
1772871569529260300,8.49826025390625,1.1874475479125977,-0.6683178544044495,-1.4329105615615845
1772871569539193300,8.508193359375,1.0159929990768433,-1.0619235038757324,-1.00367271900177
1772871569549126400,8.51812646484375,0.6660821437835693,-1.2259198427200317,-0.5913844704627991
1772871569559059500,8.5280595703125,0.2575620412826538,-1.1361340284347534,-0.3070718050003052
1772871569568993300,8.5379931640625,-0.10447101294994354,-1.0228989124298096,-0.03201732039451599
1772871569578926300,8.54792626953125,-0.32242491841316223,-0.8929781317710876,0.18145714700222015
1772871569588859400,8.557859375,-0.3840786814689636,-0.7894429564476013,0.25535401701927185
1772871569598792200,8.567792236328126,-0.3472237288951874,-0.5454838275909424,0.2670103907585144
1772871569608725200,8.577725341796874,-0.3158216178417206,-0.1176624521613121,0.32684922218322754
1772871569618659300,8.587659423828125,-0.33910295367240906,0.40045472979545593,0.47184422612190247
1772871569628592000,8.597592041015625,-0.4067288637161255,0.8418284058570862,0.651086151599884
1772871569638525200,8.607525146484376,-0.4992372393608093,1.0880392789840698,0.8256227970123291
1772871569648458200,8.617458251953124,-0.6481335163116455,1.158940076828003,0.9073898196220398
1772871569658391300,8.627391357421875,-0.8510224223136902,1.1480379104614258,0.8662405610084534
1772871569668325400,8.637325439453125,-1.0038857460021973,1.049555778503418,0.7738733291625977
1772871569678258400,8.647258544921876,-1.1077899932861328,0.9243336915969849,0.6547200679779053
1772871569688191500,8.65719140625,-1.088391900062561,0.8347915410995483,0.49308907985687256
1772871569698124300,8.667124267578124,-0.9792342185974121,0.7152619361877441,0.3233836591243744
1772871569708057300,8.677057373046875,-0.79910808801651,0.5854136943817139,0.07902291417121887
1772871569717991400,8.686991455078125,-0.5760459899902344,0.7162545323371887,-0.24194392561912537
1772871569727924200,8.69692431640625,-0.4179069697856903,0.6015446782112122,-0.665888249874115
1772871569737857300,8.706857177734374,-0.2605610191822052,0.41516605019569397,-0.9422889947891235
1772871569747790300,8.716790283203125,-0.0960724726319313,0.17477446794509888,-0.9451225996017456
1772871569757723400,8.726723388671875,0.023151392117142677,-0.05275722220540047,-0.7466901540756226
1772871569767657200,8.7366572265625,0.045581333339214325,-0.3481348156929016,-0.5463501811027527
1772871569777590300,8.74659033203125,0.013656956143677235,-0.6691535711288452,-0.45395177602767944
1772871569787523300,8.7565234375,0.002817358123138547,-0.8724904656410217,-0.4291985034942627
1772871569797456400,8.766456298828125,0.047877244651317596,-0.9306222200393677,-0.36888056993484497
1772871569807389200,8.77638916015625,0.14345543086528778,-0.831238329410553,-0.2594161331653595
1772871569817323500,8.786323486328126,0.23684610426425934,-0.6405914425849915,-0.1621103435754776
1772871569827256300,8.79625634765625,0.2560083568096161,-0.4541589915752411,-0.11596042662858963
1772871569837189400,8.806189453125,0.23946531116962433,-0.24204671382904053,-0.11409488320350647
1772871569847122400,8.816122314453125,0.25563204288482666,-0.001973402453586459,-0.09848902374505997
1772871569857055500,8.826055419921875,0.27341902256011963,0.15877899527549744,0.026318157091736794
1772871569866989300,8.8359892578125,0.18858961760997772,0.24941249191761017,0.25866857171058655
1772871569876922400,8.84592236328125,0.032115060836076736,0.33228686451911926,0.46875444054603577
1772871569886855400,8.85585546875,-0.09311369806528091,0.4232596457004547,0.5777890682220459
1772871569896788500,8.86578857421875,-0.19185759127140045,0.5154974460601807,0.6283707022666931
1772871569906721300,8.87572119140625,-0.2782345414161682,0.6203844547271729,0.6579645872116089
1772871569916655400,8.8856552734375,-0.3312777876853943,0.733270525932312,0.6787729263305664
1772871569926588400,8.89558837890625,-0.317920446395874,0.8496335744857788,0.6743097305297852
1772871569936521200,8.905521240234375,-0.2679688632488251,0.8871577978134155,0.6162352561950684
1772871569946454300,8.915454345703125,-0.2689118981361389,0.8664631843566895,0.676645815372467
1772871569956387300,8.92538720703125,-0.43210160732269287,0.8291874527931213,0.7339589595794678
1772871569966321200,8.935321044921874,-0.6042984127998352,0.815237820148468,0.37521302700042725
1772871569976254200,8.945254150390625,-0.6815804243087769,0.49061739444732666,-0.07498876005411148
1772871569986187300,8.955187255859375,-0.4177892506122589,0.14128229022026062,-0.5933823585510254
1772871569996120300,8.965120361328125,0.008745554834604263,-0.09379253536462784,-0.8765328526496887
1772871570006054400,8.975054443359374,0.49480894207954407,-0.2214522361755371,-0.8376792073249817
1772871570015987500,8.984987548828125,0.7784414291381836,-0.4815746247768402,-0.7522686719894409
1772871570025920500,8.99492041015625,0.6309829950332642,-1.0847986936569214,-0.6862667798995972
1772871570035852800,9.004852783203125,0.15701597929000854,-2.2095017433166504,-0.658864438533783
1772871570045785900,9.014785888671875,-0.4902264475822449,-2.724639654159546,-0.4011596739292145
1772871570055719000,9.024718994140626,-0.8328943252563477,-2.814650297164917,0.13512080907821655
1772871570065652700,9.03465283203125,-0.7557230591773987,-2.054499387741089,0.6680329442024231
1772871570075585800,9.044585693359375,-0.3998970687389374,-0.7843813896179199,0.9571358561515808
1772871570085518800,9.054518798828125,0.06353050470352173,0.4870591461658478,1.2099710702896118
1772871570095452000,9.064451904296876,0.5653150677680969,1.3018724918365479,1.432706594467163
1772871570105384700,9.074384765625,1.0161895751953125,1.7210156917572021,1.4030169248580933
1772871570115318800,9.08431884765625,1.2270594835281372,1.716172695159912,1.0794092416763306
1772871570125251800,9.094251953125,1.186060905456543,1.2489902973175049,0.4201618731021881
1772871570135184600,9.1041845703125,1.0052030086517334,0.40830308198928833,-0.6675149202346802
1772871570145117700,9.11411767578125,0.6956008672714233,-0.40884634852409363,-1.6263706684112549
1772871570155051800,9.1240517578125,0.3302985429763794,-0.9680750370025635,-1.928841233253479
1772871570164984600,9.133984619140625,0.1803005337715149,-1.2324377298355103,-1.6927038431167603
1772871570174917600,9.143917724609375,0.2466191053390503,-1.1642237901687622,-1.268631935119629
1772871570184850700,9.1538505859375,0.2885034382343292,-0.91274493932724,-0.815540075302124
1772871570194783700,9.16378369140625,0.19347704946994781,-0.7046311497688293,-0.3649097979068756
1772871570204717800,9.1737177734375,0.031618911772966385,-0.5211721062660217,0.013895309530198574
1772871570214651000,9.18365087890625,-0.12841390073299408,-0.24504011869430542,0.2659864127635956
1772871570224584000,9.193583984375,-0.2691052258014679,0.19139845669269562,0.43962931632995605
1772871570234516700,9.203516845703126,-0.3634392023086548,0.7852631211280823,0.6057852506637573
1772871570244449800,9.21344970703125,-0.43312159180641174,1.3516868352890015,0.7816635966300964
1772871570254383900,9.2233837890625,-0.5352647304534912,1.6701942682266235,0.888157844543457
1772871570264316700,9.233316650390625,-0.7228258848190308,1.6259453296661377,0.779525876045227
1772871570274249700,9.243249755859376,-0.9028294682502747,1.340811848640442,0.4244551360607147
1772871570284182800,9.253182861328124,-0.8944665789604187,0.9570732712745667,0.010337592102587223
1772871570294115800,9.26311572265625,-0.6959772109985352,0.6891981363296509,-0.15074023604393005
1772871570304049700,9.273049560546875,-0.3771153390407562,0.4254399836063385,-0.08319874852895737
1772871570313982700,9.282982666015625,-0.1475825309753418,0.28426262736320496,-0.08388318121433258
1772871570323915800,9.292915771484376,-0.07706868648529053,0.306041955947876,-0.2628161907196045
1772871570333848800,9.302848876953124,-0.053526606410741806,0.2533757984638214,-0.39712366461753845
1772871570343781600,9.31278173828125,0.023356454446911812,0.09416244924068451,-0.3933108150959015
1772871570353716000,9.322716064453125,0.06586024165153503,-0.05361475795507431,-0.2910592555999756
1772871570363648800,9.332648681640626,0.02412317879498005,-0.11365572363138199,-0.140972301363945
1772871570373581800,9.342581787109374,-0.03689676523208618,-0.1570359617471695,-0.0524941012263298
1772871570383515000,9.352514892578125,-0.03775377199053764,-0.18846338987350464,-0.10712592303752899
1772871570393448000,9.362447998046875,0.006987868342548609,-0.24120302498340607,-0.2319762408733368
1772871570403381000,9.372381103515625,0.09573131799697876,-0.3544784486293793,-0.2922755479812622
1772871570413314800,9.382314697265626,0.20535102486610413,-0.46921515464782715,-0.21400417387485504
1772871570423248000,9.392247802734374,0.257741779088974,-0.48653316497802734,-0.04548865556716919
1772871570433181000,9.402180908203125,0.22538278996944427,-0.35015907883644104,0.15467560291290283
1772871570443113700,9.41211376953125,0.18301349878311157,-0.17742964625358582,0.27456337213516235
1772871570453047800,9.4220478515625,0.17046494781970978,-0.06273502111434937,0.28825148940086365
1772871570462980900,9.43198095703125,0.15103398263454437,0.05620202049612999,0.2418786734342575
1772871570472913700,9.44191357421875,0.09358055144548416,0.2554008662700653,0.17814522981643677
1772871570482846700,9.4518466796875,0.008038751780986786,0.44773730635643005,0.15512220561504364
1772871570492779800,9.46177978515625,-0.10217590630054474,0.644066333770752,0.1918935328722
1772871570502712800,9.471712890625,-0.20757050812244415,0.8178573250770569,0.280598908662796
1772871570512646700,9.481646728515624,-0.2854013741016388,0.910057783126831,0.3900766670703888
1772871570522580000,9.491580078125,-0.3442002534866333,0.9193764925003052,0.5284420251846313
1772871570532513000,9.501512939453125,-0.36839374899864197,0.9103531241416931,0.6475553512573242
1772871570542445800,9.51144580078125,-0.37516269087791443,0.9915254712104797,0.6992337107658386
1772871570552379000,9.52137890625,-0.3813939690589905,1.08489990234375,0.7079411745071411
1772871570562313000,9.53131298828125,-0.4638981521129608,1.1291313171386719,0.6682822108268738
1772871570572245800,9.541245849609375,-0.653861939907074,1.0461461544036865,0.2870844900608063
1772871570582178800,9.5511787109375,-0.6994182467460632,1.1100449562072754,-0.26704367995262146
1772871570592111900,9.56111181640625,-0.4901182949542999,1.1792248487472534,-0.6325013041496277
1772871570602045000,9.571044921875,-0.10434771329164505,1.2114719152450562,-1.006731629371643
1772871570611978800,9.580978759765625,0.1869533807039261,0.9439190626144409,-1.420677661895752
1772871570621911800,9.590911865234375,0.2830394208431244,0.23360475897789001,-1.6061241626739502
1772871570631844900,9.600844970703125,0.2327541559934616,-0.5863692164421082,-1.395339846611023
1772871570641777700,9.610777587890626,0.1527368128299713,-1.7338054180145264,-0.9602929949760437
1772871570651710700,9.620710693359374,0.0080885523930192,-2.8399548530578613,-0.4617239534854889
1772871570661644800,9.630644775390625,-0.18281428515911102,-3.1202545166015625,-0.008654740639030933
1772871570671577600,9.64057763671875,-0.271897554397583,-2.9152467250823975,0.37230485677719116
1772871570681510700,9.6505107421875,-0.26949912309646606,-1.9172370433807373,0.5092669725418091
1772871570691443700,9.660443603515626,-0.1389794498682022,-0.5958098769187927,0.4700931906700134
1772871570701376800,9.670376708984374,0.13168293237686157,0.7427856922149658,0.4916656017303467
1772871570711310800,9.680310791015625,0.5906646251678467,1.712156057357788,0.49961328506469727
1772871570721244000,9.690243896484375,1.1901030540466309,2.026921510696411,0.30859965085983276
1772871570731177000,9.700177001953126,1.7127801179885864,1.1288460493087769,-0.5538685321807861
1772871570741109800,9.71010986328125,1.8462457656860352,-0.04679892957210541,-1.13644540309906
1772871570751042800,9.720042724609375,1.714686632156372,-0.9695200324058533,-0.7779306769371033
1772871570760977000,9.729976806640625,1.499436378479004,-1.377659559249878,-0.1945316642522812
1772871570770909700,9.73990966796875,1.2402313947677612,-1.5515278577804565,-0.025856098160147667
1772871570780842800,9.7498427734375,0.9409291744232178,-1.6711945533752441,-0.13288748264312744
1772871570790775800,9.75977587890625,0.6545463800430298,-1.540751338005066,-0.18857844173908234
1772871570800708900,9.769708984375,0.5043995380401611,-1.1932932138442993,-0.0682711973786354
1772871570810642700,9.779642578125,0.4788733720779419,-0.7422410845756531,0.21683883666992188
1772871570820575700,9.78957568359375,0.4569973647594452,-0.3255125880241394,0.6283329129219055
1772871570830508800,9.7995087890625,0.34697338938713074,0.05877889320254326,1.0602984428405762
1772871570840441600,9.809441650390625,0.14163276553153992,0.4492182731628418,1.4137766361236572
1772871570850374700,9.819374755859375,-0.11758894473314285,0.8176879286766052,1.6645909547805786
1772871570860309000,9.82930908203125,-0.38292527198791504,1.1019856929779053,1.8616156578063965
1772871570870241800,9.83924169921875,-0.6239469647407532,1.2367898225784302,2.000861644744873
1772871570880174800,9.8491748046875,-0.8214142322540283,1.2542847394943237,2.0097899436950684
1772871570890108000,9.85910791015625,-0.9436466693878174,1.1610636711120605,1.7795714139938354
1772871570900041000,9.869041015625,-0.9693136811256409,0.8396193385124207,1.2883598804473877
1772871570909974800,9.878974853515626,-0.9346219897270203,0.35845375061035156,0.6461499929428101
1772871570919907800,9.888907958984374,-0.8994712233543396,-0.020000074058771133,0.11775592714548111
1772871570929841000,9.8988408203125,-0.8075274229049683,-0.2760547399520874,-0.15419648587703705
1772871570939773700,9.908773681640625,-0.6792346835136414,-0.37714114785194397,-0.2032971978187561
1772871570949706800,9.918706787109375,-0.5101463198661804,-0.2740424573421478,-0.10318230837583542
1772871570959640800,9.928640869140626,-0.3027721047401428,-0.11342589557170868,0.12239968031644821
1772871570969573600,9.93857373046875,-0.15330113470554352,-0.0007488809060305357,0.4139622747898102
1772871570979506700,9.948506591796875,-0.08178887516260147,0.05992591753602028,0.6589531302452087
1772871570989439700,9.958439697265625,-0.06204206496477127,0.030640466138720512,0.8236451745033264
1772871570999372800,9.968372802734375,-0.13602840900421143,-0.1619260460138321,0.8967989683151245
1772871571009305600,9.9783056640625,-0.3368541896343231,-0.4006020128726959,0.8992472290992737
1772871571019240000,9.988239990234375,-0.5531159043312073,-0.5502996444702148,0.8647816777229309
1772871571029173000,9.998173095703125,-0.6663897633552551,-0.5530882477760315,0.851777195930481
1772871571039106000,10.00810595703125,-0.6972717642784119,-0.5648412704467773,0.815382182598114
1772871571049039000,10.0180390625,-0.6205218434333801,-0.258076012134552,0.8613110184669495
1772871571058972200,10.02797216796875,-0.3841995894908905,0.03933302313089371,1.1574114561080933
1772871571068906000,10.037906005859375,-0.1273885816335678,0.3663939833641052,1.5469461679458618
1772871571078839000,10.047839111328125,0.08476468920707703,0.7799312472343445,1.8941326141357422
1772871571088772000,10.057772216796875,0.19711413979530334,1.0703222751617432,2.2208869457244873
1772871571098705200,10.067705078125,0.01326680276542902,1.1609174013137817,2.4282124042510986
1772871571108638000,10.077637939453124,-1.2738487720489502,0.26314589381217957,2.456648349761963
1772871571118572300,10.087572265625,-1.0091519355773926,-1.0389885902404785,1.5554183721542358
1772871571128505300,10.09750537109375,-0.3609851002693176,-1.780880093574524,0.7850343585014343
1772871571138438100,10.107438232421876,-0.007845672778785229,-2.4080984592437744,0.4141814708709717
1772871571148371200,10.11737109375,0.14957085251808167,-2.597991466522217,0.2976711094379425
1772871571158304300,10.12730419921875,0.24768222868442535,-2.849952459335327,0.19071722030639648
1772871571168238000,10.137238037109375,0.37063825130462646,-3.0080063343048096,0.11852824687957764
1772871571178171100,10.147171142578125,0.4519411027431488,-2.920685291290283,-0.17167001962661743
1772871571188104200,10.157104248046876,0.6200973391532898,-2.0318400859832764,-0.23928183317184448
1772871571198037200,10.167037353515624,0.7341256737709045,-0.28869518637657166,0.22126208245754242
1772871571207970000,10.176969970703125,0.7721747756004333,0.3772956132888794,0.6434937715530396
1772871571217904000,10.186904052734375,1.0809203386306763,1.0159282684326172,1.3136188983917236
1772871571227837200,10.196837158203126,1.5996825695037842,2.1312501430511475,2.3621723651885986
1772871571237770000,10.20677001953125,1.9761509895324707,3.229968547821045,3.310666084289551
1772871571247703000,10.216703125,1.9532701969146729,3.781653881072998,3.751699447631836
1772871571257636000,10.226635986328125,1.4387644529342651,3.636645555496216,3.36315655708313
1772871571267569200,10.236569091796875,0.6398902535438538,2.1727144718170166,1.8701430559158325
1772871571277503200,10.246503173828126,-0.18900135159492493,0.7970820069313049,0.4300038516521454
1772871571287436300,10.256436279296874,-1.0186442136764526,-0.5890928506851196,-0.5701585412025452
1772871571297369300,10.266369384765625,-1.5880637168884277,-1.5281444787979126,-0.9053986072540283
1772871571307302100,10.27630224609375,-1.64699387550354,-1.7515344619750977,-0.7457564473152161
1772871571317235200,10.286235107421875,-1.3482966423034668,-1.4597922563552856,-0.3344610631465912
1772871571327169300,10.296169189453124,-0.892356812953949,-0.6136777997016907,0.12299809604883194
1772871571337102000,10.30610205078125,-0.3846352994441986,0.4344305396080017,0.623066782951355
1772871571347035100,10.31603515625,-0.24274420738220215,1.2809884548187256,1.11350679397583
1772871571356968200,10.32596826171875,-0.7166425585746765,1.25869882106781,1.1056402921676636
1772871571366901200,10.3359013671875,-1.1871591806411743,0.47496944665908813,0.5324668288230896
1772871571376835000,10.3458349609375,-1.158623456954956,-0.22839482128620148,0.13473917543888092
1772871571386768100,10.35576806640625,-0.9109078645706177,-0.7194676399230957,-0.05968356877565384
1772871571396701200,10.365701171875,-0.6846848726272583,-0.702049195766449,-0.1963074654340744
1772871571406634000,10.375634033203125,-0.5254768133163452,-0.4656124413013458,-0.3239668905735016
1772871571416567000,10.385567138671876,-0.38652533292770386,-0.19577163457870483,-0.49594637751579285
1772871571426501400,10.39550146484375,-0.3362557888031006,0.022954851388931274,-0.796409547328949
1772871571436434200,10.40543408203125,-0.38249677419662476,0.24064643681049347,-0.7792550325393677
1772871571446367200,10.4153671875,-0.42304500937461853,0.27371037006378174,-0.7109835743904114
1772871571456300300,10.42530029296875,-0.5267141461372375,0.20029261708259583,-0.49618178606033325
1772871571466233300,10.4352333984375,-0.7054063677787781,0.0649062916636467,-0.10029438138008118
1772871571476166100,10.445166259765625,-0.9112942814826965,-0.14007587730884552,0.32400789856910706
1772871571486100200,10.455100341796875,-1.0045979022979736,-0.31103482842445374,0.6070212125778198
1772871571496033300,10.465033203125,-0.9566199779510498,-0.34602051973342896,0.6954360604286194
1772871571505966000,10.474966064453126,-0.839149534702301,-0.364096999168396,0.6312370896339417
1772871571515899100,10.484899169921874,-0.6430705785751343,-0.37249448895454407,0.4792443513870239
1772871571525832200,10.494832275390625,-0.40568891167640686,-0.37645646929740906,0.3119823932647705
1772871571535766000,10.50476611328125,-0.19717511534690857,-0.37043026089668274,0.09892817586660385
1772871571545699000,10.514698974609376,0.02472159080207348,-0.2113599181175232,0.0472431443631649
1772871571555632000,10.524632080078124,0.23117277026176453,0.05126425251364708,0.132698655128479
1772871571565565200,10.534565185546874,0.3912836015224457,0.31202182173728943,0.25223755836486816
1772871571575498000,10.544498046875,0.5321691036224365,0.3547770082950592,0.2603423595428467
1772871571585432000,10.55443212890625,0.581671953201294,0.18925701081752777,0.2905932068824768
1772871571595365000,10.564365234375,0.6138136386871338,0.1355953812599182,0.3366920053958893
1772871571605298200,10.574298095703124,0.5583812594413757,0.21570485830307007,0.2670934796333313
1772871571615231200,10.584231201171875,0.468593567609787,0.10588808357715607,0.16073589026927948
1772871571625164300,10.594164306640625,0.3326658308506012,0.015166702680289745,0.1356600970029831
1772871571635098000,10.60409814453125,0.12453606724739075,0.11588292568922043,0.3779001533985138
1772871571645031200,10.61403125,-0.09777023643255234,0.010482202284038067,0.23132111132144928
1772871571654964200,10.623964111328124,-0.12978196144104004,-0.15159006416797638,0.0473768375813961
1772871571664897300,10.633897216796875,-0.0787281021475792,-0.30989155173301697,-0.15894171595573425
1772871571674830000,10.643830078125,0.038247786462306976,-0.37354642152786255,-0.24480974674224854
1772871571684764200,10.65376416015625,0.1419539451599121,-0.33441340923309326,-0.2096107453107834
1772871571694697200,10.663697265625,0.19352871179580688,-0.19220033288002014,-0.11816898733377457
1772871571704630000,10.673630126953125,0.16971659660339355,0.061770956963300705,0.09948637336492538
1772871571714563000,10.68356298828125,0.14079706370830536,0.24937067925930023,0.2772105634212494
1772871571724496100,10.69349609375,0.11488344520330429,0.25364798307418823,0.26419302821159363
1772871571734429200,10.70342919921875,0.03815643861889839,0.17172834277153015,0.07285716384649277
1772871571744363000,10.713363037109374,-0.03488660976290703,0.0264262817800045,-0.20949622988700867
1772871571754296000,10.723296142578125,-0.05572531372308731,-0.09301489591598511,-0.41972458362579346
1772871571764229000,10.73322900390625,-0.01884506084024906,-0.09130541235208511,-0.3915802836418152
1772871571774162200,10.743162109375,0.006563360337167978,0.025236114859580994,-0.2538493275642395
1772871571784095000,10.753094970703126,0.06501282006502151,0.17839103937149048,-0.08634927123785019
1772871571794029300,10.763029296875,0.12095758318901062,0.29044461250305176,0.07157032191753387
1772871571803962000,10.772962158203125,0.16006290912628174,0.3489960730075836,0.15832892060279846
1772871571813895200,10.782895263671875,0.14996473491191864,0.29428303241729736,0.17509964108467102
1772871571823828200,10.792828125,0.11211881786584854,0.13399562239646912,0.1704481691122055
1772871571833761300,10.80276123046875,0.07069361209869385,0.005407282151281834,0.14159680902957916
1772871571843695000,10.812695068359375,0.04332030937075615,-0.024389762431383133,0.12551771104335785
1772871571853628200,10.822628173828125,0.019046662375330925,0.017953699454665184,0.13939571380615234
1772871571863561200,10.832561279296876,0.008392153307795525,0.05227731913328171,0.17732392251491547
1772871571873494300,10.842494384765626,0.005356681998819113,0.07999896258115768,0.19356493651866913
1772871571883427000,10.852427001953124,-0.014948323369026184,0.07496824860572815,0.18665775656700134
1772871571893361200,10.862361083984375,-0.02606302499771118,0.09638805687427521,0.12091843038797379
1772871571903294200,10.872294189453125,-0.04152427241206169,0.1008152961730957,0.07527212053537369
1772871571913227000,10.88222705078125,-0.03971492126584053,0.10356207937002182,0.10885617882013321
1772871571923160000,10.89216015625,0.0016439693281427026,0.12065957486629486,0.18154102563858032
1772871571933093000,10.902093017578125,0.0532110221683979,0.13054576516151428,0.3232579529285431
1772871571943026200,10.912026123046875,0.10210053622722626,0.1756216287612915,0.46649765968322754
1772871571952960300,10.921960205078125,0.109367236495018,0.37597230076789856,0.7286158204078674
1772871571962893300,10.931893310546876,0.0614875964820385,0.27651041746139526,0.6758503317832947
1772871571972826400,10.941826416015624,0.09669911116361618,0.17812632024288177,0.5187390446662903
1772871571982759200,10.95175927734375,0.12956039607524872,0.03380084037780762,0.32068613171577454
1772871571992692200,10.961692138671875,0.14233531057834625,-0.08563820272684097,0.05907450616359711
1772871572002626300,10.971626220703126,0.11995596438646317,-0.17681685090065002,-0.13838344812393188
1772871572012559000,10.98155908203125,0.12910765409469604,-0.14117497205734253,-0.16138729453086853
1772871572022492200,10.9914921875,0.10232743620872498,-0.00760998297482729,-0.02672588638961315
1772871572032425200,11.00142529296875,0.10193222016096115,0.09029980003833771,0.10971157997846603
