time,seconds_elapsed,z,y,x
1772882708145143600,0.0691435546875,-0.2065945857346058,0.022295418438315392,-0.19267258949652313
1772882708155075600,0.07907568359375,-0.14437690675258635,0.011869301491975784,-0.31267990188524125
1772882708165008600,0.089008544921875,-0.09146423173248767,-0.011444354078173636,-0.3277541368983686
1772882708174940700,0.098940673828125,-0.03807283328473568,-0.034983050575852395,-0.2960425092086196
1772882708184873500,0.10887353515625,-0.01459960323870182,-0.05872574521303177,-0.2320030216269195
1772882708194805500,0.118805419921875,-0.020055530557036398,-0.07461831087172031,-0.17611834505870938
1772882708204738300,0.12873828125,-0.03987783688008785,-0.09450959077775478,-0.20903394171074033
1772882708214670300,0.13867041015625,-0.018690671944618223,-0.09534896421134471,-0.21098244543001055
1772882708224603400,0.148603271484375,0.009666823011636733,-0.10025134930014609,-0.21910949165374038
1772882708234535400,0.158535400390625,0.01823942104578018,-0.11961655950546264,-0.20240195635035632
1772882708244468500,0.168468505859375,0.022194880673289296,-0.09750175833106041,-0.18642624245285988
1772882708254400500,0.178400390625,0.008574936121702193,-0.0924438904196024,-0.15026289605125784
1772882708264333600,0.18833349609375,-0.04921148241460323,-0.06866261733770371,-0.10246887921914458
1772882708274265600,0.198265625,-0.10101005871295929,-0.020955694267153737,-0.09095730512365699
1772882708284198400,0.208198486328125,-0.18304302975535391,0.007170914542675018,-0.17382585020735858
1772882708294130700,0.218130615234375,-0.26140637237429615,0.020458266139030457,-0.23321225128620862
1772882708304063500,0.2280634765625,-0.2944786208927631,-0.028354572346806526,-0.2785192736081779
1772882708313995500,0.23799560546875,-0.2600204709738493,-0.04387596660554409,-0.27820772344097494
1772882708323928600,0.247928466796875,-0.19602759901285172,-0.07654664858579635,-0.2840964892186224
1772882708333860400,0.2578603515625,-0.1382183841228485,-0.1053659158349037,-0.3072064389102161
1772882708343793400,0.26779345703125,-0.059956748312711715,-0.12180676302611827,-0.3361436334505677
1772882708353725400,0.277725341796875,-0.015969138026237485,-0.13479074776172636,-0.376518606197834
1772882708363658500,0.287658447265625,0.0034007483541965483,-0.11393851386904716,-0.41450829124376176
1772882708373590500,0.297590576171875,-0.04750175588726997,-0.07983867586851119,-0.46053851327374573
1772882708383523600,0.307523681640625,-0.11499649848937987,-0.059985389885306356,-0.4317752139955759
1772882708393455600,0.31745556640625,-0.14242401911914349,-0.06293079568743705,-0.3841276198968291
1772882708403388400,0.327388427734375,-0.08931026856899262,-0.05440262131690979,-0.34010990673303604
1772882708413320400,0.337320556640625,-0.04044131598174572,-0.06267535962164401,-0.25470278308242555
1772882708423253500,0.34725341796875,0.01955751790702343,-0.07513911987543105,-0.1741803627334535
1772882708433185500,0.357185546875,0.019496143108606336,-0.08284545646905898,-0.07153948794826864
1772882708443118600,0.36711865234375,0.011824293306469917,-0.07731412582695484,-0.00005976736322045326
1772882708453050600,0.377050537109375,-0.026532033094763756,-0.052390112450718875,0.04345876410678029
1772882708462983700,0.386983642578125,-0.07713350856304169,-0.016205284869670867,0.014186492393165826
1772882708472915500,0.39691552734375,-0.1555763461589813,0.015910685837268828,-0.03252542829066515
1772882708482848500,0.4068486328125,-0.207970550262928,0.05016366857290268,-0.11344503126367926
1772882708492780500,0.416780517578125,-0.26496143450737,0.05327683215737342,-0.19861279320046304
1772882708502713300,0.42671337890625,-0.28188626582324505,-0.018297873234748838,-0.22255393301919102
1772882708512645400,0.436645263671875,-0.27129005300700665,-0.09394728071987628,-0.22192922524958847
1772882708522578400,0.446578369140625,-0.22836334995031354,-0.16201017859876155,-0.18719956491291523
1772882708532510500,0.456510498046875,-0.169027363884449,-0.2180605671226978,-0.17885259232819078
1772882708542443500,0.466443603515625,-0.07969839061498642,-0.21792963421940803,-0.20810893582031129
1772882708552375600,0.47637548828125,-0.017584172007441518,-0.2173433587640524,-0.23534765587970613
1772882708562308600,0.48630859375,-0.017230536264181136,-0.22189678428471088,-0.22659268701598048
1772882708572241700,0.49624169921875,-0.06129413439631462,-0.20489771868884563,-0.19306655725017188
1772882708582173700,0.506173583984375,-0.10269465079903602,-0.12534078237116336,-0.049394145505130285
1772882708592106500,0.5161064453125,-0.12296586993336676,-0.08160217840969562,0.08731018079295753
1772882708602038300,0.526038330078125,-0.11994389176368712,-0.056762920707464214,0.1674550000011921
1772882708611971300,0.535971435546875,-0.12261632584333419,-0.04407002787292003,0.2395018529497087
1772882708621903400,0.5459033203125,-0.11480886696279048,-0.0388297891318798,0.2150778980500996
1772882708631836400,0.55583642578125,-0.13476619784235955,-0.019112112227082253,0.12279577406346798
1772882708641768400,0.5657685546875,-0.11734978361725806,-0.024428923335671423,0.026102117244899272
1772882708651701500,0.575701416015625,-0.03625964638292789,-0.032196634727716444,-0.0031572949871420857
1772882708661633500,0.585633544921875,0.11040858617722987,-0.06443535503149032,-0.06015197862386703
1772882708671566600,0.595566650390625,0.22301263657212256,-0.09169920953214168,-0.10059855530261992
1772882708681498600,0.60549853515625,0.2710790406048298,-0.12284195129275322,-0.14981339871808885
1772882708691431400,0.615431396484375,0.2166980465978384,-0.11033376737534999,-0.174661570379138
1772882708701363500,0.625363525390625,0.11278700574636459,-0.0967003788203001,-0.18983882737532257
1772882708711296500,0.635296630859375,-0.015957447588443755,-0.05802198085784912,-0.25696897444874045
1772882708721228500,0.645228515625,-0.1314180564582348,0.003545125260949135,-0.349381739077717
1772882708731161600,0.65516162109375,-0.18226444659829139,0.04900105453431606,-0.40273397455886006
1772882708741093400,0.66509326171875,-0.2508604284405708,0.08312310436666011,-0.37819735306501384
1772882708751026400,0.6750263671875,-0.2849158427774906,0.0959726490676403,-0.3572318680562079
1772882708760958500,0.68495849609375,-0.2636795780032873,0.09326923532783984,-0.4138165095873177
1772882708770891500,0.6948916015625,-0.15092881261408328,0.05920388411879539,-0.4661562070250511
1772882708780823600,0.704823486328125,-0.057903907436132426,0.03702010936141014,-0.4612229884065687
1772882708790756400,0.71475634765625,0.017228782698512076,0.018082769179344177,-0.43826662184149023
1772882708800688400,0.7246884765625,0.061574704903364176,-0.016947043147683142,-0.42391222553551194
1772882708810621400,0.734621337890625,0.07834697600603104,-0.05610708714723587,-0.4251083034522831
1772882708820553500,0.744553466796875,0.049590837121009826,-0.08311199845075606,-0.41473523186743255
1772882708830486500,0.754486572265625,-0.025564649367332458,-0.09084522305130958,-0.42367856291010975
1772882708840418600,0.76441845703125,-0.08190203813910484,-0.06312427243292332,-0.42089682323709127
1772882708850351600,0.7743515625,-0.14510463650524616,-0.03650573009848594,-0.4130848343119025
1772882708860283600,0.78428369140625,-0.17241057658195494,-0.023346973317861557,-0.3930513694562018
1772882708870216700,0.794216796875,-0.15297873088121414,-0.03691314185559749,-0.3845176421277225
1772882708880148500,0.8041484375,-0.05761164649128914,-0.06410334659814834,-0.40325595260635017
1772882708890081300,0.814081298828125,-0.011196516796946525,-0.07095686575472354,-0.3971021061517298
1772882708900013600,0.824013671875,-0.002055178964138031,-0.06147942783534526,-0.3677140991039574
1772882708909946400,0.8339462890625,-0.05223579867184162,-0.026566519886255264,-0.3387719361275434
1772882708919878400,0.84387841796875,-0.07678221090734004,-0.005444236880540848,-0.24891923124492166
1772882708929811500,0.8538115234375,-0.07333236271440982,-0.023798808738589285,-0.15280015944391487
1772882708939744500,0.86374462890625,-0.0595043283700943,-0.021837153276801108,-0.05684095437973737
1772882708949677600,0.873677490234375,-0.06028700318038463,-0.06222936941981315,-0.004396335262805223
1772882708959609300,0.883609375,-0.05125672450661659,-0.07718962266445159,-0.005907178217172623
1772882708969542100,0.893542236328125,-0.04385258572995662,-0.04522913478016853,-0.013366408181935548
1772882708979474400,0.903474365234375,-0.025507950744032858,-0.0007850128978490829,-0.0060879416115581985
1772882708989407200,0.9134072265625,-0.032063363736867904,0.015931728625297546,-0.0233668470621109
1772882708999339300,0.92333935546875,-0.04922434189617633,-0.006959902140498161,-0.04980111887082457
1772882709009272300,0.933272216796875,-0.08317512681484222,-0.010268880558013916,-0.028643180029839274
1772882709019204400,0.943204345703125,-0.12698796505630017,-0.02747428238093853,-0.03712795365005731
1772882709029137400,0.953137451171875,-0.1604080040991306,-0.01492635097503662,-0.07162249005660415
1772882709039069400,0.9630693359375,-0.12295885567069052,-0.004780220013856888,-0.09813976397365332
1772882709049002500,0.97300244140625,-0.037465515041351316,-0.04395136992931366,-0.12025368836522102
1772882709058934500,0.9829345703125,0.014392682489752768,-0.07025777757465838,-0.11481120505034922
1772882709068867300,0.992867431640625,-0.00004208557605743408,-0.08114449777007103,-0.13314765672981738
1772882709078800400,1.00280029296875,-0.015154899033904075,-0.07342530169487,-0.11214257036298513
1772882709088732400,1.012732421875,-0.034794250005483626,-0.10242343264222145,-0.11690393954589963
1772882709098664200,1.022664306640625,-0.021305822879076,-0.10275719464123248,-0.07945932116210461
1772882709108597200,1.03259716796875,0.020093524479866027,-0.10975684427022933,-0.002582856100052595
1772882709118530300,1.0425302734375,0.04434007698595523,-0.11152210037708282,0.04835033554062247
1772882709128462300,1.05246240234375,0.023404840984940528,-0.08309446279406547,0.08142623732089996
1772882709138395400,1.0623955078125,-0.03756371471881866,-0.08359598257541656,0.052352556919306514
1772882709148327400,1.072327392578125,-0.07009411144554614,-0.05594225197434425,0.004859861121326685
1772882709158260200,1.08226025390625,-0.10236147332191467,-0.03896013751327991,0.0026300562426447866
1772882709168192500,1.092192626953125,-0.15700433313548565,-0.006554828470945358,-0.054152153687179086
1772882709178125300,1.102125244140625,-0.2324088259488344,0.017396540480852127,-0.13909209821745752
1772882709188057300,1.112057373046875,-0.2746376098692417,0.053394321057200426,-0.18741978353485464
1772882709197990400,1.121990478515625,-0.242178524813056,0.04990063372254371,-0.19586787840649483
1772882709207922400,1.13192236328125,-0.16622750403285025,0.025265958681702613,-0.2195361926332116
1772882709217855500,1.14185546875,-0.08932078996300696,-0.00760521430671215,-0.2152177449122071
1772882709227787300,1.151787353515625,0.029713585740327834,-0.03250818489491939,-0.20174144661501048
1772882709237720300,1.16172021484375,0.08283902672827244,-0.0775900201588869,-0.15474647120609877
1772882709247652400,1.17165234375,0.10134323619008063,-0.11376374182403087,-0.14822598339617252
1772882709257585400,1.18158544921875,0.05940437512695789,-0.11381693331599235,-0.13961743726581335
1772882709267517400,1.191517333984375,0.013010288220643996,-0.08718436245620251,-0.12282792276740073
1772882709277450200,1.2014501953125,-0.007305354577302932,-0.05179331560134887,-0.14877850271239876
1772882709287382300,1.21138232421875,-0.06822773305177689,-0.030950434058904647,-0.10576529041603207
1772882709297315300,1.2213154296875,-0.07664835539460181,-0.015697335347533224,-0.01741992135643959
1772882709307247400,1.231247314453125,-0.06321253523826599,-0.004559855261445045,0.05159092489704489
1772882709317180400,1.241180419921875,-0.023013795840740203,-0.018595979398488997,-0.046274406049400564
1772882709327112400,1.251112548828125,-0.015945757150650025,-0.03498889579474926,-0.11883140047714114
1772882709337045500,1.26104541015625,-0.07075228309333324,-0.07792027502655982,-0.17361308423951266
1772882709346977500,1.2709775390625,-0.07489069807231426,-0.06564648438692093,-0.23767756013199687
1772882709356910600,1.28091064453125,-0.10387655405998229,-0.059685530155897136,-0.2679711377173662
1772882709366842400,1.29084228515625,-0.07279869422912598,-0.038111996251344676,-0.2550841836154461
1772882709376775200,1.300775146484375,-0.09908873526155948,0.015448913544416427,-0.13984525467231868
1772882709386707200,1.310707275390625,-0.12417407667934893,-0.003402501919865608,-0.029047815307974813
1772882709396640300,1.32064013671875,-0.1839507922500372,-0.03320435046553612,0.0340514688141644
1772882709406572300,1.330572265625,-0.19053718490302562,-0.05870294885933399,0.0058054714083671565
1772882709416505300,1.34050537109375,-0.13211597559452057,-0.11015607272088528,-0.10396993143185973
1772882709426437400,1.350437255859375,-0.0718733960777521,-0.1614157198369503,-0.18854265008494256
1772882709436370400,1.360370361328125,0.00047463177442550657,-0.17801204985082147,-0.2540527947410941
1772882709446302500,1.370302490234375,0.01930441992878914,-0.17121522931754588,-0.3377173125080764
1772882709456235500,1.380235595703125,0.004314940589666367,-0.15120879859924316,-0.3910211788028478
1772882709466167600,1.39016748046875,-0.02234159566760063,-0.08256313239634036,-0.37556452034339305
1772882709476100400,1.400100341796875,-0.10354454562664031,-0.04058920001983642,-0.34367914352193474
1772882709486032400,1.410032470703125,-0.21474282087683677,-0.03195990336239338,-0.29213761072456834
1772882709495965400,1.41996533203125,-0.2684901931554079,0.005575169783830642,-0.24483619971498846
1772882709505897200,1.429897216796875,-0.2647603589773178,0.041427404409646984,-0.19136925181299447
1772882709515830300,1.439830322265625,-0.2518196288615465,0.036628479695320126,-0.18140066937580704
1772882709525762300,1.44976220703125,-0.17936814063489437,0.02521978145241737,-0.1993827546596527
1772882709535695400,1.4596953125,-0.0655909548074007,0.009301496830582618,-0.2317816339612007
1772882709545627400,1.46962744140625,0.0010433715730905533,-0.0065641808211803435,-0.21419512386620043
1772882709555560400,1.479560546875,0.06905249343812465,-0.06802958013117313,-0.19490254050567746
1772882709565492500,1.489492431640625,0.09989771355688572,-0.08458265552520751,-0.17351240034401416
1772882709575425300,1.49942529296875,0.12968553357720375,-0.07303074941933155,-0.096898239479959
1772882709585357300,1.509357421875,0.16018588578104972,-0.08460603640079498,-0.09185980692133307
1772882709595290400,1.519290283203125,0.11404723494052886,-0.045967970448732375,-0.06188011759072542
1772882709605222400,1.529222412109375,0.08015899386405945,-0.014433014500141143,-0.013907821582257746
1772882709615155500,1.539155517578125,-0.010977321088314056,0.015255436798930168,-0.03492065286412835
1772882709625087200,1.549087158203125,-0.0886877527564764,0.00026128128468990325,-0.02573357619345188
1772882709635020300,1.559020263671875,-0.12042904493212699,-0.028107904109358785,-0.015020020607858895
1772882709644952300,1.568952392578125,-0.1218143618106842,-0.0571118802756071,-0.052559623798727986
1772882709654885400,1.578885498046875,-0.09899345819354056,-0.09311082989573478,-0.11688508871495723
1772882709664817400,1.5888173828125,-0.03297287979722023,-0.08450549863576888,-0.16455620981976388
1772882709674750200,1.598750244140625,-0.026046295404434202,-0.053311318948864934,-0.22336641844585536
1772882709684682500,1.6086826171875,-0.08239888174533844,-0.057820905327796934,-0.31590690110772846
1772882709694615300,1.618615234375,-0.12900398105382918,-0.029073534271121023,-0.34367870513051746
1772882709704547300,1.62854736328125,-0.12234335412085055,-0.02736789939701557,-0.35332565439790486
1772882709714480400,1.63848046875,-0.139093997913599,-0.055745268097519875,-0.336047041208297
1772882709724412400,1.648412353515625,-0.17096914560198784,-0.0645493367999792,-0.25894553521871566
1772882709734345500,1.658345458984375,-0.18262801921367644,-0.050824762830138204,-0.1261760641515255
1772882709744277500,1.668277587890625,-0.165868023070693,-0.024186931273341178,-0.05931655071303248
1772882709754210600,1.67821044921875,-0.12704466367959977,0.009956161347031593,-0.09554784778431058
1772882709764142300,1.688142333984375,-0.10272270784974098,0.03844809633791446,-0.12741408151388167
1772882709774075400,1.698075439453125,-0.06364449691474437,0.01703472143113613,-0.19642478163689372
1772882709784007400,1.70800732421875,-0.1141676464498043,-0.055793783414363855,-0.20706673329100012
1772882709793940200,1.717940185546875,-0.14544833537638185,-0.09984393754303454,-0.11108400122076273
1772882709803872300,1.727872314453125,-0.06481587878167629,-0.10590367597341536,-0.031847675159573555
1772882709813805300,1.737805419921875,0.0645060821801424,-0.10692366667091846,-0.08374298983067274
1772882709823738400,1.74773828125,0.16172551643848418,-0.09650982468426227,-0.13836948303133248
1772882709833670400,1.75767041015625,0.1881277856737375,-0.0728495476335287,-0.16204510378167034
1772882709843603500,1.767603515625,0.13059621868133545,-0.052961774858832356,-0.17974807986319064
1772882709853535500,1.777535400390625,0.03597264613509178,-0.054984805119037625,-0.16481456849500536
1772882709863468300,1.78746826171875,-0.08527765205204486,-0.04902852706313133,-0.15089301064834
1772882709873400600,1.797400634765625,-0.22433365604281424,-0.0372919120401144,-0.0876150089584291
1772882709883333400,1.80733349609375,-0.2625409293621778,-0.02235562419295311,-0.09492007127478719
1772882709893265400,1.817265380859375,-0.20477730717957018,0.020106968483328817,-0.08395166414529084
1772882709903198500,1.827198486328125,-0.137939567181468,-0.002945405802130699,-0.1139746080957353
1772882709913130200,1.837130126953125,-0.0811497584670782,-0.034250060126185415,-0.13023366897925734
1772882709923063300,1.847063232421875,-0.040329087778925896,-0.043591304445266724,-0.13815642480254173
1772882709932994800,1.856994873046875,-0.029263503885269163,-0.07780570873618126,-0.07905483201444148
1772882709942928000,1.866927978515625,-0.024425416204333306,-0.0688023180693388,-0.05384411065131425
1772882709952860000,1.87685986328125,-0.0005032733470201492,-0.07564590035378932,-0.052783349552005525
1772882709962793000,1.88679296875,-0.018422376397252083,-0.05218552978932857,-0.08680603066310286
1772882709972725000,1.89672509765625,-0.036758828076720235,-0.013131868773698806,-0.14740049235746264
1772882709982657800,1.90665771484375,-0.08031447668671607,-0.0031090719312429427,-0.1482373815730214
1772882709992589800,1.91658984375,-0.10575111576020717,-0.008809329399466515,-0.16656886481642721
1772882710002523000,1.92652294921875,-0.12925883259773255,-0.01548573842346668,-0.16402780203148723
1772882710012455000,1.936454833984375,-0.11715104617476463,-0.013648586124181747,-0.19419833775907755
1772882710022388000,1.946387939453125,-0.07761281651258468,-0.015848141995072364,-0.23116072558388112
1772882710032320000,1.956320068359375,0.0013853168785572052,-0.04857201546728611,-0.24887173884138464
1772882710042253000,1.966253173828125,0.0672422291457653,-0.07428688696026801,-0.21238982800990341
1772882710052184800,1.976184814453125,0.07523381242156028,-0.10018763641417026,-0.16522227251306176
1772882710062118000,1.986117919921875,0.0341068522632122,-0.11800795526504516,-0.12285977921038865
1772882710072050000,1.9960498046875,-0.039923429587483406,-0.11105039121210575,-0.04479804988652467
1772882710081983000,2.00598291015625,-0.07619885806143284,-0.08166238416433334,0.012602438072115182
1772882710091915000,2.0159150390625,-0.07638648958802223,-0.06715747347176075,0.030895050609856842
1772882710101847800,2.025847900390625,-0.06348083078563213,-0.032737901997566224,0.004519377120584249
1772882710111779800,2.03577978515625,-0.07391162390708923,-0.018199089035391806,-0.04375190183445811
1772882710121713000,2.045712890625,-0.0751285984814167,-0.02686170344054699,-0.14102043593153357
1772882710131645000,2.05564501953125,-0.03796002056002617,-0.02490355511009693,-0.2258369002126157
1772882710141578000,2.065577880859375,-0.03737491414844989,-0.07200315993726253,-0.21284823930189012
1772882710151510000,2.075510009765625,-0.06857377001047134,-0.10430793121457099,-0.17925152851790188
1772882710161443000,2.085443115234375,-0.1418780756741762,-0.120263040715456,-0.14041165638342498
1772882710171374800,2.095374755859375,-0.2141185514986515,-0.11735036813914775,-0.12584770897999406
1772882710181308000,2.105307861328125,-0.20167758759856222,-0.07890870154201984,-0.1763191283278167
1772882710191240000,2.115239990234375,-0.169575645416975,-0.03884966287612915,-0.2689734466277063
1772882710201172700,2.1251728515625,-0.1001812066733837,-0.025931729114055634,-0.31457521411255
1772882710211104800,2.135104736328125,-0.05647767402529716,-0.00554302107989788,-0.34285905931070443
1772882710221037800,2.145037841796875,-0.07522796720266342,-0.03326747882962227,-0.3003239859201014
1772882710230969900,2.154969970703125,-0.10430033243000507,-0.059979544666409486,-0.24731968709379434
1772882710240903000,2.16490283203125,-0.10414017343223095,-0.051662382698059076,-0.2122872444182634
1772882710250835000,2.1748349609375,-0.11833119587004184,-0.03710369599163532,-0.19732056143283844
1772882710260768000,2.18476806640625,-0.11211422105133532,-0.027249241453409193,-0.20323855330497026
1772882710270700000,2.194699951171875,-0.10743570784628391,-0.01595510950088501,-0.15242548091262578
1772882710280633000,2.204633056640625,-0.12860533712506295,-0.014701894569396972,-0.13462927358970045
1772882710290565000,2.214565185546875,-0.11307342147231102,-0.029903555354475975,-0.14401201896294952
1772882710300498000,2.224497802734375,-0.0694423695385456,-0.05923486377894878,-0.14686346287131308
1772882710310429700,2.2344296875,0.021274843218922614,-0.05789981578290462,-0.18835487242788077
1772882710320362800,2.24436279296875,0.09542027588188648,-0.05797112745344638,-0.20653715645894408
1772882710330294800,2.254294677734375,0.11112696357965468,-0.08307984974682331,-0.2288072943255305
1772882710340227800,2.264227783203125,0.012909750455617904,-0.07899228817224502,-0.19699191400036214
1772882710350160000,2.274159912109375,-0.06061725804805755,-0.08593816178739071,-0.18899287807047366
1772882710360093000,2.284093017578125,-0.1012052890241146,-0.0853980635613203,-0.197200149923563
1772882710370025000,2.29402490234375,-0.11732523369789123,-0.06770166335105895,-0.23741715563014149
1772882710379958000,2.3039580078125,-0.12434826420247554,-0.04102057717442512,-0.25571269077733155
1772882710389890000,2.31389013671875,-0.16680734974741934,-0.030920038920640942,-0.26203137240484353
1772882710399822800,2.32382275390625,-0.18014497022628784,-0.015360650739073752,-0.2653526257820427
1772882710409755000,2.3337548828125,-0.19420564428269863,-0.009835749837756156,-0.2588520117163658
1772882710419688000,2.34368798828125,-0.19310089791119098,-0.0335404505521059,-0.2325694233380258
1772882710429620000,2.353619873046875,-0.13993161778151988,-0.05448211629390716,-0.22341274180561302
1772882710439553000,2.363552978515625,-0.0705406861692667,-0.029937457624077794,-0.20748817357346414
1772882710449486000,2.373486083984375,-0.06751286278069019,-0.041866964870691296,-0.21516528407260774
1772882710459417900,2.38341796875,-0.001187163957953453,-0.03772971893548965,-0.22572014196515083
1772882710469351000,2.393350830078125,-0.01040858128964901,-0.05909925470054149,-0.22022402876690028
1772882710479283000,2.403282958984375,-0.017891630521416662,-0.12192132931649684,-0.2359130346775055
1772882710489215700,2.4132158203125,-0.01689268261194229,-0.13404080617725847,-0.20259528696537016
1772882710499147800,2.423147705078125,-0.03381459131836891,-0.13089198675751684,-0.20857713785395024
1772882710509080800,2.433080810546875,-0.03314005305767059,-0.11192191334962844,-0.20505568572953342
1772882710519012900,2.443012939453125,-0.046585810086131094,-0.0681570059031248,-0.2326565170995891
1772882710528946000,2.45294580078125,-0.0737082102894783,-0.05468436086773872,-0.22472177857756614
1772882710538878000,2.4628779296875,-0.13041735498309134,-0.031732524347305294,-0.1968964908018708
1772882710548811000,2.47281103515625,-0.1712497161090374,-0.03929214594662189,-0.14758008670806885
1772882710558743000,2.482742919921875,-0.17114099503755567,-0.048123687177896494,-0.14799495111927388
1772882710568676000,2.492676025390625,-0.11059271057248114,-0.030500352203845976,-0.15077581400945783
1772882710578607900,2.50260791015625,-0.04616670789122581,-0.019551088166236876,-0.18579875820428132
1772882710588540700,2.512540771484375,-0.03142097418010235,-0.03504325633049011,-0.2050393191166222
1772882710598473000,2.522472900390625,-0.08817161992788314,-0.06421323671340942,-0.14369476970732212
1772882710608405800,2.53240576171875,-0.15425941834151743,-0.07648761187493801,-0.11664821121916175
1772882710618337800,2.542337890625,-0.1524620135307312,-0.09157938254475594,-0.09600392098873853
1772882710628270800,2.552270751953125,-0.11321312220394611,-0.09075345311462879,-0.0902910962998867
1772882710638203000,2.562202880859375,-0.07108662961423397,-0.07057868009209632,-0.06877163067013024
1772882710648136000,2.572135986328125,-0.007374328160285949,-0.033983518144488335,-0.13819091159403324
1772882710658068000,2.58206787109375,-0.05677694923281669,-0.007858896806836128,-0.2187685692615807
1772882710668001000,2.5920009765625,-0.10357903241813182,-0.027377251747250555,-0.2775833079323172
1772882710677933000,2.60193310546875,-0.07910100924372672,-0.04668810141682624,-0.2758021236039698
1772882710687865900,2.611865966796875,-0.049804772132635115,-0.06285831497311592,-0.29776494908705353
1772882710697798000,2.6217978515625,-0.04254267217516899,-0.11157704543471336,-0.2512342301890254
1772882710707731000,2.63173095703125,-0.05269757096469402,-0.13942951347827912,-0.17486060008257626
1772882710717662700,2.641662841796875,-0.06552490383386611,-0.11368190875947475,-0.09573153378814458
1772882710727595800,2.651595703125,-0.05858838256895542,-0.06031856736242771,-0.040830899821221824
1772882710737527800,2.66152783203125,-0.05594926623702049,-0.026671733826398848,0.003159340813755989
1772882710747460900,2.6714609375,-0.0564846882879734,-0.017287819409370422,-0.005451397273689508
1772882710757393000,2.681392822265625,-0.09756137956380843,-0.009554010286927223,-0.01785655920803547
1772882710767326000,2.691325927734375,-0.11825170089304446,0.0009252981513738632,-0.04624547221586108
1772882710777258000,2.701258056640625,-0.0815203453451395,-0.021978023052215575,-0.08178630280494689
1772882710787191000,2.71119091796875,-0.020023966374993322,-0.049587914511561394,-0.18044234573766588
1772882710797123000,2.721123046875,-0.0048848494321107865,-0.06034662441313266,-0.20547873344719408
1772882710807056000,2.731055908203125,-0.012197802793979645,-0.08146306219995021,-0.20656828224956988
1772882710816988000,2.74098779296875,-0.06623451340794563,-0.07096037288606166,-0.2220306397974491
1772882710826921000,2.7509208984375,-0.08420330081880092,-0.055687400430440896,-0.19431655731126665
1772882710836853000,2.76085302734375,-0.09729366853833198,-0.07638999671936035,-0.18054522159025072
1772882710846786000,2.7707861328125,-0.13081833699941633,-0.08140344096720219,-0.14664222133606672
1772882710856717800,2.7807177734375,-0.16922668584883213,-0.07105857256352902,-0.13935674050301314
1772882710866651000,2.79065087890625,-0.2048848592072725,-0.0926134017676115,-0.19285919810980556
1772882710876583000,2.8005830078125,-0.21925182273387908,-0.08209142323136329,-0.20973945963159202
1772882710886516000,2.810515869140625,-0.18972996017336843,-0.036053894677758214,-0.2523779933966696
1772882710896448000,2.820447998046875,-0.11252572446167468,-0.03383154245316982,-0.29276334140747784
1772882710906380800,2.830380859375,-0.013077508237957954,-0.03196925571262836,-0.27142800017297264
1772882710916312800,2.840312744140625,0.03098375180661678,-0.033082769912481304,-0.18902765712291
1772882710926246000,2.850245849609375,0.06490063445568084,-0.06117372288703918,-0.14320304066762327
1772882710936178700,2.8601787109375,0.05276245289444923,-0.030478724893927573,-0.08626111013144254
1772882710946111700,2.87011181640625,0.020358897417783735,-0.049159459966421126,-0.05854366664439439
1772882710956043800,2.880043701171875,-0.01583820512294769,-0.04191255757808685,-0.04634425641521811
1772882710965976800,2.889976806640625,-0.06264437996149062,-0.0317582433104515,-0.03894800868406892
1772882710975908900,2.899908935546875,-0.1092746137112379,-0.046321606191992756,-0.044520548119395965
1772882710985841700,2.909841552734375,-0.13830430884063244,-0.05700082111656665,-0.07586977223753928
1772882710995773700,2.919773681640625,-0.1411111829549074,-0.048829205098748205,-0.11692249811589717
1772882711005706800,2.929706787109375,-0.09671265377998352,-0.05398118103444576,-0.15308540612608193
1772882711015638800,2.939638671875,-0.015179448953270912,-0.05246493125259876,-0.21370704808831215
1772882711025571800,2.94957177734375,0.054880760222673415,-0.05330372016429901,-0.25562837349474427
1772882711035503900,2.95950390625,0.06844166806340217,-0.04276712858080864,-0.2612279470674693
1772882711045437000,2.96943701171875,0.022957681739330292,-0.022799860829114914,-0.21978198408782482
1772882711055369000,2.979368896484375,-0.08402619068622588,-0.01116495261490345,-0.16004209339618683
1772882711065302000,2.989302001953125,-0.16798223874568938,0.0018991116195917128,-0.10782529168576001
1772882711075233800,2.99923388671875,-0.19181085810065268,-0.004164718464016914,-0.12682459118813275
1772882711085166600,3.00916650390625,-0.1594073026239872,-0.04213526041805744,-0.14263561604321
1772882711095098600,3.0190986328125,-0.10955635326206684,-0.04996960730552673,-0.14076310016959906
1772882711105031700,3.02903173828125,-0.028703531914949416,-0.0531383004695177,-0.11855419097095728
1772882711114963700,3.038963623046875,0.010965046128630638,-0.06343348451256751,-0.09581219780892133
1772882711124896800,3.048896728515625,0.03080255002081394,-0.06641337710618972,-0.11658785933405161
1772882711134828800,3.058828857421875,0.035028643283247944,-0.046184828069806096,-0.14398732291311025
1772882711144761900,3.068761962890625,0.0185305129468441,-0.0493044213950634,-0.15306509399041532
1772882711154694000,3.07869384765625,-0.07600187418460845,-0.08014847247004508,-0.2164706675827503
1772882711164627000,3.088626953125,-0.1707826831191778,-0.060008186239004134,-0.14684066651761532
1772882711174559000,3.09855908203125,-0.1632499495267868,-0.0224257668197155,-0.07017097607403994
1772882711184491800,3.10849169921875,-0.10048866518735886,-0.019755086305737496,-0.009509878884255885
1772882711194423600,3.118423583984375,-0.07241933952271938,-0.009393266767263412,0.01089519576281309
1772882711204356600,3.128356689453125,-0.07084697563946246,0.020903087297081947,0.011307283695042133
1772882711214288600,3.13828857421875,-0.0943342342108488,0.019969021317362785,-0.08212430258765817
1772882711224221700,3.1482216796875,-0.12788988233208656,-0.017778233274817465,-0.18624708649367092
1772882711234153700,3.15815380859375,-0.0811024121940136,-0.04635609298348427,-0.2452186231613159
1772882711244086800,3.168086669921875,-0.008083937734365464,-0.08944237051606178,-0.27873803092539307
1772882711254018800,3.178018798828125,0.04166822742819786,-0.11610533651411532,-0.2867323906801641
1772882711263952000,3.187951904296875,0.05419043987095356,-0.14103051893413066,-0.2666720378175378
1772882711273884700,3.197884765625,0.03448503792583942,-0.10589607718884944,-0.2487871292978525
1772882711283816700,3.207816650390625,0.020109306570887563,-0.05229483538269997,-0.171079766369611
1772882711293748700,3.217748779296875,0.000180032742023468,-0.044834582504630086,-0.111361356857419
1772882711303681800,3.227681884765625,-0.05235445661544799,-0.022392449072003363,-0.06711480337381362
1772882711313614800,3.23761474609375,-0.0635036271393299,0.01535246743261814,-0.05352598461285233
1772882711323547000,3.247546875,-0.09390227253437042,0.04987433023750782,-0.05042670342326164
1772882711333480000,3.25747998046875,-0.06279051043391227,0.04411035988330841,-0.10250146631449461
1772882711343411700,3.26741162109375,0.0025800796210765837,0.020466449445486066,-0.16224062635377048
1772882711353344800,3.2773447265625,0.0457096117734909,-0.03407937973439693,-0.13417305425480008
1772882711363276800,3.28727685546875,0.07345745039880275,-0.05799392380714416,-0.05232552278190851
1772882711373208800,3.297208740234375,0.0247960030823946,-0.05381985299289226,-0.0025296646080911157
1772882711383141600,3.3071416015625,0.018779519271850585,-0.06979132910668849,-0.023526275407522914
1772882711393074700,3.31707470703125,0.005588029265403747,-0.057120648103952405,-0.031112054361402987
1772882711403006700,3.3270068359375,-0.01870119333863258,-0.02793079397678375,-0.03775236915871501
1772882711412939800,3.336939697265625,-0.09124152889251709,-0.006291209098696709,-0.12645049717873333
1772882711422871800,3.346871826171875,-0.1434247205942869,-0.018700608816742896,-0.20936989566683767
1772882711432804900,3.356804931640625,-0.15700900931060313,-0.054316112077236176,-0.23002996798828243
1772882711442737000,3.36673681640625,-0.14611059867739676,-0.05484101273417472,-0.23949308512136339
1772882711452670000,3.376669921875,-0.1390729551255703,-0.08733516910374164,-0.2585600430324673
1772882711462602000,3.38660205078125,-0.11623568489551543,-0.08552256672382354,-0.26225276007056236
1772882711472534800,3.39653466796875,-0.05853519107699394,-0.06083937636613845,-0.2635273100510239
1772882711482466800,3.406466796875,-0.00760521430671215,-0.059554012730717656,-0.26149711939767
1772882711492399600,3.416399658203125,-0.022306524354219436,-0.08040683114528656,-0.19038842408210038
1772882711502331600,3.42633154296875,-0.003067570877075195,-0.060194064199924464,-0.1274406772598624
1772882711512264700,3.4362646484375,-0.06352583897113799,-0.0386602777838707,-0.09110358172655104
1772882711522196700,3.44619677734375,-0.12682605249285697,-0.032488895672559734,-0.10684636365100741
1772882711532129800,3.4561298828125,-0.16073007566034792,-0.07491817060112953,-0.12495105240121483
1772882711542061800,3.466061767578125,-0.18296762643158435,-0.08573474816977977,-0.13407748492583632
1772882711551995000,3.475994873046875,-0.1483656841278076,-0.0965390507787466,-0.15643047877028585
1772882711561927000,3.485927001953125,-0.05809738418161869,-0.0871715029746294,-0.21005685501769183
1772882711571859700,3.495859619140625,0.05694762962460517,-0.04590718017220497,-0.24004312021955845
1772882711581792000,3.5057919921875,0.11956278349161148,-0.04485036459565162,-0.24376681691780686
1772882711591724800,3.515724853515625,0.14687281522154808,-0.02346095508635044,-0.20603680572137234
1772882711601656600,3.525656494140625,0.06413958695530891,-0.013768413111567497,-0.12410013466030359
1772882711611589600,3.535589599609375,-0.05046294378042221,-0.025415011763572692,-0.04464709710851311
1772882711621521700,3.545521728515625,-0.17639760039150715,-0.02847147672474384,-0.003375613912940025
1772882711631454700,3.555454833984375,-0.22388123610019683,-0.03612228373885155,-0.03764437873959541
1772882711641386800,3.56538671875,-0.21797171979546545,-0.0506985061019659,-0.11171762294918298
1772882711651319800,3.57531982421875,-0.2018710643440485,-0.08195990580618381,-0.18441563328281044
1772882711661251800,3.585251953125,-0.17417466364502907,-0.09443827910721302,-0.22394290315955875
1772882711671185000,3.595184814453125,-0.1150607958972454,-0.0960334393441677,-0.2578992410361767
1772882711681117000,3.605116943359375,-0.06939677683115004,-0.09095920481979847,-0.318729557313025
1772882711691049700,3.6150498046875,-0.06047405018508434,-0.08070435278713703,-0.3137570295974612
1772882711700981800,3.624981689453125,-0.045592707395553586,-0.057228784653544425,-0.3006630086161196
1772882711710914800,3.634914794921875,-0.056775195667147636,-0.06155073950588703,-0.28065277850553394
1772882711720846800,3.644846923828125,-0.08065349938273429,-0.05208674558997154,-0.19215791797265408
1772882711730780000,3.65477978515625,-0.06830372089743614,-0.04172141892015934,-0.10071385224536061
1772882711740711700,3.664711669921875,-0.10866612642407417,-0.027796353942155835,-0.0716335959725082
1772882711750644700,3.674644775390625,-0.1078325982093811,-0.021266659912467,-0.06102554658800363
1772882711760576800,3.68457666015625,-0.07802548896670342,-0.00961772317290306,-0.08939356293827294
1772882711770509800,3.694509765625,-0.04160451454222202,-0.029910569617152213,-0.11349851501658559
1772882711780441900,3.70444189453125,-0.008468553137779236,-0.047072716820240015,-0.1241049569658935
1772882711790374700,3.714374755859375,0.010154898789525031,-0.07519757206439971,-0.14077522899881004
1772882711800306700,3.724306640625,0.03295183700919151,-0.0827922649770975,-0.15845044029057026
1772882711810239700,3.73423974609375,0.04144026389122009,-0.07142097613513469,-0.18125950733944773
1772882711820171800,3.744171875,0.04878887308835983,-0.05850596498250961,-0.1881912062987685
1772882711830104800,3.754104736328125,0.025532500663399696,-0.06650514704287051,-0.1664735877484083
1772882711840036900,3.764036865234375,-0.045721302211284634,-0.09980126744508742,-0.12713789492100477
1772882711849970000,3.773969970703125,-0.08281389228701591,-0.10445815334022045,-0.10539587258175015
1772882711859902000,3.78390185546875,-0.08080079889893531,-0.10086275919675826,-0.16153496230244635
1772882711869835000,3.7938349609375,-0.06155073950588703,-0.03438800729215145,-0.21909590151980518
1772882711879766800,3.803766845703125,-0.09777706814110279,0.007093757653236389,-0.22915786132887003
1772882711889699600,3.813699462890625,-0.15898995399475097,-0.0007674772411584853,-0.19012772731930017
1772882711899631600,3.823631591796875,-0.2016752495110035,0.0014098667979240416,-0.12035247256457805
1772882711909564700,3.833564697265625,-0.17671674934327603,-0.0037953006297349926,-0.13259557580500841
1772882711919496700,3.84349658203125,-0.17071020240485668,-0.02069733559191227,-0.1496361424550414
1772882711929429800,3.8534296875,-0.1522521701723337,-0.04539046282172203,-0.15354440193995833
1772882711939361000,3.863361083984375,-0.09601707273125648,-0.08378302958011627,-0.1361195121474564
1772882711949294000,3.873294189453125,0.004354688078165054,-0.1134574523538351,-0.10805413200557232
1772882711959226000,3.88322607421875,0.05812602575421333,-0.1348065298527479,-0.09824892343655228
1772882711969159200,3.8931591796875,0.08611819452941417,-0.12152443895339965,-0.07154913255944848
1772882711979091200,3.90309130859375,0.05796995840966701,-0.08510697166025638,-0.11868103222101926
1772882711989024300,3.913024169921875,-0.011336217528581619,-0.07869009035527706,-0.13454773278608917
1772882711998956300,3.922956298828125,-0.025225042149424552,-0.04940963533520698,-0.1743188944213092
1772882712008889000,3.93288916015625,-0.03572948502898216,-0.02626782920062542,-0.1940581986360252
1772882712018821000,3.942821044921875,-0.033252281260490416,-0.034520693761110305,-0.20548940097168086
1772882712028754200,3.952754150390625,-0.10623042370975017,-0.03245674696862697,-0.19673720858693122
1772882712038686200,3.962686279296875,-0.199186355304718,-0.03804419171214103,-0.18783274824991822
1772882712048619300,3.972619384765625,-0.2473796005874872,-0.027242227190732955,-0.18435995757281778
1772882712058551000,3.982551025390625,-0.2389443651974201,-0.01419394504725933,-0.16352774355486036
1772882712068484000,3.992484130859375,-0.19309037651717662,-0.015482815814018249,-0.13369769182801247
1772882712078416100,4.002416015625,-0.09734393742084503,-0.01000116953253746,-0.15953341322168707
1772882712088349200,4.01234912109375,-0.02308627655506134,-0.010159574964642525,-0.20010814632475374
1772882712098281200,4.02228125,0.029231939703226087,-0.025431962898373604,-0.2281934002108872
1772882712108214000,4.032214111328125,0.024849194574356078,-0.08061901259124278,-0.27428353573456404
1772882712118146300,4.042146240234375,0.027789924201369283,-0.10747662437856197,-0.20063275472074746
1772882712128079000,4.0520791015625,0.06279051043391227,-0.09966682741045951,-0.12270780351907014
1772882712138011100,4.06201123046875,0.09804536368846893,-0.09960428356826305,-0.10487813231796025
1772882712147944200,4.071944091796875,0.04532324280440807,-0.07809680063724517,-0.041853666997700927
1772882712157876200,4.081876220703125,-0.03259586317837238,-0.033712299987673756,-0.0031647476412355897
1772882712167809300,4.091809326171875,-0.13973171129524706,-0.0024736966371536255,-0.02242489003688097
1772882712177741000,4.101740966796875,-0.15580664778351783,0.033093291306495666,-0.04721826277077198
1772882712187674000,4.111674072265625,-0.08460136022567749,0.016153262421488762,-0.06059504621624946
1772882712197606100,4.121606201171875,-0.024838088658452034,-0.01884673928916454,-0.05901435289606451
1772882712207539200,4.131539306640625,0.028936756148934362,-0.08651391584873198,-0.1087858072809875
1772882712217471200,4.14147119140625,-0.02713350611925125,-0.10273498280942439,-0.13044044359773396
1772882712227404000,4.151404052734375,-0.08946575139164924,-0.09627893853783608,-0.1836233138613403
1772882712237336000,4.161336181640625,-0.13967559719383715,-0.0782522834599018,-0.27621903384178875
1772882712247269000,4.17126904296875,-0.14579378781318664,-0.0818032539397478,-0.3321922654762864
1772882712257201200,4.181201171875,-0.13427812206447123,-0.08538169694840908,-0.32811566368713974
1772882712267134200,4.19113427734375,-0.09506430205106735,-0.08530629362463951,-0.30849165641516446
1772882712277066200,4.201066162109375,-0.0852805746614933,-0.057195466905832285,-0.26797479097917676
1772882712286999300,4.210999267578125,-0.06275310103297234,-0.06871873143911361,-0.1860403118751943
1772882712296931300,4.220931396484375,-0.09167407509088515,-0.0724316144824028,-0.11016250246167182
1772882712306864400,4.230864501953125,-0.10403262140452861,-0.07062661088705062,-0.03795329855829477
1772882712316796200,4.240796142578125,-0.10915829385519027,-0.02108545812666416,0.0011911094807088374
1772882712326729000,4.25072900390625,-0.11170213311910629,-0.004768529576063156,-0.0479576829612255
1772882712336661000,4.260660888671875,-0.11427929013073444,0.026449615508317946,-0.09756094117239117
1772882712346594000,4.270593994140625,-0.09925123234689236,0.0020195231288671492,-0.17923428512215614
1772882712356526000,4.280526123046875,-0.13623334778547286,-0.011770517292618752,-0.19985431769415735
1772882712366459100,4.290459228515625,-0.11141747095882892,-0.057985155978798865,-0.17909867604374885
1772882712376391200,4.30039111328125,-0.08248422194123267,-0.09654431147575378,-0.16932897717952727
1772882712386324200,4.31032421875,0.005623685100674629,-0.14620236861407757,-0.21662556588351725
1772882712396256300,4.32025634765625,0.03421206620335579,-0.12409049004912376,-0.20273513382747768
1772882712406189300,4.330189208984375,0.044401451784372326,-0.11433014353513717,-0.21462650102078915
1772882712416121300,4.340121337890625,-0.032949498921632764,-0.09865034384429454,-0.22566899629980325
1772882712426054100,4.35005419921875,-0.11259703613221644,-0.06911503728032112,-0.24868513022810218
1772882712435986200,4.359986083984375,-0.1804372311711311,-0.03888882584273815,-0.2116146058537066
1772882712445919200,4.369919189453125,-0.17286708817780017,-0.05300269139111042,-0.16171718700155616
1772882712455851000,4.37985107421875,-0.12462415853440761,-0.02228723513185978,-0.15515154487565158
1772882712465784000,4.3897841796875,-0.0740390496790409,-0.025515549528598785,-0.19490210211426018
1772882712475716000,4.399716064453125,-0.05155073901712894,-0.014307342293858527,-0.18413067886158824
1772882712485649200,4.409649169921875,-0.036243864291906354,-0.0008265139520168304,-0.1480678702250123
1772882712495581200,4.419581298828125,-0.01731178480684757,-0.007968202400207519,-0.10640534188523888
1772882712505514200,4.42951416015625,-0.0015945757150650024,-0.04297404932975769,-0.11027750714346767
1772882712515446300,4.4394462890625,-0.024016250881552695,-0.04599076680243015,-0.04018748735114932
1772882712525379000,4.449379150390625,0.010417933639883994,-0.05206570280194282,0.004668722463399172
1772882712535311000,4.45931103515625,0.0184171157002449,-0.030811902371048926,-0.02148044879361987
1772882712545244200,4.469244140625,-0.02620236274898052,-0.013681319350004195,-0.0786599874779582
1772882712555176200,4.47917626953125,-0.09244681302905082,-0.06037643502950668,-0.13742197304815054
1772882712565109200,4.489109130859375,-0.12159750418961048,-0.08755319576859473,-0.17871946746781467
1772882712575041000,4.499041015625,-0.12113923902809619,-0.08563070327341556,-0.22367884539589283
1772882712584974000,4.50897412109375,-0.10640578027665615,-0.07025193235576152,-0.2653602245666086
1772882712594906000,4.518906005859375,-0.10217150370776652,-0.011342062747478484,-0.25896117117926476
1772882712604839200,4.528839111328125,-0.13057868302464484,-0.009040215545892715,-0.2140646293543279
1772882712614772000,4.53877197265625,-0.08664777136147021,-0.04530687619149685,-0.19111337735578415
1772882712624704000,4.5487041015625,-0.06201426536440849,-0.038841479569673536,-0.1572963018193841
1772882712634637000,4.558636962890625,-0.02244797865152359,-0.0739215607792139,-0.12338701795488595
1772882712644569000,4.568569091796875,-0.01936170307397842,-0.08026946850121021,-0.11984101591110229
1772882712654502100,4.578502197265625,-0.05304886862039566,-0.08717501010596751,-0.15277765535116195
1772882712664434200,4.58843408203125,-0.0677735595434904,-0.07727437833845614,-0.14892156444489954
1772882712674367200,4.5983671875,-0.06324760655164718,-0.05179039299190044,-0.19919059308841824
1772882712684299300,4.60829931640625,-0.09580196867585182,-0.03705751876235008,-0.2249780914261937
1772882712694232300,4.618232421875,-0.08629062848687172,-0.015758710145950316,-0.21954320689588783
1772882712704164400,4.628164306640625,-0.04551905763745308,-0.01175356615781784,-0.19162775661870837
1772882712714097200,4.63809716796875,-0.006560673689842224,-0.008238251513242721,-0.1866938073478639
1772882712724029200,4.648029296875,-0.0025590368330478666,-0.005295183798670769,-0.14188655124157667
1772882712733962000,4.6579619140625,0.00029459903240203856,-0.046831893801689145,-0.11809519515708088
1772882712743894000,4.66789404296875,-0.056173722642660136,-0.06024257951676845,-0.06550590687245131
1772882712753827000,4.6778271484375,-0.034118542701005936,-0.06110591834783554,-0.05480111911520361
1772882712763759000,4.687759033203125,-0.050425534379482266,-0.037598786032199856,-0.06715893477648496
1772882712773692200,4.697692138671875,-0.041513329127430915,-0.03142331226766109,-0.1460555074892938
1772882712783624200,4.707624267578125,-0.00431084893643856,-0.023131284740567207,-0.19976371680125593
1772882712793557200,4.71755712890625,0.00964519570171833,-0.005817161846160888,-0.18715996355488895
1772882712803489300,4.7274892578125,-0.021838906842470168,-0.012657821521162986,-0.1828985067181289
1772882712813422000,4.737422119140625,-0.09900748671889305,-0.038432898768782614,-0.14150851170942186
1772882712823354400,4.747354248046875,-0.12748422414064406,-0.0327343948662281,-0.12135785021483897
1772882712833287200,4.757287109375,-0.1156231059551239,-0.05122691389024257,-0.1298904084995389
1772882712843219200,4.76721923828125,-0.09835516029000281,-0.07458557764589786,-0.1843491439178586
1772882712853152300,4.77715234375,-0.05744973392784595,-0.06946691945791245,-0.2155202349901199
1772882712863084000,4.787083984375,0.0014437690675258635,-0.08340542843937873,-0.19363427413552997
1772882712873017000,4.79701708984375,0.011741291198134421,-0.08189853100776671,-0.18602394526228308
1772882712882949000,4.80694921875,0.014252981758117674,-0.08798983362019061,-0.14520590492263435
1772882712892882200,4.816882080078125,-0.04457797739505768,-0.0539531239837408,-0.10984802968502044
1772882712902814200,4.826814208984375,-0.13032090887129305,-0.014184008175134658,-0.1111784015059471
1772882712912747300,4.836747314453125,-0.1634896035015583,0.001373041918873787,-0.10650324930176139
1772882712922679300,4.84667919921875,-0.15390461355447768,0.029101006799936293,-0.08322028113082051
1772882712932612000,4.856612060546875,-0.12253449277877806,0.019099252745509148,-0.09569529343098401
1772882712942544000,4.8665439453125,-0.08485738081336021,-0.03561959491372108,-0.12666735479980706
1772882712952477000,4.876476806640625,-0.030528409254550932,-0.03532908753454685,-0.07894128863736986
1772882712962408700,4.88640869140625,0.0105658176779747,-0.0633078123062849,-0.06118979723900556
1772882712972341800,4.896341796875,0.029876082825660705,-0.05041150585412979,-0.09997355527207255
1772882712982273800,4.906273681640625,0.03683130879104137,-0.07389408825039863,-0.11466332101225853
1772882712992206800,4.916206787109375,0.06008125147521495,-0.06990647991895675,-0.11939312601312994
1772882713002139000,4.926138916015625,0.05701718772947788,-0.06744856537282466,-0.16160320523306726
1772882713012072000,4.936072021484375,0.0523585482686758,-0.0651771133095026,-0.1938295044466853
1772882713022004000,4.94600390625,0.011568272718787192,-0.061299395093321794,-0.2394094984911382
1772882713031936800,4.955936767578125,-0.028562077617645263,-0.05594809719324111,-0.2922504234492779
1772882713041868800,4.965868896484375,-0.10525076502263546,-0.054475102031230925,-0.3161757811769843
1772882713051801900,4.9758017578125,-0.1355874510973692,-0.04460837253332138,-0.28609000112339855
1772882713061734000,4.98573388671875,-0.15186989285647867,-0.004659808504581451,-0.23509251207485793
1772882713071667000,4.9956669921875,-0.11368307780325412,0.014306757771968841,-0.21402590477913616
1772882713081598700,5.0055986328125,-0.09140928667485713,0.012206570622324943,-0.1727181812264025
1772882713091531800,5.01553173828125,-0.09724807583093642,0.02565115860700607,-0.13367679517045616
1772882713101463800,5.0254638671875,-0.05335340452492237,0.010813654959201812,-0.13187091479226945
1772882713111396900,5.03539697265625,-0.04179565320014953,-0.020846973195672035,-0.1430351367548108
1772882713121329000,5.045328857421875,-0.004205050474405289,-0.008181552889943123,-0.20821327297762035
1772882713131262000,5.055261962890625,0.03805120597481727,-0.009957330390810966,-0.21502207620963454
1772882713141194000,5.065194091796875,0.057096682706475256,0.015668693774938583,-0.19308774616867302
1772882713151126800,5.075126708984375,0.037270869252085684,0.000834112736582756,-0.152701082983613
1772882713161058800,5.085058837890625,0.0065688569962978356,-0.003113748106360435,-0.09492387066707014
1772882713170991900,5.094991943359375,-0.04581482571363449,-0.006238602128624916,-0.06627265346124768
1772882713180924000,5.104923828125,-0.09050152418017386,-0.019428338569402695,-0.10882540863901376
1772882713190857000,5.11485693359375,-0.11607260328829287,-0.04978431386649608,-0.11119243003129958
1772882713200789000,5.1247890625,-0.13661387153565882,-0.024207974061369895,-0.13356895088180898
1772882713210722000,5.13472216796875,-0.160761639842391,-0.01891045217514038,-0.14205474741533397
1772882713220653800,5.14465380859375,-0.10465396817326546,-0.034109774872660634,-0.1484054316163063
1772882713230587000,5.1545869140625,-0.034472762966156006,-0.06810322988927364,-0.19210458035022018
1772882713240519000,5.164518798828125,0.055740007400512694,-0.08061082928478717,-0.22846900228187442
1772882713250451700,5.17445166015625,0.11219663863778113,-0.10669687217772006,-0.2354676289975643
1772882713260383700,5.1843837890625,0.09518471356034278,-0.09564473228752612,-0.23905045592039822
1772882713270316800,5.19431689453125,0.01807692396044731,-0.10141688594818114,-0.21094006759300826
1772882713280248800,5.204248779296875,-0.06519172635674476,-0.0946001916706562,-0.11378303104639052
1772882713290182000,5.214181884765625,-0.13151859422326087,-0.049561611026525496,-0.046509822240471836
1772882713300114000,5.224114013671875,-0.179435945174098,-0.009935703080892562,-0.004337883073836565
1772882713310047000,5.234046875,-0.15708324359059334,0.03740355572104454,-0.025023820488899944
1772882713319979000,5.24397900390625,-0.15118366415798662,0.02639116331934929,-0.02390548398345709
1772882713329912000,5.253912109375,-0.14816227051019668,-0.006150923845171928,-0.051709144449234
1772882713339844000,5.263843994140625,-0.11920037992000579,-0.0502279659807682,-0.09670607790872454
1772882713349777000,5.27377685546875,-0.01998188079893589,-0.10380758047699927,-0.15295111222192645
1772882713359708700,5.283708740234375,0.10337152714729309,-0.13199322599768637,-0.16183774464130402
1772882713369641700,5.293641845703125,0.1953349405735731,-0.12961071477532385,-0.13056786936968565
1772882713379573800,5.30357373046875,0.16350363202691076,-0.08842588694989681,-0.05087678527832031
1772882713389506800,5.3135068359375,0.045377018818259236,-0.03437047163546085,-0.005280278490483761
1772882713399438800,5.32343896484375,-0.08658230490982533,0.007928454911708831,0.029067396791279315
1772882713409372000,5.333371826171875,-0.21337094800174236,0.027685879305005073,0.02878098106533289
1772882713419304000,5.343303955078125,-0.26246494151651856,0.05647942759096622,0.014331746082752943
1772882713429237000,5.353237060546875,-0.256833657631278,0.08151800725758075,0.0004193944558501243
1772882713439169800,5.363169677734375,-0.19472762233018873,0.08787526732981205,-0.05911328322589397
1772882713449101800,5.373101806640625,-0.1289250705987215,0.06423661758899689,-0.11148381419330834
1772882713459033900,5.383033935546875,-0.04845744917690754,0.015581015491485595,-0.15382190370708704
1772882713468967000,5.392966796875,0.0030769232273101803,-0.04752046058773994,-0.15751082135289907
1772882713478900000,5.40289990234375,0.023306641307473182,-0.11805120988488196,-0.14746625107005237
1772882713488831700,5.412831787109375,0.025012276181578634,-0.15205986247062683,-0.12994535355716944
1772882713498764800,5.422764892578125,0.04930091426372528,-0.13758476239442824,-0.05145443903580307
1772882713508696800,5.43269677734375,0.07846037325263022,-0.10308569594323634,-0.0524948879994452
1772882713518630000,5.4426298828125,0.09179799373149872,-0.05257423684597015,-0.08439093234539032
1772882713528562000,5.45256201171875,0.036491701573133466,-0.010778583645820617,-0.08893310581967234
1772882713538494700,5.46249462890625,-0.04206336422562599,-0.020820669710636137,-0.07604395976066589
1772882713548426800,5.4724267578125,-0.1071001922816038,-0.052881110838055606,-0.06779664815813302
1772882713558359800,5.48235986328125,-0.13815993193387985,-0.07741758620142936,-0.05802870285958051
1772882713568291800,5.492291748046875,-0.11536007110476493,-0.07670271593034267,-0.08453852412253618
1772882713578225000,5.502224853515625,-0.08293313475251197,-0.07813654812574386,-0.13352394269630313
1772882713588157000,5.512156982421875,-0.08154840239584446,-0.07382043849229812,-0.17381474429145455
1772882713598090000,5.522090087890625,-0.06628536681234837,-0.05200725061297416,-0.1631063032723963
1772882713608022000,5.53202197265625,-0.041643092986941334,-0.02158347077667713,-0.14788915265724062
1772882713617955000,5.541955078125,-0.04818798458576202,-0.03022562691569328,-0.09431757533699274
1772882713627886800,5.551886962890625,-0.05881050088703632,-0.05382043751478195,-0.06495528725236654
1772882713637819600,5.561819580078125,-0.07078092466592788,-0.06719488287270069,-0.043417847574502226
1772882713647752000,5.571751953125,-0.06555296088457108,-0.057555532389879226,-0.07278714992180466
1772882713657684700,5.581684814453125,0.009810615396499633,-0.04012859677076339,-0.11838555640578269
1772882713667616800,5.59161669921875,0.10419570301175117,-0.02917348751425743,-0.15630173782408235
1772882713677549800,5.6015498046875,0.1072574286699295,-0.014292729246616363,-0.13225918345749377
1772882713687481900,5.61148193359375,0.075254855209589,-0.06527882011830806,-0.116519031881541
1772882713697415000,5.621414794921875,-0.010630115085840225,-0.024991817915439606,-0.08898556665927171
1772882713707347000,5.631346923828125,-0.08997954613268375,0.013532266268134117,-0.0558757626093924
1772882713717277700,5.641277587890625,-0.08918985705971717,0.014055413359403609,-0.055353784561902285
1772882713727210800,5.651210693359375,-0.13885609750449657,0.015461773025989532,-0.04839285950809717
1772882713737142800,5.661142822265625,-0.14980886867344378,0.009205635240674019,-0.08451894263923168
1772882713747075800,5.671075927734375,-0.11603402484357356,0.00400631303191185,-0.12955065515115857
1772882713757008000,5.6810078125,-0.04597732279896736,-0.026516251003742216,-0.16872326637133955
1772882713766941000,5.69094091796875,-0.01876198361515999,-0.025195231533050536,-0.23304814676567912
1772882713776873000,5.700873046875,0.015925298884510993,-0.036197687062621116,-0.2748603127092123
1772882713786805800,5.7108056640625,0.058492520979046815,-0.07759235824644566,-0.29646468014344574
1772882713796737800,5.72073779296875,0.06210369721353054,-0.1009878468811512,-0.25531127036958934
1772882713806670800,5.7306708984375,0.014783143112063407,-0.11505787328779697,-0.22595716559141873
1772882713816603000,5.740602783203125,-0.062386021286249156,-0.10053659598231315,-0.22595745785236357
1772882713826536000,5.750535888671875,-0.10340075324177742,-0.06193944656252861,-0.23197613361999392
1772882713836468000,5.760468017578125,-0.124576812261343,-0.046130467534065245,-0.24301351433247326
1772882713846401000,5.770401123046875,-0.13116788108944893,-0.028425884017348288,-0.2309633033156395
1772882713856332800,5.780332763671875,-0.0963993500471115,-0.013835633128881454,-0.21583353872299194
1772882713866265900,5.790265869140625,-0.05510755471587181,0.015394553008675574,-0.2215397875405848
1772882713876198000,5.800197998046875,-0.03909866920113563,-0.00020750527083873748,-0.2638015969477594
1772882713886130700,5.810130615234375,-0.03815583539307117,-0.00818856715261936,-0.22800474577099084
1772882713896063000,5.82006298828125,-0.06699146925508975,-0.016111176845431327,-0.16060118858367203
1772882713905995800,5.829995849609375,-0.0957809258878231,-0.03320551950931549,-0.10843626319095492
1772882713915927800,5.839927734375,-0.1383615919858217,-0.04873217446506023,-0.11608312468230723
1772882713925860900,5.84986083984375,-0.14764438411593436,-0.01878185735940933,-0.11319047198072076
1772882713935793000,5.85979296875,-0.10631050320863723,-0.056850014469027516,-0.17190847227871417
1772882713945726700,5.869726806640625,-0.04539864612817764,-0.06742752258479595,-0.20502602124363184
1772882713955658800,5.87965869140625,0.023830957442522047,-0.0830102916419506,-0.22189327715337276
1772882713965591600,5.889591552734375,0.05132569808959961,-0.08927519725561141,-0.21286124491393565
1772882713975523600,5.899523681640625,0.0546025278031826,-0.10151333205997944,-0.16942483876943587
1772882713985456600,5.90945654296875,-0.015363573348522185,-0.11588204915225506,-0.09386676282957196
1772882713995388700,5.919388671875,-0.06871171717643737,-0.10402034644484519,-0.07363835992366075
1772882714005321700,5.92932177734375,-0.0846621505022049,-0.07861644059717655,-0.061656830228865145
1772882714015253500,5.93925341796875,-0.11134732833206652,-0.03208382200300693,-0.13602803447172046
1772882714025186800,5.949186767578125,-0.13280980307757853,-0.022428104907274246,-0.19613997334614394
1772882714035118600,5.95911865234375,-0.18565701164603232,-0.014970190116763114,-0.22918694129288195
1772882714045051600,5.9690517578125,-0.23625965615808964,-0.010631868651509285,-0.2545416011713445
1772882714054983700,5.978983642578125,-0.2577250535130501,-0.010925883162021637,-0.27194223330542444
1772882714064916700,5.988916748046875,-0.23479776691198348,-0.020919453909993172,-0.2520624977067113
1772882714074848800,5.998848876953125,-0.16159750614464283,-0.05019698632061481,-0.2365991172455251
1772882714084781600,6.008781494140625,-0.11794716498851776,-0.05596095667481422,-0.2576315300107002
1772882714094713600,6.018713623046875,-0.07557283511757851,-0.05898351936638355,-0.23716508056521415
1772882714104646700,6.028646728515625,-0.06691489688754082,-0.041484103032946584,-0.23865371168777344
1772882714114578700,6.03857861328125,-0.02810381245613098,-0.07236088733375072,-0.19408976281806825
1772882714124511700,6.04851171875,0.04400456142127514,-0.056311669808626175,-0.09917948228493333
1772882714134443800,6.05844384765625,0.10149521188139915,-0.07509644977748393,-0.047131169009208676
1772882714144376800,6.068376953125,0.12371464247405528,-0.08127835328280925,0.013064210364967584
1772882714154308600,6.07830859375,0.11547229930758475,-0.07616554031372069,0.017082213834673166
1772882714164241700,6.08824169921875,0.05972820025384426,-0.04169102378189563,-0.004529460123181343
1772882714174173700,6.098173583984375,0.025526070922613144,-0.023968904608488082,-0.00539119151905179
1772882714184106500,6.1081064453125,0.02517769587635994,-0.02814531351029873,-0.01618438821211457
1772882714194038500,6.11803857421875,0.03700608083605766,0.0011170213311910628,-0.005606733965873718
1772882714203971600,6.1279716796875,0.05811199722886085,0.006415712261199951,-0.028993893163651228
1772882714213903600,6.137903564453125,-0.0033832126975059506,0.042084991535544396,-0.09106514941230416
1772882714223836700,6.147836669921875,-0.0914238997220993,0.06470072796940803,-0.14434855744093655
1772882714233768700,6.157768798828125,-0.1760194147288799,0.04908990186154842,-0.17985694706514477
1772882714243701800,6.16770166015625,-0.15718611944317817,0.03642272799015045,-0.14646774155199527
1772882714253633800,6.1776337890625,-0.060310968577861786,0.03152969525158405,-0.12432882884964346
1772882714263566800,6.18756689453125,0.0077402388632297515,0.00008066402077674865,-0.12007730888500809
1772882714273499600,6.197499755859375,0.05875847843885421,-0.030342531293630598,-0.079143387080729
1772882714283431700,6.207431640625,0.09915829336643218,-0.06348959861397743,-0.01966945384889841
1772882714293364700,6.21736474609375,0.1062029511809349,-0.06652618983089924,-0.0323246450215578
1772882714303296500,6.227296630859375,0.11331833614408969,-0.0736906746327877,-0.08800108566656709
1772882714313229600,6.2372294921875,0.10641863975822925,-0.05700608181357383,-0.09741203422099351
1772882714323161600,6.24716162109375,0.0990139164596796,-0.0454570983171463,-0.12347060458511114
1772882714333094700,6.2570947265625,0.020365911680459974,-0.021649521750211714,-0.11929390342235564
1772882714343026700,6.267026611328125,-0.023483751440048217,0.022159809359908102,-0.07697305730432272
1772882714352959700,6.276959716796875,-0.0318850845605135,0.04681611171066761,-0.10661591589599848
1772882714362891800,6.286891845703125,-0.03687456341087818,0.07037117482125758,-0.08947583439424633
1772882714372824600,6.296824462890625,-0.020371172377467155,0.05011106160283088,-0.07093480005338787
1772882714382756600,6.306756591796875,-0.007207739421725273,0.015627192720770833,-0.03491846090704202
1772882714392689700,6.316689697265625,0.010759878945350645,-0.024652795219421385,0.04531579015031457
1772882714402621700,6.32662158203125,0.021788053438067435,-0.061627896395325656,0.08782017614170909
1772882714412554800,6.3365546875,0.010120996519923209,-0.05175882880985737,0.05655030087009072
1772882714422486500,6.346486572265625,0.011872224101424217,-0.0691939477354288,-0.020080811128765343
1772882714432419800,6.356419921875,0.012094342419505119,-0.060392801642417906,-0.08749795845001936
1772882714442351600,6.3663515625,-0.028528759869933126,-0.057499418288469314,-0.2034542418822646
1772882714452284700,6.37628466796875,-0.07436813550293445,-0.0695388156503439,-0.2664445126719773
1772882714462216700,6.386216796875,-0.08694295491576194,-0.08769289650022984,-0.3016957126647234
1772882714472149500,6.3961494140625,-0.11924714167118072,-0.07325228321552277,-0.2949348402276635
1772882714482081500,6.40608154296875,-0.12612988692224025,-0.0707581283122301,-0.24732202518135307
1772882714492014600,6.4160146484375,-0.13351122934520243,-0.0650198769211769,-0.16774302316233514
1772882714501946600,6.425946533203125,-0.1454343068510294,-0.07219488311707974,-0.12553659720420837
1772882714511879700,6.435879638671875,-0.1082329957038164,-0.0550818357527256,-0.11207914973795413
1772882714521811700,6.445811767578125,-0.08357961596250534,-0.04560732044279575,-0.09689940852373838
1772882714531744800,6.455744873046875,-0.06593582272231578,-0.053963060855865476,-0.13024492102563381
1772882714541676800,6.4656767578125,-0.0394704251229763,-0.06131809979379177,-0.1356510178528726
1772882714551609900,6.47560986328125,-0.025799042645096776,-0.07075695926845073,-0.1316502577789128
1772882714561541600,6.485541748046875,-0.003906944310665131,-0.04982113874554634,-0.16519538450613616
1772882714571474400,6.495474365234375,-0.01209726502895355,-0.050910103026032445,-0.2111076792448759
1772882714581406700,6.50540673828125,-0.0012169745743274688,-0.06798223385810852,-0.2680437645621598
1772882714591339500,6.515339599609375,-0.004638181194663048,-0.05254968692660331,-0.21910043156445025
1772882714601271600,6.525271484375,-0.0040939913153648375,0.002480126377940178,-0.14790405796542763
1772882714611204600,6.53520458984375,0.009728782331943511,0.029944471886754035,-0.07677212790474296
1772882714621136600,6.54513671875,0.014371055179834365,0.033688919112086296,-0.04320741969421506
1772882714631069700,6.555069580078125,-0.03723170628547668,0.03263034996986389,-0.011520195793360472
1772882714641001700,6.565001708984375,-0.10106617281436919,-0.009270517170429229,0.035237171467393635
1772882714650934800,6.574934814453125,-0.14259879116415977,-0.04281915102899074,0.010840542966127395
1772882714660866800,6.58486669921875,-0.11622165637016296,-0.07874854254424571,-0.1021666814021766
1772882714670799600,6.594799560546875,-0.03138005764782428,-0.11089666195511817,-0.18309169120267033
1772882714680731600,6.604731689453125,0.05423427901268005,-0.12110066058337687,-0.24435820693969726
1772882714690664700,6.614664794921875,0.15418576858341693,-0.12958499581217764,-0.30994127070158717
1772882714700596500,6.624596435546875,0.11992109540998935,-0.09771744690835475,-0.3073438015542924
1772882714710529500,6.634529541015625,-0.027391280272603034,-0.07266425419449805,-0.24178353414610027
1772882714720462600,6.644462646484375,-0.17990765433907507,-0.06654606357514858,-0.199716955050081
1772882714730394600,6.65439453125,-0.2759066068917513,-0.0184434191852808,-0.14398001638948915
1772882714740327700,6.66432763671875,-0.291138662815094,-0.014708324310183525,-0.07558131068497896
1772882714750259700,6.674259765625,-0.23738778340518474,0.01695405741035938,-0.049598582036048174
1772882714760192500,6.684192626953125,-0.16453706672787666,0.012550269493460655,-0.04224763475134968
1772882714770124800,6.694124755859375,-0.05821604212522506,0.028227731096744535,-0.04949979783669114
1772882714780057600,6.7040576171875,0.024468670824170112,-0.003357493734359741,-0.09145107998996972
1772882714789989600,6.71398974609375,0.07231880175769329,-0.04670154542028904,-0.07919833213835954
1772882714799922700,6.723922607421875,0.11598784761428832,-0.09619885903894901,-0.06316051279008388
1772882714809854700,6.733854736328125,0.08161211528182029,-0.12474457004368304,-0.08137845265641808
1772882714819787800,6.743787841796875,0.05054126971364021,-0.1339174720585346,-0.11898629877790808
1772882714829719600,6.753719482421875,0.013508300870656966,-0.09102174866199493,-0.14374971476495266
1772882714839652900,6.76365283203125,-0.039701895791292185,-0.08340309035181999,-0.16091829170882702
1772882714849584600,6.773584716796875,-0.10190203911662102,-0.03375789269506931,-0.12210019301474094
1772882714859517700,6.783517578125,-0.12000468204021453,0.006025836160778999,-0.1402761934354901
1772882714869449700,6.79344970703125,-0.19752397505044936,-0.011331541353464127,-0.19657675732821225
1772882714879382500,6.803382568359375,-0.2388707154393196,-0.05130348625779152,-0.1654609035745263
1772882714889314600,6.813314453125,-0.25299393333792686,-0.04828735330700874,-0.15266820362731814
1772882714899247600,6.82324755859375,-0.17222352957725523,-0.07089432191252708,-0.2421070670120418
1772882714909179600,6.8331796875,-0.08780395565927028,-0.05866846206784248,-0.26551614578068256
1772882714919112700,6.84311279296875,0.009149521139264106,-0.015661679512262345,-0.22709230710119008
1772882714929044700,6.853044677734375,0.04656593634188175,-0.03709375911951065,-0.18919278455674648
1772882714938977800,6.862977783203125,0.012031214055418968,-0.06018997254669666,-0.08835384462699293
1772882714948909000,6.872908935546875,-0.043974166283011436,-0.078287354773283,-0.02393339490368962
1772882714958842000,6.882842041015625,-0.09046353025734424,-0.0744575673520565,-0.022784078738093374
1772882714968774100,6.892774169921875,-0.08246902437210082,-0.054308513292670245,-0.01755757626146078
1772882714978707200,6.902707275390625,-0.05823766943514347,-0.005713116949796676,-0.048235330858826635
1772882714988639000,6.912638916015625,0.03116729167997837,-0.006129296535253524,-0.07806099867150187
1772882714998572000,6.922572021484375,0.08514028940796851,-0.0006108253747224808,-0.08378098375350236
1772882715008503800,6.93250390625,0.09783610485196113,-0.029466917502880094,-0.054299307072907685
1772882715018436900,6.942436767578125,0.0655517918407917,-0.06320493645370007,-0.08974822159484028
1772882715028369000,6.952368896484375,-0.013942016112804411,-0.07822247284352779,-0.1317887894667685
1772882715038302000,6.962302001953125,-0.11794190429151058,-0.078962477555871,-0.14452201431170106
1772882715048234000,6.97223388671875,-0.17479308780431746,-0.07317161919474602,-0.16276859575062988
1772882715058167000,6.9821669921875,-0.1906336310148239,-0.07102233220636844,-0.18545739742070436
1772882715068099000,6.99209912109375,-0.1667792926967144,-0.05665186154842376,-0.20393033496141433
1772882715078032100,7.0020322265625,-0.1401490599244833,-0.02820259665548801,-0.19298750066459178
1772882715087965000,7.01196484375,-0.10165712444484233,-0.02733399712741375,-0.2049764830134809
1772882715097897000,7.02189697265625,-0.06813420954942703,-0.017910335221886634,-0.2093383314847946
1772882715107830000,7.031830078125,-0.061359600847959515,-0.0361024099946022,-0.22425533010959625
1772882715117762000,7.041761962890625,-0.07279986327290534,-0.07002104620933532,-0.2407913082383573
1772882715127695000,7.051695068359375,-0.04295826723873615,-0.10266250209510326,-0.20178616253957152
1772882715137627000,7.061626953125,0.044105683708190915,-0.12480945197343826,-0.1907557960897684
1772882715147560000,7.071559814453125,0.08754092080891132,-0.14833996516466139,-0.20530366914123296
1772882715157492000,7.081491943359375,0.08557342012822627,-0.12700024001598356,-0.2248667400062084
1772882715167425000,7.091425048828125,0.01279050799012184,-0.12575520839095114,-0.20176701944768427
1772882715177357000,7.101357177734375,-0.06551964313685893,-0.09924363356232642,-0.15701266257241367
1772882715187289900,7.111289794921875,-0.09752104755342006,-0.06215221253037452,-0.16043065432235598
1772882715197222000,7.121221923828125,-0.13705869269371032,-0.03588730593919754,-0.14144304525777696
1772882715207155000,7.131155029296875,-0.12642273238897322,-0.024733459240198135,-0.1290466511517763
1772882715217087000,7.1410869140625,-0.13879180009663103,0.0022597616255283356,-0.11719196270704269
1772882715227020000,7.15102001953125,-0.14843056605756283,0.005547697255015373,-0.18371099214479325
1772882715236952000,7.1609521484375,-0.1028133087426424,-0.0018196166425943374,-0.22055384524315594
1772882715246885000,7.170885009765625,-0.04169043926000595,-0.016871055302023888,-0.24181378315389154
1772882715256817200,7.180817138671875,0.009309095615148543,-0.04983925892412662,-0.21921368268057703
1772882715266750200,7.190750244140625,0.012223521757125854,-0.0774772074341774,-0.18363178942874073
1772882715276682000,7.200681884765625,0.008467968615889549,-0.0991886885046959,-0.1251560734540224
1772882715286614800,7.21061474609375,0.0015980828464031219,-0.10993512344658374,-0.0935861923225224
1772882715296546800,7.220546875,-0.050155485266447065,-0.09269348126649855,-0.11718231809586285
1772882715306479900,7.23047998046875,-0.09891922391355037,-0.09646364745497703,-0.1257118076406419
1772882715316412000,7.240411865234375,-0.12250760477185249,-0.09445932189524173,-0.08086684987246989
1772882715326345000,7.250344970703125,-0.062004913014173504,-0.06678688659369945,-0.10964242411032318
1772882715336277000,7.260277099609375,0.011797405299544334,-0.060930561780929565,-0.16893369425162671
1772882715346210000,7.2702099609375,-0.01021510454416275,-0.03870762405693531,-0.19055340538546442
1772882715356142000,7.28014208984375,-0.014711246919631956,-0.03459609708487987,-0.1827317718490958
1772882715366075100,7.2900751953125,-0.05043430220782757,-0.07616144866049289,-0.13720423864424228
1772882715376007200,7.300007080078125,-0.12045067224204539,-0.11096855814754962,-0.0870959535203874
1772882715385940000,7.30993994140625,-0.1347065766096115,-0.0840080705076456,-0.01949190532490611
1772882715395872000,7.3198720703125,-0.1425455996721983,-0.05489771135747432,-0.048314533574879165
1772882715405805000,7.32980517578125,-0.11632336317896842,-0.003777180451154709,-0.10974281574487685
1772882715415736800,7.33973681640625,-0.07940379158258437,0.032767712613940236,-0.13793167613595722
1772882715425670000,7.349669921875,-0.007009586501121521,0.00858428847193718,-0.104515874876827
1772882715435603000,7.35960302734375,0.002900397616624832,-0.053850832653045654,-0.05881225445270538
1772882715445535000,7.369534912109375,-0.025970307558774948,-0.097157474938035,-0.01596738446056843
1772882715455468000,7.379468017578125,-0.010446575212478637,-0.10246434917449951,-0.004169394639134407
1772882715465400000,7.389400146484375,-0.02796118911504745,-0.0903957257181406,-0.058277709184586995
1772882715475332900,7.399332763671875,-0.05064823721945286,-0.05893968022465706,-0.10270341862738132
1772882715485265000,7.409264892578125,-0.025631284862756728,-0.017371406039595604,-0.1343940035291016
1772882715495198000,7.419197998046875,-0.011107084947824478,-0.01436345639526844,-0.16079788019955157
1772882715505130000,7.4291298828125,-0.0030921207964420315,-0.05335048191547394,-0.12264438289403914
1772882715515063000,7.43906298828125,-0.05752864438295364,-0.05692424874901771,-0.08137801426500081
1772882715524995000,7.4489951171875,-0.07891571580469608,-0.060119245398044585,-0.03919336174726486
1772882715534928100,7.45892822265625,-0.08300503094494342,-0.05214285969138145,-0.03148980163261294
1772882715544860000,7.46885986328125,-0.05433014060258865,-0.0424900652050972,-0.05835282024741172
1772882715554793000,7.47879296875,-0.03557750933766365,-0.044747488743066784,-0.05742562239989638
1772882715564725000,7.48872509765625,-0.009147767573595046,-0.0193757315993309,-0.045967385926842685
1772882715574657800,7.49865771484375,0.01830956367254257,-0.003201426389813423,-0.03430895070657134
1772882715584590000,7.508590087890625,0.028805238723754883,-0.02740706236362457,-0.02646086755469441
1772882715594523000,7.51852294921875,0.020620763224363327,-0.0445943440079689,0.023220862720161675
1772882715604455000,7.528454833984375,0.0002934299886226654,-0.0722574269592762,-0.016161737988889216
1772882715614388000,7.538387939453125,-0.05557224961817264,-0.08786240784823894,-0.07928440298661589
1772882715624320000,7.548320068359375,-0.15058102208971977,-0.07426935130357742,-0.0743704735904932
1772882715634253000,7.558253173828125,-0.18965747945904732,-0.05643441940546035,-0.15419453641176223
1772882715644185000,7.56818505859375,-0.19803309361636637,-0.04179682224392891,-0.22775281683653592
1772882715654118100,7.5781181640625,-0.15185761789679528,-0.04140811518728733,-0.21249869521185755
1772882715664050200,7.58805029296875,-0.10121697946190833,-0.057634442844986915,-0.16274141548275947
1772882715673983000,7.59798291015625,-0.06399053387343884,-0.05917933419942856,-0.17949571253731847
1772882715683915000,7.6079150390625,-0.018200842601060866,-0.04005903866589069,-0.19499445657283065
1772882715693847800,7.617847900390625,-0.01627308940887451,-0.02994680997431278,-0.1566280471689999
1772882715703779800,7.62777978515625,-0.0029839842468500134,-0.045778000834584234,-0.14508242467343807
1772882715713713000,7.637712890625,0.01671264986991882,-0.054905894663929936,-0.16336904586181045
1772882715723645000,7.64764501953125,0.013837386694550513,-0.04803016367554664,-0.09318871743753551
1772882715733578000,7.657577880859375,0.016096563798189162,-0.0621358459174633,0.005748480524122714
1772882715743510000,7.667510009765625,0.015513795474171638,-0.059794251227378845,0.06981880163550376
1772882715753443000,7.677443115234375,-0.019438275441527365,-0.04405892195701599,0.0883481455385685
1772882715763375900,7.6873759765625,-0.07219488311707974,-0.03757657420039177,0.10167670592814683
1772882715773308200,7.69730810546875,-0.0904085851997137,-0.028052959051728246,0.028563977313786744
1772882715783241000,7.707240966796875,-0.033598318219184874,-0.015841712254285812,-0.0935315395258367
1772882715793173000,7.717173095703125,0.0012432780593633651,-0.007753682866692543,-0.1816743717506528
1772882715803106000,7.72710595703125,-0.023693010276556015,-0.0072796356141567225,-0.20685645154118537
1772882715813038000,7.7370380859375,-0.08389116612970829,-0.014341244563460349,-0.24967998648434875
1772882715822971100,7.74697119140625,-0.15388824694156647,-0.0675426733970642,-0.27230434461608527
1772882715832903000,7.75690283203125,-0.20198153898119925,-0.10019465067684649,-0.22867066233381628
1772882715842836000,7.7668359375,-0.17615385476350784,-0.13014789039194583,-0.1597077468752861
1772882715852768000,7.77676806640625,-0.05613222158849239,-0.12730360687673092,-0.20060031375586984
1772882715862701000,7.786701171875,0.01229600247144699,-0.09307458953857421,-0.21872969855591654
1772882715872633000,7.796633056640625,0.07142272970080375,-0.027938392761349677,-0.16126286736279724
1772882715882566000,7.80656591796875,0.04346680128276348,0.008897592204809188,-0.14103387993499636
1772882715892498000,7.816497802734375,-0.014504910692572592,0.00022270283997058866,-0.14354104045033453
1772882715902431000,7.826430908203125,-0.059331894412636754,-0.00846972218155861,-0.08185834512785077
1772882715912363000,7.836363037109375,-0.08237783895730971,-0.02154430781006813,-0.08808262647017837
1772882715922296000,7.846296142578125,-0.11389935090243816,-0.010608487775921821,-0.08979103782325983
1772882715932228000,7.85622802734375,-0.0672597648024559,-0.0016635492980480193,-0.04013195777162909
1772882715942161200,7.8661611328125,-0.049430093601346016,0.0015185878694057465,0.030171558640897274
1772882715952092700,7.8760927734375,0.015298106896877288,-0.04784077858328819,0.03363543535917997
1772882715962025700,7.886025634765625,0.037754853376746174,-0.03896422916650772,-0.010290361737459897
1772882715971957800,7.895957763671875,0.05390402414500713,-0.048636897397041315,-0.06690861327722668
1772882715981890600,7.905890625,0.027342764955759047,-0.06390285558998585,-0.13569675669074058
1772882715991822600,7.915822509765625,-0.064318450653553,-0.06046002165973186,-0.18535890548229217
1772882716001755600,7.925755615234375,-0.07469605228304863,-0.03707622346282005,-0.22617110060304402
1772882716011687400,7.9356875,-0.09507891509830951,-0.03747837452292442,-0.20823358511328696
1772882716021620500,7.945620361328125,-0.10531155529916286,-0.06121113228797912,-0.19379253343716263
1772882716031552500,7.955552490234375,-0.12822481337487696,-0.07142272970080375,-0.17014423908516763
1772882716041485600,7.965485595703125,-0.11442191347181796,-0.06595861907601357,-0.21995894808992741
1772882716051418600,7.975418701171875,-0.10725976675748825,-0.050719548889994616,-0.24916706852614878
1772882716061350700,7.9853505859375,-0.05108136793971062,-0.02898644050955772,-0.23022914382219314
1772882716071283500,7.995283447265625,0.024416648375988004,-0.015815993291139602,-0.19993278975784778
1772882716081215700,8.0052158203125,0.06500818648338318,-0.00765489866733551,-0.1376068280957639
1772882716091148500,8.0151484375,0.044756256571412086,0.01955751790702343,0.0018533727817237377
1772882716101080600,8.02508056640625,0.031053309911489486,0.02905190696120262,0.10527911433428526
1772882716111013600,8.035013671875,-0.019159458500146866,0.023012042275071143,0.0962150795213878
1772882716120945700,8.044945556640625,0.027604630762338638,0.012374328404664993,0.02389496258944273
1772882716130878700,8.054878662109376,0.058018473726511,0.0032546178817749022,-0.03247296745106577
1772882716140810800,8.064810791015624,0.07694295442700386,-0.03610708616971969,-0.092907124017179
1772882716150743800,8.074743896484375,0.0020645313143730164,-0.052039399316906924,-0.16469284181147814
1772882716160675600,8.084675537109375,-0.06348141530752181,-0.05337853896617889,-0.1941569828353822
1772882716170608600,8.094608642578125,-0.10844167001843452,-0.07450783623456954,-0.16633227958157656
1772882716180540700,8.104540771484375,-0.09115443513095378,-0.054846273431181904,-0.10300123253017664
1772882716190473500,8.114473388671875,-0.024991817915439606,-0.03788344819247722,-0.07698401708975434
1772882716200405500,8.124405517578126,0.03723229080736637,-0.022602876952290532,-0.1113970126926899
1772882716210338600,8.134338623046874,0.02018061824142933,0.012643208473920822,-0.14105331528782844
1772882716220270600,8.1442705078125,-0.032170331242680546,0.00014086977541446686,-0.19752280600667
1772882716230203600,8.15420361328125,-0.1318874275356531,-0.003219546568393707,-0.2224519339494407
1772882716240135700,8.1641357421875,-0.16705051085352896,-0.016970424023270606,-0.23209990613013504
1772882716250068700,8.17406884765625,-0.12050620182156561,-0.024928689551353453,-0.2212570250764489
1772882716260000800,8.184000732421875,-0.04772621229290962,-0.03302607128918171,-0.21571210430040955
1772882716269933800,8.193933837890626,0.021845921105146406,-0.05349485882222652,-0.190541130425781
1772882716279865600,8.203865478515626,0.08288754204511642,-0.05415536855757236,-0.12319193377420305
1772882716289798700,8.213798583984374,0.10700842234492301,-0.032332828328013416,-0.10804580256864428
1772882716299730400,8.22373046875,0.052584173718094825,-0.04959785138368606,-0.11789674997553229
1772882716309663500,8.23366357421875,0.004113865059614181,-0.02559855163693428,-0.0710071346372366
1772882716319596500,8.243596435546875,-0.0536567713856697,-0.03439092990159988,-0.05345803394317627
1772882716329528600,8.253528564453125,-0.028439912542700767,0.011078443375229835,-0.06698869277611375
1772882716339461600,8.263461669921876,0.029146599507331845,0.03467091588675975,-0.11645897225737571
1772882716349393700,8.2733935546875,0.05083528422415256,0.042916181662678715,-0.11436331515237688
1772882716359326700,8.28332666015625,0.0343465062379837,0.03194295222759247,-0.09233166221678256
1772882716369258800,8.2932587890625,0.003680734339356422,-0.017749591702222824,-0.09763955936655401
1772882716379191600,8.303191650390625,-0.044671500897407526,-0.06609013650119304,-0.05146101490706205
1772882716389123600,8.31312353515625,-0.0916547858685255,-0.07178805588185787,-0.04056494236141443
1772882716399056600,8.323056640625,-0.1372597682237625,-0.064601943770051,-0.09205869049429893
1772882716408988700,8.33298876953125,-0.15541677168309687,-0.06100128892958164,-0.19644772412106393
1772882716418921700,8.342921630859376,-0.13428279823958872,-0.07557400416135787,-0.25496231080144643
1772882716428853500,8.352853515625,-0.11088964769244193,-0.07628536730110645,-0.24600275927633045
1772882716438786600,8.36278662109375,-0.06194353821575641,-0.06577215659320354,-0.27982392646595833
1772882716448718600,8.372718505859375,-0.0407733244150877,-0.06876315510272979,-0.2976959755040705
1772882716458651600,8.382651611328125,-0.024310265392065048,-0.03494914830625057,-0.2539562024988234
1772882716468583700,8.392583740234375,-0.05185059874653816,-0.03688566932678222,-0.24903043653443455
1772882716478516500,8.4025166015625,-0.06935176864564419,-0.029144845941662785,-0.21588673021495342
1772882716488448500,8.412448486328126,-0.06317629488110542,-0.009992986226081848,-0.16025105997174977
1772882716498381600,8.422381591796874,-0.040623102289438245,-0.025658757391571998,-0.08478446170762181
1772882716508313600,8.432313720703124,-0.021973346877098083,-0.034650457620620724,0.020394991644471883
1772882716518246700,8.44224658203125,0.06661679072380065,-0.03369008815586567,0.06574921410903334
1772882716528178700,8.4521787109375,0.11001871007680893,-0.00739127929508686,0.05203735349029302
1772882716538111700,8.46211181640625,0.10073182629346847,-0.0083873045951128,0.03911430516168475
1772882716548043800,8.472043701171875,0.03634615562260151,-0.0008405424773693085,-0.01918371615856886
1772882716557976800,8.481976806640626,-0.04039338518679142,-0.00033668460845947266,-0.09317921895682811
1772882716567908600,8.49190869140625,-0.08579086227118969,-0.011059738674759864,-0.08037292887568473
1772882716577841400,8.50184130859375,-0.06280453895926476,-0.03211889331638813,-0.11106471199840307
1772882716587773400,8.5117734375,0.0014905308187007902,-0.02145487596094608,-0.19965923351347445
1772882716597706500,8.52170654296875,0.022242226946353912,-0.0307563727915287,-0.2435617958649993
1772882716607639600,8.5316396484375,-0.013877134183049202,-0.03891162219643592,-0.22293211868181823
1772882716617571600,8.541571533203125,-0.07464227626919746,-0.04170797491669655,-0.19507219798415898
1772882716627504600,8.551504638671876,-0.14406009588837623,-0.029219080221652982,-0.15877923385351894
1772882716637436700,8.561436767578124,-0.16013795498609543,-0.039115620335936546,-0.11849851526096462
1772882716647369700,8.57136962890625,-0.09728490070998667,-0.04887596684992313,-0.08198489411696791
1772882716657301800,8.5813017578125,-0.006743629041314125,-0.052634442600607866,-0.053801148292422295
1772882716667234600,8.591234619140625,0.07509586525559425,-0.049799511435627934,-0.040429625543951984
1772882716677166600,8.60116650390625,0.0533563271343708,-0.04377133718729019,-0.05310220624282956
1772882716687099600,8.611099609375,0.009541150805354118,-0.023692425754666326,-0.06894245719239116
1772882716697031700,8.62103173828125,-0.03864391117095947,-0.016017068821191787,-0.13356851249039173
1772882716706964700,8.63096484375,-0.04765957679748535,-0.025188801792263984,-0.185679077347368
1772882716716896500,8.640896484375,-0.045859833899140355,-0.05156359849870205,-0.17603125129714609
1772882716726829600,8.65082958984375,0.001322188514471054,-0.05118891996741295,-0.15368644075915217
1772882716736761600,8.66076171875,-0.04545183762013912,-0.06946282780468463,-0.14434797291904686
1772882716746694700,8.670694580078125,-0.11915069555938243,-0.04986439336538315,-0.10433715730905532
1772882716756626700,8.680626708984375,-0.1506751301139593,-0.02263794826567173,-0.06752966778501868
1772882716766559500,8.6905595703125,-0.1591810926526785,-0.02317161675095558,-0.08986804858222604
1772882716776491500,8.700491455078126,-0.1356090784072876,-0.009004559710621833,-0.14793664506077767
1772882716786424600,8.710424560546874,-0.05675006122589111,-0.020740590211749076,-0.16638415589928626
1772882716796356600,8.720356689453125,-0.0024602526336908338,-0.031058570608496663,-0.18238281228095293
1772882716806289700,8.73028955078125,0.035141456007957456,-0.04066460334360599,-0.1468742765262723
1772882716816221700,8.7402216796875,0.07152209842205047,-0.06620236470401286,-0.09009878859817981
1772882716826154800,8.75015478515625,0.07795300825238227,-0.0838514186412096,-0.05302504935339093
1772882716836086500,8.76008642578125,0.038653848043084145,-0.06551029078662395,-0.0665232672214508
1772882716846019600,8.77001953125,-0.05788286464810371,-0.04480301832258701,-0.09760711840167641
1772882716855952400,8.779952392578124,-0.1303764384508133,-0.044997079589962956,-0.1319090548455715
1772882716865884400,8.789884521484375,-0.16440379573702812,-0.010504442879557608,-0.16983254278749227
1772882716875817500,8.7998173828125,-0.1485223359942436,-0.01134089370369911,-0.2063213217511773
1772882716885749500,8.80974951171875,-0.09575929857790469,-0.02619242587685585,-0.205767048869282
1772882716895682600,8.8196826171875,-0.05339782818853855,-0.020490999364852904,-0.12253580795302986
1772882716905614600,8.829614501953126,-0.011384148323535919,-0.056682256686687464,-0.07027706679701805
1772882716915547600,8.839547607421874,0.02245148578286171,-0.041029345002770425,-0.09051716014072299
1772882716925479700,8.849479736328124,0.07590601259469985,-0.0590466477304697,-0.12010697337090968
1772882716935412700,8.859412841796875,0.047993338796496386,-0.08679682444334029,-0.13302110774070025
1772882716945345300,8.86934521484375,-0.005528992554545403,-0.07992226249873638,-0.1363821086063981
1772882716955278000,8.879278076171875,-0.015253098711371421,-0.07932195851802826,-0.14789207526668904
1772882716965210000,8.889210205078125,-0.025315058520436286,-0.029874329259991644,-0.132091864066571
1772882716975143200,8.89914306640625,-0.019222586864233015,0.0001993219643831253,-0.09053001962229609
1772882716985075200,8.9090751953125,-0.021550153028964996,0.02172024889886379,-0.033036300422251225
1772882716995008300,8.91900830078125,-0.03604746493697166,0.010391045632958411,0.003026654344797134
1772882717004940000,8.92893994140625,-0.06962590941190719,-0.019243629652261732,0.007203647768497467
1772882717014873000,8.938873046875,-0.10768471417129039,-0.011539046624302864,-0.03020779899805784
1772882717024805000,8.94880517578125,-0.09802198281288146,-0.02494680972993374,-0.0930630452312529
1772882717034738200,8.95873828125,-0.08127309258580208,-0.03336509398519993,-0.1637318878248334
1772882717044670200,8.968670166015626,-0.05943243217766284,-0.039866146442294116,-0.21804273920506237
1772882717054603000,8.97860302734375,-0.04606207847297191,-0.05518529612720012,-0.21940978977456688
1772882717064535000,8.98853515625,-0.07434358558356761,-0.10889467448294163,-0.16440920256450772
1772882717074468000,8.998468017578125,-0.058823944890499115,-0.1238666181653738,-0.14934548894539473
1772882717084400000,9.008400146484375,-0.03420680550634861,-0.11376783347725868,-0.16152151829898356
1772882717094333200,9.018333251953125,0.03013853315412998,-0.08809446303844451,-0.19735095657110213
1772882717104265200,9.02826513671875,0.0241162041246891,-0.05873509756326675,-0.23401859923303125
1772882717114198300,9.0381982421875,0.0062742579638957975,-0.0079167644739151,-0.19178820787742734
1772882717124131300,9.04813134765625,-0.035216859331727024,-0.006761749219894409,-0.17520561412796376
1772882717134063000,9.05806298828125,-0.07855565032064914,-0.009627660045027733,-0.11633417683392762
1772882717143996200,9.06799609375,-0.08215981229245663,0.011736030501127242,-0.025436785203963516
1772882717153928000,9.077927978515625,-0.05138590384423732,0.009786649999022482,0.05016600666046142
1772882717163861000,9.087861083984375,-0.06696516577005386,-0.010763386076688766,0.05068637727275491
1772882717173793000,9.09779296875,-0.05013093534708023,-0.01711363188624382,0.06235314192995429
1772882717183726000,9.10772607421875,-0.026897943797707557,-0.003533434823155403,0.032320699498802424
1772882717193658000,9.117658203125,-0.014590250888466834,0.0017108955711126327,-0.032814474365115164
1772882717203591200,9.127591064453124,0.021752397602796552,-0.03791851950585842,-0.055084027709811925
1772882717213523200,9.137523193359375,0.05136193844676017,-0.07004267351925372,-0.061428720561414955
1772882717223456300,9.147456298828125,0.10407996767759323,-0.0776683460921049,-0.12017755438908934
1772882717233388300,9.15738818359375,0.12832710470557213,-0.07586158893108368,-0.16808409168496727
1772882717243321000,9.167321044921875,0.03716039461493492,-0.07089841356575488,-0.18458923628404736
1772882717253253000,9.177253173828126,-0.09480126720070839,-0.039563364103436464,-0.19174115386530755
1772882717263186200,9.187186279296874,-0.17951719371676444,-0.04201894056200981,-0.17924568329900503
1772882717273118000,9.197117919921874,-0.2430097149401903,-0.06078033965528011,-0.1717054970525205
1772882717283051000,9.207051025390625,-0.2587462132543325,-0.04639291786253452,-0.18669322282597423
1772882717292983000,9.216983154296875,-0.2338601938009262,-0.007775310176610946,-0.17128668711856007
1772882717302916000,9.226916015625,-0.1498386792898178,0.00239420166015625,-0.17900193767100572
1772882717312848100,9.23684814453125,-0.009791326174139976,-0.0013186813831329346,-0.11981953473165631
1772882717322781200,9.24678125,0.07507073081433772,-0.018074585872888564,-0.018229191912710666
1772882717332713200,9.256713134765626,0.10971709678173064,-0.033062311646342275,0.0474418423935771
1772882717342646000,9.26664599609375,0.12260580444931983,-0.008418284255266188,0.04147416616082191
1772882717352578000,9.276578125,0.08219196099638938,-0.008664367970824241,-0.04129164920076728
1772882717362511000,9.286510986328125,0.08311667462587356,-0.016259060883522032,-0.07370718737617135
1772882717372443100,9.296443115234375,0.06935586029887199,-0.025290508601069447,-0.08424611704722046
1772882717382376200,9.306376220703125,0.0014086977541446686,-0.054446460458636284,-0.08267053829357028
1772882717392308200,9.31630810546875,-0.047674189844727516,-0.09061258333921432,-0.06954436860829591
1772882717402241300,9.3262412109375,-0.06948562415838241,-0.07098667637109755,-0.09634718146845697
1772882717412174300,9.33617431640625,-0.07760112607479094,-0.055907180660963056,-0.16336013190299273
1772882717422106000,9.346106201171875,-0.06277297477722167,-0.030839374899864196,-0.18119973997622726
1772882717432039000,9.356038818359375,-0.05043430220782757,-0.00549509028494358,-0.1675786263808608
1772882717441971000,9.365970947265625,-0.05526654466986656,-0.002532148826122284,-0.1662770422630012
1772882717451904000,9.375904052734375,-0.03979834190309047,0.006013561201095581,-0.2022727770127356
1772882717461836000,9.3858359375,-0.00923427681326866,-0.015928221493959425,-0.1634713371925056
1772882717471769000,9.39576904296875,0.010846972706913947,-0.030386370435357093,-0.1389502055287361
1772882717481701000,9.405701171875,-0.017764789271354674,-0.053502457606792446,-0.10312032886520027
1772882717491634200,9.41563427734375,-0.0992097312927246,-0.05450958882272243,-0.0751576784454286
1772882717501566200,9.425566162109375,-0.131512749004364,-0.03177753253281116,-0.11440978464260697
1772882717511499300,9.435499267578125,-0.13852934976816175,-0.020948095482587813,-0.12684373428002
1772882717521431300,9.445431396484375,-0.15043021544218063,-0.0381762936592102,-0.12212518132552504
1772882717531364000,9.455364013671876,-0.11404431233108044,-0.055847559428215024,-0.13536694021448492
1772882717541296000,9.465296142578126,-0.051044543060660356,-0.04792494973540306,-0.11105053734257817
1772882717551229200,9.475229248046874,0.02509177115857601,-0.07093290035724639,-0.12846636704578995
1772882717561161000,9.485160888671874,0.08062076615691184,-0.06819149269461632,-0.14770327469632027
1772882717571094000,9.495093994140625,0.09530220246016978,-0.08986614888608455,-0.1458846809670329
1772882717581026000,9.505026123046875,0.10760229658484459,-0.07559680051505566,-0.12978007999286054
1772882717590959000,9.514958984375,0.042026539346575735,-0.04349135120213032,-0.098321258020401
1772882717600891100,9.52489111328125,-0.03194236770570278,-0.04414484667479992,-0.11242124117389321
1772882717610824200,9.53482421875,-0.08455167586505413,-0.025236732587218282,-0.10071560581102966
1772882717620756200,9.544756103515626,-0.11716682826578616,-0.017545009040832518,-0.11877747833281754
1772882717630689000,9.55468896484375,-0.10685177047848701,-0.013593056544661522,-0.09320186918005346
1772882717640622000,9.5646220703125,-0.09645721771419048,-0.01182721591591835,-0.11777999172806738
1772882717650554000,9.57455419921875,-0.12157295427024364,-0.02128068843781948,-0.10265855657234788
1772882717660487200,9.584487060546875,-0.12244564545154571,-0.0067120648592710495,-0.10799699499085545
1772882717670419200,9.594419189453125,-0.03920972836017608,-0.020992519146203995,-0.10673325866535305
1772882717680352300,9.604352294921876,0.06183189453482627,-0.02142448082268238,-0.088888974417001
1772882717690284000,9.614283935546876,0.11363339344263076,-0.0433048887193203,-0.12077259767279028
1772882717700217000,9.624217041015624,0.09593407062292099,-0.051043958538770674,-0.1557267144151032
1772882717710149000,9.634149169921875,0.05297112720906734,-0.036159693139791484,-0.17115853069424627
1772882717720082000,9.64408203125,0.17601006237864494,-0.07054243973493575,-0.0825289378657937
1772882717730014200,9.65401416015625,0.03569908989071846,-0.06018237376213073,-0.035453152305632826
1772882717739947000,9.663947021484375,-0.07504793446063995,0.017773557099699973,-0.04476765474826097
1772882717749879000,9.673879150390626,-0.1445452490568161,-0.019616554617881775,-0.01407499484270811
1772882717759812000,9.68381201171875,-0.11829554003477095,-0.020918284866213797,0.0004110650189220905
1772882717769744100,9.693744140625,-0.11624562176764011,-0.03886135331392288,-0.027675504041463135
1772882717779677200,9.70367724609375,-0.06425181515812874,-0.016828385204076767,-0.0983962229527533
1772882717789609200,9.713609130859375,-0.015919453665614126,-0.02477671386003494,-0.10186974428221583
1772882717799542300,9.723542236328125,0.025334347742795943,-0.030392215654253957,-0.1308174602165818
1772882717809474300,9.733474365234375,0.019357611420750615,-0.07497019304931163,-0.1335791800148785
1772882717819407000,9.743406982421876,-0.025902503019571303,-0.12954174119234085,-0.0492247802875936
1772882717829339100,9.753339111328126,-0.09594751462638378,-0.15344576387107373,-0.01846826136559248
1772882717839272000,9.76327197265625,-0.11080313845276832,-0.09065642248094082,-0.04305500561147928
