time,seconds_elapsed,z,y,x
1772882708135210500,0.05921044921875,0.058039601892232895,-0.0387687012553215,-0.008054464124143124
1772882708145143600,0.0691435546875,0.057372212409973145,-0.045519813895225525,0.003783819265663624
1772882708155075600,0.07907568359375,0.04592301696538925,-0.044923532754182816,0.008021974004805088
1772882708165008600,0.089008544921875,0.03831356763839722,-0.035286352038383484,0.011818043887615204
1772882708174940700,0.098940673828125,0.03677239641547203,-0.027212712913751602,0.012046276591718197
1772882708184873500,0.10887353515625,0.03695908188819885,-0.027574902400374413,0.006021406967192888
1772882708194805500,0.118805419921875,0.030610373243689537,-0.032293226569890976,0.0006727144937030971
1772882708204738300,0.12873828125,0.025546638295054436,-0.03225061297416687,-0.00018216021999251097
1772882708214670300,0.13867041015625,0.019175559282302856,-0.03218456730246544,0.00006924218905624002
1772882708224603400,0.148603271484375,0.01119353249669075,-0.026548253372311592,-0.003448793664574623
1772882708234535400,0.158535400390625,0.008156197145581245,-0.020185429602861404,-0.011923771351575851
1772882708244468500,0.168468505859375,0.0037942056078463793,-0.013589845038950443,-0.018018681555986404
1772882708254400500,0.178400390625,0.00965715479105711,-0.0076211681589484215,-0.029278792440891266
1772882708264333600,0.18833349609375,0.022220883518457413,-0.005976399872452021,-0.03286127746105194
1772882708274265600,0.198265625,0.0326538160443306,-0.007892011664807796,-0.04092958942055702
1772882708284198400,0.208198486328125,0.03882036730647087,-0.004415787290781736,-0.03405250981450081
1772882708294130700,0.218130615234375,0.03425384312868118,-0.0021289309952408075,-0.019515644758939743
1772882708304063500,0.2280634765625,0.027595141902565956,-0.0015275891637429595,-0.0038432078436017036
1772882708313995500,0.23799560546875,0.020079169422388077,0.0014772554859519005,0.0031854070257395506
1772882708323928600,0.247928466796875,0.014372281730175018,0.004070109222084284,0.01293284259736538
1772882708333860400,0.2578603515625,0.011438276618719101,0.00552392890676856,0.014459100551903248
1772882708343793400,0.26779345703125,0.005135107319802046,0.010822554118931293,0.01170512568205595
1772882708353725400,0.277725341796875,-0.0014700648607686162,0.013940316624939442,0.0026375947054475546
1772882708363658500,0.287658447265625,-0.011181814596056938,0.023781228810548782,-0.005874933209270239
1772882708373590500,0.297590576171875,-0.02580949291586876,0.03449725732207298,-0.004594485275447369
1772882708383523600,0.307523681640625,-0.04326571524143219,0.0307491235435009,0.002788063371554017
1772882708393455600,0.31745556640625,-0.05444539710879326,0.024526115506887436,0.009099222719669342
1772882708403388400,0.327388427734375,-0.06316458433866501,0.027542145922780037,0.012859339825809002
1772882708413320400,0.337320556640625,-0.06443651020526886,0.029020465910434723,0.017047958448529243
1772882708423253500,0.34725341796875,-0.0637318417429924,0.028374915942549706,0.004581169690936804
1772882708433185500,0.357185546875,-0.05477536469697952,0.03287272900342941,-0.006073072552680969
1772882708443118600,0.36711865234375,-0.04182014986872673,0.032639969140291214,-0.01769697107374668
1772882708453050600,0.377050537109375,-0.022352177649736404,0.033556096255779266,-0.026102706789970398
1772882708462983700,0.386983642578125,-0.005912217777222395,0.03800969943404198,-0.026495257392525673
1772882708472915500,0.39691552734375,0.007902131415903568,0.04874303936958313,-0.022827018052339554
1772882708482848500,0.4068486328125,0.0116175077855587,0.04863731190562248,-0.01555259432643652
1772882708492780500,0.416780517578125,0.0057284594513475895,0.06058771163225174,-0.004863731097429991
1772882708502713300,0.42671337890625,-0.010280600748956203,0.07216554135084152,0.008351939730346203
1772882708512645400,0.436645263671875,-0.019627496600151062,0.08350235223770142,0.021556956693530083
1772882708522578400,0.446578369140625,-0.027453994378447533,0.08800096064805984,0.0299586970359087
1772882708532510500,0.456510498046875,-0.029874809086322784,0.09433848410844803,0.0355159156024456
1772882708542443500,0.466443603515625,-0.041613489389419556,0.10535624623298645,0.036019787192344666
1772882708552375600,0.47637548828125,-0.05330529808998108,0.1182190477848053,0.02412903867661953
1772882708562308600,0.48630859375,-0.06347617506980896,0.12405190616846085,0.014752847142517567
1772882708572241700,0.49624169921875,-0.07344518601894379,0.12757126986980438,0.014843926765024662
1772882708582173700,0.506173583984375,-0.07275063544511795,0.12168142944574356,0.013373862020671368
1772882708592106500,0.5161064453125,-0.0618513822555542,0.10987377166748047,0.01587483659386635
1772882708602038300,0.526038330078125,-0.04608440399169922,0.10168241709470749,0.016691096127033234
1772882708611971300,0.535971435546875,-0.021462148055434227,0.09208518266677856,0.017967015504837036
1772882708621903400,0.5459033203125,0.0031878037843853235,0.07893236726522446,0.01721627078950405
1772882708631836400,0.55583642578125,0.017900437116622925,0.057366352528333664,0.026441194117069244
1772882708641768400,0.5657685546875,0.026339462026953697,0.031805865466594696,0.03435637429356575
1772882708651701500,0.575701416015625,0.03476916626095772,-0.0000774979853304103,0.032391227781772614
1772882708661633500,0.585633544921875,0.047815725207328796,-0.009734919294714928,0.018031464889645576
1772882708671566600,0.595566650390625,0.052075717598199844,-0.014908641576766968,-0.004090349189937115
1772882708681498600,0.60549853515625,0.05938902497291565,-0.01882721669971943,-0.03056643158197403
1772882708691431400,0.615431396484375,0.06053631380200386,-0.020115654915571213,-0.048476189374923706
1772882708701363500,0.625363525390625,0.06751539558172226,-0.025492843240499496,-0.06371159851551056
1772882708711296500,0.635296630859375,0.06426047533750534,-0.02659778855741024,-0.06401999294757843
1772882708721228500,0.645228515625,0.05561878904700279,-0.01960938796401024,-0.05823694169521332
1772882708731161600,0.65516162109375,0.04622901231050491,-0.002529204124584794,-0.044010601937770844
1772882708741093400,0.66509326171875,0.04213041067123413,0.009883256629109383,-0.031186414882540703
1772882708751026400,0.6750263671875,0.03747786581516266,0.011067298240959644,-0.012793026864528656
1772882708760958500,0.68495849609375,0.03701208159327507,0.013463344424962997,-0.0003456783015280962
1772882708770891500,0.6948916015625,0.030589867383241653,0.018371017649769783,0.008046208880841732
1772882708780823600,0.704823486328125,0.02335326001048088,0.028476648032665253,0.0034194989129900932
1772882708790756400,0.71475634765625,0.019872240722179413,0.02556581422686577,-0.004051733296364546
1772882708800688400,0.7246884765625,0.012470784597098827,0.029279591515660286,-0.01519013848155737
1772882708810621400,0.734621337890625,0.005571332760155201,0.035535622388124466,-0.026923226192593575
1772882708820553500,0.744553466796875,0.0008546083699911833,0.048413071781396866,-0.03458594158291817
1772882708830486500,0.754486572265625,-0.00980575941503048,0.05783906579017639,-0.03617851063609123
1772882708840418600,0.76441845703125,-0.022460568696260452,0.06258295476436615,-0.03175313398241997
1772882708850351600,0.7743515625,-0.03392121568322182,0.06739102303981781,-0.02046879008412361
1772882708860283600,0.78428369140625,-0.04271603748202324,0.06579899042844772,-0.006986802909523249
1772882708870216700,0.794216796875,-0.04887406527996063,0.06024043634533882,0.0001651159836910665
1772882708880148500,0.8041484375,-0.059844691306352615,0.06266684085130692,0.0004367584188003093
1772882708890081300,0.814081298828125,-0.06601736694574356,0.07091838121414185,-0.005399292800575495
1772882708900013600,0.824013671875,-0.0735064446926117,0.07543616741895676,-0.011668906547129154
1772882708909946400,0.8339462890625,-0.08289941400289536,0.07200334966182709,-0.00830666534602642
1772882708919878400,0.84387841796875,-0.0876542180776596,0.07661568373441696,-0.003931891173124313
1772882708929811500,0.8538115234375,-0.08900603652000427,0.07860453426837921,-0.0038165762089192867
1772882708939744500,0.86374462890625,-0.08310980349779129,0.0746460109949112,-0.006924751214683056
1772882708949677600,0.873677490234375,-0.06964219361543655,0.06469430774450302,-0.006873885169625282
1772882708959609300,0.883609375,-0.0626031905412674,0.06278082728385925,-0.006430468522012234
1772882708969542100,0.893542236328125,-0.052991047501564026,0.05566006526350975,-0.009824933484196663
1772882708979474400,0.903474365234375,-0.04381326213479042,0.04349847510457039,-0.011623366735875607
1772882708989407200,0.9134072265625,-0.038490667939186096,0.03999908268451691,-0.018150774762034416
1772882708999339300,0.92333935546875,-0.03128867968916893,0.04162733629345894,-0.01824078895151615
1772882709009272300,0.933272216796875,-0.023498667404055595,0.04153093323111534,-0.020309265702962875
1772882709019204400,0.943204345703125,-0.018581407144665718,0.04412032291293144,-0.015047659166157246
1772882709029137400,0.953137451171875,-0.016692161560058594,0.039560191333293915,-0.003430950455367565
1772882709039069400,0.9630693359375,-0.022658973932266235,0.036486104130744934,0.0009805759182199836
1772882709049002500,0.97300244140625,-0.023839551955461502,0.0406973622739315,-0.0021518340799957514
1772882709058934500,0.9829345703125,-0.03159734234213829,0.05096118524670601,-0.005024319514632225
1772882709068867300,0.992867431640625,-0.033369142562150955,0.05703452229499817,-0.008107194676995277
1772882709078800400,1.00280029296875,-0.040174584835767746,0.05886011943221092,-0.007286408916115761
1772882709088732400,1.012732421875,-0.04477972164750099,0.04875768721103668,-0.005691708065569401
1772882709098664200,1.022664306640625,-0.04691744223237038,0.03946831449866295,-0.007268032990396023
1772882709108597200,1.03259716796875,-0.03887948766350746,0.023432621732354164,-0.014797587879002094
1772882709118530300,1.0425302734375,-0.026392990723252296,0.014068947173655033,-0.02431599237024784
1772882709128462300,1.05246240234375,-0.01209554448723793,-0.0062674833461642265,-0.03146737813949585
1772882709138395400,1.0623955078125,0.0021672805305570364,-0.01757553219795227,-0.031098531559109688
1772882709148327400,1.072327392578125,0.017772872000932693,-0.019232284277677536,-0.032887641340494156
1772882709158260200,1.08226025390625,0.027580229565501213,-0.014080665074288845,-0.035767052322626114
1772882709168192500,1.092192626953125,0.03578462824225426,-0.0067511131055653095,-0.028053471818566322
1772882709178125300,1.102125244140625,0.03398726135492325,-0.004013117402791977,-0.01344496849924326
1772882709188057300,1.112057373046875,0.033548638224601746,-0.00765845226123929,-0.0010950918076559901
1772882709197990400,1.121990478515625,0.03019864857196808,-0.01025689858943224,0.012251339852809906
1772882709207922400,1.13192236328125,0.026800455525517464,-0.013266270980238914,0.022484004497528076
1772882709217855500,1.14185546875,0.02274046652019024,-0.017775535583496094,0.021198762580752373
1772882709227787300,1.151787353515625,0.02135375887155533,-0.01588229276239872,0.014193050563335419
1772882709237720300,1.16172021484375,0.014517690055072308,-0.0138404481112957,0.004053330980241299
1772882709247652400,1.17165234375,0.012622584588825703,-0.011604458093643188,-0.0034016557037830353
1772882709257585400,1.18158544921875,0.007847802713513374,-0.007870174013078213,-0.00987340323626995
1772882709267517400,1.191517333984375,0.0054885088466107845,-0.009101619012653828,-0.013147493824362755
1772882709277450200,1.2014501953125,-0.003040530951693654,-0.006150304339826107,-0.01185399666428566
1772882709287382300,1.21138232421875,-0.008810269646346569,-0.008876316249370575,-0.01071229949593544
1772882709297315300,1.2213154296875,0.0009944243356585503,-0.013127519749104977,-0.011990616098046303
1772882709307247400,1.231247314453125,0.01624927669763565,-0.0252813883125782,-0.008843292482197285
1772882709317180400,1.241180419921875,0.02532692812383175,-0.0243705864995718,-0.012981312349438667
1772882709327112400,1.251112548828125,0.029042037203907967,-0.02606169506907463,-0.016803480684757233
1772882709337045500,1.26104541015625,0.030373351648449898,-0.02726570889353752,-0.019300993531942368
1772882709346977500,1.2709775390625,0.025732792913913727,-0.03220560774207115,-0.018868762999773026
1772882709356910600,1.28091064453125,0.01810470223426819,-0.03514520451426506,-0.018633872270584106
1772882709366842400,1.29084228515625,0.012976518832147121,-0.03507010266184807,-0.020778514444828033
1772882709376775200,1.300775146484375,0.018932145088911057,-0.03345036879181862,-0.01715714856982231
1772882709386707200,1.310707275390625,0.026145316660404205,-0.04369688034057617,-0.013380253687500954
1772882709396640300,1.32064013671875,0.04242255911231041,-0.05800604447722435,-0.007497597485780716
1772882709406572300,1.330572265625,0.053652308881282806,-0.06676731258630753,0.001050617080181837
1772882709416505300,1.34050537109375,0.05231034383177757,-0.06533080339431763,0.007784153334796429
1772882709426437400,1.350437255859375,0.050035204738378525,-0.06138506531715393,0.005864280741661787
1772882709436370400,1.360370361328125,0.04644153267145157,-0.0538933239877224,-0.0020501012913882732
1772882709446302500,1.370302490234375,0.039561256766319275,-0.050343066453933716,-0.009114402346313
1772882709456235500,1.380235595703125,0.029286783188581467,-0.04030534625053406,-0.017170730978250504
1772882709466167600,1.39016748046875,0.019397666677832603,-0.031870048493146896,-0.02231409400701523
1772882709476100400,1.400100341796875,0.015930496156215668,-0.025302959606051445,-0.025917084887623787
1772882709486032400,1.410032470703125,0.009698167443275452,-0.021275460720062256,-0.015518239699304104
1772882709495965400,1.41996533203125,0.005909021943807602,-0.020556140691041946,0.00259418529458344
1772882709505897200,1.429897216796875,0.0037446708884090185,-0.013738981448113918,0.020265856757760048
1772882709515830300,1.439830322265625,0.003585147438570857,-0.00974397361278534,0.03850611299276352
1772882709525762300,1.44976220703125,0.0023989754263311625,-0.004312190227210522,0.04867645725607872
1772882709535695400,1.4596953125,-0.0049430932849645615,0.003862382611259818,0.04844769462943077
1772882709545627400,1.46962744140625,-0.01218555960804224,0.014231400564312935,0.04538638889789581
1772882709555560400,1.479560546875,-0.02003229781985283,0.021689316257834435,0.03534014895558357
1772882709565492500,1.489492431640625,-0.023209981620311737,0.021927136927843094,0.024419588968157768
1772882709575425300,1.49942529296875,-0.026667829602956772,0.019756659865379333,0.009998572058975697
1772882709585357300,1.509357421875,-0.02876267209649086,0.020239224657416344,-0.005270928610116243
1772882709595290400,1.519290283203125,-0.027093403041362762,0.012635367922484875,-0.01727832295000553
1772882709605222400,1.529222412109375,-0.023723971098661423,0.007123423274606466,-0.027402596548199654
1772882709615155500,1.539155517578125,-0.020866133272647858,0.00013741910515818745,-0.03032195381820202
1772882709625087200,1.549087158203125,-0.01745355874300003,-0.007425691932439804,-0.02678287774324417
1772882709635020300,1.559020263671875,-0.012351208366453648,-0.010439325124025345,-0.01830364018678665
1772882709644952300,1.568952392578125,-0.003769171889871359,-0.010055563412606716,-0.008807339705526829
1772882709654885400,1.578885498046875,0.00016058860637713224,-0.00711729796603322,-0.006539391819387674
1772882709664817400,1.5888173828125,-0.0011739213950932026,0.007930627092719078,-0.015299860388040543
1772882709674750200,1.598750244140625,0.000743554555810988,0.011463044211268425,-0.01859126053750515
1772882709684682500,1.6086826171875,-0.007132744416594505,0.016474846750497818,-0.015110243111848831
1772882709694615300,1.618615234375,-0.01684129796922207,0.005532717332243919,-0.014871624298393726
1772882709704547300,1.62854736328125,-0.02719779871404171,0.016048474237322807,-0.007694405037909746
1772882709714480400,1.63848046875,-0.036012861877679825,0.024889370426535606,-0.004774248693138361
1772882709724412400,1.648412353515625,-0.041860632598400116,0.02894882671535015,-0.0027300063520669937
1772882709734345500,1.658345458984375,-0.03301573917269707,0.02666543237864971,0.011515242047607899
1772882709744277500,1.668277587890625,-0.02004534751176834,0.02857784926891327,0.014011955820024014
1772882709754210600,1.67821044921875,-0.07341136783361435,0.035952407866716385,0.0187798123806715
1772882709764142300,1.688142333984375,0.01509985700249672,0.0073077138513326645,0.016938503831624985
1772882709774075400,1.698075439453125,-0.016982978209853172,0.0256385188549757,0.022038988769054413
1772882709784007400,1.70800732421875,-0.020382503047585487,0.03729863464832306,0.02550802379846573
1772882709793940200,1.717940185546875,-0.024019582197070122,0.035171303898096085,0.039512522518634796
1772882709803872300,1.727872314453125,-0.016978450119495392,0.023239009082317352,0.03820331022143364
1772882709813805300,1.737805419921875,-0.009251821786165237,0.050707653164863586,0.028779983520507812
1772882709823738400,1.74773828125,-0.01398878637701273,0.018982212990522385,0.013324061408638954
1772882709833670400,1.75767041015625,-0.009801764041185379,0.04216636344790459,-0.011412976309657097
1772882709843603500,1.767603515625,-0.03370736166834831,0.01230247225612402,-0.020674917846918106
1772882709853535500,1.777535400390625,-0.00247594085521996,0.036368660628795624,-0.03299683332443237
1772882709863468300,1.78746826171875,-0.04717576876282692,0.023975374177098274,-0.029218072071671486
1772882709873400600,1.797400634765625,0.006547914352267981,0.04574538394808769,-0.012767992913722992
1772882709883333400,1.80733349609375,-0.052378252148628235,0.028774389997124672,0.008598814718425274
1772882709893265400,1.817265380859375,0.024453677237033844,0.044080641120672226,0.01648496650159359
1772882709903198500,1.827198486328125,-0.046003978699445724,0.03658277913928032,0.02377430535852909
1772882709913130200,1.837130126953125,-0.013191701844334602,0.04258447885513306,0.02316497452557087
1772882709923063300,1.847063232421875,-0.016517458483576775,0.04243720695376396,0.021819278597831726
1772882709932995300,1.856995361328125,-0.013279053382575512,0.03786615654826164,0.017681792378425598
1772882709942928000,1.866927978515625,-0.00800120085477829,0.03645920753479004,0.015205051749944687
1772882709952860000,1.87685986328125,-0.0065260762348771095,0.03244316205382347,0.0076363482512533665
1772882709962793000,1.88679296875,0.0022924491204321384,0.031038610264658928,0.0017148094484582543
1772882709972725000,1.89672509765625,0.0037119139451533556,0.035045869648456573,-0.00021252025908324867
1772882709982657800,1.90665771484375,0.005937783978879452,0.03635348007082939,0.002145176287740469
1772882709992589800,1.91658984375,0.007987086661159992,0.030296387150883675,0.005726861767470837
1772882710002523000,1.92652294921875,0.0073479278944432735,0.032815735787153244,0.014301707968115807
1772882710012455000,1.936454833984375,0.004507400095462799,0.03181944787502289,0.021573469042778015
1772882710022388000,1.946387939453125,-0.0024559672456234694,0.031987227499485016,0.025300029665231705
1772882710032320000,1.956320068359375,-0.013919544406235218,0.033736392855644226,0.019786754623055458
1772882710042253000,1.966253173828125,-0.017597902566194534,0.031626369804143906,0.010793259367346764
1772882710052184800,1.976184814453125,-0.020661601796746254,0.02973019890487194,-0.0015933692920953035
1772882710062118000,1.986117919921875,-0.02473677136003971,0.03104233741760254,-0.01127901952713728
1772882710072050000,1.9960498046875,-0.01889219880104065,0.024401746690273285,-0.012123774737119675
1772882710081983000,2.00598291015625,-0.006853378843516111,0.014146711677312851,-0.00905874278396368
1772882710091915000,2.0159150390625,0.0038743666373193264,0.012190086767077446,-0.009195628575980663
1772882710101847800,2.025847900390625,0.019328424707055092,0.008204666897654533,-0.009372995235025883
1772882710111779800,2.03577978515625,0.028774123638868332,0.001939313835464418,-0.008978314697742462
1772882710121713000,2.045712890625,0.028270253911614418,-0.005577458068728447,-0.006725280545651913
1772882710131645000,2.05564501953125,0.021681860089302063,-0.0016783240716904402,-0.01660693995654583
1772882710141578000,2.065577880859375,0.017303090542554855,-0.0009246495319530368,-0.02478630654513836
1772882710151510000,2.075510009765625,0.01599894091486931,0.0027329358272254467,-0.025071265175938606
1772882710161443000,2.085443115234375,0.021506091579794884,0.004171575419604778,-0.021458687260746956
1772882710171374800,2.095374755859375,0.023808393627405167,-0.001330249011516571,-0.010923488065600395
1772882710181308000,2.105307861328125,0.03027375042438507,-0.011090734042227268,-0.002159557305276394
1772882710191240000,2.115239990234375,0.028659874573349953,-0.015371765941381454,0.0030120352748781443
1772882710201172700,2.1251728515625,0.024890702217817307,-0.013251090422272682,0.005511678289622068
1772882710211104800,2.135104736328125,0.01769990101456642,-0.00723634148016572,-0.0041031320579349995
1772882710221037800,2.145037841796875,0.01446868758648634,-0.003997937310487032,-0.0027601001784205437
1772882710230969900,2.154969970703125,0.015007445588707924,-0.0036048549227416515,-0.005363073665648699
1772882710240903000,2.16490283203125,0.014944860711693764,0.004613127559423447,-0.0004013383586425334
1772882710250835000,2.1748349609375,0.012352007441222668,0.002722283359616995,0.005659749731421471
1772882710260768000,2.18476806640625,0.012079565785825253,0.004335360135883093,0.01073839794844389
1772882710270700000,2.194699951171875,0.01215839572250843,0.013186908327043056,0.011243865825235844
1772882710280633000,2.204633056640625,0.014962437562644482,0.009348227642476559,0.015556322410702705
1772882710290565000,2.214565185546875,0.014809838496148586,0.0021134845446795225,0.021392906084656715
1772882710300498000,2.224497802734375,0.013969611376523972,-0.007207845337688923,0.02165789157152176
1772882710310429700,2.2344296875,0.01673663593828678,-0.017470337450504303,0.01188062783330679
1772882710320362800,2.24436279296875,0.018494056537747383,-0.013643640093505383,-0.006232596002519131
1772882710330294800,2.254294677734375,0.01859232597053051,-0.011159177869558334,-0.020234964787960052
1772882710340227800,2.264227783203125,0.01593715511262417,-0.0155517952516675,-0.024459004402160645
1772882710350160000,2.274159912109375,0.01558481901884079,-0.02630217745900154,-0.022169217467308044
1772882710360093000,2.284093017578125,0.014150439761579037,-0.023256586864590645,-0.020443756133317947
1772882710370025000,2.29402490234375,0.010281932540237904,-0.01907968521118164,-0.017411747947335243
1772882710379958000,2.3039580078125,0.013021792285144329,-0.011119496077299118,-0.014749119058251381
1772882710389890000,2.31389013671875,0.011116833426058292,-0.014420750550925732,-0.007224889472126961
1772882710399822800,2.32382275390625,0.008440889418125153,-0.01507056225091219,0.002502838848158717
1772882710409755000,2.3337548828125,0.008141017518937588,-0.015017831698060036,0.007440072949975729
1772882710419688000,2.34368798828125,0.007576693315058947,-0.011604990810155869,0.015021293424069881
1772882710429620000,2.353619873046875,0.00971547793596983,-0.00552339619025588,0.018032796680927277
1772882710439553000,2.363552978515625,0.006624347064644098,0.0033952640369534492,0.016510266810655594
1772882710449486000,2.373486083984375,0.007225155830383301,0.004190750420093536,0.01119060255587101
1772882710459417900,2.38341796875,0.0028013791888952255,0.004863464739173651,0.0031731564085930586
1772882710469351000,2.393350830078125,-0.00019760655413847417,0.004246943164616823,-0.0013129384024068713
1772882710479283000,2.403282958984375,-0.00256409146822989,-0.0015970977256074548,-0.0028695559594780207
1772882710489215700,2.4132158203125,-0.006705573294311762,-0.002418682910501957,-0.006922088097780943
1772882710499147800,2.423147705078125,-0.010397513397037983,-0.0012713931500911713,-0.005800897255539894
1772882710509080800,2.433080810546875,-0.011150122620165348,0.0005020058597438037,-0.007652593310922384
1772882710519012900,2.443012939453125,-0.0152588477358222,0.00364666641689837,-0.006887467112392187
1772882710528946000,2.45294580078125,-0.015142201445996761,0.0017246630741283298,-0.008679774589836597
1772882710538878000,2.4628779296875,-0.013495036400854588,-0.005321528296917677,-0.002433330286294222
1772882710548811000,2.47281103515625,-0.013100622221827507,-0.007855792529881,0.0035127094015479088
1772882710558743000,2.482742919921875,-0.008507467806339264,-0.021145232021808624,0.006213421002030373
1772882710568676000,2.492676025390625,-0.0036887445021420717,-0.03009771555662155,0.011205783113837242
1772882710578607900,2.50260791015625,-0.0033574472181499004,-0.014055897481739521,-0.003438939806073904
1772882710588540700,2.512540771484375,-0.0041761030443012714,-0.007463508751243353,-0.008889098651707172
1772882710598473000,2.522472900390625,-0.0031398669816553593,-0.01581864431500435,-0.01194081548601389
1772882710608405800,2.53240576171875,-0.002360359765589237,-0.014990135096013546,-0.003817641409114003
1772882710618337800,2.542337890625,0.005110339727252722,-0.01937289908528328,0.004652276169508696
1772882710628270800,2.552270751953125,0.011716044507920742,-0.017659420147538185,0.00529569573700428
1772882710638203000,2.562202880859375,0.02263686992228031,-0.021507687866687775,0.004114849958568811
1772882710648136000,2.572135986328125,0.02840554155409336,-0.01811828278005123,-0.003772367723286152
1772882710658068000,2.58206787109375,0.024275777861475945,-0.019278090447187424,-0.003221359569579363
1772882710668001000,2.5920009765625,0.017828265205025673,-0.02564011514186859,-0.0014511564513668418
1772882710677933000,2.60193310546875,0.004815261345356703,-0.023908529430627823,0.0010974886827170849
1772882710687865900,2.611865966796875,-0.01104332972317934,-0.013757091015577316,-0.0006487460341304541
1772882710697798000,2.6217978515625,-0.022766832262277603,-0.009852897375822067,-0.0046879625879228115
1772882710707731000,2.63173095703125,-0.031132886186242104,-0.0021813951898366213,-0.004799282643944025
1772882710717662700,2.641662841796875,-0.029606893658638,0.0005091963685117662,-0.005654423497617245
1772882710727595800,2.651595703125,-0.021047228947281837,-0.004299673717468977,-0.006340187508612871
1772882710737527800,2.66152783203125,-0.013163472525775433,0.0025270734913647175,-0.007285609841346741
1772882710747460900,2.6714609375,-0.0014527543680742383,0.0015720640076324344,-0.0099610211327672
1772882710757393000,2.681392822265625,0.010271545499563217,-0.0033222935162484646,-0.004886367823928595
1772882710767326000,2.691325927734375,0.018442124128341675,-0.01161431148648262,0.00024048343766480684
1772882710777258000,2.701258056640625,0.01888607256114483,-0.019539346918463707,0.0005446164286695421
1772882710787191000,2.71119091796875,0.020925788208842278,-0.016276175156235695,-0.003305515507236123
1772882710797123000,2.721123046875,0.0160647202283144,-0.0059756007976830006,-0.009896839037537575
1772882710807056000,2.731055908203125,0.0148074422031641,-0.006347644608467817,-0.013624732382595539
1772882710816988000,2.74098779296875,0.010566357523202896,-0.011230017989873886,-0.01471689436584711
1772882710826921000,2.7509208984375,0.008526909165084362,-0.017425062134861946,-0.013904097490012646
1772882710836853000,2.76085302734375,0.008025968447327614,-0.021762819960713387,-0.014455371536314487
1772882710846786000,2.7707861328125,0.009947705082595348,-0.020971594378352165,-0.006329002324491739
1772882710856717800,2.7807177734375,0.012138155288994312,-0.014132862910628319,-0.000972852751147002
1772882710866651000,2.79065087890625,0.012557869777083397,0.00011158645065734163,0.011875035241246223
1772882710876583000,2.8005830078125,0.00833569373935461,0.00999218039214611,0.025466477498412132
1772882710886516000,2.810515869140625,-0.00007962851668708026,0.015870044007897377,0.03711088374257088
1772882710896448000,2.820447998046875,-0.011476626619696617,0.01870923861861229,0.04406279698014259
1772882710906380800,2.830380859375,-0.022879216820001602,0.024885110557079315,0.035584092140197754
1772882710916312800,2.840312744140625,-0.022768694907426834,0.022973226383328438,0.02744041197001934
1772882710926246000,2.850245849609375,-0.02112659066915512,0.015138206072151661,0.01583302579820156
1772882710936178700,2.8601787109375,-0.018616294488310814,0.012923255562782288,0.011153318919241428
1772882710946111700,2.87011181640625,-0.01601092517375946,0.007598265074193478,-0.00024474450037814677
1772882710956043800,2.880043701171875,-0.009106147103011608,0.004343349486589432,-0.0011270497925579548
1772882710965976800,2.889976806640625,-0.00307648372836411,0.004708468914031982,-0.000029294771593413316
1772882710975908900,2.899908935546875,0.004658135119825602,0.0028626318089663982,0.0038597192615270615
1772882710985841700,2.909841552734375,0.007201720029115677,0.0008500810363329947,0.012504073791205883
1772882710995773700,2.919773681640625,0.00887951161712408,-0.004265318624675274,0.02202354371547699
1772882711005706800,2.929706787109375,0.005906624719500542,-0.010609767399728298,0.025437450036406517
1772882711015638800,2.939638671875,0.0024825986474752426,-0.01002147514373064,0.02508511394262314
1772882711025571800,2.94957177734375,-0.00869069341570139,-0.003756921272724867,0.013194898143410683
1772882711035503900,2.95950390625,-0.016512131318449974,0.00020399813365656883,0.00458702864125371
1772882711045437000,2.96943701171875,-0.02166747860610485,0.003805124433711171,-0.0065255435183644295
1772882711055369000,2.979368896484375,-0.01817447692155838,0.00043116576853208244,-0.0038866172544658184
1772882711065302000,2.989302001953125,-0.018753182142972946,-0.0073564499616622925,0.005025384947657585
1772882711075233800,2.99923388671875,-0.016217852011322975,0.002234392100945115,0.014423147775232792
1772882711085166600,3.00916650390625,-0.015486814081668854,0.005529521498829126,0.023979634046554565
1772882711095098600,3.0190986328125,-0.01756887324154377,0.008616391569375992,0.029928337782621384
1772882711105031700,3.02903173828125,-0.013574930839240551,0.008283229544758797,0.02761618047952652
1772882711114963700,3.038963623046875,-0.009338906966149807,0.0016876452136784792,0.022367889061570168
1772882711124896800,3.048896728515625,-0.005659217480570078,-0.0012386362068355083,0.01641758903861046
1772882711134828800,3.058828857421875,-0.007541273254901171,-0.0024045680183917284,0.008701345883309841
1772882711144761900,3.068761962890625,-0.013042032718658447,0.0028850024100393057,-0.00003914846820407547
1772882711154694000,3.07869384765625,-0.019229887053370476,0.0026056368369609118,0.0016287893522530794
1772882711164627000,3.088626953125,-0.021572137251496315,-0.005284510552883148,0.007476558443158865
1772882711174559000,3.09855908203125,-0.01401674933731556,-0.014911305159330368,0.013145362958312035
1772882711184491800,3.10849169921875,0.0006018743733875453,-0.01275680772960186,0.012691560201346874
1772882711194423600,3.118423583984375,0.02002697065472603,-0.009885121136903763,0.012770656496286392
1772882711204356600,3.128356689453125,0.03724350780248642,-0.007089334540069103,0.01366201601922512
1772882711214288600,3.13828857421875,0.03864113613963127,-0.011501659639179707,0.017965950071811676
1772882711224221700,3.1482216796875,0.030520359054207802,-0.017678596079349518,0.02563478983938694
1772882711234153700,3.15815380859375,0.02021738700568676,-0.017781393602490425,0.031870581209659576
1772882711244086800,3.168086669921875,0.0052352421917021275,-0.00923264678567648,0.031184017658233643
1772882711254018800,3.178018798828125,-0.004089017398655415,-0.002540122950449586,0.023672040551900864
1772882711263952000,3.187951904296875,-0.01344869751483202,0.0016298545524477959,0.013963219709694386
1772882711273884700,3.197884765625,-0.02275138534605503,0.005038434639573097,0.011030546389520168
1772882711283816700,3.207816650390625,-0.020492492243647575,-0.0008503473363816738,0.007418235298246145
1772882711293748700,3.217748779296875,-0.022123677656054497,0.0026258768048137426,0.005886917468160391
1772882711303681800,3.227681884765625,-0.018222946673631668,0.008015315979719162,0.0076217008754611015
1772882711313614800,3.23761474609375,-0.00923371221870184,0.007236873731017113,0.01221512071788311
1772882711323547000,3.247546875,-0.0026162895374000072,0.0054549528285861015,0.018573950976133347
1772882711333480000,3.25747998046875,-0.004899950232356787,0.0038962047547101974,0.024683775380253792
1772882711343411700,3.26741162109375,-0.009635050781071186,0.011196195147931576,0.018063155934214592
1772882711353344800,3.2773447265625,-0.013496633619070053,0.013361877761781216,0.00860174372792244
1772882711363276800,3.28727685546875,-0.012012987397611141,0.011149057187139988,0.001023452845402062
1772882711373208800,3.297208740234375,-0.0016319850692525506,-0.0021230720449239016,-0.005891711451113224
1772882711383141600,3.3071416015625,0.008867793716490269,-0.009617473930120468,-0.011828163638710976
1772882711393074700,3.31707470703125,0.01617683842778206,-0.00962572917342186,-0.01973455585539341
1772882711403006700,3.3270068359375,0.023634755983948708,-0.01179247722029686,-0.02107146382331848
1772882711412939800,3.336939697265625,0.024933045729994774,-0.013155749067664146,-0.018037855625152588
1772882711422871800,3.346871826171875,0.01877475343644619,-0.014164821244776249,-0.015361911617219448
1772882711432804900,3.356804931640625,0.014313159510493279,-0.007016364019364119,-0.0031971249263733625
1772882711442737000,3.36673681640625,0.010802313685417175,-0.001657018787227571,0.0002985403698403388
1772882711452670000,3.376669921875,0.0035340148024260998,0.002344380598515272,0.007450725883245468
1772882711462602000,3.38660205078125,-0.0028152274899184704,0.0009123989730142057,0.016343019902706146
1772882711472534800,3.39653466796875,-0.008301072753965855,0.0022953785955905914,0.014431403949856758
1772882711482466800,3.406466796875,-0.013259346596896648,0.00318886898458004,0.0059537626802921295
1772882711492399600,3.416399658203125,-0.01483700331300497,0.005298625212162733,-0.0022125542163848877
1772882711502331600,3.42633154296875,-0.011414574459195137,0.004850149154663086,-0.010243582539260387
1772882711512264700,3.4362646484375,-0.0016974988393485546,0.005687979515641928,-0.010203635320067406
1772882711522196700,3.44619677734375,-0.005399559158831835,0.008525044657289982,-0.006616357248276472
1772882711532129800,3.4561298828125,-0.004519117996096611,0.01575419493019581,0.00028043086058460176
1772882711542061800,3.466061767578125,-0.0014674017438665032,0.017910823225975037,0.01155785284936428
1772882711551995000,3.475994873046875,-0.0011113371001556516,0.016653811559081078,0.021026721224188805
1772882711561927000,3.485927001953125,-0.007616107817739248,0.018025072291493416,0.028076108545064926
1772882711571859700,3.495859619140625,-0.011754128150641918,0.016894826665520668,0.018139323219656944
1772882711581792000,3.5057919921875,-0.013969611376523972,0.012170113623142242,0.00004873584839515388
1772882711591724800,3.515724853515625,-0.01607297547161579,0.009610016830265522,-0.0222613625228405
1772882711601656600,3.525656494140625,-0.01179167814552784,0.01233150064945221,-0.03862675279378891
1772882711611589600,3.535589599609375,0.0016671388875693083,0.000010652644050423987,-0.04267076402902603
1772882711621521700,3.545521728515625,0.009060872718691826,0.0003145193331874907,-0.033852506428956985
1772882711631454700,3.555454833984375,0.01537469495087862,0.0017955031944438815,-0.022969231009483337
1772882711641386800,3.56538671875,0.013081447221338749,0.014692659489810467,-0.009763681329786777
1772882711651319800,3.57531982421875,0.008143413811922073,0.023265641182661057,-0.000603738590143621
1772882711661251800,3.585251953125,0.006475742440670729,0.020957745611667633,0.00660384027287364
1772882711671185000,3.595184814453125,0.0035305526107549667,0.027781030163168907,0.009534383192658424
1772882711681117000,3.605116943359375,-0.007168430835008621,0.030671093612909317,0.007762582041323185
1772882711691049700,3.6150498046875,-0.011547999456524849,0.024082699790596962,0.008235825225710869
1772882711700981800,3.624981689453125,-0.02014814503490925,0.023072563111782074,0.006557767745107412
1772882711710914800,3.634914794921875,-0.027102990075945854,0.02635490894317627,0.0065039717592298985
1772882711720846800,3.644846923828125,-0.025191107764840126,0.027900606393814087,0.004810467828065157
1772882711730780000,3.65477978515625,-0.01871776208281517,0.0291802566498518,0.0009179916232824326
1772882711740711700,3.664711669921875,-0.010647051967680454,0.03394944593310356,0.0070981234312057495
1772882711750644700,3.674644775390625,-0.001041295938193798,0.02407417632639408,0.01092455256730318
1772882711760576800,3.68457666015625,0.00250576832331717,0.021031249314546585,0.013284114189445972
1772882711770509800,3.694509765625,0.0024410535115748644,0.0222693532705307,0.011454788036644459
1772882711780441900,3.70444189453125,0.0015632755821570754,0.01709669455885887,0.007410245481878519
1772882711790374700,3.714374755859375,0.0011696603614836931,0.014524880796670914,0.002058889716863632
1772882711800306700,3.724306640625,-0.004084490239620209,0.014938469044864178,-0.001980859087780118
1772882711810239700,3.73423974609375,-0.008679508231580257,0.008734902366995811,-0.0057561565190553665
1772882711820171800,3.744171875,-0.012430571019649506,0.011032943613827229,-0.01182177197188139
1772882711830104800,3.754104736328125,-0.018308432772755623,0.010742658749222755,-0.018670624122023582
1772882711840036900,3.764036865234375,-0.016568589955568314,0.003920439630746841,-0.020188892260193825
1772882711849970000,3.773969970703125,-0.013707290403544903,0.013313408941030502,-0.016749152913689613
1772882711859902000,3.78390185546875,-0.01176451425999403,0.013886786997318268,-0.016223710030317307
1772882711869835000,3.7938349609375,-0.013143764808773994,0.02551441453397274,-0.016624249517917633
1772882711879766800,3.803766845703125,-0.017474064603447914,0.03459206596016884,-0.017421334981918335
1772882711889699600,3.813699462890625,-0.020495953038334846,0.03568955510854721,-0.01019697729498148
1772882711899631600,3.823631591796875,-0.016035690903663635,0.03278670832514763,-0.0016913736471906304
1772882711909564700,3.833564697265625,-0.012742427177727222,0.035597942769527435,0.010437726974487305
1772882711919496700,3.84349658203125,-0.014069746248424053,0.03466903045773506,0.014606639742851257
1772882711929429800,3.8534296875,-0.017305754125118256,0.027174895629286766,0.0200370904058218
1772882711939361000,3.863361083984375,-0.01739763282239437,0.016695355996489525,0.026082200929522514
1772882711949294000,3.873294189453125,-0.013498498126864433,0.01119353249669075,0.019050655886530876
1772882711959226000,3.88322607421875,-0.006974286399781704,0.008238222450017929,0.007390538230538368
1772882711969159200,3.8931591796875,0.0009701895760372281,0.007417436223477125,-0.0037116475868970156
1772882711979091200,3.90309130859375,0.004848551005125046,0.009829195216298103,-0.013405820354819298
1772882711989024300,3.913024169921875,0.010156763717532158,-0.0019089538836851716,-0.01810869574546814
1772882711998956300,3.922956298828125,0.008173241280019283,-0.013567207381129265,-0.015113439410924911
1772882712008889000,3.93288916015625,0.004740959499031305,-0.011750665493309498,-0.021816348657011986
1772882712018821000,3.942821044921875,0.002159290947020054,-0.0054850466549396515,-0.02791578695178032
1772882712028754200,3.952754150390625,-0.00017736652807798237,0.0013219931861385703,-0.022275477647781372
1772882712038686200,3.962686279296875,-0.002316950121894479,0.0017619474092498422,-0.013190370053052902
1772882712048619300,3.972619384765625,-0.002098304685205221,0.009970076382160187,-0.0003038666909560561
1772882712058551000,3.982551025390625,-0.00012623383372556418,0.011224957183003426,0.014909440651535988
1772882712068484000,3.992484130859375,0.009109342470765114,0.008248874917626381,0.022479742765426636
1772882712078416100,4.002416015625,0.01449771597981453,0.011953066103160381,0.022097844630479813
1772882712088349200,4.01234912109375,0.015903333202004433,0.014859373681247234,0.02093777246773243
1772882712098281200,4.02228125,0.008375109173357487,0.01816409081220627,0.015962721779942513
1772882712108214000,4.032214111328125,-0.002945722546428442,0.01684289611876011,0.012775716371834278
1772882712118146300,4.042146240234375,-0.010757306590676308,0.009051552042365074,0.011019361205399036
1772882712128079000,4.0520791015625,-0.011993279680609703,0.009238772094249725,0.000300404557492584
1772882712138011100,4.06201123046875,-0.011508584022521973,0.016098542138934135,-0.014257765375077724
1772882712147944200,4.071944091796875,-0.004156928043812513,0.019473033025860786,-0.025522936135530472
1772882712157876200,4.081876220703125,0.007808121852576733,0.00549356872215867,-0.02787211164832115
1772882712167809300,4.091809326171875,0.01937822438776493,-0.011348794214427471,-0.016757408156991005
1772882712177741000,4.101740966796875,0.022102639079093933,-0.02953472174704075,-0.0083687175065279
1772882712187674000,4.111674072265625,0.02557460218667984,-0.032292161136865616,-0.007789745926856995
1772882712197606100,4.121606201171875,0.03243836760520935,-0.03321414440870285,-0.017372066155076027
1772882712207539200,4.131539306640625,0.03365383297204971,-0.024645159021019936,-0.0247812457382679
1772882712217471200,4.14147119140625,0.038959383964538574,-0.013071593828499317,-0.03148921579122543
1772882712227404000,4.151404052734375,0.035467978566884995,-0.02014814503490925,-0.02948332391679287
1772882712237336000,4.161336181640625,0.023796675726771355,-0.01468653418123722,-0.01883041299879551
1772882712247269000,4.17126904296875,0.01357359904795885,-0.01278903242200613,-0.009819873608648777
1772882712257201200,4.181201171875,0.001683916780166328,-0.016341954469680786,-0.008264321833848953
1772882712267134200,4.19113427734375,-0.006294913589954376,-0.0175012294203043,-0.004992361646145582
1772882712277066200,4.201066162109375,-0.011914183385670185,-0.013263341039419174,-0.004313522018492222
1772882712286999300,4.210999267578125,-0.011652128770947456,-0.01510118879377842,-0.00905528012663126
1772882712296931300,4.220931396484375,-0.00404640706256032,-0.010038519278168678,-0.008876582607626915
1772882712306864400,4.230864501953125,0.010432400740683079,-0.01152775902301073,-0.00818043202161789
1772882712316796200,4.240796142578125,0.02142726071178913,-0.010704576037824154,-0.00884941779077053
1772882712326729000,4.25072900390625,0.033850640058517456,-0.004720453172922134,-0.006124737672507763
1772882712336661000,4.260660888671875,0.039031822234392166,0.002621083054691553,-0.0043894220143556595
1772882712346594000,4.270593994140625,0.0333947092294693,0.009783121757209301,-0.0008572715451009572
1772882712356526000,4.280526123046875,0.02407683990895748,0.007400392089039087,0.0006269080913625658
1772882712366459100,4.290459228515625,0.02244618721306324,0.0019078885670751333,0.008535165339708328
1772882712376391200,4.30039111328125,0.01956171728670597,-0.0036277580074965954,0.007303985767066479
1772882712386324200,4.31032421875,0.017405088990926743,-0.003168895374983549,0.0008431567694060504
1772882712396256300,4.32025634765625,0.015264706686139107,0.004487692844122648,-0.009680590592324734
1772882712406189300,4.330189208984375,0.01321140956133604,0.008081895299255848,-0.017364876344799995
1772882712416121300,4.340121337890625,0.007414240390062332,0.012082229368388653,-0.022725285962224007
1772882712426054100,4.35005419921875,0.00017017599020618945,0.005882923025637865,-0.015055116266012192
1772882712435986200,4.359986083984375,-0.0046514770947396755,0.0011944277212023735,-0.006872287020087242
1772882712445919200,4.369919189453125,0.0013643373968079686,0.003994741477072239,0.008705074898898602
1772882712455851000,4.37985107421875,-0.0015792545164003968,0.012539760209619999,0.015283348970115185
1772882712465784000,4.3897841796875,-0.005139101762324572,0.021510884165763855,0.0182328000664711
1772882712475716000,4.399716064453125,-0.009487245231866837,0.02413756027817726,0.017043698579072952
1772882712485649200,4.409649169921875,-0.00996048841625452,0.026626817882061005,0.012529906816780567
1772882712495581200,4.419581298828125,-0.011297661811113358,0.01667378470301628,0.006946322973817587
1772882712505514200,4.42951416015625,-0.009019060991704464,0.007779359817504883,-0.0004921521758660674
1772882712515446300,4.4394462890625,-0.000010120012120751198,-0.004220311529934406,-0.0007640608819201589
1772882712525379000,4.449379150390625,0.011082478798925877,-0.011148790828883648,-0.008405202999711037
1772882712535311000,4.45931103515625,0.02040860243141651,-0.01423592772334814,-0.018183531239628792
1772882712545244200,4.469244140625,0.023984428495168686,-0.01678856648504734,-0.01858886517584324
1772882712555176200,4.47917626953125,0.02335033006966114,-0.016880713403224945,-0.01763971336185932
1772882712565109200,4.489109130859375,0.019830163568258286,-0.011197260580956936,-0.009697634726762772
1772882712575041000,4.499041015625,0.011354919523000717,-0.004935902543365955,-0.0012679309584200382
1772882712584974000,4.50897412109375,0.003534813644364476,0.0030858046375215054,0.0008386294357478619
1772882712594906000,4.518906005859375,-0.003478088416159153,0.002889529801905155,0.007090399973094463
1772882712604839200,4.528839111328125,-0.007828895002603531,-0.004338023252785206,0.0038597192615270615
1772882712614772000,4.53877197265625,-0.006019276566803455,-0.005245628301054239,0.006417952012270689
1772882712624704000,4.5487041015625,-0.010069678537547588,0.0008482168195769191,0.004599545616656542
1772882712634637000,4.558636962890625,-0.0014407701091840863,-0.00398621940985322,0.0001507349224993959
1772882712644569000,4.568569091796875,0.003421895671635866,-0.005356681998819113,-0.005875732284039259
1772882712654502100,4.578502197265625,0.008331965655088425,0.0010045443195849657,-0.005863215308636427
1772882712664434200,4.58843408203125,0.006138320080935955,0.004408863373100758,-0.0036940707359462976
1772882712674367200,4.5983671875,0.0024549018125981092,0.015073491260409355,0.00020186760229989886
1772882712684299300,4.60829931640625,-0.0027166905347257853,0.02130129374563694,0.007197991944849491
1772882712694232300,4.618232421875,-0.008528773672878742,0.014360563829541206,0.009935189038515091
1772882712704164400,4.628164306640625,-0.014112357050180435,0.010028133168816566,0.009949835948646069
1772882712714097200,4.63809716796875,-0.018137725070118904,0.01702958345413208,0.003451456781476736
1772882712724029200,4.648029296875,-0.01683890074491501,0.01673317328095436,0.0004527373821474612
1772882712733962000,4.6579619140625,-0.015627428889274597,0.014427941292524338,-0.003052248852327466
1772882712743894000,4.66789404296875,-0.01176238339394331,0.012929114513099194,-0.006572947837412357
1772882712753827000,4.6778271484375,-0.0031486554071307182,0.007306382525712252,-0.003834685543552041
1772882712763759000,4.687759033203125,0.0030101709999144077,0.0010724549647420645,-0.0008514125947840512
1772882712773692200,4.697692138671875,0.0052261874079704285,-0.001350755337625742,0.000041545314161339775
1772882712783624200,4.707624267578125,0.0062155514024198055,-0.001704689348116517,-0.005868275184184313
1772882712793557200,4.71755712890625,0.002668487373739481,0.0016069513512775302,-0.010263556614518166
1772882712803489300,4.7274892578125,0.0007257114048115909,0.003236273303627968,-0.01092481892555952
1772882712813422000,4.737422119140625,-0.0022000374738126993,0.0034080471377819777,-0.006726878695189953
1772882712823354400,4.747354248046875,-0.001939313835464418,-0.00043595946044661105,0.0014713965356349945
1772882712833287200,4.757287109375,-0.006885869428515434,0.0006109291571192443,0.007448595017194748
1772882712843219200,4.76721923828125,-0.011080880649387836,0.002267681760713458,0.008259793743491173
1772882712853152300,4.77715234375,-0.014170680195093155,-0.0025595640763640404,0.006567621603608131
1772882712863084000,4.787083984375,-0.01805410161614418,0.0001448759576305747,-0.00008255799184553325
1772882712873017000,4.79701708984375,-0.01858939602971077,0.0019126823171973228,-0.007202785462141037
1772882712882949000,4.80694921875,-0.014752314426004887,0.0031281490810215473,-0.013860688544809818
1772882712892882200,4.816882080078125,-0.005434712860733271,0.005929261911660433,-0.011091533116996288
1772882712902814200,4.826814208984375,-0.00455800024792552,0.007664311211556196,-0.004968925844877958
1772882712912747300,4.836747314453125,0.0007454187725670636,-0.0016189356101676822,0.00566907087340951
1772882712922679300,4.84667919921875,0.002920954953879118,-0.0006700513185933232,0.01182257104665041
1772882712932612000,4.856612060546875,-0.002267149044200778,-0.006445914972573519,0.01666339859366417
1772882712942544000,4.8665439453125,-0.002871153876185417,-0.007246727589517832,0.016514528542757034
1772882712952477000,4.876476806640625,0.0009020126308314502,-0.007330883294343948,0.013323262333869934
1772882712962408700,4.88640869140625,0.005468534771353006,-0.012969061732292175,0.008448345586657524
1772882712972341800,4.896341796875,0.006275472696870565,-0.010542122647166252,0.002398176584392786
1772882712982273800,4.906273681640625,0.007506652269512415,-0.012745622545480728,-0.0006583334179595113
1772882712992206800,4.916206787109375,0.01025583315640688,-0.01564074493944645,-0.010963435284793377
1772882713002139000,4.926138916015625,0.013223393820226192,-0.012718192301690578,-0.018460499122738838
1772882713012072000,4.936072021484375,0.00811917893588543,-0.005372128449380398,-0.02510109171271324
1772882713022004000,4.94600390625,0.0008250473183579743,-0.008502141572535038,-0.02827424928545952
1772882713031936800,4.955936767578125,-0.012151204980909824,0.00008894957863958552,-0.028983181342482567
1772882713041868800,4.965868896484375,-0.02309999242424965,0.000014381069377122913,-0.020894097164273262
1772882713051801900,4.9758017578125,-0.033668749034404755,0.006421680096536875,-0.012456935830414295
1772882713061734000,4.98573388671875,-0.03266100585460663,0.009515208192169666,-0.0004873584839515388
1772882713071667000,4.9956669921875,-0.031864989548921585,0.01152616087347269,0.0032642364967614412
1772882713081598700,5.0055986328125,-0.028750687837600708,0.020593158900737762,0.004057059530168772
1772882713091531800,5.01553173828125,-0.023246467113494873,0.019719908013939857,0.0065199509263038635
1772882713101463800,5.0254638671875,-0.018731608986854553,0.023085344582796097,0.00436012726277113
1772882713111396900,5.03539697265625,-0.020438162609934807,0.025436118245124817,0.006156163290143013
1772882713121329000,5.045328857421875,-0.023084014654159546,0.03518941253423691,0.008014516904950142
1772882713131262000,5.055261962890625,-0.030588002875447273,0.0374419130384922,0.0011108045000582933
1772882713141194000,5.065194091796875,-0.036126844584941864,0.04142307490110397,-0.006007025949656963
1772882713151126800,5.075126708984375,-0.037450700998306274,0.03929600864648819,-0.014838334172964096
1772882713161058800,5.085058837890625,-0.032823991030454636,0.034802719950675964,-0.016338227316737175
1772882713170991900,5.094991943359375,-0.030477747321128845,0.039084818214178085,-0.014792528003454208
1772882713180924000,5.104923828125,-0.024385500699281693,0.0441536121070385,-0.01398798730224371
1772882713190857000,5.11485693359375,-0.019841348752379417,0.04578879475593567,-0.0073511237278580666
1772882713200789000,5.1247890625,-0.019172629341483116,0.04947886988520622,-0.0014343785587698221
1772882713210722000,5.13472216796875,-0.016382435336709023,0.04876274615526199,0.008563927374780178
1772882713220653800,5.14465380859375,-0.01737925596535206,0.040337301790714264,0.016234364360570908
1772882713230587000,5.1545869140625,-0.02347736246883869,0.039796147495508194,0.018452510237693787
1772882713240519000,5.164518798828125,-0.03093767538666725,0.04500981792807579,0.011168498545885086
1772882713250451700,5.17445166015625,-0.04231496527791023,0.051773980259895325,-0.007522630970925093
1772882713260383700,5.1843837890625,-0.055392686277627945,0.05314550921320915,-0.013163206167519093
1772882713270316800,5.19431689453125,-0.0621536523103714,0.06431826949119568,-0.018728148192167282
1772882713280248800,5.204248779296875,-0.06296271830797195,0.06280772387981415,-0.0216581579297781
1772882713290182000,5.214181884765625,-0.05487390235066414,0.060627661645412445,-0.012403406202793121
1772882713300114000,5.224114013671875,-0.040645431727170944,0.054316502064466476,-0.0008016114588826895
1772882713310047000,5.234046875,-0.03431243449449539,0.05510426312685013,0.0065622953698039055
1772882713319979000,5.24397900390625,-0.031809329986572266,0.05540706589818001,0.013164271600544453
1772882713329912000,5.253912109375,-0.030375216156244278,0.04878431558609009,0.023857396095991135
1772882713339844000,5.263843994140625,-0.03411535918712616,0.032454345375299454,0.03147616609930992
1772882713349777000,5.27377685546875,-0.04212481528520584,0.025254756212234497,0.03359684348106384
1772882713359708700,5.283708740234375,-0.04646630212664604,0.024147147312760353,0.018615761771798134
1772882713369641700,5.293641845703125,-0.04617468640208244,0.019249327480793,-0.0015725966077297926
1772882713379573800,5.30357373046875,-0.03669436648488045,0.009706157259643078,-0.021349230781197548
1772882713389506800,5.3135068359375,-0.02221289463341236,-0.0021920478902757168,-0.03130972012877464
1772882713399438800,5.32343896484375,-0.006482666824012995,-0.0121291009709239,-0.03032994270324707
1772882713409372000,5.333371826171875,0.006125270389020443,-0.02022510953247547,-0.013441506773233414
1772882713419304000,5.343303955078125,0.02244538813829422,-0.031012244522571564,0.0024674187880009413
1772882713429237000,5.353237060546875,0.03291507437825203,-0.038113828748464584,0.01595206931233406
1772882713439169800,5.363169677734375,0.04192481189966202,-0.035056788474321365,0.028133368119597435
1772882713449101800,5.373101806640625,0.0472245030105114,-0.04405853897333145,0.030838074162602425
1772882713459033900,5.383033935546875,0.044142160564661026,-0.03689383715391159,0.02665451355278492
1772882713468967000,5.392966796875,0.03543415665626526,-0.029203958809375763,0.025122396647930145
1772882713478900000,5.40289990234375,0.025047829374670982,-0.023600134998559952,0.024863271042704582
1772882713488831700,5.412831787109375,0.017520936205983162,-0.01974148117005825,0.021263476461172104
1772882713498764800,5.422764892578125,0.02130022831261158,-0.023997211828827858,0.015633288770914078
1772882713508696800,5.43269677734375,0.0232898760586977,-0.027395937591791153,0.00842810608446598
1772882713518630000,5.4426298828125,0.025191904976963997,-0.029766418039798737,-0.0014887070283293724
1772882713528562000,5.45256201171875,0.030490264296531677,-0.037205424159765244,-0.007383081596344709
1772882713538494700,5.46249462890625,0.03332706540822983,-0.045759499073028564,-0.006701312027871609
1772882713548426800,5.4724267578125,0.03221093490719795,-0.046187203377485275,-0.0023409186396747828
1772882713558359800,5.48235986328125,0.035719115287065506,-0.048158738762140274,0.005905826110392809
1772882713568291800,5.492291748046875,0.03582404553890228,-0.04033144563436508,0.010135192424058914
1772882713578225000,5.502224853515625,0.03507516160607338,-0.03759557753801346,0.014749650843441486
1772882713588157000,5.512156982421875,0.029340045526623726,-0.03539660573005676,0.015309713780879974
1772882713598090000,5.522090087890625,0.027538949623703957,-0.042937878519296646,0.013637514784932137
1772882713608022000,5.53202197265625,0.029652167111635208,-0.051289286464452744,0.015846075490117073
1772882713617955000,5.541955078125,0.02935602515935898,-0.06022898480296135,0.011313374154269695
1772882713627886800,5.551886962890625,0.03398672863841057,-0.06732417643070221,0.014348046854138374
1772882713637819600,5.561819580078125,0.04084569960832596,-0.07710330933332443,0.021649368107318878
1772882713647752000,5.571751953125,0.045648179948329926,-0.08639321476221085,0.026265691965818405
1772882713657684700,5.581684814453125,0.04463724419474602,-0.09105214476585388,0.023239275440573692
1772882713667616800,5.59161669921875,0.04054209962487221,-0.08208900690078735,0.010297112166881561
1772882713677549800,5.6015498046875,0.03148069605231285,-0.06924112141132355,-0.0017981663113459945
1772882713687481900,5.61148193359375,0.031985897570848465,-0.056716274470090866,-0.01005130261182785
1772882713697415000,5.621414794921875,0.034025609493255615,-0.04628174379467964,-0.00860094465315342
1772882713707347000,5.631346923828125,0.03557184338569641,-0.04657495766878128,-0.007026484236121178
1772882713717277700,5.641277587890625,0.036073315888643265,-0.05259982869029045,0.0015667376574128866
1772882713727210800,5.651210693359375,0.03569354861974716,-0.048471130430698395,0.006578007712960243
1772882713737142800,5.661142822265625,0.035768914967775345,-0.052434712648391724,0.01050084363669157
1772882713747075800,5.671075927734375,0.032523322850465775,-0.04701278358697891,0.013279586099088192
1772882713757008000,5.6810078125,0.030481742694973946,-0.04211416468024254,0.01110431645065546
1772882713766941000,5.69094091796875,0.01865757443010807,-0.04481034725904465,0.009581254795193672
1772882713776873000,5.700873046875,0.011381817981600761,-0.033740121871232986,0.0027382622938603163
1772882713786805800,5.7108056640625,0.009561014361679554,-0.025976473465561867,-0.003840810852125287
1772882713796737800,5.72073779296875,0.008355135098099709,-0.014593856409192085,-0.00860360823571682
1772882713806670800,5.7306708984375,0.005345230456441641,-0.012592490762472153,-0.0049188584089279175
1772882713816603000,5.740602783203125,0.0017587515758350492,-0.010629741474986076,-0.00004207794336252846
1772882713826536000,5.750535888671875,0.00002902845517382957,-0.01480264775454998,0.00014860439114272594
1772882713836468000,5.760468017578125,-0.000461259507574141,-0.01859419047832489,0.0028367992490530014
1772882713846401000,5.770401123046875,0.0007009439868852496,-0.024391625076532364,0.003945739474147558
1772882713856332800,5.780332763671875,0.0027236149180680513,-0.027087276801466942,0.00024767397553659976
1772882713866265900,5.790265869140625,0.00045060686534270644,-0.02305098995566368,-0.005015264730900526
1772882713876198000,5.800197998046875,-0.0026578346733003855,-0.02497033029794693,-0.011055846698582172
1772882713886130700,5.810130615234375,-0.0011310444679111242,-0.016890566796064377,-0.010902182199060917
1772882713896063000,5.82006298828125,0.004403803031891584,-0.007247526664286852,-0.004244545940309763
1772882713905995800,5.829995849609375,0.010100038722157478,-0.0024892566725611687,0.0065111625008285046
1772882713915927800,5.839927734375,0.01278823334723711,-0.010060090571641922,0.02052418328821659
1772882713925860900,5.84986083984375,0.008532235398888588,-0.012006329372525215,0.021138308569788933
1772882713935793000,5.85979296875,0.0019510318525135517,-0.012263057753443718,0.021436050534248352
1772882713945726700,5.869726806640625,-0.004884770140051842,-0.005595833994448185,0.014101704582571983
1772882713955658800,5.87965869140625,-0.012806076556444168,0.0033305492252111435,0.0005882922559976578
1772882713965591600,5.889591552734375,-0.019103387370705605,0.007792675402015448,-0.011625763028860092
1772882713975523600,5.899523681640625,-0.017076721414923668,0.010953049175441265,-0.014303305186331272
1772882713985456600,5.90945654296875,-0.01016874797642231,0.005784385837614536,-0.010460896417498589
1772882713995388700,5.919388671875,-0.00827683787792921,0.007001450285315514,-0.008680040948092937
1772882714005321700,5.92932177734375,-0.007053914945572615,0.01750682108104229,-0.0057468353770673275
1772882714015253500,5.93925341796875,-0.01088620349764824,0.02961195446550846,-0.0013440974289551377
1772882714025186800,5.949186767578125,-0.016138490289449692,0.04091201350092888,0.004176901653409004
1772882714035118600,5.95911865234375,-0.025111211463809013,0.0454108901321888,0.01666393131017685
1772882714045051600,5.9690517578125,-0.03141864389181137,0.04578213393688202,0.029993584379553795
1772882714054983700,5.978983642578125,-0.03854819014668465,0.048663944005966187,0.04024329409003258
1772882714064916700,5.988916748046875,-0.03587410971522331,0.05314897000789642,0.04387398064136505
1772882714074848800,5.998848876953125,-0.03617797791957855,0.06631430983543396,0.05054067075252533
1772882714084781600,6.008781494140625,-0.03879426792263985,0.07452642917633057,0.052626192569732666
1772882714094713600,6.018713623046875,-0.045108091086149216,0.07159242779016495,0.05409865453839302
1772882714104646700,6.028646728515625,-0.05007781460881233,0.0647965744137764,0.05397029221057892
1772882714114578700,6.03857861328125,-0.04815953969955444,0.057380467653274536,0.0484040193259716
1772882714124511700,6.04851171875,-0.04340127110481262,0.05110073462128639,0.04051173850893974
1772882714134443800,6.05844384765625,-0.03780436888337135,0.04566415771842003,0.028305940330028534
1772882714144376800,6.068376953125,-0.03417448326945305,0.04032718390226364,0.019762253388762474
1772882714154308600,6.07830859375,-0.032771795988082886,0.03419658541679382,0.013819143176078796
1772882714164241700,6.08824169921875,-0.03032834455370903,0.026444656774401665,0.012359198182821274
1772882714174173700,6.098173583984375,-0.0182314682751894,0.02118011936545372,0.01398692186921835
1772882714184106500,6.1081064453125,-0.0034325483720749617,0.018800053745508194,0.00826938170939684
1772882714194038500,6.11803857421875,0.0041494714096188545,0.023623304441571236,-0.0015723302494734526
1772882714203971600,6.1279716796875,0.007554056588560343,0.02869636006653309,-0.00373002327978611
1772882714213903600,6.137903564453125,0.002356098499149084,0.025478728115558624,0.0019467707024887204
1772882714223836700,6.147836669921875,-0.006394782569259405,0.0313107855618,0.019528960809111595
1772882714233768700,6.157768798828125,-0.012676114216446877,0.023250726982951164,0.033367544412612915
1772882714243701800,6.16770166015625,-0.019057048484683037,0.02466806210577488,0.0346197634935379
1772882714253633800,6.1776337890625,-0.023145798593759537,0.02538551762700081,0.03160532936453819
1772882714263566800,6.18756689453125,-0.0211257915943861,0.02497246116399765,0.02791525423526764
1772882714273499600,6.197499755859375,-0.015535816550254822,0.020442690700292587,0.02255590818822384
1772882714283431700,6.207431640625,-0.008813731372356415,0.014630608260631561,0.013503025285899639
1772882714293364700,6.21736474609375,-0.004339620936661959,0.018898855894804,0.0049308426678180695
1772882714303296500,6.227296630859375,-0.0051771849393844604,0.018122810870409012,-0.0011249192757532
1772882714313229600,6.2372294921875,-0.003896470880135894,0.022491727024316788,-0.009516539983451366
1772882714323161600,6.24716162109375,-0.0071039823815226555,0.024657409638166428,-0.005647765472531319
1772882714333094700,6.2570947265625,-0.008583900518715382,0.01335974782705307,-0.000859934720210731
1772882714343026700,6.267026611328125,-0.008296012878417969,0.014140586368739605,-0.0002466087171342224
1772882714352959700,6.276959716796875,-0.013132845982909203,0.003323625074699521,0.0026852653827518225
1772882714362891800,6.286891845703125,-0.0117312241345644,-0.0031278827227652073,0.005379851907491684
1772882714372824600,6.296824462890625,-0.00974690355360508,-0.0049249837175011635,0.002020274056121707
1772882714382756600,6.306756591796875,-0.003739344421774149,-0.010223076678812504,-0.000574177538510412
1772882714392689700,6.316689697265625,0.013977068476378918,-0.017495902255177498,-0.008461927995085716
1772882714402621700,6.32662158203125,0.029818348586559296,-0.02261955849826336,-0.011205250397324562
1772882714412554800,6.3365546875,0.04276557266712189,-0.023497335612773895,-0.017300160601735115
1772882714422486500,6.346486572265625,0.05217026174068451,-0.020108995959162712,-0.017242370173335075
1772882714432419800,6.356419921875,0.04547560587525368,-0.02305285446345806,-0.018692461773753166
1772882714442351600,6.3663515625,0.03310495615005493,-0.02274632453918457,-0.018193650990724564
1772882714452284700,6.37628466796875,0.014094780199229717,-0.023555394262075424,-0.014329404570162296
1772882714462216700,6.386216796875,0.0003504719934426248,-0.01925811730325222,-0.009779393672943115
1772882714472149500,6.3961494140625,-0.011696336790919304,-0.013030581176280975,-0.006325273774564266
1772882714482081500,6.40608154296875,-0.011931760236620903,-0.015505190007388592,0.0026080335956066847
1772882714492014600,6.4160146484375,-0.005596366710960865,-0.022900788113474846,0.005914614535868168
1772882714501946600,6.425946533203125,0.0029430591966956854,-0.019477294757962227,0.01350702065974474
1772882714511879700,6.435879638671875,0.011292868293821812,-0.020481307059526443,0.014105166308581829
1772882714521811700,6.445811767578125,0.015260445885360241,-0.01757659763097763,0.013792244717478752
1772882714531744800,6.455744873046875,0.01606978103518486,-0.010241186246275902,0.010834538377821445
1772882714541676800,6.4656767578125,0.015585350804030895,-0.010012952610850334,0.01085637602955103
1772882714551609900,6.47560986328125,0.016755277290940285,-0.0013169331941753626,0.008080829866230488
1772882714561541600,6.485541748046875,0.014574947766959667,0.006800914648920298,0.010816428810358047
1772882714571474400,6.495474365234375,0.0010905644157901406,0.011260909959673882,0.007258179131895304
1772882714581406700,6.50540673828125,-0.008300540037453175,0.0027830032631754875,0.002371811307966709
1772882714591339500,6.515339599609375,-0.017004016786813736,-0.01321194227784872,-0.001600559800863266
1772882714601271600,6.525271484375,-0.008808138780295849,-0.020186761394143105,-0.010968761518597603
1772882714611204600,6.53520458984375,-0.0028298748657107353,-0.01834811456501484,-0.017592575401067734
1772882714621136600,6.54513671875,0.0052197957411408424,-0.009987120516598225,-0.019996611401438713
1772882714631069700,6.555069580078125,0.019874371588230133,-0.010553840547800064,-0.014756575226783752
1772882714641001700,6.565001708984375,0.028028704226017,-0.010902448557317257,-0.00002609897819638718
1772882714650934800,6.574934814453125,0.024889370426535606,-0.0027254789602011442,0.006967894732952118
1772882714660866800,6.58486669921875,0.016695622354745865,-0.0009001484140753746,0.008114119060337543
1772882714670799600,6.594799560546875,0.008564193733036518,-0.0010809770319610834,-0.0007115966291166842
1772882714680731600,6.604731689453125,-0.0028181569650769234,0.0031550468411296606,-0.020792096853256226
1772882714690664700,6.614664794921875,-0.014044445939362049,0.006564692128449678,-0.037274934351444244
1772882714700596500,6.624596435546875,-0.016755543649196625,0.006676544900983572,-0.0446913056075573
1772882714710529500,6.634529541015625,-0.021440310403704643,0.0042706448584795,-0.02911500819027424
1772882714720462600,6.644462646484375,-0.020973458886146545,0.005587844643741846,-0.010381001979112625
1772882714730394600,6.65439453125,-0.016751017421483994,0.008704275824129581,0.002758768619969487
1772882714740327700,6.66432763671875,-0.005773200653493404,0.00878949649631977,0.01733930967748165
1772882714750259700,6.674259765625,0.0005243764026090503,0.01161404512822628,0.024081634357571602
1772882714760192500,6.684192626953125,0.0041247038170695305,0.009250223636627197,0.023323165252804756
1772882714770124800,6.694124755859375,0.005822202656418085,0.006981210317462683,0.016767794266343117
1772882714780057600,6.7040576171875,0.008646485395729542,0.01564394123852253,0.007506119552999735
1772882714789989600,6.71398974609375,0.010566890239715576,0.011451592668890953,-0.001555552356876433
1772882714799922700,6.723922607421875,0.010210826061666012,0.014548849314451218,-0.011788749136030674
1772882714809854700,6.733854736328125,0.005539374891668558,0.018805112689733505,-0.014502509497106075
1772882714819787800,6.743787841796875,0.0015273229219019413,0.017401626333594322,-0.020269319415092468
1772882714829719600,6.753719482421875,-0.0013856426812708378,0.015777897089719772,-0.026081135496497154
1772882714839652900,6.76365283203125,0.001187237212434411,0.002073803450912237,-0.023674968630075455
1772882714849584600,6.773584716796875,0.004573978949338198,0.001365668955259025,-0.02143045701086521
1772882714859517700,6.783517578125,0.002213885774835944,0.008450742810964584,-0.013004481792449951
1772882714869449700,6.79344970703125,0.0016945693641901016,0.0073194317519664764,0.0027286747936159372
1772882714879382500,6.803382568359375,0.003175287041813135,0.014287060126662254,0.019148660823702812
1772882714889314600,6.813314453125,-0.007466171868145466,0.028144020587205887,0.03140212967991829
1772882714899247600,6.82324755859375,-0.013442572206258774,0.03766854852437973,0.03995593637228012
1772882714909179600,6.8331796875,-0.02425500564277172,0.03864699602127075,0.03338911384344101
1772882714919112700,6.84311279296875,-0.026935743167996407,0.043719783425331116,0.02478870376944542
1772882714929044700,6.853044677734375,-0.021221399307250977,0.04242309182882309,0.02112925425171852
1772882714938977800,6.862977783203125,-0.010607636533677578,0.03772234544157982,0.018981147557497025
1772882714948909000,6.872908935546875,-0.008215053007006645,0.04462898522615433,0.02129676565527916
1772882714958842000,6.882842041015625,-0.009641974233090878,0.039929840713739395,0.025616412982344627
1772882714968774100,6.892774169921875,-0.010469951666891575,0.03804565221071243,0.029043901711702347
1772882714978707200,6.902707275390625,-0.012050004675984383,0.032890573143959045,0.022188659757375717
1772882714988639000,6.912638916015625,-0.007705590222030878,0.019576098769903183,0.01227637380361557
1772882714998572000,6.922572021484375,-0.0035369442775845528,0.013716078363358974,-0.00535614974796772
1772882715008503800,6.93250390625,0.004986236337572336,0.012571452185511589,-0.011401524767279625
1772882715018436900,6.942436767578125,0.0038461373187601566,0.01474485732614994,-0.012041483074426651
1772882715028369000,6.952368896484375,0.005655222572386265,0.00848403200507164,-0.003457848448306322
1772882715038302000,6.962302001953125,0.007345797028392553,0.006491188891232014,0.00971787516027689
1772882715048234000,6.97223388671875,0.0073625752702355385,0.005650694947689772,0.019656525924801826
1772882715058167000,6.9821669921875,0.0065132929012179375,0.012108327820897102,0.021221665665507317
1772882715068099000,6.99209912109375,0.00908484123647213,0.008813198655843735,0.024354342371225357
1772882715078032100,7.0020322265625,0.009549562819302082,0.003909520339220762,0.0217732060700655
1772882715087965000,7.01196484375,0.008362059481441975,0.008296279236674309,0.01745249330997467
1772882715097897000,7.02189697265625,0.00881160143762827,0.006066414527595043,0.017524931579828262
1772882715107830000,7.031830078125,0.006334594916552305,-0.0010120011866092682,0.019342007115483284
1772882715117762000,7.041761962890625,0.002767823403701186,-0.006840062793344259,0.021156949922442436
1772882715127695000,7.051695068359375,0.002115348819643259,-0.0038242992013692856,0.015088139101862907
1772882715137627000,7.061626953125,-0.001580319833010435,-0.0048887645825743675,0.0012455604737624526
1772882715147560000,7.071559814453125,-0.009817743673920631,-0.0007941546500660479,-0.010466755367815495
1772882715157492000,7.081491943359375,-0.013612481765449047,-0.003914314322173595,-0.019394470378756523
1772882715167425000,7.091425048828125,-0.020061857998371124,-0.011034009046852589,-0.019656792283058167
1772882715177357000,7.101357177734375,-0.020506074652075768,-0.013647369109094143,-0.013639379292726517
1772882715187289900,7.111289794921875,-0.017854630947113037,-0.004491155035793781,-0.011889150366187096
1772882715197222000,7.121221923828125,-0.009259277954697609,0.002270344877615571,-0.006441121455281973
1772882715207155000,7.131155029296875,-0.0022474415600299835,0.008364456705749035,0.003706587478518486
1772882715217087000,7.1410869140625,0.0003733751946128905,0.011239871382713318,0.010231864638626575
1772882715227020000,7.15102001953125,-0.009288040921092033,0.010899785906076431,0.012592757120728493
1772882715236952000,7.1609521484375,-0.018018947914242744,0.013226855546236038,0.008917595259845257
1772882715246885000,7.170885009765625,-0.02798822522163391,0.019291672855615616,0.003884752979502082
1772882715256817200,7.180817138671875,-0.032581113278865814,0.022839535027742386,-0.0019323896849527955
1772882715266750200,7.190750244140625,-0.02906414121389389,0.01335708424448967,-0.00708720413967967
1772882715276682000,7.200681884765625,-0.02376924455165863,0.004989698529243469,-0.013109942898154259
1772882715286614800,7.21061474609375,-0.024686170741915703,0.005003014579415321,-0.013394368812441826
1772882715296546800,7.220546875,-0.023246467113494873,0.007197192870080471,-0.006206497084349394
1772882715306479900,7.23047998046875,-0.01866050250828266,0.005628058221191168,-0.0023869911674410105
1772882715316412000,7.240411865234375,-0.016328640282154083,0.003412574529647827,-0.003968109842389822
1772882715326345000,7.250344970703125,-0.014741928316652775,0.009074455127120018,-0.008570585399866104
1772882715336277000,7.260277099609375,-0.018995529040694237,0.002939597237855196,-0.010303503833711147
1772882715346210000,7.2702099609375,-0.024695759639143944,-0.000589091214351356,-0.016270581632852554
1772882715356142000,7.28014208984375,-0.02901620604097843,0.0015001586871221662,-0.015924105420708656
1772882715366075100,7.2900751953125,-0.023574035614728928,0.008112520910799503,-0.012687565758824348
1772882715376007200,7.300007080078125,-0.01667138747870922,0.006225138902664185,-0.0016737966798245907
1772882715385940000,7.30993994140625,-0.016500147059559822,0.009313873015344143,-0.0008543420699425042
1772882715395872000,7.3198720703125,-0.01901070959866047,0.0072355424053967,0.004040814470499754
1772882715405805000,7.32980517578125,-0.020389162003993988,0.004523112904280424,0.0034474621061235666
1772882715415736800,7.33973681640625,-0.02599564753472805,0.0009289105655625463,0.0008069378091022372
1772882715425670000,7.349669921875,-0.023425431922078133,-0.0012391688069328666,-0.007366036996245384
1772882715435603000,7.35960302734375,-0.016747821122407913,0.0015592807903885841,-0.005846171174198389
1772882715445535000,7.369534912109375,-0.012057728134095669,0.003906324505805969,-0.009312009438872337
1772882715455468000,7.379468017578125,-0.008363391272723675,0.010782074183225632,-0.008714129216969013
1772882715465400000,7.389400146484375,-0.01041402481496334,0.007258179131895304,-0.005318865180015564
1772882715475332900,7.399332763671875,-0.017053551971912384,0.011471034027636051,-0.0017656758427619934
1772882715485265000,7.409264892578125,-0.02412877231836319,0.017178453505039215,-0.00440992834046483
1772882715495198000,7.419197998046875,-0.025246500968933105,0.01617657206952572,-0.011863317340612411
1772882715505130000,7.4291298828125,-0.015743009746074677,0.016199210658669472,-0.009832390584051609
1772882715515063000,7.43906298828125,-0.008808671496808529,0.006067746318876743,-0.009437976405024529
1772882715524995000,7.4489951171875,-0.004691957030445337,0.0018189389957115054,-0.0052259210497140884
1772882715534928100,7.45892822265625,-0.0018101505702361465,0.003976366017013788,-0.004150536376982927
1772882715544860000,7.46885986328125,-0.0009171926649287343,0.003212304785847664,-0.0031406658235937357
1772882715554793000,7.47879296875,0.001835716888308525,-0.005703159607946873,-0.004233094397932291
1772882715564725000,7.48872509765625,0.0028415927663445473,-0.007667773403227329,-0.009737848304212093
1772882715574657800,7.49865771484375,0.007455519400537014,-0.016113189980387688,-0.01684902049601078
1772882715584590000,7.508590087890625,0.01822827197611332,-0.02052125334739685,-0.022885341197252274
1772882715594523000,7.51852294921875,0.02261636219918728,-0.009347961284220219,-0.02847371995449066
1772882715604455000,7.528454833984375,0.022278141230344772,-0.0015837819082662463,-0.03351162001490593
1772882715614388000,7.538387939453125,0.02575143612921238,-0.00612340634688735,-0.02611229382455349
1772882715624320000,7.548320068359375,0.018200309947133064,-0.005109274294227362,-0.014254303649067879
1772882715634253000,7.558253173828125,0.011322429403662682,-0.0007331682136282325,-0.003168362658470869
1772882715644185000,7.56818505859375,0.006561762653291225,-0.005772934295237064,0.004144943784922361
1772882715654118100,7.5781181640625,0.00646695401519537,-0.0033997914288192987,0.007091199047863483
1772882715664050200,7.58805029296875,0.003397927153855562,0.0041244374588131905,0.008808405138552189
1772882715673983000,7.59798291015625,-0.0015078817959874868,0.014584269374608994,0.010452374815940857
1772882715683915000,7.6079150390625,-0.00384427304379642,0.009281649254262447,0.011502991430461407
1772882715693847800,7.617847900390625,-0.008657936938107014,0.011265438050031662,0.009490973316133022
1772882715703779800,7.62777978515625,-0.017723070457577705,0.011782890185713768,0.006411560345441103
1772882715713713000,7.637712890625,-0.019575832411646843,0.012916331179440022,0.0018903117161244154
1772882715723645000,7.64764501953125,-0.010182330384850502,-0.000642354425508529,-0.003826163476333022
1772882715733578000,7.657577880859375,-0.001514806062914431,-0.0032977922819554806,-0.010580206289887428
1772882715743510000,7.667510009765625,0.012368518859148026,-0.0054605454206466675,-0.013481720350682735
1772882715753443000,7.677443115234375,0.030000243335962296,-0.014222345314919949,-0.01082734763622284
1772882715763375900,7.6873759765625,0.04121800884604454,-0.024712536484003067,-0.006716225761920214
1772882715773308200,7.69730810546875,0.04381698742508888,-0.020649883896112442,-0.00932346098124981
1772882715783241000,7.707240966796875,0.04296424612402916,-0.019832560792565346,-0.015312377363443375
1772882715793173000,7.717173095703125,0.04296877235174179,-0.023002255707979202,-0.019270634278655052
1772882715803106000,7.72710595703125,0.0303786788135767,-0.017979798838496208,-0.018976887688040733
1772882715813038000,7.7370380859375,0.01949194259941578,-0.008986837230622768,-0.009542904794216156
1772882715822971100,7.74697119140625,0.009879262186586857,-0.007434746716171503,0.006944725289940834
1772882715832903000,7.75690283203125,0.006853645201772451,-0.0075945365242660046,0.02130022831261158
1772882715842836000,7.7668359375,0.004304467234760523,-0.008085623383522034,0.02184697613120079
1772882715852768000,7.77676806640625,-0.0016820525052025914,0.003777960315346718,0.01464845146983862
1772882715862701000,7.786701171875,0.0010831075487658381,-0.0012626046082004905,0.005341502372175455
1772882715872633000,7.796633056640625,0.003447728231549263,-0.0017206683987751603,-0.0005600627628155053
1772882715882566000,7.80656591796875,-0.00022849922243040055,-0.00660517206415534,-0.0030154972337186337
1772882715892498000,7.816497802734375,-0.0038722362369298935,-0.006284527480602264,-0.001799764228053391
1772882715902431000,7.826430908203125,-0.005286640953272581,0.0022770026698708534,-0.0018540926976129413
1772882715912363000,7.836363037109375,-0.007173757068812847,0.002110022585839033,0.0034077810123562813
1772882715922296000,7.846296142578125,-0.008014516904950142,-0.0007177218794822693,0.00640916358679533
1772882715932228000,7.85622802734375,0.002560629276558757,-0.005980394314974546,0.006330333650112152
1772882715942161200,7.8661611328125,0.016103602945804596,-0.009765278548002243,0.0018274611793458462
1772882715952092700,7.8760927734375,0.026485934853553772,-0.014170946553349495,-0.0062826634384691715
1772882715962025700,7.886025634765625,0.03670155629515648,-0.013308081775903702,-0.0156106511130929
1772882715971957800,7.895957763671875,0.03567224368453026,-0.012703544460237026,-0.01973056234419346
1772882715981890600,7.905890625,0.03008839301764965,-0.022938605397939682,-0.015025288797914982
1772882715991822600,7.915822509765625,0.02257641591131687,-0.02490854635834694,-0.014682539738714695
1772882716001755600,7.925755615234375,0.014858574606478214,-0.022229138761758804,-0.012197543866932392
1772882716011687400,7.9356875,0.012444152496755123,-0.011540542356669903,-0.007819839753210545
1772882716021620500,7.945620361328125,0.0073537868447601795,-0.007216367404907942,0.0010157296201214194
1772882716031552500,7.955552490234375,-0.0004990763845853508,-0.003965180367231369,0.009122392162680626
1772882716041485600,7.965485595703125,-0.011729360558092594,0.0012958941515535116,0.020191287621855736
1772882716051418600,7.975418701171875,-0.019824305549263954,0.005724198184907436,0.02479562722146511
1772882716061350700,7.9853505859375,-0.026321087032556534,0.0110457269474864,0.018143849447369576
1772882716071283500,7.995283447265625,-0.022171881049871445,0.013040700927376747,0.010175938718020916
1772882716081215700,8.0052158203125,-0.012124041095376015,0.0101389205083251,-0.00016325176693499088
1772882716091148500,8.0151484375,0.00595482811331749,-0.0006106628570705652,0.0016247945604845881
1772882716101080600,8.02508056640625,0.017198162153363228,-0.008371912874281406,0.0016700683627277613
1772882716111013600,8.035013671875,0.0234691072255373,-0.011563711799681187,-0.00035420042695477605
1772882716120945700,8.044945556640625,0.027848675847053528,-0.0068360683508217335,-0.008551410399377346
1772882716130878700,8.054878662109376,0.025539981201291084,-0.0022498385515064,-0.017490843310952187
1772882716140810800,8.064810791015624,0.019281553104519844,0.0023278691805899143,-0.01667698100209236
1772882716150743800,8.074743896484375,0.009185508824884892,-0.005079180933535099,-0.011687016114592552
1772882716160675600,8.084675537109375,0.002802977105602622,-0.005819805897772312,-0.001014131703414023
1772882716170608600,8.094608642578125,0.006036320701241493,-0.018014952540397644,0.006921821739524603
1772882716180540700,8.104540771484375,0.015392005443572998,-0.02570403181016445,0.0021427792962640524
1772882716190473500,8.114473388671875,0.024343689903616905,-0.02177373878657818,-0.007540474180132151
1772882716200405500,8.124405517578126,0.02840314619243145,-0.014284397475421429,-0.011917379684746265
1772882716210338600,8.134338623046874,0.025235315784811974,-0.005661081522703171,-0.013852432370185852
1772882716220270600,8.1442705078125,0.016579775139689445,-0.0007371630053967237,-0.007184942252933979
1772882716230203600,8.15420361328125,0.007243531756103039,-0.006464290898293257,0.009918410331010818
1772882716240135700,8.1641357421875,-0.0010815097484737635,0.0007930893916636705,0.017526263371109962
1772882716250068700,8.17406884765625,-0.007069627288728952,0.0073479278944432735,0.01997397467494011
1772882716260000800,8.184000732421875,-0.01185399666428566,0.011994611471891403,0.018505774438381195
1772882716269933800,8.193933837890626,-0.013276390731334686,0.011207646690309048,0.008035555481910706
1772882716279865600,8.203865478515626,-0.014051636680960655,0.012764531187713146,-0.003513508476316929
1772882716289798700,8.213798583984374,-0.014421815983951092,0.010631338693201542,-0.00872158631682396
1772882716299730400,8.22373046875,-0.013517939485609531,0.009643572382628918,-0.009016931056976318
1772882716309663500,8.23366357421875,-0.007130613550543785,0.009379386901855469,-0.0005893575726076961
1772882716319596500,8.243596435546875,-0.002442651428282261,0.008802013471722603,-0.00036245622322894633
1772882716329528600,8.253528564453125,0.001502555445767939,0.011597800068557262,-0.006602508947253227
1772882716339461600,8.263461669921876,0.003335076617076993,0.0019867182709276676,-0.011345598846673965
1772882716349393700,8.2733935546875,0.0033923345617949963,0.0033388049341738224,-0.01834997907280922
1772882716359326700,8.28332666015625,0.004662662278860807,0.005154281854629517,-0.022594258189201355
1772882716369258800,8.2932587890625,0.009198824875056744,0.007992412894964218,-0.017071660608053207
1772882716379191600,8.303191650390625,0.01859978400170803,0.0049100699834525585,-0.01619761250913143
1772882716389123600,8.31312353515625,0.020305272191762924,0.0037025928031653166,-0.010185259394347668
1772882716399056600,8.323056640625,0.013026053085923195,0.00407410366460681,0.0000577905957470648
1772882716408988700,8.33298876953125,0.003561178920790553,0.00544376764446497,0.0087820403277874
1772882716418921700,8.342921630859376,-0.0010165285784751177,0.006143379956483841,0.012458800338208675
1772882716428853500,8.352853515625,-0.004281031433492899,0.0070738885551691055,0.011225756257772446
1772882716438786600,8.36278662109375,-0.006953513715416193,0.01846209727227688,0.010029198601841927
1772882716448718600,8.372718505859375,-0.0141728101298213,0.01818006858229637,0.0075942701660096645
1772882716458651600,8.382651611328125,-0.020385432988405228,0.022649917751550674,0.011419101618230343
1772882716468583700,8.392583740234375,-0.027640681713819504,0.0256278645247221,0.019211245700716972
1772882716478516500,8.4025166015625,-0.040169790387153625,0.027592478320002556,0.021884791553020477
1772882716488448500,8.412448486328126,-0.040038228034973145,0.029862025752663612,0.02443237230181694
1772882716498381600,8.422381591796874,-0.032271385192871094,0.01817074790596962,0.02339826710522175
1772882716508313600,8.432313720703124,-0.020564664155244827,0.013490774668753147,0.014254037290811539
1772882716518246700,8.44224658203125,-0.0052080778405070305,0.012980513274669647,0.00376064982265234
1772882716528178700,8.4521787109375,0.005134574603289366,0.010416954755783081,-0.011112572625279427
1772882716538111700,8.46211181640625,0.010880610905587673,0.007498662453144789,-0.013798902742564678
1772882716548043800,8.472043701171875,0.007321562618017197,0.00316037330776453,-0.011409780941903591
1772882716557976800,8.481976806640626,0.011197793297469616,-0.0026527747977524996,-0.009911753237247467
1772882716567908600,8.49190869140625,0.012832974083721638,-0.007468036375939846,-0.00640863087028265
1772882716577841400,8.50184130859375,0.006451241206377745,0.001026382320560515,-0.008286159485578537
1772882716587773400,8.5117734375,-0.0008231831016018987,0.015442073345184326,-0.014367487281560898
1772882716597706500,8.52170654296875,-0.005359345115721226,0.017168067395687103,-0.016923589631915092
1772882716607639600,8.5316396484375,-0.011029748246073723,0.02141767367720604,-0.011404188349843025
1772882716617571600,8.541571533203125,-0.015052186325192451,0.013806359842419624,0.000639691308606416
1772882716627504600,8.551504638671876,-0.018099375069141388,0.012085424736142159,0.011514975689351559
1772882716637436700,8.561436767578124,-0.014996260404586792,0.009326123632490635,0.019586484879255295
1772882716647369700,8.57136962890625,-0.007112238090485334,0.011243865825235844,0.010377539321780205
1772882716657301800,8.5813017578125,0.0003254382754676044,0.011438542976975441,0.0019797938875854015
1772882716667234600,8.591234619140625,0.002058357233181596,0.014566159807145596,-0.0046243127435445786
1772882716677166600,8.60116650390625,0.004627774935215712,0.009970342740416527,-0.010584999807178974
1772882716687099600,8.611099609375,0.0017310547409579158,-0.000303334032651037,-0.00908430851995945
1772882716697031700,8.62103173828125,-0.005105812568217516,-0.00361737166531384,-0.0095658078789711
1772882716706964700,8.63096484375,-0.010208428837358952,0.00166580721270293,-0.01065344363451004
1772882716716896500,8.640896484375,-0.008070975542068481,0.009306150488555431,-0.015337144955992699
1772882716726829600,8.65082958984375,-0.009649964049458504,0.017106814309954643,-0.014078800566494465
1772882716736761600,8.66076171875,-0.010969826951622963,0.02726038359105587,-0.00526586826890707
1772882716746694700,8.670694580078125,-0.003952131140977144,0.01979980431497097,0.005490372888743877
1772882716756626700,8.680626708984375,-0.000639691308606416,0.023901604115962982,0.015119298361241817
1772882716766559500,8.6905595703125,-0.006701312027871609,0.02173059619963169,0.02160782366991043
1772882716776491500,8.700491455078126,-0.010757040232419968,0.024835042655467987,0.022668560966849327
1772882716786424600,8.710424560546874,-0.015308382920920849,0.022126341238617897,0.023609722033143044
1772882716796356600,8.720356689453125,-0.01353684812784195,0.013437777757644653,0.014562963508069515
1772882716806289700,8.73028955078125,-0.011120827868580818,0.011241735890507698,0.003477555699646473
1772882716816221700,8.7402216796875,-0.00276169809512794,0.011832158081233501,-0.009578058496117592
1772882716826154800,8.75015478515625,0.0010831075487658381,0.01750602386891842,-0.019894346594810486
1772882716836086500,8.76008642578125,0.00592420157045126,0.015208779834210873,-0.019465576857328415
1772882716846019600,8.77001953125,0.0016160061350092292,0.012522716075181961,-0.009217200800776482
1772882716855952400,8.779952392578124,-0.0015968313673511147,0.015930229797959328,0.002299373270943761
1772882716865884400,8.789884521484375,-0.01113121397793293,0.023381222039461136,0.010556237772107124
1772882716875817500,8.7998173828125,-0.017912687733769417,0.025380989536643028,0.015202654525637627
1772882716885749500,8.80974951171875,-0.01446788851171732,0.025600967928767204,0.017222397029399872
1772882716895682600,8.8196826171875,-0.006707703694701195,0.01697099395096302,0.018731608986854553
1772882716905614600,8.829614501953126,-0.0020927118603140116,0.0183465164154768,0.01537549402564764
1772882716915547600,8.839547607421874,-0.0009161274065263569,0.01606844924390316,0.003936684690415859
1772882716925479700,8.849479736328124,-0.007280017249286175,0.014789865352213383,-0.000336090917699039
1772882716935412700,8.859412841796875,-0.0095671396702528,0.012780776247382164,-0.003192331176251173
1772882716945345300,8.86934521484375,-0.016918262466788292,0.011093930341303349,-0.006600910797715187
1772882716955278000,8.879278076171875,-0.016699085012078285,0.008298676460981369,-0.008235825225710869
1772882716965210000,8.889210205078125,-0.012373578734695911,-0.0026160231791436672,-0.009885121136903763
1772882716975143200,8.89914306640625,-0.004041879437863827,-0.009647301398217678,-0.012079565785825253
1772882716985075200,8.9090751953125,0.01025423500686884,-0.007650995627045631,-0.01314909104257822
1772882716995008300,8.91900830078125,0.022171348333358765,-0.0060323262587189674,-0.008258729241788387
1772882717004940000,8.92893994140625,0.029696909710764885,-0.0049646650440990925,-0.0015728629659861326
1772882717014873000,8.938873046875,0.027296869084239006,-0.008736233226954937,0.0010719223646447062
1772882717024805000,8.94880517578125,0.02178918570280075,-0.012941897846758366,0.0037470676470547915
1772882717034738200,8.95873828125,0.015276690945029259,-0.009691509418189526,-0.0014394385507330298
1772882717044670200,8.968670166015626,0.0044112601317465305,-0.005594768561422825,-0.0005645901546813548
1772882717054603000,8.97860302734375,0.0018453042721375823,-0.007349259220063686,-0.003245594445616007
1772882717064535000,8.98853515625,0.004781173076480627,-0.00387356779538095,0.004447212442755699
1772882717074468000,8.998468017578125,0.0030024477746337652,-0.0026019082870334387,0.0049375006929039955
1772882717084400000,9.008400146484375,-0.0024975123815238476,0.0006085322820581496,0.0002109223569277674
1772882717094333200,9.018333251953125,-0.009045160375535488,0.009679525159299374,-0.004227768164128065
1772882717104265200,9.02826513671875,-0.016091352328658104,0.009619870223104954,-0.006264820229262114
1772882717114198300,9.0381982421875,-0.02160702459514141,0.009127452038228512,-0.006058425176888704
1772882717124131300,9.04813134765625,-0.01769058033823967,0.007360178045928478,0.0031409321818500757
1772882717134063000,9.05806298828125,-0.014473481103777885,0.004865861497819424,0.008597482927143574
1772882717143996200,9.06799609375,-0.007876564748585224,0.00048602689639665186,0.007227818947285414
1772882717153928000,9.077927978515625,0.003174221608787775,0.002098304685205221,0.009503490291535854
1772882717163861000,9.087861083984375,0.009533584117889404,0.006483998149633408,0.008620652370154858
1772882717173793000,9.09779296875,0.019898073747754097,0.005396363325417042,0.007568171247839928
1772882717183726000,9.10772607421875,0.021158814430236816,0.006457899231463671,0.00381417921744287
1772882717193658000,9.117658203125,0.025674736127257347,-0.0037619813811033964,0.001529187080450356
1772882717203591200,9.127591064453124,0.029523270204663277,-0.0135656101629138,-0.002472478663548827
1772882717213523200,9.137523193359375,0.030352046713232994,-0.01619255170226097,-0.014217551797628403
1772882717223456300,9.147456298828125,0.02485981024801731,-0.015556588768959045,-0.031255923211574554
1772882717233388300,9.15738818359375,0.021869612857699394,-0.01721334084868431,-0.036135368049144745
1772882717243321000,9.167321044921875,0.01738458313047886,-0.020362263545393944,-0.03285222128033638
1772882717253253000,9.177253173828126,0.009613212198019028,-0.013082779012620449,-0.0226251520216465
1772882717263186200,9.187186279296874,0.0040946099907159805,0.004653341136872768,-0.005553755909204483
1772882717273118000,9.197117919921874,0.00011717908637365326,0.00968378596007824,0.016523582860827446
1772882717283051000,9.207051025390625,-0.004990763962268829,0.01101669855415821,0.034744665026664734
1772882717292983000,9.216983154296875,-0.011813249439001083,0.018199510872364044,0.04382631182670593
1772882717302916000,9.226916015625,-0.015545403584837914,0.020558537915349007,0.04111760854721069
1772882717312848100,9.23684814453125,-0.009995375759899616,0.019688749685883522,0.03142370283603668
1772882717322781200,9.24678125,0.004721518140286207,0.011624963954091072,0.01962137222290039
1772882717332713200,9.256713134765626,0.013622335158288479,0.00452684098854661,0.00657614367082715
1772882717342646000,9.26664599609375,0.015441007912158966,-0.0046631949953734875,-0.0021552962716668844
1772882717352578000,9.276578125,0.012242019176483154,-0.010613229125738144,-0.012232431210577488
1772882717362511000,9.286510986328125,0.010310694575309753,-0.010879012756049633,-0.014609835110604763
1772882717372443100,9.296443115234375,0.011018296703696251,-0.010300840251147747,-0.01697179302573204
1772882717382376200,9.306376220703125,0.008153000846505165,-0.010113353841006756,-0.012339490465819836
1772882717392308200,9.31630810546875,0.009180182591080666,-0.003993942867964506,-0.006440855097025633
1772882717402241300,9.3262412109375,0.0017502295086160302,0.000009321063771494664,-0.0037111148703843355
1772882717412174300,9.33617431640625,-0.0017603494925424457,0.010546650737524033,0.0014237258583307266
1772882717422106000,9.346106201171875,-0.0028075044974684715,0.010305634699761868,-0.00036272252327762544
1772882717432039000,9.356038818359375,-0.0032469260040670633,0.011110175400972366,0.0033446638844907284
1772882717441971000,9.365970947265625,-0.006759369280189276,0.003924700431525707,0.00577932596206665
1772882717451904000,9.375904052734375,-0.009277653880417347,0.006243781186640263,0.0005121259018778801
1772882717461836000,9.3858359375,-0.00941880140453577,0.007435545790940523,-0.004442951641976833
1772882717471769000,9.39576904296875,-0.0019883159548044205,0.007405984681099653,-0.009043029509484768
1772882717481701000,9.405701171875,0.004752677399665117,0.007071757689118385,-0.004927114117890596
1772882717491634200,9.41563427734375,0.0032490564044564962,0.006548712961375713,0.002448244020342827
1772882717501566200,9.425566162109375,-0.0014346449170261621,0.010522149503231049,0.010242517106235027
1772882717511499300,9.435499267578125,-0.002668221015483141,0.012374910525977612,0.01822427660226822
1772882717521431300,9.445431396484375,-0.0026727484073489904,0.009200156666338444,0.026088591665029526
1772882717531364000,9.455364013671876,-0.001133707701228559,0.007695204112678766,0.02587873488664627
1772882717541296000,9.465296142578126,-0.0011297129094600677,0.006653907708823681,0.02154097892343998
1772882717551229200,9.475229248046874,-0.0025180187076330185,0.0062544336542487144,0.014027401804924011
1772882717561161000,9.485160888671874,-0.001189900329336524,0.006412625312805176,0.00036964676110073924
1772882717571094000,9.495093994140625,-0.00564084155485034,0.00501153664663434,-0.008779909461736679
1772882717581026000,9.505026123046875,-0.00777616398409009,0.004728442523628473,-0.013905162923038006
1772882717590959000,9.514958984375,-0.008642223663628101,-0.0004474110610317439,-0.010864898562431335
1772882717600891100,9.52489111328125,-0.011481952853500843,-0.00012357067316770554,-0.007134342100471258
1772882717610824200,9.53482421875,-0.014199974946677685,-0.0002133192028850317,-0.0015355786308646202
1772882717620756200,9.544756103515626,-0.012202603742480278,0.012975986115634441,0.003023753175511956
1772882717630689000,9.55468896484375,-0.008203068748116493,0.017409883439540863,0.007614243775606155
1772882717640622000,9.5646220703125,-0.008740494959056377,0.01709589548408985,0.014634869061410427
1772882717650554000,9.57455419921875,-0.005589442327618599,0.014227937906980515,0.023631026968359947
1772882717660487200,9.584487060546875,-0.001371794263832271,0.010396181605756283,0.026342391967773438
1772882717670419200,9.594419189453125,0.00023169501218944788,0.00911253783851862,0.01818219944834709
1772882717680352300,9.604352294921876,0.0044075315818190575,0.01076662726700306,0.010935205966234207
1772882717690284000,9.614283935546876,0.004047472029924393,0.012234029360115528,0.0004575310740619898
1772882717700217000,9.624217041015624,0.0010319749126210809,0.03791435807943344,0.01458959560841322
1772882717710149000,9.634149169921875,-0.003462908323854208,0.02327948994934559,-0.019628828391432762
1772882717720082000,9.64408203125,-0.008552209474146366,0.008767126128077507,-0.028440695255994797
1772882717730014200,9.65401416015625,-0.0027771443128585815,0.013428989797830582,-0.02291703410446644
1772882717739947000,9.663947021484375,0.0006945523782633245,0.01948927901685238,-0.008174573071300983
1772882717749879000,9.673879150390626,0.008348477073013783,0.02154071256518364,-0.003463707398623228
1772882717759812000,9.68381201171875,0.011946141719818115,0.019526030868291855,0.0035920715890824795
1772882717769744100,9.693744140625,0.010824950411915779,0.012731507420539856,0.00595562718808651
1772882717779677200,9.70367724609375,0.0054429685696959496,-0.0030810111202299595,-0.0023339942563325167
1772882717789609200,9.713609130859375,-0.004245078656822443,-0.01865118183195591,-0.01607350818812847
1772882717799542300,9.723542236328125,-0.007186539936810732,-0.028977856040000916,-0.025061411783099174
1772882717809474300,9.733474365234375,-0.006099970545619726,-0.0365084744989872,-0.030433805659413338
1772882717819407000,9.743406982421876,0.0011973571963608265,-0.03801502659916878,-0.02359241060912609
1772882717829339100,9.753339111328126,0.010498980060219765,-0.006620085798203945,0.0005462143453769386
1772882717839272000,9.76327197265625,0.01236212719231844,0.0041763694025576115,-0.005253617651760578
