time,seconds_elapsed,z,y,x
1772871602264185600,0.082185546875,2.7641800509303804,-0.004505786986649036,0.7898032739307731
1772871602274118700,0.09211865234375,2.6223037288218736,-0.08669657893925904,0.9269868351131677
1772871602284051700,0.1020517578125,2.466404726579785,-0.09182108234614134,0.9394374436244368
1772871602293984800,0.11198486328125,2.461654901704192,0.012659575086832046,0.8108069720581174
1772871602303917600,0.12191748046875,2.318065930458903,0.03698503804802895,0.8043476398508995
1772871602313850600,0.1318505859375,2.4570997226178646,0.17435937256217002,0.8829168803054839
1772871602323783700,0.14178369140625,3.134938778427243,0.09663666593432425,1.2833902895212173
1772871602333716700,0.151716796875,3.380552538385987,-0.18138912506848573,2.0356582711100577
1772871602343649500,0.1616494140625,3.36641003126502,-0.6986936277896165,2.4319940690644084
1772871602353582600,0.17158251953125,4.164423280462622,-0.6358268372491002,1.965928901323676
1772871602363515600,0.181515625,4.162410771596432,-0.41557782017141576,1.7835073644675314
1772871602373449700,0.19144970703125,3.566331715106964,-0.4187538198590278,1.5655875209897756
1772871602383382800,0.2013828125,3.308400909888744,-0.38320962826907634,1.457835879062116
1772871602393315800,0.21131591796875,2.948818825444579,-0.2415764672666788,1.8303350204855202
1772871602403249000,0.221248779296875,2.1141636525481937,-0.16112521245777606,2.6021093743160364
1772871602413181700,0.231181640625,0.9958289006710052,-0.15135785168111324,3.0374101320892573
1772871602423114800,0.24111474609375,0.10045827004909515,-0.0989350060045719,2.715226927191019
1772871602433047800,0.2510478515625,-0.39419688622951504,0.23122692268788814,2.124284649068117
1772871602442980900,0.26098095703125,-0.5210872361302376,0.5043617267787456,1.3326777597814798
1772871602452913700,0.27091357421875,-0.581798017680645,0.690412121656537,0.6229015238981693
1772871602462846700,0.2808466796875,-0.6233031635016203,0.7618342668354511,-0.10930157478339969
1772871602472779800,0.29077978515625,-0.7599275564312934,0.7685960160553454,-0.7522485462360083
1772871602482712800,0.300712890625,-0.7837211044728756,0.9330249462336301,-1.2235215117529035
1772871602492645600,0.310645751953125,-0.9239175106704235,1.3275649468123911,-1.4968848639026284
1772871602502578700,0.32057861328125,-2.6110370693981646,1.9315841486513614,-0.5398638327926397
1772871602512511700,0.33051171875,-4.850957683902979,2.1354104387164115,0.21054946084022522
1772871602522444800,0.34044482421875,-6.283234466555714,2.4208546892821787,0.03683510818332433
1772871602532377600,0.350377685546875,-6.8971753429502245,2.560235687443614,-0.812400378729403
1772871602542310700,0.360310546875,-6.304646087896823,2.550987966626882,-1.947090637601912
1772871602552244700,0.37024462890625,-5.392760375803709,2.480193013435602,-2.6818857986032962
1772871602562177500,0.380177490234375,-4.694374791049957,2.0819185025036333,-3.047581982013583
1772871602572110600,0.390110595703125,-4.081121312397718,1.7369442046046255,-3.0128865162074563
1772871602582043600,0.400043701171875,-3.3820150121539827,1.284843995460868,-2.7373344218418
1772871602591976700,0.409976806640625,-2.80304783398509,0.7689940754622221,-2.488382457371056
1772871602601909800,0.41990966796875,-2.224589189860225,0.5771434698730706,-2.4292096990428864
1772871602611842600,0.429842529296875,-1.6166519377946853,0.3711410048127174,-2.3975026013977825
1772871602621775600,0.439775634765625,-1.2261001300692558,0.07465981192588805,-2.4013407182559368
1772871602631708700,0.449708740234375,-0.969890741816163,-0.05818272437751293,-2.20792987761274
1772871602641641700,0.459641845703125,-0.8545505444556474,-0.18830781841576097,-2.013990044659376
1772871602651574500,0.469574462890625,-0.6649591159701347,-0.5379232201188803,-1.5555112403944134
1772871602661507600,0.479507568359375,-0.18043021690845487,-0.7648135749071836,-0.9950237217679619
1772871602671440600,0.489440673828125,0.2815221086859703,-1.0493845497697591,-0.48039428347498175
1772871602681373700,0.499373779296875,0.5609750098824501,-1.1046639539211989,0.21275953810513018
1772871602691306800,0.509306640625,0.7326771459341048,-1.1000170048981905,0.5948768410928547
1772871602701239800,0.51923974609375,0.7294044078737497,-1.761399431425333,0.20339973521605134
1772871602711172900,0.5291728515625,0.835365951514244,-1.5871172157526015,0.015589198797941206
1772871602721106000,0.53910595703125,1.2698439947277307,-0.5751952584147453,-0.05426964258700609
1772871602731039700,0.549039794921875,1.617008496147394,-0.3172732210248709,-0.38019144949167966
1772871602740972800,0.558972900390625,1.2729817082315682,-0.797575442302227,-1.420130271654576
1772871602750905900,0.56890576171875,1.0121996052354574,-0.7570522932559252,-2.1875299175322054
1772871602760838700,0.578838623046875,1.126401738476753,-0.5825941364943981,-2.593587629686296
1772871602770771700,0.588771728515625,1.1697381913781166,0.38765141010880466,-1.7510829123333096
1772871602780704800,0.598704833984375,1.5822218449264764,0.48918461591303347,-1.3172488661117852
1772871602790637800,0.608637939453125,2.00786542429924,-0.10223638563752174,-1.162452710545063
1772871602800570600,0.618570556640625,2.6077812824726103,-0.4474637815147638,-0.8714135625816881
1772871602810503700,0.628503662109375,3.477123153346777,-0.8591782042562961,-0.8427291737586259
1772871602820436700,0.638436767578125,4.207722323963046,-1.592321214136481,-1.2073824239872395
1772871602830369800,0.648369873046875,4.478540083283185,-1.5556097323328255,-0.9459903723992407
1772871602840302600,0.658302490234375,4.12270712223947,-1.8361083431899548,-0.511455484431982
1772871602850235600,0.668235595703125,3.0000176822841165,-2.1660113286852836,0.1886887805573642
1772871602860168700,0.678168701171875,1.436668295609951,-1.922009680098295,1.1754299732789397
1772871602870101800,0.688101806640625,-0.10354279206097125,-3.10963657938838,1.7898146479181944
1772871602880034600,0.69803466796875,-1.5235715030372141,-4.087917548409104,2.5730317483916876
1772871602889967600,0.707967529296875,-2.5950603325873614,-3.4177310531795024,3.354851403157413
1772871602899900700,0.717900634765625,-3.012738047647476,-2.351447391057014,2.7839152634918687
1772871602909834500,0.72783447265625,-3.04650587721467,-1.5600789867013691,1.4555027599394321
1772871602919767600,0.737767578125,-2.797607688757777,-0.44658816772401333,0.22286124540269373
1772871602929700600,0.74770068359375,-2.8791157591432333,0.666249155780673,-0.9271925868183374
1772871602939633700,0.757633544921875,-3.614999007642269,1.7222557540386914,-1.3880961340121925
1772871602949566700,0.767566650390625,-4.613841703176498,2.8762703065842388,-1.5351510278023779
1772871602959499500,0.77749951171875,-6.479893349209427,4.051251659312844,-1.3689111026793717
1772871602969432800,0.787432861328125,-9.015153585350513,5.16304444220066,-0.6193665547050535
1772871602979366000,0.797365966796875,-10.957681152820587,6.087378132456541,0.5390158376611769
1772871602989299000,0.807298828125,-11.611878051757811,6.380905151712894,1.4620932442456482
1772871602999231700,0.817231689453125,-10.558733272671699,6.141528824838995,1.7847956507124005
1772871603009164800,0.827164794921875,-8.111671544465421,5.734074397629499,1.795832739163935
1772871603019097900,0.837097900390625,-5.747652256605029,5.236015570387244,1.7292225243113934
1772871603029031000,0.847031005859375,-4.075049299007654,4.923599726265668,1.963735482932627
1772871603038963700,0.856963623046875,-3.6611657155334947,5.155543272790313,2.5850802058428526
1772871603048896800,0.866896728515625,-4.830963528144359,5.514820236808061,3.3440386249810454
1772871603058829800,0.876829833984375,-6.767258923226595,6.010218904930353,4.054285620181262
1772871603068763000,0.886762939453125,-7.683313445436954,6.691384474813938,4.04365842770487
1772871603078695700,0.89669580078125,-7.808133418804407,6.990072822356224,3.6903219596520063
1772871603088629800,0.906629638671875,-7.3374658718347545,6.852170664575696,3.7462054671764373
1772871603098562800,0.916562744140625,-6.311546953326463,6.920245837414265,4.188917962510883
1772871603108495600,0.92649560546875,-5.142001654171944,6.965327088156342,4.231533407661319
1772871603118428700,0.9364287109375,-4.322072341242432,6.882768631935119,3.4753467913240192
1772871603128361700,0.94636181640625,-3.299836495161056,6.672773882368206,1.5379887354463337
1772871603138294800,0.956294677734375,-2.0686188759475943,6.1403749786287545,-0.8383376608014106
1772871603148227600,0.9662275390625,-1.6734703880816697,5.171280940148234,-3.01661839621216
1772871603158160600,0.97616064453125,-2.08157071197927,3.743042619231343,-4.656008820037544
1772871603168093700,0.98609375,-1.9241016839414833,1.4135691595733164,-5.050367326569557
1772871603178027300,0.99602734375,-0.053422378107905386,-1.243171676379442,-4.385622437871993
1772871603187960000,1.0059599609375,3.2784190286010504,-4.02384342790544,-3.1173934771254657
1772871603197893000,1.01589306640625,7.679507038891315,-6.27537147809565,-2.035117296101153
1772871603207826400,1.025826416015625,12.185218037694693,-7.800991145834327,-1.559767728795111
1772871603217759500,1.035759521484375,15.388186396253108,-9.237386469721793,-1.4875091327920555
1772871603227692300,1.0456923828125,16.47145041927099,-9.59325567112267,-2.067285873778164
1772871603237625300,1.055625244140625,15.044716657698153,-8.496174719676375,-2.7543556992694733
1772871603247558400,1.065558349609375,12.495160769701004,-7.372098793798685,-3.160837774315476
1772871603257491500,1.075491455078125,10.71596966099739,-6.578703267529606,-3.2222131572544574
1772871603267424300,1.08542431640625,9.02761559203863,-6.364484178265929,-2.8577047223240135
1772871603277358300,1.0953583984375,7.899145815116166,-6.393686307352781,-1.924781482899189
1772871603287291400,1.10529150390625,6.999653720650077,-6.628889732456207,-1.1623685393929482
1772871603297224200,1.11522412109375,5.803944052669405,-7.2516791012167925,-0.465688297252357
1772871603307157200,1.1251572265625,4.985584181013703,-7.396984228730202,0.38130525595247744
1772871603317090300,1.13509033203125,4.596089188864827,-7.397350139433145,0.4496773659110069
1772871603327023400,1.1450234375,4.661889402508735,-7.2185495695531365,-0.24780381734892726
1772871603336956200,1.1549560546875,5.309556022894382,-6.752956841629743,-1.177749356137216
1772871603346889200,1.16488916015625,5.764353216037154,-6.344953548365831,-2.1648677116081116
1772871603356822300,1.174822265625,5.7590159466624256,-5.9882706924945115,-3.063860332119465
1772871603366755300,1.18475537109375,5.414495237749815,-5.753971522754431,-3.6101433843046427
1772871603376688000,1.194688232421875,4.747909397360682,-5.772946272337436,-3.4416958661347627
1772871603386621200,1.20462109375,4.27901353623867,-5.810065750420093,-3.047567076705396
1772871603396554200,1.21455419921875,3.813823543897271,-6.111054776120185,-2.6721833197563885
1772871603406487300,1.2244873046875,3.370465444135666,-6.462448877933621,-2.164802683547884
1772871603416420000,1.234420166015625,3.4644869591355323,-6.69287266754508,-1.75749804007262
1772871603426353200,1.244353271484375,3.836667828390002,-6.806712981736659,-1.6618417634777725
1772871603436286200,1.2542861328125,4.3584418777406215,-6.654350336927175,-1.7265799008481204
1772871603446219300,1.26421923828125,4.667657464516163,-6.426240084955096,-1.964063691973686
1772871603456152300,1.27415234375,4.736672548553347,-6.199420457315445,-1.850215632867068
1772871603466086100,1.284086181640625,4.961276253709197,-4.596490170881152,-2.4714111565649506
1772871603476019200,1.294019287109375,5.941618246912956,-2.10268188906908,-4.166583673366904
1772871603485952300,1.3039521484375,4.932463416200876,-1.5116864194542168,-2.498227559559047
1772871603495885300,1.31388525390625,2.1819757905364034,-0.7376742235690354,0.9701423784896731
1772871603505818400,1.323818359375,0.1991343328565359,1.3772627514392137,4.360504655489326
1772871603515751400,1.33375146484375,-2.304358307623863,4.319530255544185,6.298383520370721
1772871603525684500,1.3436845703125,-5.472794866505265,7.833893883004784,6.602478695392608
1772871603535617300,1.3536171875,-9.06961582790017,10.920269413793086,5.473170714080333
1772871603545550300,1.36355029296875,-12.769109812784194,12.975958081018923,4.181239975228905
1772871603555483400,1.3734833984375,-15.42984410228729,14.519674546462296,3.482365730175376
1772871603565416400,1.38341650390625,-14.41845522891283,15.103126761090754,2.173745137807727
1772871603575349200,1.393349365234375,-11.040752234739065,13.251286595761774,1.9941222917594015
1772871603585282300,1.4032822265625,-8.297975621843337,10.702516305184364,2.8451801717936993
1772871603595215400,1.41321533203125,-6.845014363080263,8.99719999550879,3.641972939285636
1772871603605148400,1.4231484375,-6.4847665082037445,7.902415630567074,3.91983243381083
1772871603615081200,1.433081298828125,-6.939675929549336,7.309487731584906,4.381909262567758
1772871603625014300,1.44301416015625,-7.426896551913022,7.046878997683525,4.498783537627756
1772871603634947300,1.452947265625,-7.5836939642995596,7.23616822835207,4.714150920143723
1772871603644881200,1.462881103515625,-7.607450687462091,8.115901729381084,4.73905505977571
1772871603654814200,1.472814208984375,-8.104032427889107,9.083498807302117,4.602605731151998
1772871603664747300,1.482747314453125,-9.14955328796804,10.013767148303986,4.416587192717194
1772871603674680300,1.492680419921875,-10.265132603657245,11.012626210451126,3.7527281469434497
1772871603684613000,1.502613037109375,-10.70144078490734,11.651465381258726,2.8582275771543384
1772871603694546200,1.512546142578125,-10.244356357610226,11.193798770159482,1.9052086212925612
1772871603704479200,1.522479248046875,-9.114161072069406,9.93574399742484,1.1579629979103803
1772871603714412300,1.532412353515625,-7.631394457629322,8.263903840893507,0.30004151571691035
1772871603724345000,1.542344970703125,-5.944554300364851,6.324407019421458,-0.5089706818789244
1772871603734278100,1.552278076171875,-3.643069502350688,4.386688313537836,-1.0885656365573406
1772871603744211200,1.562211181640625,-1.2040174775987862,2.285493448156118,-1.6877730542004108
1772871603754144300,1.572144287109375,0.9175310245037078,0.14584171860814094,-2.505943540763855
1772871603764077300,1.582077392578125,2.5678379791408776,-2.2875573949486014,-2.5330335000023245
1772871603774010000,1.592010009765625,3.8926188481926918,-4.508377587664127,-1.8889482452347874
1772871603783943200,1.601943115234375,4.889143329912423,-6.318335590553283,-1.4246525713846088
1772871603793876200,1.611876220703125,6.351722311848402,-8.111959129235148,-1.074836386412382
1772871603803809300,1.621809326171875,8.080200301402806,-8.97509863833785,-1.5932887439943848
1772871603813742000,1.6317421875,9.571139116382598,-8.949993423175812,-3.0315590679734945
1772871603823675100,1.641675048828125,11.496844143867492,-8.635122002595663,-4.318549427813291
1772871603833609200,1.651609130859375,13.390040401935577,-8.447602704209089,-4.772010111655295
1772871603843542300,1.661542236328125,15.219272429615259,-8.16738407933712,-4.550099591106176
1772871603853475300,1.671475341796875,16.190063919663427,-7.419615162733197,-4.243222384150326
1772871603863408400,1.681408447265625,14.94530000565648,-7.204589433261751,-3.388780853027105
1772871603873341400,1.691341552734375,12.299333077174424,-6.703622025096416,-2.000315008919686
1772871603883274200,1.701274169921875,9.303148689442873,-5.864308212739229,-0.6166274851299822
1772871603893207300,1.711207275390625,5.637106892305612,-5.572404995292425,0.5874728484466671
1772871603903140400,1.721140380859375,2.3662884018361567,-5.281204373157024,1.5486512914970516
1772871603913073400,1.731073486328125,0.43356268193423747,-4.9145045656621456,1.6802166474714875
1772871603923006200,1.741006103515625,0.5202572150468826,-4.640602868852019,0.9775633222706616
1772871603932939300,1.750939208984375,2.388500233644247,-4.572281612297893,-0.4996653856560588
1772871603942872300,1.760872314453125,4.358886114376783,-4.973457105368375,-1.893619159655273
1772871603952805400,1.770805419921875,6.5206006226509805,-5.38757332855463,-2.8520114791184663
1772871603962738200,1.78073828125,8.114479587623476,-6.125156366708874,-3.3583155721366404
1772871603972671200,1.790671142578125,8.862538427084683,-6.7683186614125965,-3.471001455596089
1772871603982604300,1.800604248046875,8.471253044387698,-7.17691582891643,-3.4871450734063982
1772871603992537300,1.810537353515625,7.559965298187732,-7.040856084132194,-3.313483327719569
1772871604002470100,1.82047021484375,6.545168662196398,-6.702042646950483,-3.321782661770284
1772871604012403200,1.8304033203125,5.281935610041022,-6.408717872267961,-3.1041353516235946
1772871604022336300,1.840336181640625,4.493261851596832,-6.2601686482667915,-2.3568916279375554
1772871604032269300,1.850269287109375,3.2724265101879833,-6.275820975428819,-1.3949302178159355
1772871604042203100,1.860203125,2.1920728216588494,-5.764422189620137,-0.9021617520667612
1772871604052136200,1.87013623046875,2.3940134441077707,-4.372619456174969,-1.5864438465356825
1772871604062069200,1.8800693359375,3.90970559207201,-2.2722587035298347,-3.040380672332644
1772871604072002000,1.890001953125,4.4876907734662295,-1.191395896434784,-2.5974597949445246
1772871604081935000,1.89993505859375,3.0646213796198367,-0.636903234308958,-0.4255854194447398
1772871604091868200,1.9098681640625,0.6663087770134211,0.49643502543270585,1.5799803496100007
1772871604101801200,1.91980126953125,-2.4068495448052882,1.9303104754537344,3.786154031205177
1772871604111734300,1.929734375,-5.858246720743179,3.936106692263484,5.096243527081609
1772871604121667000,1.9396669921875,-8.362993745198846,7.059839017021655,5.072310278308391
1772871604131600100,1.94960009765625,-9.388851873430609,10.691240877932309,3.652591071672737
1772871604141533400,1.959533447265625,-10.492146877086162,13.486020065265894,2.333789423161
1772871604151466500,1.969466552734375,-12.569778496050834,14.764242012238501,2.16549578037858
1772871604161399300,1.9793994140625,-14.788071800637244,14.849688591116665,3.8927760845810173
1772871604171332400,1.989332275390625,-15.876505335247515,14.443559275031088,6.4578042669981714
1772871604181265400,1.999265380859375,-15.622752692496775,13.313974230343103,8.261936340212822
1772871604191198500,2.009198486328125,-14.884263060891627,11.67296058923006,9.479540444615482
1772871604201131500,2.019131591796875,-13.166290098738669,10.657275479966401,9.224015531495214
1772871604211064600,2.029064697265625,-10.969205586397647,10.220054275524616,8.005656224811077
1772871604220997600,2.03899755859375,-8.908208291369675,10.045934556937217,5.922697857865691
1772871604230931500,2.048931396484375,-7.934101977685094,9.799142400848865,3.602387947872281
1772871604240864500,2.058864501953125,-8.319216562792658,9.771104639366268,1.7852368186086416
1772871604250797600,2.068797607421875,-9.527074933728574,9.977636681258678,0.2506146369859576
1772871604260730600,2.078730712890625,-10.848112524598836,9.628660161980987,-1.1292784629568458
1772871604270663400,2.088663330078125,-11.742217080807686,8.473854166796803,-2.463027651362121
1772871604280596500,2.098596435546875,-11.374666209441422,6.895603563588857,-3.2368098378837105
1772871604290529500,2.108529541015625,-9.016552346232533,4.916862526965141,-3.0798741860702634
1772871604300462600,2.118462646484375,-5.430265638333559,2.8149446080058813,-2.8162741030439733
1772871604310395400,2.1283955078125,-1.2772417037636041,0.8037175983190536,-2.2517770565152166
1772871604320328400,2.138328369140625,2.040639566653967,-1.0241817194521428,-1.628025272463262
1772871604330261500,2.148261474609375,4.05892409363687,-2.334030976831913,-1.9679314733177422
1772871604340194600,2.158194580078125,5.062491479605436,-3.0405870085597035,-2.9842981351047753
1772871604350127400,2.16812744140625,6.007876725718378,-3.561463816809654,-4.152691049353778
1772871604360060400,2.178060302734375,7.615693615150451,-4.497179901823401,-4.784632277341187
1772871604369993500,2.187993408203125,9.134420600765942,-5.542973733624816,-4.286820118336379
1772871604379926500,2.197926513671875,10.19419853425622,-6.829049316707253,-2.895300585746765
1772871604389859300,2.207859375,11.7236152561903,-8.256413777399063,-1.088318383798003
1772871604399792400,2.21779248046875,12.849455853652954,-9.098678256255388,0.3565916704565286
1772871604409725400,2.227725341796875,12.838331233048438,-8.86496945362389,0.6915116073310374
1772871604419658500,2.237658447265625,11.970108137071131,-7.55762019636631,-0.13825111734867096
1772871604429592300,2.24759228515625,11.272123534333705,-5.80070989305377,-1.503338570086658
1772871604439525400,2.257525390625,10.528196680110693,-4.6061944032937285,-2.361342177605629
1772871604449458400,2.26745849609375,9.921534270286559,-4.187487345185875,-2.6218463404431938
1772871604459391200,2.27739111328125,9.225783710211514,-4.464925983950495,-2.200058559715748
1772871604469324300,2.28732421875,8.91073751758635,-5.086944952860474,-1.562107716049999
1772871604479257600,2.297257568359375,8.829420585858822,-6.375564375206828,-0.851975725531578
1772871604489190700,2.307190673828125,8.316976674911379,-7.408975695297122,0.12422376103997229
1772871604499123500,2.31712353515625,7.1480731807917355,-7.365422969296574,0.42051454592123627
1772871604509056500,2.327056396484375,5.815261565497517,-6.789541482183337,-0.24949220882728695
1772871604518989600,2.336989501953125,4.93335072042942,-5.8476756423681975,-1.4560015032418072
1772871604528922600,2.346922607421875,4.459269565623998,-5.122365225809812,-2.7486516424089666
1772871604538855700,2.356855712890625,4.242602498686313,-4.782489127832651,-3.5599200944989917
1772871604548788500,2.36678857421875,4.338436031544208,-4.835892801240086,-3.9627430625155564
1772871604558721500,2.376721435546875,4.79664566347897,-5.208446010938286,-4.047551635751128
1772871604568654600,2.386654541015625,5.351938536071777,-5.523946377071738,-4.157979511150717
1772871604578587600,2.396587646484375,5.796265188604593,-5.725373204779625,-4.357223734122514
1772871604588520400,2.4065205078125,5.998610300201177,-5.691707666543126,-4.545982218915224
1772871604598453500,2.41645361328125,5.710457959720492,-5.702863851329684,-4.504146525965631
1772871604608386600,2.426386474609375,4.812743396320939,-5.52666498838067,-3.7775071988910436
1772871604618319600,2.436319580078125,3.419735963261127,-4.730367895451188,-3.1216268769115207
1772871604628252400,2.44625244140625,2.625627904808521,-3.3221623087376355,-3.418499991725385
1772871604638186500,2.4561865234375,2.268915822842717,-2.3608745600938796,-2.0235795646511017
1772871604648119600,2.46611962890625,1.1715309200137853,-1.309058983784914,-0.3529505374751985
1772871604658052400,2.47605224609375,0.2131681189060211,0.0013537526965141295,1.5955167953073977
1772871604667985400,2.4859853515625,-0.9731634798765182,1.1697697555601596,3.3655236038193106
1772871604677918500,2.49591845703125,-2.2596143260121346,3.794520293012261,3.632598377218842
1772871604687851500,2.5058515625,-3.9375896242976185,7.561615988004207,2.8498189375102516
1772871604697784300,2.515784423828125,-7.54051825491786,10.148322918266057,2.1832143924206493
1772871604707717400,2.52571728515625,-12.219050164669751,12.068691260898113,2.808451154333353
1772871604717650400,2.535650390625,-15.633067165762185,14.114452408349512,3.6838691302508115
1772871604727583500,2.54558349609375,-16.85279483819008,14.89578281829357,4.545259165337682
1772871604737516300,2.555516357421875,-16.899899119192362,13.475154972380398,6.366773750507831
1772871604747449300,2.565449462890625,-15.788678583234548,12.249633518981932,8.28963390995562
1772871604757382400,2.57538232421875,-14.56038181990385,11.665322057175636,8.666773278400301
1772871604767315500,2.5853154296875,-14.152144717884063,11.490926444256305,7.391607796388864
1772871604777248300,2.595248291015625,-13.958555744194983,12.178459795606136,5.61143059925735
1772871604787181300,2.605181396484375,-13.824101681041716,12.807695271766185,3.514858717501163
1772871604797114400,2.6151142578125,-13.359126208233832,12.796074976599217,1.4049420548729599
1772871604807047400,2.62504736328125,-12.215019301718472,11.871496956193447,-0.5093981135107577
1772871604816980500,2.63498046875,-10.227737231242656,10.594459250569344,-1.6411963042035698
1772871604826913300,2.644913330078125,-8.164801661628484,8.678221724131703,-2.243286876067519
1772871604836847600,2.65484765625,-5.974423953449726,6.502987224549055,-1.980128983850777
1772871604846780400,2.664780517578125,-3.645193070375919,4.094747686690092,-1.2871163243070245
1772871604856713500,2.67471337890625,-1.7334791588425635,1.6436135944783687,-0.6550409485459328
1772871604866646500,2.684646484375,-0.2623141348689794,-0.4410428085565567,-0.5199062096521258
1772871604876579600,2.69457958984375,1.3071195401549338,-1.952657331818342,-0.6846741625264287
1772871604886512600,2.7045126953125,3.284582811927795,-2.8285493549883363,-0.7422697346657514
1772871604896445400,2.714445556640625,4.9443333022147415,-3.205172590604424,-0.8850260544791817
1772871604906378500,2.72437841796875,6.058430270391702,-3.669783906275034,-1.4527306648775935
1772871604916311600,2.7343115234375,6.621642830067873,-4.594795641922951,-1.6838830610245465
1772871604926244600,2.74424462890625,7.021956153351068,-5.865764256766438,-1.21881874088943
1772871604936177400,2.754177490234375,7.658011830919981,-6.842032716920971,-0.7341364048317074
1772871604946110500,2.7641103515625,9.019597120755911,-7.245307812619209,-0.8755538772568107
1772871604956043500,2.77404345703125,10.76403372694254,-6.913114085838198,-2.065529093238711
1772871604965976600,2.7839765625,12.053662034070491,-6.12902531709671,-3.478284598341584
1772871604975909400,2.793909423828125,12.02910276235342,-5.508728349673747,-4.14629842570722
1772871604985842400,2.803842529296875,10.73279453907013,-5.1243970238983625,-3.797100372633338
1772871604995775500,2.813775390625,8.837581680482625,-5.039232184571027,-3.030917847460508
1772871605005708500,2.82370849609375,6.6262886100471015,-5.124729032331705,-2.398997954522073
1772871605015641300,2.833641357421875,5.000297766020894,-5.38535272989571,-2.0289222408533094
1772871605025574400,2.843574462890625,4.787087561538815,-5.732690249794722,-2.1694018479064106
1772871605035507500,2.853507568359375,5.405753128367662,-6.231835118708014,-2.4193203193217516
1772871605045440500,2.8634404296875,6.386272231703996,-6.54479106105566,-2.7085519794717428
1772871605055374300,2.873374267578125,7.1621344393700355,-6.5946338271111244,-2.9956723465561863
1772871605065307400,2.883307373046875,7.1703861348867415,-6.291171104773879,-3.3264705273255704
1772871605075240400,2.893240478515625,6.228288239881396,-5.65249735366106,-3.599957505854964
1772871605085173200,2.90317333984375,4.974017077338695,-5.233703786313534,-3.672043375639617
1772871605095106300,2.913106201171875,3.6429157730937,-5.302147207942605,-3.460401151126623
1772871605105039400,2.923039306640625,3.0683272484004496,-5.423594490006566,-2.8670658403873444
1772871605114972400,2.932972412109375,3.4246167210400102,-5.756078139644861,-2.644314777360856
1772871605124905500,2.942905517578125,3.8250142154753206,-5.963534310644865,-3.033961745201051
1772871605134838500,2.952838623046875,4.000558998429775,-5.81564851898849,-3.74330068564564
1772871605144771600,2.962771484375,3.7915643658161162,-5.460138214027881,-4.540168271939456
1772871605154704600,2.97270458984375,3.7139848670512436,-4.739881573727726,-5.354697479391097
1772871605164637400,2.982637451171875,4.0641368598490955,-3.8164480471819635,-6.077766254502534
1772871605174569500,2.992569580078125,4.002335360452532,-2.9833254906803366,-6.140434015339612
1772871605184502300,3.002502197265625,3.4832892747610806,-3.0313463020056486,-4.4684863067805765
1772871605194435300,3.012435302734375,3.1536230206310747,-3.343491512492299,-0.11209551635086536
1772871605204368400,3.022368408203125,3.0657834091365337,-2.8197388565450905,4.17558004977107
1772871605214301400,3.032301513671875,2.0478116502404213,-1.7931991757899521,7.192752864995598
1772871605224234200,3.042234130859375,-0.8422440205901861,0.776526809054613,8.714287893769145
1772871605234167300,3.052167236328125,-4.575248060888052,5.682247764280438,7.668968109220266
1772871605244100400,3.062100341796875,-8.437709086704254,11.20751165369153,5.318709051164984
1772871605254033400,3.072033447265625,-12.573259908425808,14.656605813384056,3.215430949768424
1772871605263967200,3.08196728515625,-14.3872511123538,16.317492029702663,2.0049433993726966
1772871605273900300,3.091900390625,-13.022531616145372,15.95219624378681,1.9406012755826114
1772871605283833300,3.101833251953125,-10.10342813000679,13.04547643840313,4.018586238029599
1772871605293766100,3.11176611328125,-7.752775688719749,9.006304508462549,7.0339704162716865
1772871605303699200,3.12169921875,-5.892500872522592,5.783754666599631,9.198485368919371
1772871605313632300,3.13163232421875,-5.288965654808282,3.734903736439347,10.144821632146835
1772871605323565300,3.1415654296875,-6.423670526728034,3.1555554499983787,9.729018478786944
1772871605333498000,3.151498046875,-8.344238191324472,3.8498710088342425,8.263631453692913
1772871605343431200,3.16143115234375,-10.341990217888355,5.052926363402605,6.252884920999407
1772871605353364200,3.1713642578125,-11.89655307151675,6.1944777402162545,3.7502559116110206
1772871605363297300,3.18129736328125,-12.370131537497043,7.029508176165819,1.1328855475381017
1772871605373230300,3.191230224609375,-12.045808397960663,7.39838591222167,-0.2851891067609191
1772871605383163400,3.201163330078125,-11.654580882930755,7.363240364560484,-0.1999836431622505
1772871605393096400,3.211096435546875,-10.979220784455537,7.319999773249029,0.3913493878439069
1772871605403029500,3.221029541015625,-9.573370820957422,7.245248191386461,0.4361003837183118
1772871605412962600,3.230962646484375,-7.785032529202103,6.876440013435483,-0.05953969194442033
1772871605422895400,3.240895263671875,-5.283251953336596,6.477341911160946,-1.0859078155249358
1772871605432828400,3.250828369140625,-2.311612808796763,5.551963680288195,-2.0002458892062305
1772871605442761500,3.260761474609375,0.5579512781471013,3.9705356160879135,-2.6668866746529933
1772871605452694500,3.270694580078125,3.1952544231802222,2.11377903714478,-3.1753280719608066
1772871605462628400,3.28062841796875,5.374958177131414,0.05955927342772484,-3.3547906128808855
1772871605472561400,3.2905615234375,6.62131082163453,-2.160518576487899,-3.1391324307247994
1772871605482494500,3.300494384765625,7.330550977879763,-4.363346600916981,-2.76842397211045
1772871605492427300,3.31042724609375,8.299322944799066,-6.704812111663818,-1.9493755336686969
1772871605502360300,3.3203603515625,9.664448683720826,-8.836763349837064,-0.5943862810969353
1772871605512293400,3.33029345703125,11.79819791122675,-9.679244101792573,0.19279753105044364
1772871605522226400,3.340226318359375,14.456244569081067,-9.09442469046414,-0.5401753829598427
1772871605532159200,3.3501591796875,16.559664124774933,-7.945818718963861,-2.1863398309648034
1772871605542092300,3.36009228515625,17.154712084650992,-7.032938150614499,-3.0522660481765866
1772871605552025300,3.370025390625,15.74486399142742,-6.3474465342253445,-2.733018896730244
1772871605561958400,3.37995849609375,12.821270208132265,-5.988232698571681,-1.5906316536143421
1772871605571891200,3.38989111328125,9.552685760325193,-5.605469645026326,-0.01614975529015064
1772871605581824300,3.39982421875,5.962984860068559,-5.241548654595017,1.0806567631289363
1772871605591757300,3.40975732421875,2.7501795826286077,-4.914893272718787,1.2025734162703157
1772871605601690400,3.4196904296875,0.7923065619885921,-4.51219568464756,0.2306798101991415
1772871605611623200,3.429623046875,0.18290274450182914,-4.282373368060589,-1.3197431671455502
1772871605621556200,3.43955615234375,0.7138882743120193,-4.301562052655219,-2.614240541614592
1772871605631489300,3.4494892578125,2.154806044059992,-4.706251691326499,-3.59470557667613
1772871605641422300,3.45942236328125,3.728835230180621,-5.602215027144551,-3.9999440814018246
1772871605651355400,3.46935546875,4.746908695885539,-6.548183041581511,-3.9577190968737006
1772871605661288200,3.4792880859375,5.105220029741526,-7.278125794115662,-3.6030952193588015
1772871605671221200,3.48922119140625,5.406140666380525,-7.86739750867784,-3.111818891863525
1772871605681154300,3.499154296875,5.574679954487085,-7.802201690667867,-3.0034771750882268
1772871605691088400,3.50908837890625,5.398964491140842,-7.052121574512124,-3.5232205953940747
1772871605701021400,3.519021484375,4.889460140776634,-6.098470019835234,-4.3580096238031985
1772871605710954500,3.52895458984375,4.163240792679787,-5.243294621479511,-4.810972294995189
1772871605720887300,3.53888720703125,3.3221845205694436,-4.408141435933113,-4.751159631328284
1772871605730820400,3.5488203125,3.7834418496370312,-3.2573873464882372,-4.773881458485127
1772871605740753400,3.55875341796875,4.800561960139871,-3.037710576340556,-3.293121215431392
1772871605750686500,3.5686865234375,5.507603145036101,-2.1247031667411327,-1.1758666111305356
1772871605760619500,3.57861962890625,5.12966064351499,-0.400543624907732,0.7045318324238061
1772871605770552300,3.58855224609375,2.7856372649788854,1.0656336737811565,2.484016371116042
1772871605780485400,3.5984853515625,-0.7344447401285171,3.3382126953065394,3.790705118638277
1772871605790418400,3.60841845703125,-4.977040224552154,6.9754106752753255,4.605881976343691
1772871605800351500,3.6183515625,-10.164793576073645,11.544004538971185,4.998854581475258
1772871605810284300,3.6282841796875,-14.627746798646449,15.121120682942866,4.399996123400331
1772871605820217300,3.63821728515625,-18.162334298968315,16.209688657587765,3.3886811920449134
1772871605830150400,3.648150390625,-19.693982725477216,15.237209068322182,3.6558912822619076
1772871605840083500,3.65808349609375,-19.16485480623245,12.262523395693302,6.30463439745903
1772871605850016300,3.668016357421875,-17.498824797284602,8.039658447656034,9.854975931751728
1772871605859949300,3.67794921875,-14.564810157740116,5.248236754056811,11.68010461576581
1772871605869882400,3.68788232421875,-10.921122815752028,4.354216953521966,10.493376711142062
1772871605879815400,3.6978154296875,-7.531283978104591,4.90213023725748,7.085015543854237
1772871605889748200,3.707748291015625,-5.698548326218128,6.500026036655902,3.163651954953372
1772871605899682300,3.717682373046875,-4.68025098862946,8.666016907075047,-0.8824453903362155
1772871605909615400,3.727615478515625,-4.769292961651087,9.876367094826698,-3.1588553683266043
1772871605919548200,3.737548095703125,-6.911260566926002,10.889966629987955,-4.2574397100731725
1772871605929481200,3.747481201171875,-11.244445253813266,11.470192283785343,-4.222166444379091
1772871605939414300,3.757414306640625,-14.572440506488084,10.83527642390132,-1.9374600549474357
1772871605949347300,3.767347412109375,-14.745443788266181,8.95301832395494,1.634796958555281
1772871605959280000,3.777280029296875,-11.783829194134473,6.655892890194058,4.188447422389686
1772871605969213200,3.787213134765625,-7.183152677479386,4.624354913884401,5.0336909170567985
1772871605979146200,3.797146240234375,-2.453909402143955,2.9424317547559737,4.854261109362542
1772871605989079300,3.807079345703125,1.335969202542305,1.410884450533986,3.3717622059479355
1772871605999012400,3.817012451171875,4.600965854990482,0.7461404386192559,1.260867199806869
1772871606008945200,3.826945068359375,6.961267583632469,0.01570025795698166,-1.5269462401673197
1772871606018878200,3.836878173828125,8.73199481537342,-0.80323945941329,-4.210806261453032
1772871606028811500,3.8468115234375,10.220004006642103,-1.7653695041000843,-6.122251877439021
1772871606038744600,3.85674462890625,11.151085417592524,-3.2126357660919425,-6.914613969007134
1772871606048677400,3.866677490234375,11.413736821591854,-4.985000828167796,-6.463498094725608
1772871606058610400,3.8766103515625,11.405410891795158,-6.767991329154372,-4.967337161183357
1772871606068543500,3.88654345703125,11.417262657630443,-8.376970248103142,-2.9233664042800664
1772871606078476500,3.8964765625,11.192219392013548,-9.429375022476911,-0.8729387263223528
1772871606088409300,3.906409423828125,10.643725093519688,-9.71668097526133,0.6322217984944581
1772871606098342400,3.91634228515625,9.628768298530579,-9.30026115130782,0.9508177925556898
1772871606108275500,3.926275390625,8.819619907334447,-7.936807729512452,0.06031359892636537
1772871606118209300,3.936209228515625,8.412945232325791,-6.147802498281002,-1.5756769533276558
1772871606128142300,3.946142333984375,7.637697941687703,-4.769087794467807,-3.173695502322912
1772871606138075400,3.956075439453125,6.672140845161676,-4.192212620142102,-4.213091742041707
1772871606148008400,3.966008544921875,5.910522266903519,-4.290602851745486,-4.341568776611983
1772871606157941200,3.975941162109375,5.406399025055766,-4.935982822498679,-3.66478361376971
1772871606167874300,3.985874267578125,5.111707053673267,-5.945360940572619,-2.52442524613291
1772871606177805300,3.995805419921875,5.095896321079135,-5.968444879040121,-2.5095135082051154
1772871606187738600,4.005738525390625,5.13508909830451,-6.905086846727133,-1.3980541950553655
1772871606197671700,4.015671630859375,5.152381593888998,-7.490170461949706,-0.9300573285996914
1772871606207604700,4.025604736328125,4.827614802238345,-7.596589101707935,-1.0267556615933775
1772871606217537500,4.03553759765625,4.458719530525803,-7.374885209646821,-1.5084905460223554
1772871606227470600,4.045470703125,4.370250973477959,-7.075248767599463,-2.2969664438068866
1772871606237403600,4.055403564453125,4.646940839701891,-6.98372023845911,-3.016662235353887
1772871606247336700,4.065336669921875,4.667567448145151,-6.726568016397953,-3.9452626431435345
1772871606257269500,4.07526953125,4.3164685298860075,-6.360946651789545,-5.009395849233865
1772871606267202600,4.08520263671875,4.030387150460482,-6.11018734563589,-5.221939698761702
1772871606277135600,4.095135498046875,3.651558513754606,-6.17031594338417,-4.875945117904245
1772871606287068700,4.105068603515625,3.3595500823676585,-6.386314901801944,-4.15958899217397
1772871606297001700,4.115001708984375,3.9325516301304098,-5.558218064507842,-4.232188072177768
1772871606306934800,4.124934814453125,5.482286332949996,-3.8682378556519743,-4.68583755659014
1772871606316868900,4.134868896484375,4.981401926892995,-2.9882050794154402,-3.0758140970245003
1772871606326801700,4.1448017578125,1.9442554141759871,-2.3471166683763265,1.1427347413793205
1772871606336734700,4.154734619140625,-2.2431647109925748,-0.3903139073163271,5.010205996572971
1772871606346667800,4.164667724609375,-5.867593225759268,3.2601731778144836,6.585483136928081
1772871606356600800,4.174600830078125,-6.885624605888128,8.034349819853901,7.391150115749239
1772871606366533600,4.18453369140625,-7.7668170735538,13.541673563426732,6.197746386623383
1772871606376466700,4.194466796875,-9.249336435234547,19.432039762008188,4.155082620665431
1772871606386399700,4.204399658203125,-12.454440636777877,23.266992018651962,5.089716171139479
1772871606396332800,4.214332763671875,-15.068251847064495,23.916007715559005,4.964782800525427
1772871606406265900,4.224265869140625,-15.605708034193515,21.058076783263683,3.6097783503845333
1772871606416198700,4.23419873046875,-15.951335827565192,14.816435140812397,5.306663808584213
1772871606426131700,4.244131591796875,-15.414645364111662,8.35168441567719,8.504612293154
1772871606436064800,4.254064697265625,-12.34223698387742,3.6255309230506416,10.579389107209444
1772871606445997800,4.263997802734375,-7.444269126996398,0.5172077643483877,9.729635149380565
1772871606455930600,4.2739306640625,-1.3968693691849707,-0.241758838096261,6.493555379337072
1772871606465863700,4.28386376953125,3.27114582272768,0.42280163394510745,2.5241724404156205
1772871606475796700,4.293796630859375,4.36049588766098,1.7062123817324637,-0.8670115282304585
1772871606485729800,4.303729736328125,2.2669360472023485,3.5767508177906273,-1.8647754886172712
1772871606495662600,4.31366259765625,-2.4214888955324887,5.635430483525991,-1.02022845178172
1772871606505595600,4.323595703125,-8.875223136612773,8.288835453054308,-0.20523732590675353
1772871606515528700,4.33352880859375,-15.403852751940487,10.545850410223007,-1.4926198999345301
1772871606525461800,4.343461669921875,-18.41115123888254,11.464293288874625,-2.798433618187904
1772871606535395600,4.3533955078125,-16.940528066700697,10.797436814850569,-2.895186896239221
1772871606545328600,4.36332861328125,-12.36687341248393,9.101254244223236,-2.999240852692723
1772871606555261700,4.37326171875,-7.040814583078026,6.508527323019504,-3.071297788643837
1772871606565194500,4.383194580078125,-2.187867771184444,3.3865327818393705,-2.9462516053050756
1772871606575127600,4.39312744140625,2.209306865054369,0.5939636717706919,-2.9667049030080435
1772871606585060600,4.403060546875,7.035016710454225,-2.7923358858346936,-1.9723849455952642
1772871606594994000,4.412993896484375,10.872701022410393,-5.92290477861464,-0.5802335448428988
1772871606604926700,4.4229267578125,12.692476654958725,-6.6389388327836985,-1.0500871450811624
1772871606614859800,4.43285986328125,13.944393947851657,-6.987123909422754,-2.020075794313848
1772871606624792800,4.442792724609375,15.009417380779981,-7.704947185096144,-2.1488535653963683
1772871606634726000,4.452725830078125,15.624538991391658,-8.214332292994856,-1.0289715840771794
1772871606644658700,4.46265869140625,15.59344476494789,-9.055765581724048,-0.23138971203416583
1772871606654591700,4.472591796875,14.698658656215667,-8.79199248021841,-0.25129998890161515
1772871606664524800,4.48252490234375,12.822726836681365,-7.625809935495257,-0.6127995974048972
1772871606674457900,4.492457763671875,10.179794745850563,-6.033293491047621,-0.7763128740429878
1772871606684390700,4.502390625,7.685234184366464,-5.025013105082512,-0.8252084223762154
1772871606694323700,4.51232373046875,6.425595357310772,-4.7847184943199155,-0.6857189954042434
1772871606704256800,4.5222568359375,6.479565432429314,-5.006288530868291,-0.7067629524767398
1772871606714189800,4.53218994140625,6.926462812232971,-5.403964491385221,-1.035960712312162
1772871606724123000,4.542122802734375,6.765410665011405,-5.621708247643709,-1.5202213158264755
1772871606734055700,4.5520556640625,6.176473881492019,-5.53093550530672,-2.166010451902449
1772871606743988700,4.56198876953125,5.517632956141233,-5.341770777800679,-2.657152631624043
1772871606753921800,4.571921875,5.045501181837916,-5.240028897681832,-3.305396467375755
1772871606763855600,4.581855712890625,4.574907284626365,-5.246777787420153,-3.661765727253258
1772871606773788700,4.59178857421875,4.20467521135211,-5.676082811909914,-3.8554201673939823
1772871606783721700,4.6017216796875,3.7774551764428614,-6.1445110555201765,-3.8244028055787083
1772871606793654800,4.61165478515625,3.485424533224106,-6.50926265155673,-3.737130180317163
1772871606803587600,4.621587646484375,3.4672739595055577,-6.751094554889201,-3.710765028221905
1772871606813520600,4.631520751953125,3.654166065904498,-6.7643316376030445,-3.60678092213422
1772871606823453700,4.64145361328125,3.530863511362672,-6.746875475889444,-3.3461344282165166
1772871606833386800,4.65138671875,3.1397493935793634,-6.691681996455788,-3.0970480237111446
1772871606843319600,4.661319580078125,3.3544045361727473,-5.386297317269444,-3.4712858254954218
1772871606853252600,4.671252685546875,4.364985600295663,-3.535464283156395,-4.465204216369986
1772871606863185700,4.681185546875,4.6547208260536195,-2.4781781664818525,-3.955279010245204
1772871606873118700,4.69111865234375,4.0256642135918135,-0.6604372546315193,-2.729251068629324
1772871606883051500,4.701051513671875,2.881719804161787,1.2920716086268424,-1.2486281882196664
1772871606892984600,4.710984619140625,2.020420954489708,3.2226451189309357,0.5768965093746781
1772871606902917600,4.720917724609375,1.09595223967731,5.4744093159645795,2.605564190945029
1772871606912850700,4.7308505859375,-0.6136427702307701,8.019054635566473,4.874935356339812
1772871606922783500,4.740783447265625,-3.3303140510112046,9.715859137484431,5.965782381832599
1772871606932716500,4.750716552734375,-7.9738576494902365,10.51423245216608,7.373085466748476
1772871606942649600,4.760649658203125,-14.545409876221418,10.693135897898673,9.56999929869771
1772871606952582700,4.770582763671875,-19.781155982017516,10.27987424571514,11.487574795740843
1772871606962515700,4.780515625,-22.92377245546579,8.322522618600726,12.179409059154986
1772871606972448800,4.79044873046875,-21.639313659930227,7.474456759989261,10.960742878478765
1772871606982381800,4.8003818359375,-15.539039805543421,7.922854022961855,7.608712085700034
1772871606992315600,4.810315673828125,-8.790130777999758,7.759107814350724,2.770783102457225
1772871607002248700,4.820248779296875,-3.250996184146404,8.03742674308121,-1.0760688508167862
1772871607012181800,4.830181640625,-0.9342647171616554,8.36671481154859,-3.200971047261357
1772871607022114800,4.84011474609375,-2.453185764044523,8.095122560724615,-3.4844174020081757
1772871607032047900,4.8500478515625,-6.746738113245367,8.072224500218033,-1.9956863262057303
1772871607041980700,4.859980712890625,-12.257046425586939,8.311869122639298,-0.1871703388184309
1772871607051913700,4.869913818359375,-16.76972492531538,8.440967796239256,0.5324399664022028
1772871607061846800,4.8798466796875,-17.749962289100885,8.433508127883076,0.8023881032809614
1772871607071779800,4.88977978515625,-15.340540847980975,8.265552192622422,0.9877687822036445
1772871607081712600,4.899712646484375,-11.126837111520766,7.979166277292371,0.5546623196043073
1772871607091645700,4.909645751953125,-6.685027214741706,7.899366764390468,0.2919619618967175
1772871607101578800,4.919578857421875,-3.2326784371674058,7.636795439890027,-0.23628449833840132
1772871607111511800,4.92951171875,-1.255044485002756,7.026922835847735,-1.0271683340474962
1772871607121444600,4.939444580078125,-0.2009036806166172,6.235133575731515,-1.356207980711758
1772871607131377700,4.949377685546875,0.58300096372962,5.12891537810564,-0.9973580099344252
1772871607141310700,4.959310791015625,1.592815719655156,3.26558818860054,-0.4478814224049449
1772871607151243800,4.969243896484375,3.1325410696357485,0.8571575120836495,0.07646072386801242
1772871607161176600,4.979176513671875,4.723903667873144,-1.6846926238417625,0.547108981615305
1772871607171109600,4.989109619140625,5.887890163856745,-4.065236930045486,0.4428136176213622
1772871607181043500,4.99904345703125,6.961749229669571,-5.889956448736786,-0.17532909437716007
1772871607190976300,5.008976318359375,8.01557263866961,-6.483326830789446,-1.4193725851550698
1772871607200909300,5.018909423828125,9.131524294802546,-6.291733414831757,-3.190311413820088
1772871607210842400,5.02884228515625,9.910466932827234,-5.8334846199303865,-4.354241503441333
1772871607220776400,5.0387763671875,10.537012439250946,-5.2934951149314635,-4.732996198128164
1772871607230709500,5.04870947265625,11.227105996477603,-5.025294844633341,-4.5398929621294135
1772871607240642600,5.058642578125,12.26972470537424,-5.2807952078342435,-3.9736549171522255
1772871607250575600,5.06857568359375,13.600529072499274,-6.128947575685381,-3.2273893908485767
1772871607260508400,5.07850830078125,14.22509071162939,-6.933997299391031,-1.7694024128779768
1772871607270441500,5.08844140625,13.189201018726825,-7.481280468529462,-0.25238223118036984
1772871607280374500,5.09837451171875,10.854122578668594,-7.415659703105687,0.7009016592279076
1772871607290307600,5.1083076171875,8.577528476282954,-6.924812122416496,0.5239239208608866
1772871607300240600,5.11824072265625,6.531937424701452,-6.04148147367835,-0.2811801633805036
1772871607310173400,5.12817333984375,4.969239195412397,-4.8413528202116485,-1.6699360764756799
1772871607320106500,5.1381064453125,4.059847053700685,-3.772575587707758,-3.2560558056235314
1772871607330039600,5.14803955078125,3.6977930261850354,-3.2094811014533042,-4.567098948962986
1772871607339972600,5.15797265625,4.180142243120074,-3.1377322085380555,-5.071707051718235
1772871607349905400,5.167905517578125,4.744865791881084,-3.6379654572099445,-4.943350720918178
1772871607359838500,5.17783837890625,5.580751967877149,-4.511554464134574,-4.364413937887549
1772871607369771500,5.187771484375,5.868724860137701,-5.8313516995549195,-3.3936399834960698
1772871607379704600,5.19770458984375,5.417324908217787,-6.930356897062063,-2.135877471706271
1772871607389637400,5.207637451171875,5.086709390538931,-7.519056949216127,-1.4092285000205038
1772871607399570400,5.2175703125,4.8776568902581925,-7.2483987643718715,-1.7437772654950618
1772871607409503500,5.22750341796875,5.081702376031875,-6.475350445082784,-3.084437840723991
1772871607419436500,5.2374365234375,5.316303159067035,-5.639476544046402,-4.443303057946265
1772871607429369300,5.247369384765625,5.380291354852915,-4.960720373392105,-5.486947895020246
1772871607439302400,5.257302490234375,5.736134837290645,-4.71747626517415,-5.708228593233227
1772871607449235500,5.2672353515625,6.735524060791731,-3.615031156346202,-5.117469270461798
1772871607459168500,5.27716845703125,7.346675014206767,-1.616309407967329,-4.5403716855570675
1772871607469102300,5.287102294921875,6.204934836822748,-0.3837345289260149,-2.5159628304749724
1772871607479035400,5.297035400390625,3.40322614248693,0.19196926353275776,1.1495739397495985
1772871607488968400,5.306968505859375,-1.3933137225300072,1.9184546179652213,4.612871396839618
1772871607498901200,5.3169013671875,-5.8041322687178845,5.604506937474012,6.411297951889038
1772871607508834300,5.326834228515625,-8.41248346003294,9.612733694052695,7.482239668950438
1772871607518767400,5.336767333984375,-9.56915934074223,12.981887471067905,7.213736616313457
1772871607528700400,5.346700439453125,-10.278919136947392,14.651576587045192,6.683314565604925
1772871607538633500,5.356633544921875,-12.415132708740234,14.374789105665682,7.428051567167043
1772871607548566500,5.36656640625,-15.016217708444595,13.524861544835566,8.103084333384036
1772871607558499600,5.37649951171875,-17.357611322999,10.52762267961502,9.620638183566927
1772871607568432600,5.3864326171875,-18.803607418924567,6.274539703446626,12.716995010143517
1772871607578365400,5.396365478515625,-17.45695549432635,2.90758139064908,15.428268231272696
1772871607588298500,5.406298583984375,-12.421008322775362,1.3841554335623978,14.58682792828083
1772871607598231600,5.4162314453125,-5.227543510118126,2.1021324384927746,10.592019456201792
1772871607608164600,5.42616455078125,1.0502923122644423,2.7736849613785743,5.91370966476798
1772871607618097700,5.43609765625,3.8980245066285133,3.5966456048279998,2.0537416248112916
1772871607628030500,5.446030517578125,2.8895471367865797,5.337104539555311,0.11224486169368028
1772871607637963500,5.455963623046875,-0.4933616093367338,7.934619279557466,-0.109893622392416
1772871607647896600,5.465896484375,-5.993746493557095,9.87537691474557,-0.2293330717653036
1772871607657829600,5.47582958984375,-12.76120941492319,10.156313332498073,-0.14754209278523922
1772871607667762400,5.485762451171875,-16.900518712395428,9.397038102495669,0.9280144245952368
1772871607677695500,5.495695556640625,-17.696823404109477,7.4132473812669515,2.126598771229386
1772871607687628500,5.505628662109375,-15.151299548107385,5.6605012118965385,2.732679874034226
1772871607697562400,5.515562255859375,-10.147121141260861,4.656936748537421,2.1515146012991666
1772871607707495400,5.525495361328125,-4.903014618876576,3.610398235848546,-0.050773909425735474
1772871607717428500,5.535428466796875,-0.8026140209913253,2.966019551092386,-2.9391476185187697
1772871607727361500,5.545361572265625,1.9274983406424522,2.509876204037666,-5.810560840460658
1772871607737294300,5.55529443359375,3.750715638077259,2.040173118185997,-7.297019295156002
1772871607747227400,5.565227294921875,5.298907203108072,1.1336807895690202,-7.276919340935349
1772871607757160400,5.575160400390625,6.890199658718704,-0.9951870956361293,-5.871932716268301
1772871607767093500,5.585093505859375,8.590929225125908,-4.114407495927811,-3.253527456189692
1772871607777026300,5.5950263671875,9.88210709978342,-6.292327289071679,-0.9445739297300577
1772871607786959400,5.60495947265625,10.72455044233799,-7.518485871329903,0.3578799567013979
1772871607796892400,5.614892333984375,11.105638840669393,-8.47546452460289,1.0412870219014585
1772871607806825500,5.624825439453125,11.88842354107499,-9.08021028715074,1.273793316875398
1772871607816758300,5.63475830078125,13.316191906392573,-8.90514247405827,1.2887366189852356
1772871607826691300,5.64469140625,14.680554844248293,-8.070637523287534,0.745243197518587
1772871607836624400,5.654624267578125,14.943205079203842,-7.081440023455023,-0.14199001161605118
1772871607846557400,5.664557373046875,13.373771988701819,-5.637788444828987,-0.9361232045099138
1772871607856490500,5.674490478515625,10.402527980959414,-4.127847407737374,-1.2646508099988103
1772871607866423300,5.68442333984375,7.188602175056934,-3.254567612892389,-1.1002946527957915
1772871607876356400,5.6943564453125,4.661098544391989,-3.1855431765049693,-0.8635501357302069
1772871607886289400,5.704289306640625,3.505098370987177,-3.763863288941979,-0.6363803794786334
1772871607896222500,5.714222412109375,4.0301644476205105,-4.699243273869157,-0.37513796549439427
1772871607906155300,5.7241552734375,4.739273086440563,-5.941949670824409,-0.5214689289242029
1772871607916088600,5.734088623046875,5.0728182278305285,-6.856829304036498,-0.9250164118230342
1772871607926021600,5.744021728515625,5.241713489767909,-7.0590861528277395,-1.534524858728051
1772871607935954700,5.75395458984375,5.144662397813796,-6.833797972539067,-2.6419945177197457
1772871607945887500,5.763887451171875,5.2529754730165,-6.323567645987868,-3.76186597764492
1772871607955821600,5.773821533203125,5.640709300711751,-5.5949938437193625,-4.876047116973996
1772871607965754600,5.783754638671875,6.037256549459696,-5.196387908875942,-5.651571470987797
1772871607975687400,5.7936875,6.4101382604599,-4.962140761584044,-5.938878008294105
1772871607985620500,5.803620361328125,6.776266990068555,-5.0743946833670135,-5.626048907196521
1772871607995553500,5.813553466796875,7.0806567641228435,-5.636366887593269,-4.689535534325242
1772871608005486600,5.823486572265625,7.11953039239645,-6.152669812056422,-3.4252912593007085
1772871608015419400,5.83341943359375,6.438711443993449,-5.7552007722884415,-2.7295336849629876
1772871608025352400,5.8433525390625,6.422712495350837,-4.191889964058995,-2.522477911457419
1772871608035285500,5.853285400390625,5.122245398822426,-2.741568406149745,-1.2797656692832708
1772871608045218600,5.863218505859375,3.2102170145124194,-0.4846206689983606,-0.11685352453291416
1772871608055151400,5.8731513671875,1.784372310733795,2.9176854360342026,0.32653146323561666
1772871608065084400,5.88308447265625,-0.11311375348269939,4.823978491562604,1.5866338161498308
1772871608075017500,5.893017578125,-1.2926584686040878,8.079021905273198,3.396862160412967
1772871608084950500,5.902950439453125,-3.6758009746074674,12.052986326766014,5.22403053356111
1772871608094883300,5.91288330078125,-8.509024264377356,14.800192446541786,6.983398166897892
1772871608104816400,5.92281640625,-15.06846461303234,16.415572464704514,8.884188533356784
1772871608114749400,5.93274951171875,-21.37244902215004,15.69204776251912,9.353099007526039
1772871608124682500,5.9426826171875,-25.779353609764573,11.377919658279419,10.145279897308349
1772871608134615300,5.952615234375,-25.271888071751594,7.478593421402573,11.080178236198424
1772871608144548400,5.96254833984375,-20.036129106473922,5.759974562561512,9.940399129754304
1772871608154481400,5.9724814453125,-12.5402239002645,4.988903680825233,6.011177520829439
1772871608164414500,5.98241455078125,-4.741586624079942,4.860692311453819,0.6667210110761225
1772871608174347500,5.992347412109375,0.40819150931239123,4.920139941200613,-3.7171047526374457
1772871608184279800,6.00227978515625,1.7945371463954447,4.887472766351699,-6.010600597724318
1772871608194212900,6.012212890625,0.22026363012492656,5.15304853336513,-5.263593897664546
1772871608204147000,6.02214697265625,-3.9896857222378252,5.09226819370985,-2.695931275090575
1772871608214079700,6.032079833984375,-9.379929146784544,4.91772235866487,0.7308429162442683
1772871608224012800,6.0420126953125,-14.229886129212378,5.3007624755859375,3.8463247145295143
1772871608233945900,6.05194580078125,-16.20550231181383,6.40170653220117,5.237819989460706
1772871608243879200,6.061879150390625,-14.423475102901458,7.852063745945691,4.3872073689758775
1772871608253812000,6.07181201171875,-11.134889485073089,8.956735298651456,2.3772137004762888
1772871608263745000,6.0817451171875,-8.440701838779448,9.241257173675297,0.8704057007133961
1772871608273678000,6.091677978515625,-6.744875241982936,8.588760648915171,0.3157756759434938
1772871608283611100,6.101611083984375,-5.651197376978397,7.122059034091234,0.6323278892174363
1772871608293544000,6.1115439453125,-4.7016287077009675,5.1076691764593125,0.847199597170949
1772871608303477000,6.12147705078125,-2.8535902727425095,3.009502134466171,0.8116171193972229
1772871608313410000,6.13141015625,-0.2899649428606033,0.9987316363751888,0.20680501361489295
1772871608323343000,6.141343017578125,1.9037673364430665,-0.36468262245357036,-1.3008698321104049
1772871608333276200,6.151276123046875,3.7366491188019513,-1.2128513569176196,-2.8025401767238973
1772871608343209000,6.161208984375,5.54742311424911,-2.3189047193706034,-3.6798940891399976
1772871608353142000,6.17114208984375,7.349184366679191,-3.599355448308587,-3.9981601205945014
1772871608363075000,6.181074951171875,9.367317502492666,-5.01716531419158,-3.988697295722365
1772871608373008100,6.191008056640625,11.21293835491538,-6.884564283180237,-3.6455969750016926
1772871608382941000,6.20094091796875,12.60178925281763,-8.318582941064237,-2.876486287422478
1772871608392874000,6.2108740234375,13.10271048375368,-9.248837838062643,-1.8141140996553002
1772871608402807000,6.22080712890625,12.953458664441108,-9.653909754049778,-0.5317921700179576
1772871608412740000,6.230739990234375,12.136327457797526,-9.288777634263038,0.25223800040408967
1772871608422673000,6.2406728515625,10.629069960701464,-8.728820276990533,0.39199733035862444
1772871608432606000,6.25060595703125,10.069087468987703,-7.330707629746199,0.035451691000908614
1772871608442539000,6.2605390625,9.286286986491083,-6.058379416987299,-0.6608139789894223
1772871608452472000,6.27047216796875,8.284092057919501,-4.844318099758029,-1.832742958410084
1772871608462406000,6.280406005859375,7.141607784169912,-3.7794554103493687,-2.6848838113754985
1772871608472339000,6.2903388671875,6.044415189042687,-3.2419916244357823,-2.9773855792373416
1772871608482272000,6.30027197265625,5.314013586825132,-3.295849471351504,-2.888961738114059
1772871608492204800,6.310204833984375,5.134457230141758,-3.7071868774741885,-2.445960342835635
1772871608502137900,6.320137939453125,4.850572483977675,-4.55414039092958,-1.7588542769871651
1772871608512071000,6.33007080078125,4.649778108954429,-5.367461683896184,-1.0056576362460852
1772871608522004000,6.34000390625,4.648289916223288,-6.005080372998118,-0.505100416316837
1772871608531936800,6.349936767578125,4.460363790601492,-6.3862453436970705,-0.3995116515114903
1772871608541869800,6.359869873046875,4.405097830453514,-6.652632427093386,-0.43868733147159217
1772871608551803000,6.369802978515625,4.885864162111282,-6.911689021471142,-0.44457989664152264
1772871608561736000,6.37973583984375,5.669238060581684,-7.107993683859705,-0.61826326963827
1772871608571668700,6.389668701171875,6.609448534405231,-7.085728660559654,-1.2331807359799742
1772871608581601800,6.399601806640625,7.127336682233214,-6.777654060512781,-1.9905176913961766
1772871608591534800,6.409534912109375,7.083353748121858,-6.394783454939723,-2.6173154190152883
1772871608601468000,6.419468017578125,6.511452270555496,-6.197917067015171,-2.916546787393093
1772871608611401000,6.42940087890625,5.444424512067437,-5.770657284617424,-2.823967872416973
1772871608621334000,6.439333984375,3.621759003296494,-4.402224905365705,-3.2573446763902902
1772871608631267000,6.44926708984375,3.1816619511574507,-2.498423082131147,-4.125437423986196
1772871608641200000,6.4592001953125,3.7454976111680267,-2.137632790941,-3.2203087849378584
1772871608651133200,6.46913330078125,2.7955688764065503,-1.242864217865467,-1.6130726180031896
1772871608661066000,6.47906591796875,0.15527590190768242,0.5783154362618923,0.22973522282540798
1772871608670999000,6.4889990234375,-2.6742817533403636,2.81011645719707,1.8747317960947751
1772871608680932000,6.49893212890625,-4.997474525293708,5.359522123068571,3.6339912928819653
1772871608690865200,6.508865234375,-8.08176039032638,8.223363740712404,4.9555917783319945
1772871608700798000,6.5187978515625,-10.78991752526164,11.881083115184307,4.420018043948709
1772871608710731000,6.52873095703125,-13.040147936856746,14.509786774176359,3.3413045238420365
1772871608720664000,6.5386640625,-16.939526196181774,15.000824909001588,3.1784187314525245
1772871608730598000,6.548597900390625,-20.049035349798203,14.649785611975192,3.75334364849329
1772871608740531000,6.558531005859375,-20.462689800691603,12.159766785573959,5.275592963016033
1772871608750464000,6.568464111328125,-17.998848202598094,8.039795810300111,7.298452542829513
1772871608760397000,6.57839697265625,-13.741952974665164,3.9369320371717214,9.455496136683225
1772871608770329900,6.588329833984375,-9.858184956926106,1.2953998762667178,11.037409938573836
1772871608780263000,6.598262939453125,-7.349684717416763,2.309099364671111,9.959005630546807
1772871608790196000,6.608196044921875,-6.245156957095861,5.03463842703998,6.786167621836066
1772871608800129000,6.61812890625,-6.056918696784972,7.99802119988799,3.3711692084908482
1772871608810061800,6.628061767578125,-6.675728640520572,10.646556517553329,0.24850948140025136
1772871608819995000,6.637994873046875,-8.62748171697557,12.150697343933581,-1.952503018039465
1772871608829928000,6.647927978515625,-11.01377421144247,11.820940488910674,-2.901459108376503
1772871608839861000,6.657861083984375,-12.483470331907272,9.757843591254948,-2.323980415199697
1772871608849793800,6.667793701171875,-11.934767943620681,6.742234372085332,-0.0327978154912591
1772871608859726800,6.677726806640625,-10.576142672634123,3.7016374266535044,1.7914812659561632
1772871608869660000,6.687659912109375,-8.409440439075231,1.7411521776884793,2.509093236966431
1772871608879593000,6.697593017578125,-5.426782472392916,1.0497785175234078,1.736109799607098
1772871608889526000,6.707526123046875,-2.1496768644779918,1.288394965940714,-0.6434174385085701
1772871608899458800,6.717458740234375,0.9965911172151565,1.5295032311737538,-3.1887700295969843
1772871608909392000,6.727391845703125,3.9472640460938213,1.1668325330644844,-4.9344987214207645
1772871608919325000,6.737324951171875,6.31688656078875,0.39225919616520405,-5.096421806257963
1772871608929258000,6.747258056640625,7.896288087597489,-0.7739426377803087,-4.248739394006133
1772871608939190800,6.757190673828125,9.674467973431945,-2.3190146094858646,-3.195703043730557
1772871608949123800,6.767123779296875,11.577718592524528,-4.43694141395986,-1.87061062451154
1772871608959057000,6.777056884765625,13.233219024151563,-6.196459853944182,-0.805143539468944
1772871608968990000,6.786989990234375,14.01046596417427,-7.511236046332121,0.11165303328037261
1772871608978923000,6.796923095703125,14.34137432731986,-7.3365160237640135,-0.06685615243762731
1772871608988857000,6.806857177734375,13.101521566230058,-6.433080744630098,-0.8835486754029989
1772871608998790100,6.8167900390625,11.161323903012274,-5.317637622541189,-1.6019196480870246
1772871609008723000,6.826722900390625,9.656614336833357,-4.34395216461718,-2.198907051593065
1772871609018656000,6.836656005859375,8.509938456612826,-4.191030132359266,-2.641497674113512
1772871609028589000,6.846589111328125,7.745868393549323,-4.243588002592325,-2.731580972881615
1772871609038522000,6.856522216796875,6.932645884782075,-4.531470878481865,-2.5975053876519203
1772871609048455000,6.866454833984375,6.045446285656094,-5.048769243723154,-2.1219474382922052
1772871609058388000,6.876387939453125,5.265504699721932,-5.5427247272998095,-1.6743498012647031
1772871609068321000,6.886321044921875,4.790624503493309,-6.069443247315287,-1.6404136293932794
1772871609078254000,6.896254150390625,4.718840539264678,-6.3180725557029245,-1.8295102600991724
1772871609088187000,6.906186767578125,4.824435587680339,-6.136167005544901,-2.3580863906800746
1772871609098120000,6.916119873046875,4.996192084267735,-5.932808332991599,-2.6945839521348476
1772871609108053000,6.926052978515625,5.06585949473381,-5.901648055574298,-2.8773732993900776
1772871609117986000,6.935986083984375,5.224390599045157,-5.896181022340059,-3.188385706454515
1772871609127918800,6.9459189453125,5.3783764611423015,-6.092605511716008,-3.5021424437910316
1772871609137852000,6.955851806640625,5.378088876372575,-6.309850670802593,-3.631416766218841
1772871609147785000,6.965784912109375,5.311461564254761,-6.540839108559489,-3.4917022983193395
1772871609157718000,6.975718017578125,5.185457349538803,-6.594833149075508,-3.2571269419863818
1772871609167650800,6.98565087890625,4.799567103883624,-7.122049097219109,-2.5463848567456004
1772871609177583900,6.995583984375,4.709353748995065,-7.277921211454272,-1.88895262914896
1772871609187517000,7.005516845703125,4.328772715663909,-7.560086878740787,-1.29899527041018
1772871609197450000,7.015449951171875,3.6083623461067673,-7.232379357463121,-0.9231135008111595
1772871609207383000,7.025383056640625,2.945855883985758,-4.941257548031211,-2.5806121205180883
1772871609217315800,7.03531591796875,3.742273972946405,-2.8107757978886365,-4.138478399606049
1772871609227249000,7.045248779296875,4.304951110571623,-2.0521546478807924,-3.1491999434918165
1772871609237182000,7.055181884765625,2.335847670865059,-0.6604203034967183,-1.3533011533543466
1772871609247115000,7.065114990234375,-1.3121721473693846,1.5632634619563817,0.830420019544661
1772871609257047800,7.0750478515625,-5.175542104724049,4.086566133800149,3.0124536777481437
1772871609266981000,7.084981201171875,-8.096690832954645,7.0529165242820975,4.674022615633905
1772871609276915200,7.094915283203125,-10.349634595161676,10.362146870732307,5.1661143511652945
1772871609286848000,7.104847900390625,-11.425580404120684,13.540907839751243,4.191223024582863
1772871609296781000,7.114781005859375,-12.21049042611718,15.858112769466638,3.5439340053379533
1772871609306714000,7.124714111328125,-13.843645754945276,16.540836674708128,3.339588075312972
1772871609316647200,7.134647216796875,-15.17950740545988,16.31417545250058,3.2169328787639735
1772871609326580000,7.144580078125,-14.388231940084696,14.018027339339255,4.358490977579355
1772871609336513000,7.154512939453125,-11.610961521434783,8.953281943327188,7.553601023852825
1772871609346446000,7.164446044921875,-7.444796950262784,2.773563965347409,11.86694002354145
1772871609356379100,7.174379150390625,-4.458212750047445,-1.5057003307819365,15.364818380147218
1772871609366312000,7.18431201171875,-3.7885885648757216,-0.9263175575494765,14.868392122542858
1772871609376245000,7.194244873046875,-4.836811085128784,2.343103341081738,10.311606770062445
1772871609386178000,7.204177978515625,-5.792836967721581,6.081540512344241,5.291495465546846
1772871609396111000,7.214111083984375,-6.448837701210379,9.56464507818818,0.31729017215967176
1772871609406044000,7.2240439453125,-6.967292835271358,11.515941643047332,-3.922403745603561
1772871609415977000,7.23397705078125,-7.2226704488754265,11.121256096518039,-5.364863484096527
1772871609425910000,7.243909912109375,-7.6749056825757025,9.157939423519373,-4.07730409219712
1772871609435843000,7.253843017578125,-9.051847531497478,6.73455550802052,-1.841650195226073
1772871609445776000,7.26377587890625,-10.60759228838682,4.473465848758816,-0.05521189187318086
1772871609455709000,7.273708984375,-10.778124211615323,2.7669460085123774,1.4353008066490291
1772871609465642000,7.28364208984375,-9.188719761708379,1.7866414247095583,1.6937281632125376
1772871609475575000,7.293574951171875,-6.506698938548564,2.00213944786787,0.10566314521580934
1772871609485507800,7.3035078125,-3.7692367986738677,2.517285603511333,-2.1209204333320257
1772871609495441000,7.31344091796875,-0.8006143716067076,2.502103231948614,-3.897284209655225
1772871609505374000,7.3233740234375,2.613182849255204,1.9295026662021875,-4.348181180489063
1772871609515307000,7.33330712890625,5.468503891313076,0.5294418074995279,-3.3787633168816567
1772871609525240000,7.343239990234375,7.817790304943919,-1.2906377764314412,-1.8140294901117682
1772871609535172900,7.3531728515625,9.799558580434322,-3.2922254356354475,-0.5539706840783357
1772871609545106000,7.36310595703125,11.339673221993445,-5.10491315574944,-0.2099991334810853
1772871609555040000,7.3730400390625,12.296574133855104,-5.980035363590717,-0.7248936524510383
1772871609564973000,7.38297314453125,12.714351802158355,-6.480200807723403,-1.3087263908296822
1772871609574906000,7.392906005859375,12.838995249915122,-6.872834682419896,-1.6445011909678577
1772871609584839200,7.402839111328125,13.045808446836471,-6.6504609282732,-2.0322785655438897
1772871609594772200,7.412772216796875,12.548639846432208,-6.258603883168101,-2.4939187564492222
1772871609604705000,7.422705078125,10.845763915646076,-5.972815349209308,-2.299519343160093
1772871609614638000,7.43263818359375,8.160120225813984,-5.659038738128543,-1.6785262101665137
1772871609624571100,7.442571044921875,5.543930595958233,-5.412457009920478,-1.1387219986066222
1772871609634504200,7.452504150390625,3.6327006685495373,-5.261859621217846,-0.8564487792924046
1772871609644437000,7.46243701171875,2.8955659586846827,-5.249941804409027,-1.1480822398871182
1772871609654370000,7.4723701171875,3.12961027688086,-5.26248798224926,-1.8807921190470456
1772871609664303000,7.48230322265625,4.0517286291748285,-5.257617161342501,-2.8511285588040947
1772871609674236200,7.492236083984375,5.113368264883756,-5.207705421704054,-3.8726109561696647
1772871609684169000,7.5021689453125,6.1212137665629385,-5.04163340049386,-4.756041850411892
1772871609694102000,7.51210205078125,6.9409811669290065,-4.980896899980307,-5.315338113427162
1772871609704035000,7.52203515625,7.321324884372949,-5.031871884936094,-5.505556733900308
1772871609713968000,7.531968017578125,6.9154299615651365,-5.341245292621851,-4.980464353781938
1772871609723901000,7.54190087890625,6.060210724067687,-5.933644783815741,-3.8262154079586264
1772871609733834000,7.551833984375,5.511219581967592,-6.555595948186516,-2.6451284318313
1772871609743767000,7.56176708984375,5.578576377403736,-7.072229712039232,-1.8525500671640038
1772871609753700000,7.5717001953125,5.993698562762141,-7.44370447885096,-1.5037109105303883
1772871609763633000,7.5816328125,6.635129503628611,-7.579591205155849,-1.6021832674592733
1772871609773566000,7.59156591796875,7.0665727091908455,-7.034177337020635,-2.2943577226132152
1772871609783499000,7.6014990234375,6.759811529830098,-6.158295250722766,-3.102497229027748
1772871609793432000,7.61143212890625,5.848758761429786,-4.818365912377834,-3.765825528925657
1772871609803365000,7.621365234375,5.651056507202982,-2.6195997305601835,-4.697109184449911
1772871609813298000,7.6312978515625,4.963085348957777,-1.2789718885570764,-4.517028511631488
1772871609823231000,7.64123095703125,2.5694313858121633,0.051879824841022486,-2.9565584797859192
1772871609833164000,7.6511640625,-0.02343172899186611,1.9196090486973523,-0.4901680739924311
1772871609843097000,7.66109716796875,-2.6315000117123124,3.8097716381579634,2.189981986859441
1772871609853031000,7.671031005859375,-5.0669595649302,5.761687211698294,4.25071244764477
1772871609862964000,7.6809638671875,-7.044347433379292,7.8015020179659125,5.545974084484577
1772871609872897000,7.69089697265625,-8.639701147079467,9.143819712752103,5.5141644032478325
1772871609882829800,7.700829833984375,-11.108340500843525,8.953556084093451,6.616689591574668
1772871609892763000,7.710762939453125,-14.448450554203987,8.609825648775697,8.992345541214942
1772871609902696000,7.720696044921875,-16.352549314558505,8.210120228257775,9.759712892258166
1772871609912629000,7.73062890625,-15.929828929156065,7.723389435237646,8.120386181318759
1772871609922562000,7.74056201171875,-14.488295073336362,7.951323746120929,6.260512347137928
1772871609932495000,7.7504951171875,-13.133215512132644,8.244674239766598,5.074254398113489
1772871609942428200,7.76042822265625,-12.070147889447211,8.40453746946454,4.203858049750328
1772871609952361200,7.770361328125,-10.561038627004622,7.945490217661857,3.310969591332972
1772871609962294000,7.7802939453125,-8.23754716436565,6.4035524523288005,2.6445997317820784
1772871609972227000,7.79022705078125,-6.354882237184047,3.780736682331562,2.763569225555658
1772871609982160100,7.80016015625,-5.0316509356617924,1.8719822051256894,3.460715916164219
1772871609992093200,7.81009326171875,-4.311878864008188,1.3086568327248096,4.161407732033729
1772871610002026000,7.82002587890625,-5.077663329774141,1.6184230391204357,4.270125004123151
1772871610011959000,7.829958984375,-6.3613143160581584,3.2533027075231074,3.3611484574750063
1772871610021892000,7.83989208984375,-7.518397024002671,5.328790884718298,1.7830431079566478
1772871610031825200,7.8498251953125,-8.686360022401809,7.184102525550126,0.4171352787464857
1772871610041758000,7.859758056640625,-10.029137735915183,8.268402905878425,-0.28235885177105663
1772871610051691000,7.86969091796875,-10.514465091878176,8.020977128061652,-0.06057867960333824
1772871610061624000,7.8796240234375,-9.506924710625409,6.884884016653895,1.2599053690373896
1772871610071557000,7.88955712890625,-7.287388712501525,5.469469521474838,2.1792171394780278
1772871610081490000,7.899489990234375,-4.865567808535695,4.221412995663285,2.6399425536260006
1772871610091423000,7.909423095703125,-2.549438399097323,3.26573724168241,2.193104795055091
1772871610101356000,7.91935595703125,-0.1260883858680725,3.0145962427347897,0.6247077696025372
1772871610111289000,7.9292890625,2.388554594179988,2.7428052544683217,-1.7008792040109633
1772871610121222100,7.93922216796875,4.170673573029041,1.710894986590743,-3.6144045488804575
1772871610131155000,7.949155029296875,5.47187249096334,0.5474287150889635,-4.759939150111377
1772871610141088000,7.959087890625,6.296916370427608,-0.8395639877259731,-4.700015719546378
1772871610151022000,7.96902197265625,7.3136758309245105,-3.0655823336064816,-3.8472885911256074
1772871610160955000,7.978954833984375,8.689730375617742,-5.0978217361837626,-2.83593741941303
1772871610170888000,7.988887939453125,10.200607232254743,-6.65587126288414,-2.2005384521871805
1772871610180821000,7.998821044921875,11.418676031559706,-7.811057197296619,-1.8421617980100213
1772871610190754300,8.00875439453125,12.293283275616169,-8.305200312399863,-2.0049818316869437
1772871610200687400,8.018687255859374,12.697283762979506,-7.62475838061571,-2.629290811230242
1772871610210620400,8.028620361328125,12.68651453168392,-6.169052791580557,-3.5847044071435925
1772871610220553500,8.038553466796875,11.646996126890182,-5.221169298911095,-4.267390610723197
1772871610230486300,8.048486328125,10.26780737582445,-4.530768867692351,-3.7607799359738823
1772871610240419300,8.05841943359375,8.916457648798822,-4.396429955351352,-2.4915730701059102
1772871610250352600,8.0683525390625,7.449013691174984,-4.663593283817172,-0.7709083846509456
1772871610260285700,8.07828564453125,5.634638456365466,-5.170035324001312,1.2426415150254964
1772871610270218500,8.088218505859375,4.175420475295186,-5.525309482118487,2.3765301021263
1772871610280151600,8.098151611328126,4.010261477276683,-5.596175746980309,2.190445804978907
1772871610290084600,8.108084716796874,4.797773790726065,-5.505305974009633,0.8395905834719538
1772871610300017700,8.118017578125,5.779378351211547,-5.220224711537361,-0.6788327430218458
1772871610309950500,8.127950439453125,6.544011893376708,-5.0138306168109175,-2.001217949108779
1772871610319883500,8.137883544921875,7.104027702838182,-4.825426352283358,-3.155053345695138
1772871610329816600,8.147816650390626,7.5553107503801575,-5.071833308446407,-4.039668189024925
1772871610339749600,8.15774951171875,7.594316480600834,-5.7971741201430556,-4.26209747275114
1772871610349682700,8.1676826171875,7.044741985654831,-6.720594787207245,-3.8103926926657556
1772871610359615500,8.177615478515625,5.997441256421804,-7.2685951647043225,-2.8833520815387366
1772871610369548500,8.187548583984375,4.645057510173321,-7.694214194157719,-1.927181529778242
1772871610379481600,8.197481689453125,3.8424148476094007,-7.358423904189467,-1.873489687079191
1772871610389414700,8.20741455078125,3.4955519594848155,-6.9643065129369495,-2.551119484052062
1772871610399347500,8.217347412109374,3.504986142784357,-6.264975171765685,-3.2853879908308383
1772871610409280500,8.227280517578125,3.6214451150417326,-4.536173357084393,-4.808969138479233
1772871610419213600,8.237213623046875,4.782046644762158,-2.5382483120411634,-5.732719475889206
1772871610429146600,8.247146728515625,4.889748894590139,-0.9906266558527946,-5.284519781315327
1772871610439079400,8.257079345703126,3.172725195986032,0.6918845322966575,-3.5918835049927234
1772871610449012500,8.267012451171874,0.6392676253527403,1.9341022689521312,-0.6777940476238727
1772871610458945500,8.276945556640625,-2.3673627530694006,3.4440503203064203,1.8595783583655952
1772871610468879400,8.28687939453125,-5.621020265379547,5.5711272304415695,4.086305437037349
1772871610478812400,8.2968125,-8.812380603730679,8.541063662716747,5.284385341280698
1772871610488745500,8.306745361328124,-12.622609922528266,10.593018988633155,6.390135921394824
1772871610498678500,8.316678466796875,-18.024806819719075,10.934880122947693,7.911888392311334
1772871610508611300,8.326611328125,-21.152986771535872,12.289381007480621,9.221628344097732
1772871610518544400,8.33654443359375,-20.69248172214031,11.163621074038744,8.334130638808011
1772871610528477400,8.3464775390625,-16.774886253601313,8.544287300938368,6.4790206580281255
1772871610538410500,8.356410400390626,-11.53027178169489,6.8294087976694104,4.914273679515719
1772871610548343300,8.36634326171875,-6.787269445598125,5.431282121899724,3.6608924515500663
1772871610558276400,8.3762763671875,-2.8906869544714686,3.9381145249545573,3.2512954593539236
1772871610568209400,8.38620947265625,-0.6761673232048749,2.4696043994039294,3.424797922825813
1772871610578142500,8.396142578125,-1.4558341838508844,1.7091501887500284,3.4569279220581053
1772871610588076500,8.40607666015625,-4.224366584771872,1.637701155564189,3.866397488482296
1772871610598009600,8.416009521484375,-7.698348517483472,1.9761328999519348,4.2843706793576475
1772871610607942700,8.425942626953125,-11.271271301418542,3.25911694675982,4.154770193715393
1772871610617875500,8.43587548828125,-14.299563476550578,5.05791467320919,3.511751983657479
1772871610627808500,8.44580859375,-15.178513718247412,7.214461423456669,2.0083380102470514
1772871610637741600,8.455741455078124,-13.833713558995722,8.638869372430444,-0.6657695555701851
1772871610647674600,8.465674560546875,-12.176332135927677,9.089341688111423,-2.77411253914088
1772871610657607700,8.475607666015625,-10.710610764312744,8.85381619144678,-2.9249925441771745
1772871610667540500,8.48554052734375,-9.17360753277242,7.6801956056773655,-1.4326029458671807
1772871610677473500,8.4954736328125,-7.013264312851429,5.905313007822633,0.3267503666833043
1772871610687406600,8.505406494140624,-4.1875598259001965,3.83103946711421,1.3579367042005062
1772871610697339600,8.515339599609375,-1.2171359023690222,2.316404134726524,1.2965914241388439
1772871610707272400,8.5252724609375,1.2571943565130232,1.543847982868552,0.0884784939199686
1772871610717205500,8.53520556640625,3.2958091393411157,0.9885901815891265,-1.7223408019736408
1772871610727138600,8.545138671875,5.021299637517333,0.4974854112684726,-3.4837010704323648
1772871610737071600,8.555071533203124,5.773620810598135,-0.32342706747949124,-4.564003905557096
1772871610747004400,8.56500439453125,6.113803198045492,-1.242677755382657,-4.762939793232083
1772871610756937500,8.5749375,6.928036929681896,-2.369523730495572,-4.098810406084358
1772871610766870500,8.58487060546875,8.68579888138771,-3.8092180959284305,-2.407384674595296
1772871610776803600,8.594803466796876,10.689596033334732,-5.437609571355581,-0.5335810992613435
1772871610786736400,8.604736328125,12.786124075949191,-7.042626016414165,0.8934148203790188
1772871610796669400,8.61466943359375,14.748263521862029,-7.404362648543715,1.190634556673467
1772871610806602500,8.6246025390625,15.365806222140789,-7.06613373325169,0.1019789037451148
1772871610816535600,8.63453564453125,14.724973831689358,-6.473035738399624,-1.157862752406299
1772871610826468400,8.64446826171875,14.544506205379962,-5.154819050168991,-2.548145728938281
1772871610836401400,8.6544013671875,13.074794887346028,-4.417710059267282,-3.6248975935831664
1772871610846334500,8.66433447265625,10.782010113137959,-3.540861758285761,-4.237531771293282
1772871610856267500,8.674267578125,7.973792183038592,-3.33446240286231,-3.9236391326174136
1772871610866200300,8.684200439453125,5.111524098321795,-3.949192968329787,-2.7154659966439008
1772871610876133400,8.69413330078125,3.0184295372873544,-5.1683033856421705,-1.180489010234177
1772871610886066400,8.70406640625,1.9742980857402086,-6.504571278870105,0.018561200346052645
1772871610895999500,8.71399951171875,2.17140763477087,-7.283305242580175,0.3465317564740777
1772871610905933600,8.72393359375,3.2130127827107904,-7.21705027090609,-0.4693225621014833
1772871610915866600,8.73386669921875,4.681166934430599,-6.603444325554371,-2.241058970884979
1772871610925799700,8.743799560546876,6.24715309934914,-5.8165352386951445,-4.20630631968528
1772871610935732500,8.753732421875,7.6099764065474265,-5.224419825139641,-5.70854014340043
1772871610945665500,8.76366552734375,8.007312175324559,-5.265763058397174,-6.23450930635333
1772871610955598600,8.7735986328125,7.738059765625,-5.590961811724305,-5.8162499920129775
1772871610965531600,8.78353173828125,6.5497606661617755,-6.045830316537618,-4.766248187127709
1772871610975464700,8.793464599609376,4.8405619620949025,-6.395056426662206,-3.521854567737877
1772871610985397500,8.8033974609375,3.373732336977124,-6.62819415140748,-2.629237035216391
1772871610995330600,8.81333056640625,2.7483295708477495,-6.556262303140759,-2.1988117745250464
1772871611005263600,8.823263671875,2.214649979647994,-7.079443881201744,-1.6160563099890946
1772871611015196700,8.83319677734375,1.9955705908715724,-6.016932723355293,-1.622950745677948
1772871611025129500,8.84312939453125,3.558757480460405,-3.6096073777318,-3.1058135139688847
1772871611035062500,8.8530625,4.618342521727085,-2.5891426329761744,-3.1852605601713058
1772871611044995600,8.86299560546875,4.59485234054625,-1.0219681350558996,-2.296952707542479
1772871611054928600,8.8729287109375,3.6531127574592825,0.8105120807647704,-1.0752484743446111
1772871611064861400,8.882861328125,1.175790915545821,2.074357711860537,1.5047636344537139
1772871611074794500,8.89279443359375,-2.7017472678929564,3.7078380348592996,3.580813537184894
1772871611084727600,8.9027275390625,-6.886319602414965,6.166643976873159,4.358113960960507
1772871611094660600,8.91266064453125,-10.165210924702881,7.982940535134077,3.4770392744556067
1772871611104593400,8.922593505859375,-11.232109503853321,10.013052862554789,2.471388360211253
1772871611114526500,8.9325263671875,-11.908740352916716,10.858285543566941,2.847319521909952
1772871611124459500,8.94245947265625,-13.581487687420845,10.973658474153279,5.188142643100023
1772871611134392600,8.952392578125,-15.652022041600942,10.89885253175497,7.89002025937438
1772871611144325400,8.962325439453124,-17.94334784917235,10.376469995117187,10.649662666875123
1772871611154258400,8.972258544921875,-19.67716953784227,9.398260337767004,11.870831770282983
1772871611164191500,8.98219140625,-19.26336544934511,7.929234663909673,11.371477058011292
1772871611174124500,8.99212451171875,-15.971049412816763,8.15421655472815,8.394313012570143
1772871611184057600,9.0020576171875,-11.395834085154533,9.10643135460019,4.141770134627818
1772871611193990400,9.011990478515624,-7.091479186910391,9.527146245399116,0.17828414479047058
1772871611203923500,9.02192333984375,-4.466721635195612,9.10160378831327,-1.8027300974622367
1772871611213856500,9.0318564453125,-3.9786756679236888,7.935018508008122,-1.5749226278290152
1772871611223789600,9.04178955078125,-4.947540573823452,6.131293262028694,0.6683496351912618
1772871611233722400,9.051722412109376,-6.261264626809954,4.071287900647521,3.905366686084866
1772871611243655400,9.061655517578124,-7.634809819030761,2.6108079368174075,6.712171826776862
1772871611253589500,9.071589599609375,-8.055081057715416,2.422394319939613,7.293169049468636
1772871611263522300,9.081522216796875,-6.586556319117546,3.322487887430191,5.725141149589419
1772871611273455400,9.091455322265626,-4.18220209825933,4.459066152006387,2.928818532206118
1772871611283388400,9.101388427734374,-2.5886650785923004,5.532537679806351,0.11179010366350411
1772871611293321500,9.111321533203125,-2.018762665888667,5.680093801116943,-1.8387264167338608
1772871611303254300,9.121254150390625,-1.664627740934491,5.038365338608623,-3.1753067369118333
1772871611313187300,9.131187255859375,-0.9056371730923652,4.038309760153293,-4.200904168380797
1772871611323120400,9.141120361328126,0.4781190320193767,1.8986364032953977,-4.733874150006473
1772871611333053400,9.151053466796874,1.9776830520033835,-0.6028413902312517,-4.453286691822111
1772871611342986200,9.160986328125,3.641258069014549,-2.997734539783001,-3.6119063023239373
1772871611352919300,9.170919189453125,5.739054524129629,-4.571851404187083,-2.6604037423744797
1772871611362852400,9.180852294921875,7.746581510254741,-6.1344777372837065,-1.8404262063890695
1772871611372785400,9.190785400390626,9.65131213877201,-7.2388698885262,-1.4501415251672267
1772871611382718200,9.20071826171875,11.299728165096043,-7.7153242022037505,-1.4071566621825098
1772871611392651300,9.2106513671875,12.200673965501785,-7.719356818720698,-1.736094894298911
1772871611402584300,9.220584228515625,12.53473991589546,-6.861490866106748,-2.260057101343572
1772871611412517400,9.230517333984375,12.205602654075621,-5.8130754536300895,-2.842023169067502
1772871611422450400,9.240450439453125,11.368043576431274,-4.94504466535449,-3.6111057995960114
1772871611432383200,9.25038330078125,10.264017335891722,-4.39221964417994,-4.039627564753592
1772871611442316300,9.26031640625,9.106309189525247,-4.333152538183331,-3.8819492778792974
1772871611452249300,9.270249267578125,8.052008810663223,-4.457430075237155,-3.4368519332349297
1772871611462182400,9.280182373046875,6.828287100163101,-4.644402261134982,-2.9982351827815172
1772871611472115200,9.290115234375,5.90231557957232,-4.8543315442502495,-2.694945186662674
1772871611482048300,9.30004833984375,5.504128162401915,-5.219207643449306,-2.459618719701469
1772871611491981300,9.309981201171874,5.484865243527293,-5.475353318816423,-2.453095163151622
1772871611501914400,9.319914306640625,5.589800366729498,-5.546762019991874,-2.6473113288283345
1772871611511847400,9.329847412109375,5.607099876576662,-5.506296154090762,-2.9656679611757397
1772871611521780500,9.339780517578125,5.729491161492467,-5.454772303080558,-3.1716865005880592
1772871611531713500,9.349713623046876,5.707062472063303,-5.53293164756,-3.309257234457135
1772871611541646600,9.359646484375,5.605663706293702,-5.500069826921821,-3.2629145854771133
1772871611551579400,9.369579345703125,5.514311118242144,-5.603369457876682,-3.303214447161555
1772871611561512400,9.379512451171875,5.432751025408506,-5.606419493097066,-3.6511268443390725
1772871611571445500,9.389445556640625,5.083368847939372,-5.733496305480599,-3.791723063509166
1772871611581378600,9.399378662109376,4.656742687270045,-5.83230213214755,-3.542097437560558
1772871611591311400,9.409311279296874,3.9802877792954443,-5.774827848300338,-3.222032832251489
1772871611601245400,9.419245361328125,3.0632044985592364,-5.642753373759985,-2.882605354824662
1772871611611178500,9.429178466796875,2.3780384608626366,-5.292342437765002,-2.359612577334046
1772871611621111300,9.439111328125,2.7841093247592448,-3.760644911417365,-2.683624458964169
1772871611631044400,9.44904443359375,4.075623299503326,-2.826832614198327,-3.2902348463401196
1772871611640977400,9.458977294921874,4.6988440454185,-2.62065011639595,-2.1933882881715894
1772871611650910500,9.468910400390625,4.454089532637596,-1.514355346402526,-0.911301482464373
1772871611660843300,9.47884326171875,3.3305770858615635,-0.27663199855685233,0.5057257086083292
1772871611670776300,9.4887763671875,1.3823305562227963,0.8613777601271867,2.176081471800804
1772871611680709400,9.49870947265625,-1.3844301588505505,2.2485586789906025,4.343908033214509
1772871611690642400,9.508642333984374,-5.1111342222213745,3.8070208781450985,6.102307406041025
1772871611700575200,9.5185751953125,-9.337296458238363,5.572286337348818,8.349312425848842
1772871611710508300,9.52850830078125,-13.305346687251328,8.390527648812531,9.963631536781786
1772871611720441300,9.53844140625,-16.377838069593906,11.058819806349277,9.803539174503088
1772871611730374400,9.54837451171875,-16.161222440582513,13.44676708228588,7.619349215048551
1772871611740307500,9.558307373046874,-13.856332218039036,14.046000218892097,3.8095577031463383
1772871611750240300,9.568240234375,-10.877971071767806,13.937456842064856,0.481027905203402
1772871611760173300,9.57817333984375,-8.925573852190375,12.92352179133892,-1.5528583877980708
1772871611770106400,9.5881064453125,-8.750168769967555,11.112967576122283,-1.4605059750542044
1772871611780039400,9.598039306640626,-9.890300927633046,8.712503932961821,0.43253333888649936
1772871611789972200,9.60797216796875,-10.700728837245702,5.984091945505142,3.737131057099998
1772871611799905300,9.6179052734375,-10.616555347043276,3.5711031672924753,6.8220087505459786
1772871611809838300,9.62783837890625,-9.867712663727998,2.3151339686602355,8.264635077777504
1772871611819771400,9.637771484375,-7.866255352905392,2.5229396837502716,7.667308067053556
1772871611829704200,9.6477041015625,-5.66357462799251,3.8902076953977343,5.566233613181113
1772871611839637200,9.65763720703125,-4.637870229017734,5.926568561819195,3.181763365705311
1772871611849570300,9.6675703125,-5.372786093789339,8.319507070171833,1.0576634255543351
1772871611859503400,9.67750341796875,-7.730638675713538,10.509548093742131,-0.6056187459900975
1772871611869436200,9.687436279296875,-10.749219604170321,11.779186921286582,-1.460728677894175
1772871611879369500,9.697369384765626,-12.569872019553184,11.591714384651183,-1.307161917991936
1772871611889302500,9.707302490234374,-12.310497445267439,9.605288054221868,-0.4834162616446614
1772871611899235600,9.717235595703125,-9.957704484820365,6.691512485107779,1.2490794391185045
1772871611909168400,9.72716845703125,-6.142748137500882,3.4558594160437583,3.122693044838309
1772871611919101400,9.737101318359375,-1.4864730677425861,0.04710311195850372,4.188994534878432
1772871611929034500,9.747034423828126,3.1359096692860127,-2.7802567409843206,4.389762606416642
1772871611938967600,9.756967529296874,6.668487583351135,-4.244951107639074,3.1416710092917084
1772871611948900400,9.766900390625,8.610793032503128,-4.836759062680602,1.1453846713662146
1772871611958833400,9.77683349609375,9.356076562032102,-4.559761153420806,-0.9202455441594123
1772871611968766500,9.786766357421875,9.90027404011488,-3.9035681122303005,-2.6158392089828846
1772871611978699500,9.796699462890626,10.315728818428516,-3.710325175499916,-3.9956814555212854
1772871611988633300,9.80663330078125,10.857758304822445,-3.781141171479225,-5.079776960927248
1772871611998566400,9.81656640625,11.594151840931177,-4.096599452036619,-5.730642085093259
1772871612008499500,9.82649951171875,11.904155363214015,-4.663618418258428,-6.104376029008627
1772871612018432300,9.836432373046875,11.43489066877961,-5.495923228636384,-5.909083758533001
1772871612028365300,9.846365234375,10.135546438801288,-6.826311416175961,-4.873875910414755
1772871612038298400,9.85629833984375,8.297593344527483,-8.105767288857699,-3.2113620928943156
1772871612048231400,9.8662314453125,6.766757403445244,-8.457035718464851,-1.6897642280176282
1772871612058164500,9.87616455078125,5.798481695610285,-7.999798730954527,-0.9390110349059104
1772871612068097300,9.88609716796875,5.977532440859079,-6.816832224690914,-1.5654647713929415
1772871612078030300,9.8960302734375,6.987227369797229,-5.349682866099476,-3.180548144696653
1772871612087963400,9.90596337890625,7.896445323985815,-4.0406764892846345,-4.8635675746291875
1772871612097896400,9.915896484375,8.363606324139237,-3.173945677691698,-5.989412263745069
1772871612107829200,9.925829345703125,8.368323415789007,-2.8602181664496658,-6.327320861041546
1772871612117762300,9.93576220703125,7.728980971634387,-3.314002383157611,-5.703889102724194
1772871612127695400,9.9456953125,6.660435794320702,-4.347203859889507,-4.305732616338133
1772871612137628400,9.95562841796875,5.336856702274083,-5.39560992001593,-2.8944600432693957
1772871612147561200,9.965561279296875,4.1803930030107495,-6.1192182088315485,-2.1190134306669233
1772871612157494300,9.975494384765625,3.7623978925645347,-6.211068809533119,-2.082707899315655
1772871612167427300,9.98542724609375,4.137286267212033,-6.0446425680577756,-2.4181509832814334
1772871612177360400,9.9953603515625,4.65906499273777,-6.083672263675928,-2.891700515428185
1772871612187293000,10.00529296875,5.825349828791618,-5.933099424892664,-3.341700537422299
1772871612197226000,10.01522607421875,7.293388245177269,-5.735567851057648,-3.9213267640218135
1772871612207159000,10.025158935546875,8.232474098885058,-5.3765685349375,-4.423984024970233
1772871612217092000,10.035092041015625,8.73193870127201,-4.865841364780068,-4.791446925792098
1772871612227025200,10.045025146484376,8.376649930107593,-4.579766415095329,-4.823192894142866
1772871612236958000,10.0549580078125,7.254177932295203,-4.290623894533515,-4.360830234181881
1772871612246891000,10.06489111328125,6.148482297238707,-3.0037019237548113,-4.298551472662389
1772871612256824000,10.074823974609375,6.580017857259511,-1.3970938255906105,-4.7425399792820215
1772871612266757400,10.08475732421875,6.676467476189136,-1.3665093022346495,-2.910480034700036
1772871612276690200,10.094690185546876,4.929897949627041,-0.9921113414525985,0.7895876584187149
1772871612286623200,10.104623291015624,1.3242840254455803,0.31228900287151334,4.564449895758926
1772871612296556300,10.114556396484375,-3.424080129945278,2.1850375161945816,8.693138722756505
1772871612306489300,10.1244892578125,-8.310258764833211,4.7755713112682106,12.231651287567615
1772871612316422100,10.134422119140625,-11.620119810402393,9.079202571412921,12.214509598630666
1772871612326355200,10.144355224609376,-12.963982396543026,13.359507316505908,11.09949200847745
1772871612336288300,10.154288330078124,-15.051209526848792,15.137957251453399,9.265824628698825
1772871612346221300,10.16422119140625,-17.412746934765575,17.250363246679306,5.8411786815643305
1772871612356154000,10.174154052734375,-21.273575975465775,17.735581881570816,4.656187391474843
1772871612366088200,10.184088134765625,-25.70778708767891,14.23631820808649,8.365925122475623
1772871612376020200,10.194020263671876,-25.405364814305305,10.370131439745425,10.437060365158318
1772871612385953300,10.203953369140624,-19.186148938673732,7.628392937725782,8.483422205609083
1772871612395887000,10.21388720703125,-12.137960611957311,5.157974299329519,5.889664772313833
1772871612405820200,10.223820068359375,-6.786722917631268,3.3054572576522827,4.62769428744018
1772871612415753200,10.233753173828125,-3.204917739060521,2.320879234313965,4.005213838498294
1772871612425686000,10.24368603515625,-0.8858668892174959,2.5572423508465287,3.027677258104086
1772871612435619000,10.253619140625,-0.42328561806976794,2.857560345417261,1.9170315994247793
1772871612445552000,10.26355224609375,-2.1911849329084157,3.044919484806061,1.6992995336040853
1772871612455485200,10.273485107421875,-5.442119157734513,3.539199962553382,2.9350208939775824
1772871612465418000,10.28341796875,-9.138499394512175,4.118649371281266,4.396133018231391
1772871612475351000,10.29335107421875,-12.056063249993324,4.921514736685157,5.003150817364454
1772871612485284000,10.3032841796875,-12.680682172268629,5.4452767449826,4.047402290408313
1772871612495217200,10.313217041015625,-11.175085886383055,5.842150741466879,2.2015973135903475
1772871612505150000,10.32314990234375,-9.107285341081022,5.976579085657,0.213351074257493
1772871612515083000,10.3330830078125,-7.021659800752997,5.4754637934535735,-1.5267016177564858
1772871612525016000,10.34301611328125,-4.244260787287354,4.45020187754929,-2.747357510945201
1772871612534949000,10.35294921875,-1.0195873773992061,2.933402060604095,-3.4008436312645673
1772871612544882200,10.362882080078125,2.106872911018133,1.1103075127661228,-3.5379978932872413
1772871612554815000,10.37281494140625,4.745457912555337,-0.41667467549741266,-3.517300557695329
1772871612564748000,10.382748046875,6.492212732556462,-1.8533464782387017,-3.457443178103864
1772871612574681000,10.39268115234375,8.278914363020657,-2.9937615444988013,-3.3663588855996727
1772871612584614100,10.4026142578125,10.316155519407987,-4.085484768304228,-3.202092160245776
1772871612594547000,10.412546875,12.62502750506401,-5.155349211522936,-3.153831402684748
1772871612604480000,10.42247998046875,14.58304022643566,-5.898648873758316,-3.6189296250894665
1772871612614413000,10.4324130859375,15.919874521374702,-6.305259835880994,-3.8140135135114193
1772871612624346000,10.44234619140625,16.77958697863817,-6.492891362470388,-4.028675085845589
1772871612634279200,10.452279052734376,16.908244922733306,-6.187239021134376,-3.9972070576533674
1772871612644212200,10.462212158203124,16.078972027397153,-5.769332758015394,-3.6495229162737726
1772871612654145300,10.472145263671875,14.526191965532302,-5.268139139878749,-3.201043820236623
1772871612664078300,10.482078369140625,12.75889704632759,-4.8012628018856045,-2.476369071233272
1772871612674011100,10.49201123046875,10.242916095674037,-4.61980558001697,-1.2047794018819928
1772871612683944200,10.501944091796876,7.369100196504593,-4.578848131206631,0.20587387024462223
1772871612693877200,10.511877197265624,4.874606270515918,-4.4630666198194024,0.7890443453222513
1772871612703810300,10.521810302734375,3.1203929512023922,-4.233397447967529,0.4198842851936817
1772871612713743000,10.5317431640625,1.7232845125645397,-4.082461621090769,-0.31716800708472725
1772871612723676200,10.54167626953125,0.9185440009385347,-4.0781852589458225,-1.3408464531898499
1772871612733609200,10.551609130859376,0.9187520907312631,-4.283523122617602,-2.4482328178122637
1772871612743542300,10.561542236328124,1.5650240418881176,-4.629556574180722,-3.453397994366288
1772871612753475000,10.57147509765625,2.265659451395273,-5.109339155498147,-4.163149607264995
1772871612763408100,10.581408203125,2.889862778607011,-5.676453398787975,-4.649417458948493
1772871612773341200,10.591341064453125,3.4094664981812235,-6.368936481499672,-4.808643852047622
1772871612783274200,10.601274169921876,3.8575715002089734,-7.077877362537383,-4.5522310501769185
1772871612793207300,10.611207275390624,4.271828008648753,-7.625358684596419,-4.3594498857393855
1772871612803140000,10.62114013671875,4.676829782009125,-7.81213739374876,-4.436060831733048
1772871612813073200,10.6310732421875,4.874069679421186,-7.667471148660779,-4.602883963571489
1772871612823007200,10.64100732421875,4.896887660428882,-7.307712538605928,-4.66697240486145
1772871612832940000,10.65093994140625,4.669912549966574,-7.19679600290656,-4.418125069808959
1772871612842873000,10.660873046875,4.1572038506031035,-7.384290166851878,-3.702507195225358
1772871612852806100,10.67080615234375,2.9749715038329363,-6.960116075509786,-2.9745538629427553
1772871612862739200,10.6807392578125,2.3707781144708395,-5.183184143909812,-2.9570798733115193
1772871612872672000,10.690672119140626,1.9187094695091247,-3.2747534918308254,-2.4783438784375784
1772871612882605000,10.70060498046875,1.2649527155548332,-1.2952525767505167,-0.8334887594655156
1772871612892538000,10.7105380859375,0.5475000267595053,1.5257693053424357,1.0217942397937179
1772871612902471200,10.72047119140625,-0.6783382375031709,4.423977887490391,2.513921972297132
1772871612912404000,10.730404052734375,-2.8034797956615685,7.3614903060227626,3.608974632786214
1772871612922337000,10.7403369140625,-6.319906785392761,10.007458988070487,4.683007301600277
1772871612932270000,10.75027001953125,-10.50712466598749,11.764485026717185,6.711736357969046
1772871612942203100,10.760203125,-14.159114556896686,13.832869509387015,9.062419778916238
1772871612952136000,10.770135986328125,-16.15058063505888,14.918513705539702,7.958647805398702
1772871612962069000,10.780069091796875,-16.021195545732976,15.507868422210215,4.839635787160694
1772871612972002000,10.790001953125,-16.487448783391713,14.628834009361267,1.8566902357086539
1772871612981935000,10.79993505859375,-18.430300175988673,11.89847614853382,3.1414535671487447
1772871612991868000,10.809867919921874,-19.865773708856103,9.17607246158123,6.400975295317172
1772871613001801000,10.819801025390625,-17.858613217955828,7.056148345810175,7.809474312019348
1772871613011734300,10.829734375,-12.922483680462836,5.7416223287910215,6.44616935878396
1772871613021667300,10.839667236328125,-7.952874482694268,5.227716528597473,3.8071497652217743
1772871613031600000,10.84960009765625,-3.5395050829797983,5.212919941481948,1.1567927850872277
1772871613041533200,10.859533203125,-0.3371381974458694,4.627361109963059,-0.7050117248952389
1772871613051466200,10.86946630859375,1.456280758574605,3.27856866620481,-1.2005837037578224
1772871613061399300,10.8793994140625,1.6959101834267376,1.986636173787713,-0.8239201361313462
1772871613071332000,10.88933203125,0.8896908314198255,0.9812146843850612,-0.3416170964255929
1772871613081265200,10.89926513671875,0.1052531031101942,0.3866793502062559,-0.4130930176183581
1772871613091198200,10.9091982421875,-0.5719213513106107,-0.053417117410898204,-0.9998246923089027
1772871613101131300,10.91913134765625,-0.850509744632244,-0.4856581953525543,-1.954259506317973
1772871613111064300,10.929064208984375,-0.4058464074909687,-0.6527250728189945,-2.933058946254849
1772871613120997000,10.9389970703125,0.31580139490664005,-0.8948176729142665,-3.466919154718518
1772871613130930200,10.94893017578125,1.0590274073839188,-1.163439383494854,-3.5772298334792256
1772871613140863200,10.95886328125,1.7394342678546904,-1.2868769625931977,-3.336051425619423
1772871613150796300,10.96879638671875,2.380879821768403,-1.4421394204974174,-3.1275545133948324
1772871613160729000,10.97872900390625,2.8597862047731875,-1.782282060456276,-2.7303765655279157
1772871613170662100,10.988662109375,3.3097955791175364,-2.0860177545160052,-2.1561532208852467
1772871613180595200,10.99859521484375,3.7200013508617875,-2.394695581153035,-1.3726723549090325
1772871613190528300,11.0085283203125,4.021079223889112,-2.6786393640279766,-0.7084042899429798
1772871613200461000,11.0184609375,4.461842046460509,-2.701024798837304,-0.31594518729150295
1772871613210394000,11.02839404296875,4.859190674719214,-2.5805384707599877,-0.13356953540369867
1772871613220327200,11.0383271484375,5.255663689187169,-2.4975650039970874,-0.1133162903174758
1772871613230260200,11.04826025390625,5.476172818505764,-2.331936050379276,-0.27176892256513235
1772871613240193000,11.058193115234374,5.368372369000316,-2.158104501083493,-0.3351471697591245
1772871613250126000,11.0681259765625,4.851460372728109,-1.8567963264316318,-0.39805034678727386
1772871613260059100,11.07805908203125,4.263736472129821,-1.355683956837654,-0.44341552903726694
1772871613269992200,11.0879921875,3.6985967437833547,-0.8766840503305197,-0.6308497794888913
1772871613279926300,11.09792626953125,3.420603978267312,-0.47759822301566596,-0.6597828823760151
1772871613289859300,11.107859375,3.170045747643709,-0.19005553886592386,-0.3860650177001953
1772871613299792400,11.11779248046875,2.7603783205598593,0.10412322229743003,-0.2017510912261903
1772871613309725200,11.12772509765625,2.5078800617843866,0.3972214947476983,0.11796937682032585
1772871613319658200,11.137658203125,2.3762317037016154,0.40551615262329577,1.0494261969543992
1772871613329591300,11.14759130859375,1.6463210998713969,-0.4502876067638397,3.823978150425851
1772871613339524400,11.1575244140625,1.4802373882234097,-0.633259032587707,3.5561832460582252
1772871613349457200,11.16745703125,2.456377253562212,0.012122983992099762,2.65079887868315
1772871613359390200,11.17739013671875,1.6775544425249098,-0.1317921504676342,2.4572101972550153
1772871613369323300,11.1873232421875,1.1877712761968373,0.4625339248746633,1.3854535105489194
1772871613379256300,11.19725634765625,-0.05271452209949493,0.8751450041949749,1.0332613902255892
1772871613389189000,11.207189208984374,-1.099227315825224,0.8853063327252865,0.8566086460292339
1772871613399122200,11.2171220703125,-1.3769289894402026,1.1473825671851634,0.4270144293345511
1772871613409055200,11.22705517578125,-1.1659165872633457,1.1272902117490768,0.1979305100247264
1772871613418988300,11.23698828125,-0.6354027666181326,0.950129225769639,-0.18931757998019455
1772871613428921300,11.24692138671875,-0.036242110726237294,0.6337497387140989,-0.43456469858363267
1772871613438854100,11.256854248046874,0.3325806802719831,0.23859365206360816,-0.4104014404468238
1772871613448787200,11.266787109375,0.38877719926834103,-0.1767600039631128,-0.16153379325866699
1772871613458720300,11.27672021484375,-0.023345804274082182,-0.6796703628897667,0.507970711056143
1772871613468653300,11.2866533203125,-0.31986557560563084,-1.0523860696732996,1.0607511624366044
1772871613478586000,11.296586181640626,-0.3335311128646135,-1.1370581570476292,1.2438253179825842
1772871613488519200,11.306519287109374,-0.3860048119455576,-0.9785159468203782,0.9470467495843767
1772871613498452200,11.3164521484375,-0.5444236880540847,-0.5770686510711908,0.5394285101152956
1772871613508385300,11.32638525390625,-0.6830559136748313,-0.1934527800887823,0.26114509108960626
1772871613518318000,11.336318115234375,-0.7588309933662414,-0.03676759590506554,0.2612161104992032
1772871613528251100,11.346251220703126,-0.7638894457995891,-0.1864373483687639,0.36814781434610483
1772871613538184200,11.35618408203125,-0.6180062261372804,-0.6132990713596344,0.8452215750962495
1772871613548117200,11.3661171875,-0.36430326774716376,-1.257155778068304,1.4657448986209929
1772871613558050000,11.376050048828125,-0.22834113811850545,-1.5983423741221428,1.7629584974355994
1772871613567983000,11.385983154296875,-0.3574035713613033,-1.5233955619484185,1.445280933393538
1772871613577916200,11.395916259765626,-0.6134913790613412,-1.1303367398381232,0.7455148540668189
1772871613587849200,11.40584912109375,-0.7666250082433224,-0.7714818006247282,0.09423618066385388
1772871613597782000,11.415781982421874,-0.7162848140597343,-0.5212041405081749,-0.44252983224391934
1772871613607715000,11.425715087890625,-0.6803565915882587,-0.25167466743290423,-0.8653362884946167
1772871613617648000,11.435648193359375,-0.7565577877372502,0.0030728315740823743,-1.1986239479921756
1772871613627581200,11.445581298828126,-0.7906400900810957,0.1817500673353672,-1.3172059037528931
1772871613637514200,11.45551416015625,-0.7181301496654748,0.17499825498759747,-1.14788803248927
1772871613647447000,11.465447021484374,-0.36627719816863535,-0.03439092990159988,-0.8716589156448841
1772871613657380000,11.475380126953125,0.0371481196552515,-0.20633271992802618,-0.5526641315244137
1772871613667313200,11.485313232421875,0.30478958702683445,-0.30788463043272496,-0.28984584652557965
1772871613677246200,11.49524609375,0.5744342109143734,-0.3107709995239973,-0.24346388844847677
1772871613687179300,11.50517919921875,0.8201134373247623,-0.25684593259096145,-0.41915611704960465
1772871613697112300,11.5151123046875,0.8752601550072431,-0.01165770456790924,-0.6798192698411644
1772871613707045400,11.52504541015625,0.6430044737935066,0.18156068224310873,-0.8835930990666151
1772871613716978400,11.534978515625,0.0418231257289648,0.3262801188230514,-0.8203631743021309
1772871613726911200,11.5449111328125,-0.5313578702539206,0.4161813390225172,-0.7180670213013887
1772871613736844300,11.55484423828125,-0.8582593358457088,0.35995091775655746,-0.4137235706068575
1772871613746777300,11.56477734375,-0.7925555683135986,0.09127718472778797,0.02200797979906201
1772871613756710400,11.57471044921875,-0.34196401016712186,-0.22286182992458342,0.1921080874815583
1772871613766643200,11.584643310546875,0.11060030935704708,-0.42497079467773435,0.07402268306612968
1772871613776576300,11.594576171875,0.3660352061063051,-0.403958401787281,-0.17449249742254613
1772871613786509300,11.60450927734375,0.4864414546847343,-0.3455664185732603,-0.31905411309227344
1772871613796442400,11.6144423828125,0.5057908827990293,-0.37877778330147266,-0.26209990759640933
1772871613806375200,11.624375244140625,0.48939387474954127,-0.38515082546472545,-0.1788107990130782
1772871613816309200,11.634309326171875,0.2579202838242054,-0.25347557937502857,-0.1443326292194426
1772871613826242300,11.6442421875,-0.1754284630984068,-0.17938918342292307,-0.12111074358597397
1772871613836175000,11.654175048828124,-0.5762029741525649,-0.12212766554355621,0.10374985894039272
1772871613846108200,11.664108154296875,-1.0813654959201813,-0.020263035827875135,0.25317089734002945
1772871613856041200,11.674041259765625,-0.8171767993509769,0.17859598721861838,0.3020363427959382
1772871613865974300,11.683974365234375,-0.6652472852617501,-0.2510626730144024,0.41784123505875465
1772871613875907000,11.693906982421876,-0.42258477632403374,-0.34290041423439976,0.7700975066594778
1772871613885840100,11.703840087890624,-0.6352233183979987,-0.43295770177841186,0.811526664634794
1772871613895773200,11.713773193359375,-0.7397165430516004,-0.24498013823032377,0.4941514445401728
1772871613905706200,11.723706298828125,-0.48022857151925563,-0.07951485074162483,0.1319778822980821
1772871613915639000,11.73363916015625,-0.2593079387903213,-0.1493938581317663,0.11253653811663389
1772871613925572000,11.743572021484376,-0.11107494113147258,-0.4862637600302696,0.41481662654057144
1772871613935505200,11.753505126953126,-0.30544249797761436,-0.6663532006770372,0.6734187551490962
1772871613945438200,11.763438232421874,-0.7780845598906279,-0.6309264979869127,0.5245733246803284
1772871613955371300,11.773371337890625,-0.8745774334400892,-0.3687333591490984,0.13109466972276568
