time,seconds_elapsed,z,y,x
1772871705384025000,0.055025146484375,-0.8849945068359375,0.2737884521484375,0.2967376708984375
1772871705393958100,0.064958251953125,-0.8741607666015625,0.27435302734375,0.2850341796875
1772871705403890000,0.074889892578125,-0.8689727783203125,0.2713165283203125,0.2843017578125
1772871705413823000,0.084822998046875,-0.8627166748046875,0.2705078125,0.279327392578125
1772871705423755000,0.094755126953125,-0.857574462890625,0.27618408203125,0.2591400146484375
1772871705433687800,0.104687744140625,-0.844024658203125,0.283416748046875,0.2435302734375
1772871705443620900,0.114620849609375,-0.8403778076171875,0.286590576171875,0.2220001220703125
1772871705453553000,0.124552978515625,-0.831695556640625,0.28826904296875,0.2003936767578125
1772871705463486000,0.13448583984375,-0.7977447509765625,0.28704833984375,0.200225830078125
1772871705473419000,0.1444189453125,-0.760772705078125,0.289459228515625,0.2065582275390625
1772871705483351000,0.15435107421875,-0.738311767578125,0.2709808349609375,0.25
1772871705493284000,0.1642841796875,-0.7116241455078125,0.2410736083984375,0.301910400390625
1772871705503216000,0.174216064453125,-0.6299591064453125,0.230010986328125,0.3296966552734375
1772871705513149000,0.18414892578125,-0.5967864990234375,0.1937255859375,0.337860107421875
1772871705523082000,0.19408203125,-0.5674591064453125,0.171478271484375,0.33050537109375
1772871705533014000,0.204013916015625,-0.533935546875,0.188720703125,0.310760498046875
1772871705542947000,0.213947021484375,-0.587066650390625,0.232147216796875,0.321685791015625
1772871705552880000,0.223880126953125,-0.6692047119140625,0.2633514404296875,0.3472747802734375
1772871705562812200,0.233812255859375,-0.7591552734375,0.2830657958984375,0.389129638671875
1772871705572745000,0.243744873046875,-0.900360107421875,0.2932281494140625,0.395843505859375
1772871705582677000,0.253677001953125,-0.9248199462890625,0.325531005859375,0.3161773681640625
1772871705592610000,0.263610107421875,-0.91009521484375,0.374267578125,0.23760986328125
1772871705602543000,0.273543212890625,-0.8806915283203125,0.4091796875,0.1862335205078125
1772871705612475000,0.283474853515625,-0.8832855224609375,0.3883209228515625,0.194244384765625
1772871705622408000,0.293407958984375,-0.865447998046875,0.36956787109375,0.1960601806640625
1772871705632340000,0.303340087890625,-0.9237823486328125,0.3680267333984375,0.2363128662109375
1772871705642273000,0.31327294921875,-0.9683380126953125,0.403778076171875,0.2178802490234375
1772871705652205800,0.323205810546875,-1.036651611328125,0.4871063232421875,0.203765869140625
1772871705662138000,0.33313818359375,-1.1121978759765625,0.5557861328125,0.1393280029296875
1772871705672071000,0.34307080078125,-1.1658172607421875,0.616302490234375,0.074310302734375
1772871705682004000,0.35300390625,-1.1870880126953125,0.654754638671875,0.0134429931640625
1772871705691936000,0.36293603515625,-1.1322784423828125,0.650909423828125,-0.020599365234375
1772871705701869000,0.372869140625,-1.0226593017578125,0.6147308349609375,-0.040191650390625
1772871705711801000,0.382801025390625,-0.8994140625,0.57611083984375,-0.0553436279296875
1772871705721734100,0.392734130859375,-0.8287506103515625,0.563385009765625,-0.0135498046875
1772871705731667000,0.4026669921875,-0.7951812744140625,0.5933380126953125,0.0166168212890625
1772871705741599000,0.412598876953125,-0.776031494140625,0.5862579345703125,0.007293701171875
1772871705751532000,0.422531982421875,-0.78240966796875,0.5729522705078125,-0.0286712646484375
1772871705761465000,0.432465087890625,-0.8072509765625,0.584930419921875,-0.05291748046875
1772871705771397000,0.442397216796875,-0.840179443359375,0.569671630859375,-0.0329437255859375
1772871705781330200,0.452330078125,-0.8573455810546875,0.5667877197265625,-0.0152130126953125
1772871705791262000,0.462261962890625,-0.874359130859375,0.564727783203125,-0.0372467041015625
1772871705801195000,0.472195068359375,-0.827728271484375,0.54095458984375,-0.072021484375
1772871705811127800,0.4821279296875,-0.7336273193359375,0.499267578125,-0.101715087890625
1772871705821059800,0.492059814453125,-0.673095703125,0.4895782470703125,-0.0887908935546875
1772871705830993000,0.501992919921875,-0.6242828369140625,0.4879150390625,-0.0700225830078125
1772871705840925000,0.511925048828125,-0.61822509765625,0.49560546875,-0.0306243896484375
1772871705850858000,0.52185791015625,-0.6558380126953125,0.49615478515625,-0.039947509765625
1772871705860791000,0.531791015625,-0.7164306640625,0.4754638671875,-0.0437469482421875
1772871705870723000,0.54172314453125,-0.77630615234375,0.4272613525390625,-0.0540313720703125
1772871705880656100,0.55165625,-0.805877685546875,0.371246337890625,-0.0709991455078125
1772871705890589000,0.5615888671875,-0.8036346435546875,0.3622894287109375,-0.0587921142578125
1772871705900521000,0.57152099609375,-0.78558349609375,0.432525634765625,-0.0160675048828125
1772871705910454000,0.5814541015625,-0.7544708251953125,0.4996490478515625,0.0464935302734375
1772871705920386000,0.591385986328125,-0.7338714599609375,0.4986572265625,0.0428009033203125
1772871705930319000,0.601319091796875,-0.6975555419921875,0.5040130615234375,0.04449462890625
1772871705940252200,0.611252197265625,-0.73553466796875,0.552978515625,0.0792694091796875
1772871705950184200,0.62118408203125,-0.82373046875,0.647003173828125,0.1239471435546875
1772871705960117000,0.631116943359375,-0.9090423583984375,0.72760009765625,0.1832427978515625
1772871705970049000,0.641049072265625,-0.95941162109375,0.7916259765625,0.2241058349609375
1772871705979981800,0.65098193359375,-0.835357666015625,0.842926025390625,0.293975830078125
1772871705989915000,0.660914794921875,-0.756744384765625,0.8717041015625,0.327484130859375
1772871705999847000,0.670846923828125,-1.1226806640625,0.791748046875,0.23138427734375
1772871706009780000,0.680780029296875,-0.9748992919921875,0.8363494873046875,0.3096160888671875
1772871706019713000,0.690713134765625,-0.996917724609375,0.9663543701171875,0.359527587890625
1772871706029645000,0.70064501953125,-1.0436248779296875,0.9622955322265625,0.3293304443359375
1772871706039577900,0.710577880859375,-0.9979400634765625,0.9783172607421875,0.3284149169921875
1772871706049510000,0.720510009765625,-1.01043701171875,1.022003173828125,0.3260498046875
1772871706059443000,0.73044287109375,-1.05645751953125,1.04266357421875,0.3484344482421875
1772871706069376000,0.7403759765625,-1.141387939453125,1.05352783203125,0.383880615234375
1772871706079308000,0.75030810546875,-1.2456512451171875,1.05615234375,0.441497802734375
1772871706089241000,0.760240966796875,-1.3683013916015625,1.0378265380859375,0.50836181640625
1772871706099173000,0.770173095703125,-1.5059814453125,1.002685546875,0.554351806640625
1772871706109106200,0.780106201171875,-1.636932373046875,1.00885009765625,0.5586090087890625
1772871706119039000,0.7900390625,-1.6904449462890625,1.0847930908203125,0.5110931396484375
1772871706128971000,0.799970947265625,-1.670928955078125,1.190032958984375,0.4164581298828125
1772871706138904000,0.809904052734375,-1.60321044921875,1.2968597412109375,0.298095703125
1772871706148837000,0.819837158203125,-1.53387451171875,1.402923583984375,0.1959686279296875
1772871706158769000,0.829768798828125,-1.4896697998046875,1.50537109375,0.105194091796875
1772871706168702000,0.839701904296875,-1.449920654296875,1.60125732421875,0.0627593994140625
1772871706178634000,0.849634033203125,-1.4273681640625,1.6193084716796875,-0.0377044677734375
1772871706188567000,0.859567138671875,-1.3912506103515625,1.5600433349609375,-0.125732421875
1772871706198499800,0.869499755859375,-1.317626953125,1.459136962890625,-0.1709442138671875
1772871706208431900,0.879431884765625,-1.217010498046875,1.324462890625,-0.228057861328125
1772871706218365000,0.889364990234375,-1.053070068359375,1.15185546875,-0.2527923583984375
1772871706228297000,0.899296875,-0.82196044921875,0.9989776611328125,-0.319000244140625
1772871706238230000,0.90922998046875,-0.501678466796875,0.8696746826171875,-0.3668670654296875
1772871706248163000,0.9191630859375,-0.1067047119140625,0.741455078125,-0.398162841796875
1772871706258095000,0.92909521484375,0.3295135498046875,0.5867156982421875,-0.45660400390625
1772871706268028000,0.93902783203125,0.7716064453125,0.3973541259765625,-0.4394073486328125
1772871706277961200,0.948961181640625,1.067626953125,0.2305145263671875,-0.306549072265625
1772871706287893000,0.95889306640625,1.1019439697265625,0.1029052734375,-0.1351470947265625
1772871706297826300,0.968826416015625,0.92755126953125,0.0464630126953125,0.0343170166015625
1772871706307758000,0.978758056640625,0.7141876220703125,0.0483856201171875,0.1930694580078125
1772871706317691100,0.988691162109375,0.5871429443359375,0.1112213134765625,0.258453369140625
1772871706327624200,0.998624267578125,0.488433837890625,0.134246826171875,0.25537109375
1772871706337556200,1.00855615234375,0.450103759765625,0.2028656005859375,0.1950531005859375
1772871706347489000,1.018489013671875,0.4030303955078125,0.2825927734375,0.062103271484375
1772871706357421000,1.028421142578125,0.3221893310546875,0.34722900390625,-0.0660400390625
1772871706367354000,1.03835400390625,0.3772125244140625,0.4097900390625,-0.2052154541015625
1772871706377287200,1.048287109375,0.372802734375,0.3640899658203125,-0.3363189697265625
1772871706387219200,1.05821923828125,0.29742431640625,0.3570404052734375,-0.3535614013671875
1772871706397152300,1.06815234375,0.0972900390625,0.202880859375,-0.1452789306640625
1772871706407085000,1.0780849609375,-0.266845703125,-0.259368896484375,0.436920166015625
1772871706417017300,1.088017333984375,-0.7799530029296875,-0.4478759765625,0.8885498046875
1772871706426950100,1.0979501953125,-1.2977752685546875,-0.2224273681640625,0.955810546875
1772871706436882200,1.107882080078125,-1.44171142578125,-0.0424957275390625,0.7103729248046875
1772871706446815200,1.117815185546875,-1.1954498291015625,0.05010986328125,0.2917633056640625
1772871706456748300,1.127748291015625,-0.69036865234375,0.154815673828125,-0.0803070068359375
1772871706466680300,1.137680419921875,-0.1873779296875,0.2014617919921875,-0.3758087158203125
1772871706476613400,1.14761328125,0.15966796875,0.2075653076171875,-0.513031005859375
1772871706486545200,1.157545166015625,0.3553466796875,0.22412109375,-0.513946533203125
1772871706496478200,1.167478271484375,0.380950927734375,0.1948089599609375,-0.4744415283203125
1772871706506411000,1.177410888671875,0.3140411376953125,0.2012176513671875,-0.4370269775390625
1772871706516343000,1.187343017578125,0.18133544921875,0.2860107421875,-0.4011383056640625
1772871706526276000,1.197276123046875,0.0305938720703125,0.4787139892578125,-0.3596038818359375
1772871706536209200,1.207209228515625,-0.1150970458984375,0.6966094970703125,-0.284820556640625
1772871706546141200,1.21714111328125,-0.311614990234375,0.8647003173828125,-0.11322021484375
1772871706556074200,1.22707421875,-0.564208984375,0.9902496337890625,0.1641845703125
1772871706566006300,1.23700634765625,-0.905792236328125,1.143524169921875,0.4916229248046875
1772871706575939000,1.24693896484375,-1.3824615478515625,1.3873138427734375,0.837860107421875
1772871706585872100,1.2568720703125,-1.9222412109375,1.77056884765625,0.9831085205078125
1772871706595804200,1.26680419921875,-2.1779937744140625,2.20440673828125,0.84222412109375
1772871706605737200,1.2767373046875,-2.326446533203125,2.510009765625,0.6165618896484375
1772871706615669200,1.286669189453125,-1.9880523681640625,2.847137451171875,0.0805206298828125
1772871706625602300,1.296602294921875,-1.718505859375,3.0868072509765625,-0.345245361328125
1772871706635535400,1.306535400390625,-1.6137542724609375,3.1312255859375,-0.7016448974609375
1772871706645467400,1.31646728515625,-1.5493927001953125,3.094482421875,-0.7727203369140625
1772871706655400200,1.326400146484375,-1.68182373046875,2.9388275146484375,-0.653961181640625
1772871706665333200,1.336333251953125,-1.7238311767578125,2.7940521240234375,-0.4464111328125
1772871706675265000,1.34626513671875,-1.7209014892578125,2.6100921630859375,-0.2250213623046875
1772871706685198000,1.356197998046875,-1.645416259765625,2.39971923828125,-0.0815582275390625
1772871706695130000,1.366130126953125,-1.4689178466796875,2.173248291015625,-0.0686187744140625
1772871706705063200,1.376063232421875,-1.2077484130859375,1.9307403564453125,-0.1433868408203125
1772871706714996200,1.385996337890625,-0.9496002197265625,1.670867919921875,-0.2246551513671875
1772871706724928300,1.39592822265625,-0.7373046875,1.4223785400390625,-0.2969818115234375
1772871706734861000,1.405861083984375,-0.5748748779296875,1.186920166015625,-0.3333892822265625
1772871706744793000,1.41579296875,-0.447662353515625,0.9754180908203125,-0.3218841552734375
1772871706754726100,1.42572607421875,-0.3422393798828125,0.7572784423828125,-0.2688140869140625
1772871706764659200,1.4356591796875,-0.2365264892578125,0.4995574951171875,-0.1455535888671875
1772871706774591200,1.44559130859375,-0.135009765625,0.2252197265625,0.013458251953125
1772871706784524300,1.455524169921875,0.0142669677734375,-0.015350341796875,0.1635589599609375
1772871706794457000,1.46545703125,0.203277587890625,-0.2430267333984375,0.289398193359375
1772871706804389000,1.47538916015625,0.4003143310546875,-0.45330810546875,0.4114532470703125
1772871706814322200,1.485322265625,0.567352294921875,-0.546051025390625,0.4138031005859375
1772871706824254200,1.495254150390625,0.7105712890625,-0.5223388671875,0.293182373046875
1772871706834187300,1.505187255859375,0.800811767578125,-0.438507080078125,0.1374969482421875
1772871706844120300,1.515120361328125,0.8014373779296875,-0.3391876220703125,-0.0028533935546875
1772871706854052000,1.525052001953125,0.6838836669921875,-0.184967041015625,-0.0946044921875
1772871706863985200,1.534985107421875,0.50299072265625,0.0035400390625,-0.1256866455078125
1772871706873917200,1.544917236328125,0.247467041015625,0.1233062744140625,-0.1392822265625
1772871706883850000,1.55485009765625,-0.0277557373046875,0.2085418701171875,-0.124359130859375
1772871706893783000,1.564782958984375,-0.27593994140625,0.268463134765625,-0.0758056640625
1772871706903715000,1.574715087890625,-0.4903717041015625,0.2833251953125,-0.0191497802734375
1772871706913648000,1.584648193359375,-0.635101318359375,0.2550201416015625,0.061279296875
1772871706923580200,1.594580078125,-0.6504058837890625,0.2123565673828125,0.1319427490234375
1772871706933513200,1.60451318359375,-0.5538177490234375,0.1444549560546875,0.1417083740234375
1772871706943446300,1.6144462890625,-0.40118408203125,0.0873565673828125,0.1229248046875
1772871706953378300,1.62437841796875,-0.236968994140625,0.0533294677734375,0.0529022216796875
1772871706963311000,1.63431103515625,-0.0629425048828125,0.04132080078125,-0.0254364013671875
1772871706973243100,1.6442431640625,0.0900115966796875,0.0403900146484375,-0.10296630859375
1772871706983176200,1.65417626953125,0.197113037109375,0.048492431640625,-0.174896240234375
1772871706993109200,1.664109130859375,0.2077789306640625,0.0333251953125,-0.2073974609375
1772871707003041300,1.674041259765625,0.1543426513671875,0.0184783935546875,-0.1935577392578125
1772871707012974300,1.683974365234375,0.0940093994140625,0.033599853515625,-0.1695098876953125
1772871707022907100,1.6939072265625,0.035797119140625,0.0458221435546875,-0.1420440673828125
1772871707032839200,1.703839111328125,-0.04144287109375,0.0577545166015625,-0.09747314453125
1772871707042772000,1.71377197265625,-0.1246185302734375,0.0941925048828125,-0.0561981201171875
1772871707052704000,1.7237041015625,-0.1840362548828125,0.1696014404296875,-0.0719757080078125
1772871707062637000,1.733636962890625,-0.1956939697265625,0.3149261474609375,-0.09295654296875
1772871707072570000,1.743570068359375,-0.2286529541015625,0.4511260986328125,-0.0343475341796875
1772871707082502100,1.753502197265625,-0.3853759765625,0.60321044921875,0.0776214599609375
1772871707092435200,1.763435302734375,-0.6065521240234375,0.9565582275390625,0.12969970703125
1772871707102367200,1.7733671875,-0.9515380859375,1.5197601318359375,0.0943603515625
1772871707112300000,1.783300048828125,-1.378753662109375,2.193572998046875,-0.1176910400390625
1772871707122233000,1.793233154296875,-1.9020538330078125,2.665283203125,-0.2841033935546875
1772871707132165000,1.8031650390625,-2.419464111328125,2.8200531005859375,-0.21771240234375
1772871707142098200,1.81309814453125,-2.6642913818359375,2.8354034423828125,-0.0604400634765625
1772871707152031200,1.82303125,-2.5864105224609375,2.6975250244140625,0.0599365234375
1772871707161963300,1.83296337890625,-2.4185333251953125,2.3941650390625,0.270599365234375
1772871707171896300,1.842896240234375,-2.118377685546875,2.13177490234375,0.6028900146484375
1772871707181828400,1.852828369140625,-1.815704345703125,1.9452667236328125,0.8556060791015625
1772871707191761200,1.86276123046875,-1.6033172607421875,1.88470458984375,0.8794403076171875
1772871707201694200,1.872694091796875,-1.5263214111328125,1.9264373779296875,0.7008819580078125
1772871707211626200,1.882626220703125,-1.5299530029296875,1.9771575927734375,0.4347381591796875
1772871707221559300,1.892559326171875,-1.567657470703125,2.0205078125,0.1997222900390625
1772871707231491000,1.902490966796875,-1.6484527587890625,2.035430908203125,-0.0175628662109375
1772871707241424100,1.912424072265625,-1.6996917724609375,1.979766845703125,-0.1520233154296875
1772871707251357200,1.922357177734375,-1.69256591796875,1.8473968505859375,-0.23663330078125
1772871707261289200,1.932289306640625,-1.6177215576171875,1.65692138671875,-0.31414794921875
1772871707271222000,1.942221923828125,-1.454925537109375,1.4646759033203125,-0.3409881591796875
1772871707281153800,1.95215380859375,-1.198486328125,1.277191162109375,-0.353607177734375
1772871707291086800,1.9620869140625,-0.8823394775390625,1.0539093017578125,-0.3765869140625
1772871707301020000,1.97202001953125,-0.5550994873046875,0.8092041015625,-0.38031005859375
1772871707310952000,1.981951904296875,-0.247283935546875,0.569061279296875,-0.345916748046875
1772871707320885000,1.991885009765625,0.009002685546875,0.3282470703125,-0.294403076171875
1772871707330817000,2.001817138671875,0.230804443359375,0.098175048828125,-0.2238311767578125
1772871707340750000,2.01175,0.4353790283203125,-0.1027679443359375,-0.1244659423828125
1772871707350683000,2.021682861328125,0.60711669921875,-0.2758636474609375,-0.02081298828125
1772871707360615000,2.031614990234375,0.66632080078125,-0.3334197998046875,0.0482177734375
1772871707370548000,2.0415478515625,0.630889892578125,-0.2424163818359375,0.067596435546875
1772871707380481000,2.05148095703125,0.5918731689453125,-0.1522064208984375,0.0868377685546875
1772871707390413000,2.0614130859375,0.5596160888671875,-0.0864105224609375,0.1106719970703125
1772871707400346000,2.07134619140625,0.502166748046875,-0.0346832275390625,0.1493072509765625
1772871707410278100,2.081278076171875,0.40423583984375,-0.0011444091796875,0.1871490478515625
1772871707420211200,2.091211181640625,0.3013763427734375,0.0506134033203125,0.2382659912109375
1772871707430144000,2.10114404296875,0.1827239990234375,0.07342529296875,0.2782440185546875
1772871707440076000,2.111075927734375,0.0484771728515625,0.0655975341796875,0.296966552734375
1772871707450009000,2.121009033203125,-0.08306884765625,0.0649871826171875,0.3122100830078125
1772871707459940900,2.13094091796875,-0.1896820068359375,0.0783843994140625,0.300079345703125
1772871707469874000,2.1408740234375,-0.2752838134765625,0.1038970947265625,0.2611541748046875
1772871707479807000,2.150806884765625,-0.335662841796875,0.1189422607421875,0.208465576171875
1772871707489739000,2.160739013671875,-0.3701324462890625,0.113006591796875,0.1311798095703125
1772871707499672000,2.170672119140625,-0.3654632568359375,0.098907470703125,0.050750732421875
1772871707509604000,2.18060400390625,-0.3374176025390625,0.0914764404296875,-0.0382537841796875
1772871707519537000,2.190536865234375,-0.2927093505859375,0.097259521484375,-0.1386871337890625
1772871707529470000,2.200469970703125,-0.2229766845703125,0.11785888671875,-0.222991943359375
1772871707539402000,2.210402099609375,-0.1262969970703125,0.1464691162109375,-0.2906036376953125
1772871707549335000,2.2203349609375,-0.0342254638671875,0.153961181640625,-0.346923828125
1772871707559267000,2.23026708984375,0.0572052001953125,0.1493682861328125,-0.3723907470703125
1772871707569200000,2.2402001953125,0.127166748046875,0.127044677734375,-0.372833251953125
1772871707579133000,2.2501328125,0.164459228515625,0.0863189697265625,-0.33050537109375
1772871707589065000,2.26006494140625,0.1201019287109375,0.0277862548828125,-0.2090301513671875
1772871707598998000,2.269998046875,-0.01336669921875,-0.0084075927734375,-0.045684814453125
1772871707608930000,2.279929931640625,-0.1545257568359375,0.03692626953125,0.0680694580078125
1772871707618863000,2.289863037109375,-0.1986236572265625,0.247222900390625,0.0534820556640625
1772871707628796200,2.299796142578125,-0.2306365966796875,0.486846923828125,0.1069488525390625
1772871707638728000,2.30972802734375,-0.3827972412109375,0.63531494140625,0.2403411865234375
1772871707648661000,2.319660888671875,-0.508941650390625,0.8590850830078125,0.3168487548828125
1772871707658593800,2.32959375,-0.5283355712890625,1.146484375,0.3055267333984375
1772871707668525800,2.33952587890625,-0.6110076904296875,1.4251708984375,0.2666015625
1772871707678459000,2.349458984375,-0.966461181640625,1.6908111572265625,0.29345703125
1772871707688391000,2.359390869140625,-1.7136383056640625,1.942596435546875,0.45794677734375
1772871707698324000,2.369323974609375,-2.4835968017578125,2.387725830078125,0.6027069091796875
1772871707708257000,2.379257080078125,-2.7170257568359375,2.8874664306640625,0.5688323974609375
1772871707718189000,2.38918896484375,-2.5221405029296875,2.9993438720703125,0.328948974609375
1772871707728122000,2.3991220703125,-2.0067291259765625,2.9521942138671875,0.0575714111328125
1772871707738054100,2.40905419921875,-1.507476806640625,2.6605224609375,-0.289794921875
1772871707747987000,2.418987060546875,-1.153106689453125,2.501922607421875,-0.3871002197265625
1772871707757920000,2.428919921875,-1.158172607421875,2.288299560546875,-0.3989715576171875
1772871707767852000,2.43885205078125,-1.376800537109375,2.167144775390625,-0.2470550537109375
1772871707777785000,2.44878515625,-1.676666259765625,2.1187286376953125,-0.0504302978515625
1772871707787717000,2.458717041015625,-1.9058380126953125,2.0927581787109375,0.1045684814453125
1772871707797650200,2.468650146484375,-1.9922332763671875,2.05902099609375,0.1528472900390625
1772871707807583000,2.4785830078125,-1.908203125,2.017730712890625,0.1073150634765625
1772871707817515000,2.488514892578125,-1.6990814208984375,1.956512451171875,-0.0342559814453125
1772871707827447800,2.49844775390625,-1.4778900146484375,1.85614013671875,-0.1678924560546875
1772871707837379800,2.5083798828125,-1.2788543701171875,1.74517822265625,-0.2405853271484375
1772871707847313000,2.51831298828125,-1.101287841796875,1.6192474365234375,-0.2462005615234375
1772871707857246000,2.528245849609375,-0.9109649658203125,1.4496002197265625,-0.22125244140625
1772871707867178000,2.538177978515625,-0.7059783935546875,1.196746826171875,-0.2025909423828125
1772871707877111000,2.548111083984375,-0.4576873779296875,0.87615966796875,-0.1608123779296875
1772871707887043000,2.55804296875,-0.146209716796875,0.431121826171875,0.009429931640625
1772871707896976000,2.567975830078125,0.0803375244140625,-0.0082855224609375,0.2288360595703125
1772871707906909000,2.577908935546875,0.193206787109375,-0.1564483642578125,0.3365020751953125
1772871707916841000,2.587841064453125,0.3267822265625,-0.1815185546875,0.3330841064453125
1772871707926774000,2.59777392578125,0.4552154541015625,-0.1712188720703125,0.260223388671875
1772871707936706000,2.6077060546875,0.5200042724609375,-0.303466796875,0.2291107177734375
1772871707946639000,2.61763916015625,0.708343505859375,-0.4112396240234375,0.2214508056640625
1772871707956572200,2.627572265625,0.8909759521484375,-0.2707061767578125,0.1255645751953125
1772871707966504200,2.637504150390625,0.9320220947265625,-0.11236572265625,-0.058746337890625
1772871707976437000,2.64743701171875,0.8961181640625,-0.0163421630859375,-0.2003326416015625
1772871707986368800,2.65736865234375,0.8373565673828125,0.0844573974609375,-0.2479095458984375
1772871707996301800,2.6673017578125,0.7098236083984375,0.1730194091796875,-0.238800048828125
1772871708006235100,2.677235107421875,0.497772216796875,0.2639312744140625,-0.1572723388671875
1772871708016167000,2.6871669921875,0.2325439453125,0.3469085693359375,-0.0422821044921875
1772871708026100000,2.697099853515625,-0.0812225341796875,0.3616943359375,0.1056976318359375
1772871708036033000,2.707032958984375,-0.360443115234375,0.3463592529296875,0.2532806396484375
1772871708045965000,2.716965087890625,-0.57098388671875,0.309234619140625,0.352020263671875
1772871708055897900,2.72689794921875,-0.6772003173828125,0.2743988037109375,0.383514404296875
1772871708065830000,2.736829833984375,-0.69146728515625,0.24798583984375,0.3388519287109375
1772871708075763000,2.746762939453125,-0.609771728515625,0.2096099853515625,0.21527099609375
1772871708085696000,2.756696044921875,-0.447265625,0.164276123046875,0.0648345947265625
1772871708095628000,2.7666279296875,-0.2910614013671875,0.1185455322265625,-0.0562896728515625
1772871708105561000,2.77656103515625,-0.1470184326171875,0.0859832763671875,-0.126373291015625
1772871708115493000,2.7864931640625,-0.066497802734375,0.0196380615234375,-0.1368408203125
1772871708125426200,2.79642626953125,-0.0379638671875,-0.0410308837890625,-0.1210784912109375
1772871708135359000,2.80635888671875,-0.021331787109375,-0.0725555419921875,-0.086517333984375
1772871708145291000,2.816291015625,-0.0128936767578125,-0.0984649658203125,-0.0569000244140625
1772871708155224000,2.82622412109375,-0.0262908935546875,-0.126434326171875,-0.045684814453125
1772871708165155800,2.83615576171875,-0.0675201416015625,-0.12078857421875,-0.03045654296875
1772871708175089200,2.846089111328125,-0.126617431640625,-0.0704498291015625,-0.051910400390625
1772871708185022200,2.856022216796875,-0.20025634765625,0.0208892822265625,-0.099029541015625
1772871708194954000,2.8659541015625,-0.244140625,0.13616943359375,-0.1492919921875
1772871708204887000,2.875886962890625,-0.23699951171875,0.349151611328125,-0.2067718505859375
1772871708214819000,2.885819091796875,-0.1697998046875,0.655548095703125,-0.282257080078125
1772871708224751900,2.895751953125,-0.1744842529296875,0.8969573974609375,-0.2301025390625
1772871708234685000,2.905684814453125,-0.328887939453125,1.09228515625,0.019561767578125
1772871708244617000,2.915616943359375,-0.671295166015625,1.3192138671875,0.3121337890625
1772871708254550000,2.925550048828125,-1.0253753662109375,1.712371826171875,0.455902099609375
1772871708264482000,2.93548193359375,-1.43695068359375,2.0989227294921875,0.48419189453125
1772871708274415000,2.9454150390625,-1.9319915771484375,2.3238372802734375,0.3827362060546875
1772871708284347600,2.95534765625,-2.470184326171875,2.4442291259765625,0.360076904296875
1772871708294279700,2.96527978515625,-2.372650146484375,2.536285400390625,0.258514404296875
1772871708304212500,2.97521240234375,-1.758209228515625,2.448822021484375,-0.0440826416015625
1772871708314144500,2.98514453125,-1.110748291015625,2.27301025390625,-0.3333282470703125
1772871708324077600,2.99507763671875,-0.6600189208984375,2.1254119873046875,-0.3483734130859375
1772871708334010600,3.0050107421875,-0.6379852294921875,1.9627532958984375,-0.1093292236328125
1772871708343942700,3.014942626953125,-0.9160919189453125,1.8724365234375,0.205657958984375
1772871708353875700,3.024875732421875,-1.2525177001953125,1.9239501953125,0.4238433837890625
1772871708363807500,3.034807373046875,-1.47467041015625,2.0442657470703125,0.46697998046875
1772871708373740500,3.044740478515625,-1.5743255615234375,2.17071533203125,0.3257598876953125
1772871708383673300,3.05467333984375,-1.6111602783203125,2.313201904296875,0.0973663330078125
1772871708393605400,3.06460546875,-1.615142822265625,2.347320556640625,-0.0771484375
1772871708403538400,3.074538330078125,-1.607421875,2.3348388671875,-0.186859130859375
1772871708413470500,3.084470458984375,-1.5454864501953125,2.242828369140625,-0.2214202880859375
1772871708423403500,3.094403564453125,-1.42254638671875,2.0776214599609375,-0.23248291015625
1772871708433336600,3.104336669921875,-1.2299346923828125,1.8813934326171875,-0.2337188720703125
1772871708443268600,3.1142685546875,-1.034454345703125,1.62823486328125,-0.2182464599609375
1772871708453201400,3.124201416015625,-0.869720458984375,1.3328704833984375,-0.1407623291015625
1772871708463133700,3.1341337890625,-0.717437744140625,1.04058837890625,-0.02593994140625
1772871708473066500,3.14406640625,-0.5307159423828125,0.765045166015625,0.0503997802734375
1772871708482999600,3.15399951171875,-0.3354644775390625,0.4989013671875,0.0687408447265625
1772871708492931600,3.163931640625,-0.14434814453125,0.2473602294921875,0.036224365234375
1772871708502864600,3.17386474609375,0.05694580078125,0.02008056640625,0.0269775390625
1772871708512797700,3.183797607421875,0.2216949462890625,-0.1279754638671875,0.0417633056640625
1772871708522729700,3.193729736328125,0.2939453125,-0.221099853515625,0.0637359619140625
1772871708532662500,3.20366259765625,0.3297119140625,-0.234588623046875,0.04998779296875
1772871708542594600,3.213594482421875,0.3684539794921875,-0.1732025146484375,-0.0337677001953125
1772871708552527600,3.223527587890625,0.4292144775390625,-0.1193389892578125,-0.0929718017578125
1772871708562460700,3.233460693359375,0.4780120849609375,-0.058441162109375,-0.1175384521484375
1772871708572392400,3.243392333984375,0.516754150390625,-0.0132293701171875,-0.13238525390625
1772871708582325500,3.253325439453125,0.5496673583984375,0.0256805419921875,-0.121063232421875
1772871708592257500,3.263257568359375,0.5432281494140625,0.04034423828125,-0.113433837890625
1772871708602190600,3.273190673828125,0.5051727294921875,0.0513763427734375,-0.088409423828125
1772871708612123400,3.283123291015625,0.4587554931640625,0.0799560546875,-0.0419921875
1772871708622055400,3.293055419921875,0.3793487548828125,0.1016082763671875,-0.0049591064453125
1772871708631988500,3.302988525390625,0.2690582275390625,0.10205078125,0.0078582763671875
1772871708641920500,3.31292041015625,0.0963134765625,0.081512451171875,0.110260009765625
1772871708651853600,3.322853515625,-0.1421356201171875,0.014923095703125,0.2691192626953125
1772871708661785600,3.33278564453125,-0.3792572021484375,-0.04510498046875,0.3879241943359375
1772871708671718700,3.34271875,-0.5466156005859375,-0.0581512451171875,0.419158935546875
1772871708681651700,3.352651611328125,-0.605865478515625,-0.05035400390625,0.3763885498046875
1772871708691583700,3.362583740234375,-0.569000244140625,-0.0355377197265625,0.266510009765625
1772871708701516500,3.3725166015625,-0.4459228515625,0.0008392333984375,0.1171875
1772871708711449600,3.38244970703125,-0.2825164794921875,0.0239715576171875,-0.040191650390625
1772871708721381600,3.392381591796875,-0.125640869140625,0.044647216796875,-0.17022705078125
1772871708731314700,3.402314697265625,-0.0176544189453125,0.043243408203125,-0.2633209228515625
1772871708741246500,3.41224658203125,0.0449981689453125,0.04345703125,-0.3235321044921875
1772871708751179500,3.422179443359375,0.0408782958984375,0.052703857421875,-0.3314361572265625
1772871708761112600,3.432112548828125,-0.0179443359375,0.0669403076171875,-0.29949951171875
1772871708771044600,3.442044677734375,-0.082427978515625,0.095672607421875,-0.265594482421875
1772871708780977400,3.451977294921875,-0.14520263671875,0.1071929931640625,-0.226318359375
1772871708790909400,3.461909423828125,-0.2193603515625,0.1135406494140625,-0.19464111328125
1772871708800842500,3.471842529296875,-0.2259063720703125,0.26513671875,-0.232269287109375
1772871708810775600,3.481775634765625,-0.22320556640625,0.478302001953125,-0.2850494384765625
1772871708820707600,3.49170751953125,-0.3310546875,0.6706695556640625,-0.2434234619140625
1772871708830640600,3.501640625,-0.4779052734375,0.93798828125,-0.15478515625
1772871708840572700,3.51157275390625,-0.6803131103515625,1.3148651123046875,-0.0292816162109375
1772871708850505500,3.52150537109375,-0.879730224609375,1.7721099853515625,-0.0027923583984375
1772871708860438500,3.5314384765625,-1.3055419921875,2.091796875,0.0704803466796875
1772871708870370600,3.54137060546875,-1.9281005859375,2.3986053466796875,0.15960693359375
1772871708880303600,3.5513037109375,-2.3650970458984375,2.8986358642578125,0.2261962890625
1772871708890235600,3.561235595703125,-2.872650146484375,3.1339111328125,0.233001708984375
1772871708900168700,3.571168701171875,-3.4323883056640625,3.1094207763671875,0.24884033203125
1772871708910101800,3.581101806640625,-3.2763519287109375,3.084869384765625,0.1987152099609375
1772871708920033500,3.591033447265625,-2.46575927734375,2.758636474609375,-0.0841064453125
1772871708929966300,3.60096630859375,-1.693511962890625,2.364288330078125,-0.35009765625
1772871708939898400,3.6108984375,-1.1673431396484375,2.01483154296875,-0.3834228515625
1772871708949831400,3.62083154296875,-0.902435302734375,1.668121337890625,-0.2812652587890625
1772871708959764500,3.630764404296875,-0.8993377685546875,1.387054443359375,-0.138092041015625
1772871708969696500,3.640696533203125,-1.0670013427734375,1.160430908203125,-0.004180908203125
1772871708979629600,3.650629638671875,-1.27978515625,1.02642822265625,0.0586700439453125
1772871708989561600,3.6605615234375,-1.4702301025390625,1.03338623046875,0.03094482421875
1772871708999494700,3.67049462890625,-1.523773193359375,1.1312713623046875,-0.1309051513671875
1772871709009427500,3.680427490234375,-1.406036376953125,1.237396240234375,-0.3137359619140625
1772871709019359500,3.690359375,-1.21392822265625,1.3607330322265625,-0.4443359375
1772871709029292500,3.70029248046875,-1.0734405517578125,1.41766357421875,-0.523345947265625
1772871709039224600,3.710224609375,-0.984527587890625,1.45086669921875,-0.563812255859375
1772871709049157600,3.72015771484375,-0.92095947265625,1.4262847900390625,-0.5692901611328125
1772871709059090700,3.730090576171875,-0.8718719482421875,1.2913665771484375,-0.52398681640625
1772871709069022700,3.740022705078125,-0.7604217529296875,1.110137939453125,-0.4664764404296875
1772871709078955800,3.749955810546875,-0.567657470703125,0.8980712890625,-0.42559814453125
1772871709088887600,3.759887451171875,-0.3119049072265625,0.6687774658203125,-0.4131622314453125
1772871709098820400,3.7698203125,-0.0452117919921875,0.460968017578125,-0.3664093017578125
1772871709108753400,3.77975341796875,0.2017822265625,0.2189788818359375,-0.265228271484375
1772871709118685400,3.789685546875,0.416748046875,-0.03076171875,-0.109832763671875
1772871709128618500,3.799618408203125,0.5913543701171875,-0.229278564453125,0.0637359619140625
1772871709138550500,3.809550537109375,0.679473876953125,-0.28436279296875,0.194671630859375
1772871709148483600,3.819483642578125,0.6692962646484375,-0.23284912109375,0.2739410400390625
1772871709158416400,3.82941650390625,0.630035400390625,-0.1659698486328125,0.3344573974609375
1772871709168348700,3.8393486328125,0.553985595703125,-0.124908447265625,0.3643035888671875
1772871709178281500,3.849281494140625,0.4897613525390625,-0.0982208251953125,0.37548828125
1772871709188213500,3.859213623046875,0.4328460693359375,-0.068206787109375,0.3935546875
1772871709198146600,3.869146484375,0.3515777587890625,-0.0287933349609375,0.4087677001953125
1772871709208079600,3.87907958984375,0.2386932373046875,0.0263214111328125,0.39447021484375
1772871709218011600,3.88901171875,0.1099700927734375,0.097412109375,0.3681793212890625
1772871709227944700,3.89894482421875,-0.017791748046875,0.1628265380859375,0.32684326171875
1772871709237876700,3.908876708984375,-0.1564178466796875,0.2066497802734375,0.2683563232421875
1772871709247809500,3.9188095703125,-0.2591705322265625,0.2175140380859375,0.2224273681640625
1772871709257742600,3.92874267578125,-0.3299560546875,0.2000732421875,0.1872711181640625
1772871709267674400,3.93867431640625,-0.378997802734375,0.1600494384765625,0.1492767333984375
1772871709277607400,3.948607421875,-0.3908843994140625,0.1106109619140625,0.110076904296875
1772871709287540500,3.95854052734375,-0.3643341064453125,0.0526885986328125,0.05914306640625
1772871709297473500,3.9684736328125,-0.319122314453125,0.0001983642578125,0.001129150390625
1772871709307406300,3.97840625,-0.284210205078125,-0.01947021484375,-0.05853271484375
1772871709317336300,3.98833642578125,-0.2430419921875,-0.0203094482421875,-0.115570068359375
1772871709327269400,3.998269287109375,-0.2025146484375,-0.0178985595703125,-0.169036865234375
1772871709337202400,4.008202392578125,-0.16485595703125,0.0031280517578125,-0.232269287109375
1772871709347134500,4.018134521484375,-0.116180419921875,0.03424072265625,-0.3192901611328125
1772871709357067300,4.0280673828125,-0.101715087890625,0.0532073974609375,-0.3943634033203125
1772871709366999300,4.037999267578125,-0.119384765625,0.0695648193359375,-0.423919677734375
1772871709376932400,4.047932373046875,-0.1811981201171875,0.0858612060546875,-0.3790130615234375
1772871709386865400,4.057865478515625,-0.2571563720703125,0.195098876953125,-0.3601837158203125
1772871709396797400,4.06779736328125,-0.3143310546875,0.38800048828125,-0.358795166015625
1772871709406730500,4.07773046875,-0.483795166015625,0.549957275390625,-0.21319580078125
1772871709416662500,4.08766259765625,-0.72998046875,0.732421875,0.0991668701171875
1772871709426595300,4.09759521484375,-0.97869873046875,0.998260498046875,0.3283233642578125
1772871709436528400,4.1075283203125,-1.0029449462890625,1.381072998046875,0.3336029052734375
1772871709446460400,4.11746044921875,-0.87384033203125,1.7923431396484375,0.273834228515625
1772871709456393500,4.1273935546875,-0.829833984375,2.114166259765625,0.121490478515625
1772871709466325200,4.1373251953125,-0.908905029296875,2.3549346923828125,-0.093963623046875
1772871709476258300,4.14725830078125,-1.1353607177734375,2.6389617919921875,-0.2034759521484375
1772871709486191400,4.15719140625,-1.9582977294921875,2.8407745361328125,0.010009765625
1772871709496123400,4.167123291015625,-3.1271514892578125,3.066802978515625,0.3862152099609375
1772871709506056200,4.17705615234375,-3.1875152587890625,3.3685302734375,0.489410400390625
1772871709515988200,4.18698828125,-2.740264892578125,3.23834228515625,0.272186279296875
1772871709525921300,4.19692138671875,-2.017486572265625,3.001922607421875,-0.050537109375
1772871709535854300,4.206854248046875,-1.2431182861328125,2.71923828125,-0.22808837890625
1772871709545786400,4.216786376953125,-0.850006103515625,2.383758544921875,-0.2999725341796875
1772871709555719400,4.226719482421875,-0.7667694091796875,2.0964813232421875,-0.3265228271484375
1772871709565651500,4.2366513671875,-0.8696746826171875,1.8468475341796875,-0.3239593505859375
1772871709575584500,4.24658447265625,-1.036102294921875,1.679412841796875,-0.264404296875
1772871709585517300,4.256517333984375,-1.187591552734375,1.5982208251953125,-0.1265716552734375
1772871709595449300,4.266449462890625,-1.3285980224609375,1.5229644775390625,-0.0042877197265625
1772871709605382400,4.27638232421875,-1.4020843505859375,1.41461181640625,0.013397216796875
1772871709615314400,4.286314453125,-1.338134765625,1.315643310546875,-0.0659332275390625
1772871709625247500,4.29624755859375,-1.170196533203125,1.186920166015625,-0.2127838134765625
1772871709635180500,4.3061806640625,-0.9459075927734375,1.0217742919921875,-0.3743743896484375
1772871709645112300,4.3161123046875,-0.672027587890625,0.8722076416015625,-0.4666900634765625
1772871709655045400,4.32604541015625,-0.402862548828125,0.7111968994140625,-0.508026123046875
1772871709664977400,4.335977294921875,-0.1553802490234375,0.509002685546875,-0.5179901123046875
1772871709674910200,4.34591015625,0.103912353515625,0.3047637939453125,-0.4268646240234375
1772871709684843300,4.35584326171875,0.362060546875,0.0443878173828125,-0.1950531005859375
1772871709694775300,4.365775390625,0.6297607421875,-0.250640869140625,0.105926513671875
1772871709704708400,4.375708251953125,0.7759246826171875,-0.348052978515625,0.3067779541015625
1772871709714640400,4.385640380859375,0.766571044921875,-0.2982025146484375,0.364166259765625
1772871709724573400,4.395573486328125,0.7632598876953125,-0.2661285400390625,0.3886871337890625
1772871709734506500,4.405506591796875,0.7611083984375,-0.2718505859375,0.391937255859375
1772871709744438500,4.4154384765625,0.7443084716796875,-0.21661376953125,0.3624114990234375
1772871709754371300,4.425371337890625,0.6909637451171875,-0.093536376953125,0.3249053955078125
1772871709764303400,4.435303466796875,0.530517578125,0.0014190673828125,0.2723236083984375
1772871709774236400,4.445236328125,0.3594970703125,0.1091156005859375,0.210479736328125
1772871709784169500,4.45516943359375,0.178558349609375,0.2274017333984375,0.1566619873046875
1772871709794101500,4.4651015625,-0.0191497802734375,0.3130645751953125,0.1025238037109375
1772871709804034600,4.47503466796875,-0.21343994140625,0.3658599853515625,0.075439453125
1772871709813966300,4.48496630859375,-0.4083099365234375,0.36614990234375,0.0701904296875
1772871709823899400,4.4948994140625,-0.5333251953125,0.30963134765625,0.0584564208984375
1772871709833832200,4.504832275390625,-0.5811614990234375,0.2194976806640625,0.04669189453125
1772871709843764200,4.51476416015625,-0.52056884765625,0.1296234130859375,0.035736083984375
1772871709853697300,4.524697265625,-0.3958587646484375,0.0308990478515625,0.021209716796875
1772871709863629300,4.53462939453125,-0.2467803955078125,-0.0646820068359375,0.0025787353515625
1772871709873562400,4.544562255859375,-0.1067352294921875,-0.1184539794921875,-0.0180206298828125
1772871709883495400,4.554495361328125,-0.0178070068359375,-0.14923095703125,-0.0563812255859375
1772871709893427500,4.564427490234375,0.0242767333984375,-0.133575439453125,-0.082794189453125
1772871709903360300,4.5743603515625,0.0364990234375,-0.089874267578125,-0.10888671875
1772871709913292300,4.584292236328125,0.0144500732421875,-0.0583038330078125,-0.12738037109375
1772871709923225300,4.594225341796875,-0.0019073486328125,-0.03204345703125,-0.1243743896484375
1772871709933158400,4.604158447265625,0.0045928955078125,-0.0115509033203125,-0.1335296630859375
1772871709943090400,4.61409033203125,0.008819580078125,0.000152587890625,-0.13726806640625
1772871709953023500,4.6240234375,-0.02166748046875,-0.003173828125,-0.13702392578125
1772871709962955500,4.63395556640625,-0.1267852783203125,0.013153076171875,-0.1197662353515625
1772871709972888600,4.643888671875,-0.219329833984375,0.1612396240234375,-0.200714111328125
1772871709982821400,4.6538212890625,-0.238677978515625,0.4165802001953125,-0.268768310546875
1772871709992753200,4.663753173828125,-0.3667144775390625,0.6527862548828125,-0.1916656494140625
1772871710002686200,4.673686279296875,-0.650848388671875,0.8852691650390625,0.0079193115234375
1772871710012618200,4.6836181640625,-1.098114013671875,1.2121124267578125,0.30328369140625
1772871710022551300,4.69355126953125,-1.47021484375,1.654388427734375,0.4341583251953125
1772871710032484400,4.703484375,-1.762451171875,2.0949249267578125,0.4009552001953125
1772871710042416400,4.71341650390625,-1.8177490234375,2.54296875,0.182830810546875
1772871710052349400,4.723349365234375,-1.85418701171875,2.8548431396484375,0.0147552490234375
1772871710062281500,4.733281494140625,-1.990753173828125,3.1373748779296875,-0.0803680419921875
1772871710072214300,4.74321435546875,-2.101226806640625,3.3350677490234375,-0.10980224609375
1772871710082147300,4.753147216796875,-2.3326568603515625,3.355499267578125,-0.2038726806640625
1772871710092079400,4.763079345703125,-2.1994476318359375,3.275909423828125,-0.1814727783203125
1772871710102012400,4.773012451171875,-2.0247039794921875,2.8862457275390625,-0.1077117919921875
1772871710111944400,4.7829443359375,-1.9246063232421875,2.4723052978515625,0.0197296142578125
1772871710121877500,4.79287744140625,-1.7426910400390625,2.1981658935546875,0.1649322509765625
1772871710131810300,4.802810302734375,-1.5532989501953125,1.99371337890625,0.224700927734375
1772871710141742600,4.81274267578125,-1.4013214111328125,1.8023529052734375,0.2083282470703125
1772871710151675400,4.82267529296875,-1.2444305419921875,1.63165283203125,0.148773193359375
1772871710161607200,4.832607177734375,-1.0870513916015625,1.4754180908203125,0.096710205078125
1772871710171540500,4.84254052734375,-0.981109619140625,1.342803955078125,0.067657470703125
1772871710181473500,4.8524736328125,-0.9182281494140625,1.2931976318359375,0.0791168212890625
1772871710191405300,4.8624052734375,-0.8801116943359375,1.3298797607421875,0.0420684814453125
1772871710201338400,4.87233837890625,-0.8621673583984375,1.3580169677734375,-0.0848236083984375
1772871710211270400,4.8822705078125,-0.840911865234375,1.2840118408203125,-0.230377197265625
1772871710221203200,4.892203125,-0.7354583740234375,1.09332275390625,-0.3226470947265625
1772871710231136300,4.90213623046875,-0.547760009765625,0.854522705078125,-0.3250885009765625
1772871710241068300,4.912068359375,-0.323974609375,0.558380126953125,-0.2185821533203125
1772871710251001300,4.92200146484375,-0.030548095703125,0.1473388671875,0.0021209716796875
1772871710260933400,4.931933349609375,0.2851715087890625,-0.307830810546875,0.258941650390625
1772871710270866400,4.941866455078125,0.4200439453125,-0.5026092529296875,0.3503265380859375
1772871710280799500,4.951799560546875,0.424041748046875,-0.379302978515625,0.256011962890625
1772871710290730500,4.96173046875,0.4319915771484375,-0.255218505859375,0.10308837890625
1772871710300663600,4.97166357421875,0.4900665283203125,-0.179931640625,-0.0385284423828125
1772871710310595300,4.98159521484375,0.568084716796875,-0.11602783203125,-0.1585235595703125
1772871710320528400,4.9915283203125,0.59600830078125,-0.0028533935546875,-0.2481231689453125
1772871710330460400,5.00146044921875,0.520294189453125,0.09783935546875,-0.2594757080078125
1772871710340393200,5.011393310546875,0.4064788818359375,0.16461181640625,-0.2118682861328125
1772871710350326300,5.021326171875,0.3084259033203125,0.181640625,-0.1608428955078125
1772871710360258300,5.03125830078125,0.201080322265625,0.1712646484375,-0.09173583984375
1772871710370191400,5.04119140625,0.0665130615234375,0.151031494140625,0.0001983642578125
1772871710380123400,5.051123291015625,-0.098358154296875,0.1333160400390625,0.1173858642578125
1772871710390056400,5.061056396484375,-0.2598419189453125,0.124053955078125,0.215179443359375
1772871710399989200,5.0709892578125,-0.3825531005859375,0.1199188232421875,0.2748565673828125
1772871710409921300,5.08092138671875,-0.4439544677734375,0.120880126953125,0.29339599609375
1772871710419854300,5.090854248046875,-0.44696044921875,0.1155853271484375,0.270294189453125
1772871710429786400,5.100786376953125,-0.3985748291015625,0.1088104248046875,0.22332763671875
1772871710439719400,5.110719482421875,-0.31085205078125,0.09051513671875,0.1576080322265625
1772871710449652500,5.120652587890625,-0.2102203369140625,0.0745849609375,0.085601806640625
1772871710459584500,5.13058447265625,-0.118072509765625,0.0576324462890625,0.012298583984375
1772871710469517600,5.140517578125,-0.040313720703125,0.0294952392578125,-0.036376953125
1772871710479449300,5.150449462890625,0.024078369140625,0.011077880859375,-0.04779052734375
1772871710489382100,5.160382080078125,0.0728607177734375,0.00048828125,-0.0532684326171875
1772871710499315200,5.170315185546875,0.0964508056640625,-0.0008544921875,-0.0670318603515625
1772871710509247200,5.180247314453125,0.09930419921875,0.006500244140625,-0.0950164794921875
1772871710519180300,5.19018017578125,0.0887603759765625,0.02764892578125,-0.1259307861328125
1772871710529112300,5.2001123046875,0.06512451171875,0.0389404296875,-0.1565704345703125
1772871710539045400,5.21004541015625,0.023681640625,0.057098388671875,-0.17022705078125
1772871710548978400,5.219978515625,-0.0593414306640625,0.130584716796875,-0.2058868408203125
1772871710558910500,5.229910400390625,-0.134735107421875,0.29461669921875,-0.217864990234375
1772871710568843300,5.23984326171875,-0.2833709716796875,0.4714202880859375,-0.1178131103515625
1772871710578775300,5.249775390625,-0.5012969970703125,0.7127532958984375,0.0251922607421875
1772871710588708400,5.259708251953125,-0.87457275390625,0.96380615234375,0.36419677734375
1772871710598641400,5.269641357421875,-1.2199554443359375,1.3874359130859375,0.526885986328125
1772871710608573400,5.279573486328125,-1.18658447265625,1.9812164306640625,0.36932373046875
1772871710618506500,5.289506591796875,-1.340087890625,2.3392181396484375,0.34014892578125
1772871710628438500,5.2994384765625,-1.6864776611328125,2.485595703125,0.370849609375
1772871710638371600,5.30937158203125,-1.8183746337890625,2.7714385986328125,0.32537841796875
1772871710648304400,5.319304443359375,-2.086029052734375,2.9259033203125,0.1864776611328125
1772871710658236200,5.329236083984375,-2.4660186767578125,2.9066925048828125,0.0449066162109375
1772871710668169500,5.33916943359375,-2.5639801025390625,2.8667144775390625,0.0761566162109375
1772871710678101200,5.349101318359375,-2.3708648681640625,2.6749725341796875,0.2257080078125
1772871710688034300,5.359034423828125,-1.9733428955078125,2.3785858154296875,0.286468505859375
1772871710697967400,5.36896728515625,-1.5631256103515625,2.1011199951171875,0.2468109130859375
1772871710707899400,5.3788994140625,-1.2468109130859375,1.921905517578125,0.1670074462890625
1772871710717832400,5.38883251953125,-1.109405517578125,1.7981719970703125,0.05718994140625
1772871710727764500,5.398764404296875,-1.1133880615234375,1.7319793701171875,-0.0316162109375
1772871710737697300,5.408697265625,-1.1822052001953125,1.72430419921875,-0.078521728515625
1772871710747630300,5.41863037109375,-1.288543701171875,1.7184600830078125,-0.0970001220703125
1772871710757562400,5.428562255859375,-1.3867950439453125,1.6878662109375,-0.0839385986328125
1772871710767495400,5.438495361328125,-1.421600341796875,1.64605712890625,-0.044525146484375
1772871710777427500,5.448427490234375,-1.40887451171875,1.5377197265625,-0.0195159912109375
1772871710787360500,5.458360595703125,-1.3368072509765625,1.3695831298828125,-0.0053253173828125
1772871710797293300,5.468293212890625,-1.1968231201171875,1.182098388671875,-0.015655517578125
1772871710807225300,5.478225341796875,-0.9887847900390625,0.9969329833984375,-0.0491790771484375
1772871710817158400,5.488158447265625,-0.7116546630859375,0.8253173828125,-0.121124267578125
1772871710827090200,5.498090087890625,-0.36956787109375,0.652557373046875,-0.21875
1772871710837023500,5.5080234375,-0.0009765625,0.4426727294921875,-0.3240814208984375
1772871710846956500,5.51795654296875,0.36773681640625,0.1857757568359375,-0.376800537109375
1772871710856888300,5.527888427734375,0.677642822265625,-0.05291748046875,-0.3531494140625
1772871710866821400,5.5378212890625,0.8092498779296875,-0.24871826171875,-0.1971435546875
1772871710876753400,5.54775341796875,0.738800048828125,-0.368438720703125,0.014678955078125
1772871710886686200,5.557686279296875,0.608428955078125,-0.3330078125,0.1649627685546875
1772871710896618200,5.5676181640625,0.495697021484375,-0.1936187744140625,0.2072601318359375
1772871710906551300,5.57755126953125,0.4704742431640625,-0.00445556640625,0.17291259765625
1772871710916484400,5.587484375,0.4329376220703125,0.1069793701171875,0.135711669921875
1772871710926416400,5.59741650390625,0.41363525390625,0.13751220703125,0.1231536865234375
1772871710936349400,5.607349365234375,0.40826416015625,0.143341064453125,0.1116485595703125
1772871710946281500,5.617281494140625,0.3842926025390625,0.14129638671875,0.0694427490234375
1772871710956214500,5.627214599609375,0.3273773193359375,0.1609954833984375,0.0303955078125
1772871710966147300,5.637147216796875,0.208984375,0.1927032470703125,0.015533447265625
1772871710976079400,5.647079345703125,0.0432586669921875,0.22314453125,0.0712432861328125
1772871710986012400,5.657012451171875,-0.1397247314453125,0.220703125,0.166656494140625
1772871710995944200,5.666944091796875,-0.3354034423828125,0.18548583984375,0.2468414306640625
1772871711005877500,5.67687744140625,-0.4653167724609375,0.1302490234375,0.3074798583984375
1772871711015810600,5.686810546875,-0.4938812255859375,0.055877685546875,0.3426666259765625
1772871711025742300,5.696742431640625,-0.461212158203125,-0.0260162353515625,0.334381103515625
1772871711035675400,5.70667529296875,-0.38360595703125,-0.06494140625,0.2596893310546875
1772871711045607400,5.716607421875,-0.2741546630859375,-0.0495758056640625,0.1428680419921875
1772871711055540200,5.726540283203125,-0.1458740234375,-0.002471923828125,-0.008636474609375
1772871711065472300,5.73647216796875,0.0043182373046875,0.0440521240234375,-0.154541015625
1772871711075405300,5.7464052734375,0.1466522216796875,0.0788116455078125,-0.260894775390625
1772871711085338400,5.75633837890625,0.2413330078125,0.0983428955078125,-0.3401031494140625
1772871711095270400,5.7662705078125,0.2926025390625,0.12774658203125,-0.4096221923828125
1772871711105203500,5.776203369140625,0.28076171875,0.147735595703125,-0.448150634765625
1772871711115135500,5.786135498046875,0.188873291015625,0.1458892822265625,-0.41961669921875
1772871711125068500,5.796068603515625,0.020721435546875,0.1427459716796875,-0.3200225830078125
1772871711135001300,5.80600146484375,-0.21405029296875,0.1767120361328125,-0.2266387939453125
1772871711144933400,5.815933349609375,-0.3774566650390625,0.342864990234375,-0.1576995849609375
1772871711154866400,5.825866455078125,-0.5933380126953125,0.499053955078125,0.0914764404296875
1772871711164798500,5.835798583984375,-0.90911865234375,0.6937103271484375,0.41162109375
1772871711174731500,5.8457314453125,-1.30010986328125,1.02484130859375,0.7296142578125
1772871711184664600,5.85566455078125,-1.52294921875,1.374908447265625,0.808868408203125
1772871711194596400,5.865596435546875,-1.4013824462890625,1.796966552734375,0.6096649169921875
1772871711204529400,5.875529296875,-1.210174560546875,2.142242431640625,0.2018890380859375
1772871711214461400,5.88546142578125,-1.169647216796875,2.351654052734375,-0.1402435302734375
1772871711224394200,5.895394287109375,-1.26190185546875,2.581298828125,-0.31658935546875
1772871711234327300,5.905327392578125,-1.6315155029296875,2.8206329345703125,-0.2283172607421875
1772871711244259300,5.91525927734375,-2.0816192626953125,2.8031005859375,0.046875
1772871711254192400,5.9251923828125,-2.0720367431640625,2.66571044921875,0.2564849853515625
1772871711264124400,5.93512451171875,-1.861541748046875,2.3921966552734375,0.3570556640625
1772871711274057500,5.945057373046875,-1.7146148681640625,2.144195556640625,0.4287261962890625
1772871711283990500,5.954990478515625,-1.5496063232421875,2.0172271728515625,0.441131591796875
1772871711293922600,5.964922607421875,-1.376922607421875,1.979217529296875,0.370269775390625
1772871711303855600,5.974855712890625,-1.21771240234375,2.0295562744140625,0.21612548828125
1772871711313787600,5.98478759765625,-1.195709228515625,2.056793212890625,0.0772552490234375
1772871711323720700,5.994720703125,-1.2615966796875,2.013458251953125,-0.00054931640625
1772871711333653800,6.00465380859375,-1.3124542236328125,1.902435302734375,0.0009307861328125
1772871711343585800,6.014585693359375,-1.36181640625,1.7284393310546875,0.045440673828125
1772871711353518800,6.024518798828125,-1.392822265625,1.551513671875,0.0780181884765625
1772871711363450600,6.03445068359375,-1.3638153076171875,1.4328460693359375,0.095428466796875
1772871711373383400,6.044383544921875,-1.2528533935546875,1.3463287353515625,0.0933380126953125
1772871711383316500,6.05431640625,-1.0858306884765625,1.262847900390625,0.0583038330078125
1772871711393248500,6.06424853515625,-0.8880157470703125,1.17474365234375,-0.01129150390625
1772871711403181600,6.074181640625,-0.662506103515625,1.081268310546875,-0.1303253173828125
1772871711413113600,6.084113525390625,-0.448272705078125,0.955902099609375,-0.249267578125
1772871711423046700,6.094046630859375,-0.275177001953125,0.7970733642578125,-0.30010986328125
1772871711432979500,6.1039794921875,-0.1563262939453125,0.6319580078125,-0.2689971923828125
1772871711442911700,6.113911865234375,-0.040252685546875,0.430419921875,-0.204559326171875
1772871711452844500,6.123844482421875,0.1580810546875,0.2351837158203125,-0.104248046875
1772871711462776600,6.133776611328125,0.3774261474609375,0.080230712890625,0.0157012939453125
1772871711472709600,6.143709716796875,0.56622314453125,-0.027099609375,0.087249755859375
1772871711482641700,6.1536416015625,0.7092437744140625,-0.0618133544921875,0.11163330078125
1772871711492574700,6.16357470703125,0.805267333984375,-0.1011810302734375,0.1172943115234375
1772871711502507800,6.1735078125,0.8611907958984375,-0.145599365234375,0.1455078125
1772871711512439800,6.183439697265625,0.85699462890625,-0.1560516357421875,0.1919708251953125
1772871711522372600,6.19337255859375,0.7525177001953125,-0.152923583984375,0.25439453125
1772871711532304600,6.2033046875,0.5737762451171875,-0.13604736328125,0.3177642822265625
1772871711542237400,6.213237548828125,0.3806915283203125,-0.119110107421875,0.348602294921875
1772871711552170500,6.22317041015625,0.191192626953125,-0.1112518310546875,0.3565826416015625
1772871711562102500,6.2331025390625,0.014373779296875,-0.098541259765625,0.340911865234375
1772871711572035600,6.24303564453125,-0.1237335205078125,-0.06610107421875,0.2698822021484375
1772871711581967600,6.252967529296875,-0.2221527099609375,-0.01580810546875,0.1533203125
1772871711591900700,6.262900634765625,-0.271240234375,0.027313232421875,0.0225067138671875
1772871711601833500,6.27283349609375,-0.289886474609375,0.0577239990234375,-0.1095733642578125
1772871711611765500,6.282765625,-0.2992095947265625,0.0927886962890625,-0.22552490234375
1772871711621698600,6.292698486328125,-0.3294219970703125,0.1192779541015625,-0.2965850830078125
1772871711631630600,6.302630615234375,-0.37628173828125,0.120086669921875,-0.2931060791015625
1772871711641563600,6.312563720703125,-0.4132232666015625,0.096588134765625,-0.2438201904296875
1772871711651496700,6.32249658203125,-0.41851806640625,0.068328857421875,-0.19384765625
1772871711661428700,6.3324287109375,-0.3748779296875,0.0509033203125,-0.1714935302734375
1772871711671361800,6.34236181640625,-0.2734375,0.0295867919921875,-0.17413330078125
1772871711681293800,6.3522939453125,-0.1656494140625,0.001220703125,-0.1914520263671875
1772871711691226600,6.3622265625,-0.0783538818359375,-0.015106201171875,-0.229949951171875
1772871711701158400,6.372158447265625,-0.0521392822265625,-0.001953125,-0.2397308349609375
1772871711711091500,6.382091552734375,-0.0736236572265625,0.040496826171875,-0.192962646484375
1772871711721024500,6.3920244140625,-0.079345703125,0.1929168701171875,-0.20428466796875
1772871711730956500,6.40195654296875,-0.1053619384765625,0.3521881103515625,-0.0787506103515625
1772871711740889600,6.4118896484375,-0.2918701171875,0.45513916015625,0.1695404052734375
1772871711750821600,6.421821533203125,-0.5101165771484375,0.724853515625,0.4116668701171875
1772871711760754700,6.431754638671875,-0.691436767578125,1.150238037109375,0.5826873779296875
1772871711770687500,6.4416875,-0.8303985595703125,1.5350494384765625,0.5629119873046875
1772871711780619500,6.45161962890625,-0.9708709716796875,1.865692138671875,0.5022430419921875
1772871711790552600,6.461552490234375,-1.2131805419921875,2.256500244140625,0.444580078125
1772871711800484600,6.471484619140625,-1.629669189453125,2.6587371826171875,0.4341278076171875
1772871711810417700,6.481417724609375,-2.0416717529296875,2.9604034423828125,0.4219207763671875
1772871711820350700,6.491350830078125,-2.17987060546875,3.029449462890625,0.2573699951171875
1772871711830282800,6.50128271484375,-2.189361572265625,2.8057861328125,0.123443603515625
1772871711840215800,6.5112158203125,-2.3446197509765625,2.3818206787109375,0.412445068359375
1772871711850147800,6.52114794921875,-2.2986297607421875,1.9117279052734375,0.87933349609375
1772871711860080600,6.53108056640625,-1.76507568359375,1.611785888671875,0.9018402099609375
1772871711870013700,6.541013671875,-1.174774169921875,1.47027587890625,0.56634521484375
1772871711879945500,6.550945556640625,-0.7816314697265625,1.47833251953125,0.1881561279296875
1772871711889878500,6.56087841796875,-0.6754608154296875,1.55908203125,-0.0570526123046875
1772871711899810600,6.570810546875,-0.86798095703125,1.6628265380859375,-0.152587890625
1772871711909743600,6.58074365234375,-1.211090087890625,1.7013397216796875,-0.105194091796875
1772871711919676400,6.590676513671875,-1.5451812744140625,1.6163177490234375,0.046173095703125
1772871711929608700,6.600608642578125,-1.7581787109375,1.53558349609375,0.1752777099609375
1772871711939541500,6.61054150390625,-1.750762939453125,1.535186767578125,0.1589813232421875
1772871711949473500,6.6204736328125,-1.618804931640625,1.4850921630859375,0.134063720703125
1772871711959406600,6.630406494140625,-1.440643310546875,1.3414764404296875,0.148651123046875
1772871711969339600,6.640339599609375,-1.200103759765625,1.2565460205078125,0.181671142578125
1772871711979271700,6.650271728515625,-0.9257965087890625,1.2464599609375,0.160888671875
1772871711989204700,6.660204833984375,-0.695343017578125,1.248870849609375,-0.002716064453125
1772871711999136800,6.67013671875,-0.495361328125,1.2252044677734375,-0.1616058349609375
1772871712009069600,6.680069580078125,-0.3069915771484375,1.15234375,-0.2303466796875
1772871712019001600,6.690001708984375,-0.13214111328125,0.9582061767578125,-0.219970703125
1772871712028934700,6.6999345703125,0.0113983154296875,0.64599609375,-0.14227294921875
1772871712038867700,6.70986767578125,0.11846923828125,0.3257904052734375,-0.0388336181640625
1772871712048799500,6.719799560546875,0.1884307861328125,0.0727996826171875,0.0389404296875
1772871712058732800,6.72973291015625,0.2604522705078125,-0.096923828125,0.11346435546875
1772871712068664600,6.73966455078125,0.387115478515625,-0.1953582763671875,0.2083282470703125
1772871712078597600,6.74959765625,0.519561767578125,-0.2582855224609375,0.267669677734375
1772871712088530400,6.759530517578125,0.6501617431640625,-0.2944488525390625,0.2768707275390625
1772871712098462500,6.76946240234375,0.7370452880859375,-0.275848388671875,0.2992095947265625
1772871712108395500,6.7793955078125,0.6870269775390625,-0.21417236328125,0.3274383544921875
1772871712118327600,6.78932763671875,0.529144287109375,-0.11883544921875,0.3027191162109375
1772871712128260600,6.799260498046875,0.3515472412109375,-0.00335693359375,0.2596282958984375
1772871712138193700,6.809193603515625,0.2024383544921875,0.0914764404296875,0.2068939208984375
1772871712148125700,6.819125732421875,0.074127197265625,0.157928466796875,0.1561126708984375
1772871712158058800,6.829058837890625,-0.02838134765625,0.1632080078125,0.101776123046875
1772871712167990800,6.83899072265625,-0.115966796875,0.1435089111328125,0.0595245361328125
1772871712177923600,6.848923583984375,-0.20501708984375,0.119384765625,0.0289306640625
1772871712187855600,6.858855712890625,-0.2708740234375,0.0867462158203125,-0.0077667236328125
1772871712197788700,6.86878857421875,-0.333984375,0.049957275390625,-0.0381011962890625
1772871712207721700,6.8787216796875,-0.394439697265625,0.009552001953125,-0.0490570068359375
1772871712217653500,6.888653564453125,-0.4411773681640625,-0.03228759765625,-0.051025390625
1772871712227586800,6.8985869140625,-0.46466064453125,-0.0676422119140625,-0.05902099609375
1772871712237518600,6.9085185546875,-0.453887939453125,-0.0685272216796875,-0.096527099609375
1772871712247451600,6.91845166015625,-0.415252685546875,-0.0165863037109375,-0.1525421142578125
1772871712257384400,6.928384521484375,-0.343719482421875,0.0550689697265625,-0.242156982421875
1772871712267316500,6.93831640625,-0.2623748779296875,0.1305999755859375,-0.33673095703125
1772871712277249500,6.94824951171875,-0.198974609375,0.1866607666015625,-0.40625
1772871712287182000,6.95818212890625,-0.186065673828125,0.207916259765625,-0.4138641357421875
1772871712297115100,6.968115234375,-0.2126007080078125,0.2303924560546875,-0.3675994873046875
1772871712307048200,6.978048095703125,-0.2251434326171875,0.3160247802734375,-0.3285369873046875
1772871712316980200,6.987980224609375,-0.1804046630859375,0.4543304443359375,-0.25732421875
1772871712326913000,6.9979130859375,-0.208709716796875,0.5086517333984375,-0.0554962158203125
1772871712336845000,7.007844970703125,-0.2567596435546875,0.54412841796875,0.189849853515625
1772871712346778000,7.017778076171875,-0.3508148193359375,0.6824188232421875,0.447021484375
1772871712356710000,7.0277099609375,-0.5365753173828125,0.9633026123046875,0.5778045654296875
1772871712366643000,7.037642822265625,-0.809661865234375,1.284332275390625,0.6600494384765625
1772871712376576000,7.047575927734375,-1.2485809326171875,1.509979248046875,0.859710693359375
1772871712386508000,7.057508056640625,-1.6767730712890625,1.7268524169921875,1.035552978515625
1772871712396441000,7.067441162109375,-1.949798583984375,2.0205230712890625,1.096282958984375
1772871712406373000,7.077373046875,-2.161285400390625,2.2204742431640625,1.0502471923828125
1772871712416306000,7.087305908203125,-2.250396728515625,2.2978057861328125,0.9055023193359375
1772871712426239000,7.097239013671875,-2.1952972412109375,2.293548583984375,0.6594390869140625
1772871712436171000,7.1071708984375,-2.0298614501953125,2.22210693359375,0.3299407958984375
1772871712446104000,7.11710400390625,-1.9086456298828125,2.0619354248046875,0.1182098388671875
1772871712456036000,7.1270361328125,-1.85272216796875,1.841033935546875,0.0885162353515625
1772871712465969200,7.13696923828125,-1.802978515625,1.6265106201171875,0.125518798828125
1772871712475902200,7.146902099609375,-1.70281982421875,1.4501190185546875,0.13226318359375
1772871712485834200,7.156834228515625,-1.6117706298828125,1.3272857666015625,0.11004638671875
1772871712495767000,7.16676708984375,-1.5393524169921875,1.257476806640625,0.0638275146484375
1772871712505699000,7.176698974609375,-1.462127685546875,1.223876953125,0.012054443359375
1772871712515632000,7.186632080078125,-1.3737640380859375,1.2289276123046875,-0.055084228515625
1772871712525565200,7.196565185546875,-1.2824249267578125,1.246185302734375,-0.12921142578125
1772871712535497000,7.2064970703125,-1.2072906494140625,1.2578582763671875,-0.1584930419921875
1772871712545430000,7.216429931640625,-1.1881561279296875,1.271240234375,-0.1362152099609375
1772871712555362000,7.226362060546875,-1.2096710205078125,1.2829132080078125,-0.0739593505859375
1772871712565295000,7.236295166015625,-1.2118988037109375,1.26220703125,0.0178680419921875
1772871712575227100,7.24622705078125,-1.1418914794921875,1.1970367431640625,0.0962982177734375
1772871712585160000,7.256159912109375,-0.9830780029296875,1.0934295654296875,0.1208038330078125
1772871712595093000,7.266093017578125,-0.76092529296875,0.9644622802734375,0.0925750732421875
1772871712605025000,7.27602490234375,-0.5064239501953125,0.804931640625,0.007843017578125
1772871712614958000,7.2859580078125,-0.245452880859375,0.6543121337890625,-0.1054534912109375
1772871712624890000,7.29589013671875,-0.0172882080078125,0.524322509765625,-0.2151031494140625
1772871712634823200,7.3058232421875,0.12750244140625,0.4168701171875,-0.26275634765625
1772871712644756000,7.315755859375,0.2014617919921875,0.296844482421875,-0.221099853515625
1772871712654688000,7.32568798828125,0.253814697265625,0.15521240234375,-0.0828857421875
1772871712664621000,7.33562109375,0.2849273681640625,-0.020965576171875,0.126220703125
1772871712674553000,7.345552978515625,0.2856292724609375,-0.150848388671875,0.2930755615234375
1772871712684486100,7.355486083984375,0.2528076171875,-0.1727294921875,0.3798980712890625
1772871712694419200,7.365419189453125,0.2245330810546875,-0.169677734375,0.39508056640625
1772871712704351000,7.37535107421875,0.2390899658203125,-0.1492156982421875,0.332763671875
1772871712714284000,7.385283935546875,0.2920684814453125,-0.07891845703125,0.2115325927734375
1772871712724216000,7.395216064453125,0.3390655517578125,-0.00299072265625,0.0694122314453125
1772871712734148900,7.40514892578125,0.3478240966796875,0.082366943359375,-0.0289459228515625
1772871712744081000,7.415080810546875,0.28515625,0.1480255126953125,-0.031707763671875
1772871712754014000,7.425013916015625,0.1421966552734375,0.1402740478515625,0.0161590576171875
1772871712763947000,7.434947021484375,-0.009063720703125,0.0924072265625,0.0916290283203125
1772871712773879000,7.444879150390625,-0.152557373046875,0.0049591064453125,0.192138671875
1772871712783812000,7.45481201171875,-0.3073883056640625,-0.09521484375,0.291351318359375
1772871712793744100,7.464744140625,-0.436431884765625,-0.165557861328125,0.3460845947265625
1772871712803677200,7.47467724609375,-0.45172119140625,-0.158447265625,0.294403076171875
1772871712813610000,7.48460986328125,-0.405731201171875,-0.12347412109375,0.1593017578125
1772871712823542000,7.4945419921875,-0.3309478759765625,-0.09674072265625,-0.0028076171875
1772871712833475000,7.50447509765625,-0.221221923828125,-0.0420074462890625,-0.16827392578125
1772871712843407000,7.514406982421875,-0.129302978515625,0.029632568359375,-0.312408447265625
1772871712853340200,7.524340087890625,-0.1342315673828125,0.09912109375,-0.3989105224609375
1772871712863273200,7.534273193359375,-0.19903564453125,0.158355712890625,-0.3804168701171875
1772871712873205000,7.544205078125,-0.2819366455078125,0.171417236328125,-0.2733001708984375
1772871712883138000,7.554137939453125,-0.343048095703125,0.1253509521484375,-0.1363525390625
1772871712893070000,7.564070068359375,-0.3684844970703125,0.1297149658203125,-0.03619384765625
1772871712903003000,7.5740029296875,-0.2902069091796875,0.27447509765625,-0.1067047119140625
1772871712912935000,7.583934814453125,-0.093048095703125,0.4611358642578125,-0.1823272705078125
1772871712922868000,7.593867919921875,-0.052398681640625,0.5736083984375,-0.134002685546875
1772871712932801000,7.603801025390625,-0.24334716796875,0.7407379150390625,-0.0231170654296875
1772871712942733000,7.613733154296875,-0.4654998779296875,1.0299835205078125,0.0813751220703125
1772871712952666000,7.623666015625,-0.70660400390625,1.3613128662109375,0.1729278564453125
1772871712962598100,7.63359814453125,-1.0003814697265625,1.6256866455078125,0.2660980224609375
1772871712972531200,7.64353125,-1.388092041015625,1.9626312255859375,0.3948211669921875
1772871712982464000,7.653464111328125,-2.0090484619140625,2.19146728515625,0.7121429443359375
1772871712992396000,7.66339599609375,-2.42828369140625,2.2640228271484375,1.0148162841796875
1772871713002329000,7.6733291015625,-2.3416595458984375,2.19940185546875,1.0502166748046875
1772871713012261000,7.68326123046875,-2.12042236328125,1.9362030029296875,0.8560638427734375
1772871713022194200,7.693194091796875,-1.7275848388671875,1.7429351806640625,0.6436004638671875
1772871713032127200,7.703127197265625,-1.369903564453125,1.66436767578125,0.4903564453125
1772871713042059000,7.71305908203125,-1.1913299560546875,1.6360015869140625,0.4177703857421875
1772871713051992000,7.722991943359375,-1.10003662109375,1.6465606689453125,0.3742218017578125
1772871713061924000,7.732924072265625,-1.095367431640625,1.6956329345703125,0.3257598876953125
1772871713071857000,7.74285693359375,-1.2527008056640625,1.763031005859375,0.332122802734375
1772871713081789000,7.752788818359375,-1.5058441162109375,1.771484375,0.423553466796875
1772871713091722000,7.762721923828125,-1.76177978515625,1.70745849609375,0.53790283203125
1772871713101655000,7.772655029296875,-1.9560089111328125,1.6553802490234375,0.5450897216796875
1772871713111587000,7.782587158203125,-1.9761810302734375,1.6915435791015625,0.39508056640625
1772871713121520000,7.79252001953125,-1.8249053955078125,1.7256011962890625,0.15191650390625
1772871713131452200,7.8024521484375,-1.5675201416015625,1.6667633056640625,-0.0775604248046875
1772871713141385000,7.812385009765625,-1.2823486328125,1.5434722900390625,-0.2230377197265625
1772871713151318000,7.822318115234375,-1.0403900146484375,1.401641845703125,-0.2933349609375
1772871713161250000,7.83225,-0.88873291015625,1.2316131591796875,-0.3015289306640625
1772871713171183000,7.84218310546875,-0.7970428466796875,1.0371551513671875,-0.268829345703125
1772871713181115100,7.852115234375,-0.69317626953125,0.8556060791015625,-0.158355712890625
1772871713191048200,7.862048095703125,-0.580047607421875,0.709686279296875,-0.024169921875
1772871713200981200,7.871981201171875,-0.4712066650390625,0.602294921875,0.086578369140625
1772871713210913000,7.8819130859375,-0.37249755859375,0.504150390625,0.19171142578125
1772871713220845800,7.891845703125,-0.2926177978515625,0.402252197265625,0.31201171875
1772871713230777900,7.90177783203125,-0.2190399169921875,0.280975341796875,0.3880157470703125
1772871713240711000,7.9117109375,-0.0567169189453125,0.2149810791015625,0.359710693359375
1772871713250643000,7.921642822265625,0.137969970703125,0.160308837890625,0.2929534912109375
1772871713260576000,7.931575927734375,0.321044921875,0.1333465576171875,0.212371826171875
1772871713270509000,7.941509033203125,0.451904296875,0.1252593994140625,0.1544036865234375
1772871713280441000,7.951441162109375,0.4953155517578125,0.0778045654296875,0.1218719482421875
1772871713290373600,7.96137353515625,0.5114898681640625,0.01800537109375,0.1044921875
1772871713300305700,7.9713056640625,0.523101806640625,-0.0297393798828125,0.0944366455078125
1772871713310238700,7.98123876953125,0.532958984375,-0.0631103515625,0.0831451416015625
1772871713320170800,7.991170654296875,0.4795074462890625,-0.096588134765625,0.0711517333984375
1772871713330103600,8.001103515625,0.36676025390625,-0.103271484375,0.0575714111328125
1772871713340036600,8.01103662109375,0.2065887451171875,-0.0766448974609375,0.0376434326171875
1772871713349968600,8.02096875,0.0134735107421875,-0.0406341552734375,0.0214691162109375
1772871713359901700,8.030901611328124,-0.1500396728515625,-0.0080718994140625,0.02288818359375
1772871713369833700,8.040833740234374,-0.2734832763671875,0.0116119384765625,0.03680419921875
1772871713379766800,8.050766845703125,-0.33013916015625,0.036224365234375,0.0427093505859375
1772871713389699600,8.060699462890625,-0.345367431640625,0.0514678955078125,0.02764892578125
1772871713399631600,8.070631591796875,-0.3178863525390625,0.054962158203125,-0.013458251953125
1772871713409564700,8.080564697265626,-0.2682952880859375,0.072296142578125,-0.0703277587890625
1772871713419496700,8.09049658203125,-0.21893310546875,0.07354736328125,-0.115081787109375
1772871713429429800,8.1004296875,-0.1826324462890625,0.0454864501953125,-0.1168212890625
1772871713439362800,8.11036279296875,-0.1580810546875,0.01702880859375,-0.0719757080078125
1772871713449294600,8.120294677734375,-0.16546630859375,-0.009674072265625,-0.0329437255859375
1772871713459227600,8.1302275390625,-0.204742431640625,-0.037078857421875,0.012420654296875
1772871713469159700,8.14015966796875,-0.2517242431640625,-0.066497802734375,0.0767822265625
1772871713479092500,8.150092529296876,-0.3116912841796875,-0.105712890625,0.135711669921875
1772871713489024500,8.1600244140625,-0.35662841796875,-0.1331787109375,0.1840057373046875
1772871713498957600,8.16995751953125,-0.4010772705078125,-0.11431884765625,0.2076873779296875
1772871713508890600,8.179890625,-0.44036865234375,0.0691680908203125,0.08819580078125
1772871713518822700,8.18982275390625,-0.384735107421875,0.39569091796875,-0.0683746337890625
1772871713528755700,8.199755615234375,-0.342529296875,0.689727783203125,-0.1711578369140625
1772871713538687700,8.209687744140625,-0.2982177734375,1.0121917724609375,-0.157501220703125
1772871713548620800,8.219620849609376,-0.3384552001953125,1.3187408447265625,0.0118255615234375
1772871713558553600,8.2295537109375,-0.5084991455078125,1.6069793701171875,0.172210693359375
1772871713568485600,8.239485595703124,-0.8518218994140625,1.935028076171875,0.3281707763671875
1772871713578418700,8.249418701171875,-1.552337646484375,2.1418304443359375,0.597900390625
1772871713588350700,8.259350830078125,-2.4320220947265625,2.17083740234375,0.9579010009765625
1772871713598283800,8.26928369140625,-3.0129852294921875,2.1961822509765625,1.21221923828125
1772871713608215600,8.279215576171875,-3.0293121337890625,2.2096405029296875,1.1247406005859375
1772871713618148600,8.289148681640626,-2.5622711181640625,2.2085113525390625,0.6916351318359375
1772871713628081700,8.29908154296875,-1.951202392578125,2.197174072265625,0.208831787109375
1772871713638013700,8.309013671875,-1.415191650390625,2.1194610595703125,-0.1566009521484375
1772871713647946500,8.318946533203125,-1.0576934814453125,2.077667236328125,-0.3923492431640625
1772871713657878500,8.32887841796875,-0.9029541015625,2.102508544921875,-0.4718780517578125
1772871713667811600,8.3388115234375,-1.0509490966796875,2.07318115234375,-0.4085693359375
1772871713677744600,8.34874462890625,-1.3561553955078125,1.97869873046875,-0.177490234375
1772871713687676700,8.3586767578125,-1.666961669921875,1.8262481689453125,0.1709442138671875
1772871713697610500,8.368610595703124,-1.880828857421875,1.6154632568359375,0.488739013671875
1772871713707543600,8.37854345703125,-1.934112548828125,1.452880859375,0.625579833984375
1772871713717475600,8.3884755859375,-1.7532196044921875,1.4207763671875,0.5230865478515625
1772871713727408600,8.39840869140625,-1.455841064453125,1.442352294921875,0.30596923828125
1772871713737340700,8.408340576171875,-1.1761322021484375,1.4232330322265625,0.1037139892578125
1772871713747273700,8.418273681640626,-0.9358062744140625,1.3671112060546875,0.0277862548828125
1772871713757205800,8.428205810546874,-0.75616455078125,1.2549896240234375,0.05316162109375
1772871713767138800,8.438138916015625,-0.653839111328125,1.093597412109375,0.1204071044921875
1772871713777071600,8.448071533203125,-0.568145751953125,0.8986663818359375,0.1903228759765625
1772871713787003600,8.458003662109375,-0.4653778076171875,0.6926727294921875,0.2213897705078125
1772871713796936700,8.467936767578125,-0.3302764892578125,0.5217132568359375,0.1916351318359375
1772871713806868500,8.477868408203125,-0.1762542724609375,0.332550048828125,0.1538238525390625
1772871713816801800,8.4878017578125,0.0017852783203125,0.1401214599609375,0.1206207275390625
1772871713826734800,8.49773486328125,0.229644775390625,0.0249176025390625,0.089630126953125
1772871713836666600,8.50766650390625,0.4400482177734375,-0.0405120849609375,0.044403076171875
1772871713846599700,8.517599609375,0.5479278564453125,-0.0774993896484375,-0.0074005126953125
1772871713856531700,8.52753173828125,0.526885986328125,-0.068572998046875,-0.0268096923828125
1772871713866464500,8.537464599609375,0.4212646484375,-0.0337677001953125,-0.0265350341796875
1772871713876396500,8.547396484375,0.272552490234375,0.0218353271484375,-0.0106048583984375
1772871713886329600,8.55732958984375,0.100738525390625,0.07574462890625,-0.00872802734375
1772871713896262700,8.5672626953125,-0.05987548828125,0.1422576904296875,-0.0330047607421875
1772871713906194700,8.577194580078125,-0.1827545166015625,0.211700439453125,-0.0611724853515625
1772871713916127700,8.587127685546875,-0.2447052001953125,0.2243804931640625,-0.0443572998046875
1772871713926059800,8.597059814453125,-0.2060546875,0.1757049560546875,0.00128173828125
1772871713935992800,8.606992919921876,-0.167633056640625,0.075897216796875,0.050445556640625
1772871713945925600,8.616925537109376,-0.1685028076171875,-0.021087646484375,0.1008148193359375
1772871713955857700,8.626857666015624,-0.21728515625,-0.0694427490234375,0.1326141357421875
1772871713965790700,8.636790771484375,-0.30120849609375,-0.07379150390625,0.13372802734375
1772871713975722800,8.64672265625,-0.3832550048828125,-0.0834503173828125,0.086212158203125
1772871713985655800,8.65665576171875,-0.4035186767578125,-0.0623321533203125,0.0247039794921875
1772871713995587600,8.666587646484375,-0.40069580078125,-0.031646728515625,-0.0314178466796875
1772871714005520600,8.676520751953126,-0.3972015380859375,-0.01544189453125,-0.05413818359375
1772871714015453700,8.68645361328125,-0.3860015869140625,-0.003143310546875,-0.0342559814453125
1772871714025385700,8.6963857421875,-0.3564300537109375,0.038116455078125,-0.032867431640625
1772871714035318500,8.706318603515625,-0.304473876953125,0.06390380859375,-0.05633544921875
1772871714045250600,8.71625048828125,-0.2474212646484375,0.0790557861328125,-0.0877227783203125
1772871714055183600,8.72618359375,-0.17584228515625,0.094512939453125,-0.1016693115234375
1772871714065116700,8.73611669921875,-0.1035919189453125,0.0991973876953125,-0.0752410888671875
1772871714075048700,8.746048583984376,-0.025421142578125,0.1226806640625,-0.0419158935546875
1772871714084981800,8.755981689453124,0.059173583984375,0.1602325439453125,-0.032073974609375
1772871714094913800,8.765913818359374,0.1176300048828125,0.2122802734375,-0.021820068359375
1772871714104846600,8.7758466796875,0.13299560546875,0.302459716796875,-0.0078125
1772871714114779000,8.78577880859375,0.098114013671875,0.4467926025390625,0.0230865478515625
1772871714124711700,8.795711669921875,0.0056304931640625,0.6416015625,0.10174560546875
1772871714134644700,8.805644775390626,-0.172454833984375,0.8646392822265625,0.2339324951171875
1772871714144576800,8.81557666015625,-0.401336669921875,1.086181640625,0.3428497314453125
1772871714154509800,8.825509765625,-0.6039276123046875,1.285186767578125,0.390045166015625
1772871714164441600,8.835441650390624,-0.8179931640625,1.4526214599609375,0.412384033203125
1772871714174374700,8.845374755859375,-1.0765838623046875,1.6234893798828125,0.38140869140625
1772871714184307500,8.855307373046875,-1.3053436279296875,1.7784271240234375,0.3360595703125
1772871714194239700,8.86523974609375,-1.4031219482421875,1.8979034423828125,0.3450164794921875
1772871714204172500,8.875172607421876,-1.4033203125,1.95684814453125,0.3105010986328125
1772871714214104600,8.8851044921875,-1.4211273193359375,1.9304351806640625,0.2033843994140625
1772871714224037600,8.89503759765625,-1.560150146484375,1.889129638671875,0.1424560546875
1772871714233969700,8.9049697265625,-1.9381561279296875,1.78082275390625,0.21295166015625
1772871714243902700,8.91490283203125,-2.564178466796875,1.6041412353515625,0.584228515625
1772871714253835800,8.924835693359375,-3.2184906005859375,1.4220733642578125,1.0776824951171875
1772871714263767800,8.934767822265625,-3.307464599609375,1.4053497314453125,1.4053802490234375
1772871714273700600,8.94470068359375,-2.7569427490234375,1.528717041015625,1.3056640625
1772871714283633000,8.9546328125,-2.0092010498046875,1.5985107421875,0.951019287109375
1772871714293566000,8.96456591796875,-1.34716796875,1.61212158203125,0.6141815185546875
1772871714303499000,8.9744990234375,-0.864288330078125,1.6284332275390625,0.3407135009765625
1772871714313431000,8.98443115234375,-0.6197967529296875,1.5873260498046875,0.153839111328125
1772871714323364000,8.994364013671875,-0.606201171875,1.5005035400390625,0.097259521484375
1772871714333296000,9.004296142578125,-0.649322509765625,1.443023681640625,0.0248565673828125
1772871714343229000,9.01422900390625,-0.6526336669921875,1.3879241943359375,-0.0582122802734375
1772871714353162000,9.024161865234374,-0.5710601806640625,1.306793212890625,-0.1189422607421875
1772871714363094000,9.034093994140624,-0.400299072265625,1.209564208984375,-0.1291961669921875
1772871714373027000,9.044027099609375,-0.2232666015625,1.0716400146484375,-0.071746826171875
1772871714382958800,9.053958740234375,-0.1325531005859375,0.9442138671875,0.0006561279296875
1772871714392892200,9.06389208984375,-0.1922454833984375,0.8676300048828125,0.0711822509765625
1772871714402824000,9.073823974609375,-0.3923492431640625,0.876861572265625,0.156768798828125
1772871714412757000,9.083757080078126,-0.682769775390625,0.8872222900390625,0.2451171875
1772871714422689800,9.093689697265624,-0.9296875,0.8535003662109375,0.2940673828125
1772871714432622000,9.1036220703125,-1.0640869140625,0.7180633544921875,0.2704315185546875
1772871714442555000,9.113554931640625,-1.0456390380859375,0.53509521484375,0.1943511962890625
1772871714452487000,9.12348681640625,-0.8791351318359375,0.3313140869140625,0.06842041015625
1772871714462420000,9.133419921875,-0.5925750732421875,0.1333465576171875,-0.0651092529296875
1772871714472353000,9.14335302734375,-0.3102874755859375,-0.0402984619140625,-0.1439208984375
1772871714482285000,9.15328515625,-0.0379486083984375,-0.1521148681640625,-0.1924896240234375
1772871714492218000,9.163218017578124,0.17327880859375,-0.21405029296875,-0.2216796875
1772871714502150100,9.173150146484375,0.251220703125,-0.230682373046875,-0.2094573974609375
1772871714512083000,9.1830830078125,0.19970703125,-0.187225341796875,-0.156158447265625
1772871714522015000,9.193014892578125,0.0723419189453125,-0.0985260009765625,-0.05267333984375
1772871714531948000,9.202947998046875,-0.056365966796875,-0.0083160400390625,0.054779052734375
1772871714541881000,9.212881103515626,-0.189910888671875,0.0491790771484375,0.1232147216796875
1772871714551812900,9.222812744140626,-0.2694091796875,0.0780181884765625,0.151458740234375
1772871714561746200,9.23274609375,-0.2312164306640625,0.0859832763671875,0.152618408203125
1772871714571678000,9.242677978515625,-0.145751953125,0.051666259765625,0.103057861328125
1772871714581611000,9.252611083984375,-0.084686279296875,0.007232666015625,0.03887939453125
1772871714591543800,9.262543701171875,-0.0222930908203125,-0.0083160400390625,-0.0263671875
1772871714601475800,9.272475830078125,0.0196380615234375,0.002227783203125,-0.0660552978515625
1772871714611409000,9.282408935546876,0.0301971435546875,0.01904296875,-0.0601806640625
1772871714621341000,9.2923408203125,0.031707763671875,0.035003662109375,-0.0290069580078125
1772871714631274000,9.30227392578125,0.012939453125,0.04949951171875,0.0139007568359375
1772871714641206000,9.3122060546875,-0.031890869140625,0.0602569580078125,0.0636138916015625
1772871714651139000,9.32213916015625,-0.080352783203125,0.063201904296875,0.123809814453125
1772871714661072100,9.332072021484375,-0.100250244140625,0.0516204833984375,0.1853179931640625
1772871714671004200,9.342004150390625,-0.099029541015625,0.0325164794921875,0.246368408203125
1772871714680937000,9.35193701171875,-0.0831451416015625,0.0281219482421875,0.3248748779296875
1772871714690869000,9.361868896484374,-0.107574462890625,0.080230712890625,0.3997344970703125
1772871714700802000,9.371802001953125,-0.1815948486328125,0.2081451416015625,0.3987884521484375
1772871714710735000,9.381735107421875,-0.297637939453125,0.438873291015625,0.392822265625
1772871714720667100,9.391667236328125,-0.533599853515625,0.7488861083984375,0.40380859375
1772871714730600200,9.40160009765625,-0.88336181640625,1.0807647705078125,0.3798065185546875
1772871714740532000,9.411531982421875,-1.1985321044921875,1.397552490234375,0.3829498291015625
1772871714750465000,9.421465087890626,-1.353302001953125,1.6138458251953125,0.4029388427734375
1772871714760397000,9.43139697265625,-1.3448944091796875,1.6540679931640625,0.482696533203125
1772871714770329900,9.441329833984375,-1.3209991455078125,1.5194549560546875,0.4492645263671875
1772871714780263000,9.451262939453125,-1.3470458984375,1.4834442138671875,0.255706787109375
1772871714790195000,9.46119482421875,-1.337860107421875,1.4683380126953125,0.1596527099609375
1772871714800128000,9.4711279296875,-1.402435302734375,1.478515625,0.1409149169921875
1772871714810060000,9.48106005859375,-1.5550689697265625,1.5244903564453125,0.2733154296875
1772871714819993000,9.4909931640625,-1.7697906494140625,1.5273590087890625,0.535003662109375
1772871714829926000,9.50092578125,-2.015777587890625,1.497314453125,0.791412353515625
1772871714839858200,9.510858154296875,-2.1388702392578125,1.50823974609375,0.97149658203125
1772871714849791000,9.520791015625,-2.036590576171875,1.5266265869140625,1.0484771728515625
1772871714859723000,9.530722900390625,-1.8532562255859375,1.483917236328125,1.0161590576171875
1772871714869656000,9.540656005859375,-1.8199615478515625,1.45849609375,0.99237060546875
1772871714879587800,9.550587890625,-1.9027099609375,1.544464111328125,0.9531707763671875
1772871714889521200,9.560521240234374,-1.9852752685546875,1.6788177490234375,0.811187744140625
1772871714899454200,9.5704541015625,-1.8990478515625,1.7594757080078125,0.5155181884765625
1772871714909386000,9.580385986328125,-1.6309356689453125,1.7363739013671875,0.167510986328125
1772871714919319000,9.590319091796875,-1.3477630615234375,1.618133544921875,-0.1324005126953125
1772871714929251000,9.6002509765625,-1.1039581298828125,1.453216552734375,-0.272430419921875
1772871714939183900,9.610183837890625,-0.91259765625,1.2790069580078125,-0.2808380126953125
1772871714949117000,9.620116943359376,-0.72003173828125,1.1537017822265625,-0.290283203125
1772871714959049000,9.630049072265624,-0.5326690673828125,1.0357513427734375,-0.30523681640625
1772871714968982000,9.63998193359375,-0.3671417236328125,0.907623291015625,-0.298370361328125
1772871714978914000,9.6499140625,-0.19622802734375,0.8191375732421875,-0.2517242431640625
1772871714988847000,9.65984716796875,-0.017547607421875,0.73809814453125,-0.1533203125
1772871714998779100,9.669779052734375,0.1298065185546875,0.616058349609375,-0.0626678466796875
1772871715008712000,9.6797119140625,0.315673828125,0.467254638671875,0.003875732421875
1772871715018645000,9.68964501953125,0.4796142578125,0.29644775390625,0.0929412841796875
1772871715028577000,9.699576904296874,0.5204620361328125,0.0607757568359375,0.41900634765625
1772871715038510000,9.709510009765625,0.548675537109375,-0.132659912109375,0.4627532958984375
1772871715048441900,9.71944189453125,0.634552001953125,-0.2046966552734375,0.5215911865234375
1772871715058375200,9.729375244140625,0.52197265625,-0.3168182373046875,0.6424102783203125
1772871715068308200,9.73930810546875,0.52728271484375,-0.3781585693359375,0.5726776123046875
1772871715078240000,9.749239990234376,0.4755859375,-0.3243865966796875,0.5038299560546875
1772871715088172800,9.7591728515625,0.2773284912109375,-0.204498291015625,0.3857269287109375
1772871715098104800,9.769104736328124,-0.04107666015625,-0.003692626953125,0.280303955078125
1772871715108038000,9.779037841796875,-0.3726043701171875,0.21319580078125,0.1422576904296875
1772871715117970000,9.788969970703125,-0.592254638671875,0.3806915283203125,-0.0307464599609375
1772871715127903000,9.798903076171875,-0.6973114013671875,0.3969268798828125,-0.1304168701171875
1772871715137836000,9.8088359375,-0.6143646240234375,0.2873992919921875,-0.1603851318359375
1772871715147768000,9.81876806640625,-0.4687347412109375,0.153778076171875,-0.1803436279296875
1772871715157701000,9.828701171875,-0.345306396484375,0.0544586181640625,-0.1639251708984375
1772871715167633200,9.838633056640624,-0.286468505859375,-0.04852294921875,-0.098602294921875
1772871715177566000,9.84856591796875,-0.31890869140625,-0.0794525146484375,0.0038299560546875
1772871715187499000,9.8584990234375,-0.42584228515625,-0.025787353515625,0.070770263671875
1772871715197431000,9.86843115234375,-0.5665130615234375,0.0847625732421875,0.1656951904296875
1772871715207364000,9.878364013671876,-0.7442474365234375,0.17059326171875,0.288482666015625
1772871715217296100,9.888296142578126,-0.8580169677734375,0.1890411376953125,0.3203277587890625
1772871715227229200,9.898229248046874,-0.8153533935546875,0.229827880859375,0.3539581298828125
1772871715237161000,9.908160888671874,-0.6890716552734375,0.35833740234375,0.3436431884765625
1772871715247094000,9.918093994140625,-0.5732574462890625,0.5257568359375,0.26922607421875
1772871715257026800,9.92802685546875,-0.522613525390625,0.67987060546875,0.288909912109375
1772871715266958800,9.937958740234375,-0.551025390625,0.8477325439453125,0.3451385498046875
1772871715276892000,9.947891845703126,-0.716949462890625,1.0670013427734375,0.457183837890625
1772871715286824200,9.95782421875,-1.052337646484375,1.34051513671875,0.5386199951171875
1772871715296757200,9.96775732421875,-1.3708038330078125,1.5582275390625,0.5606689453125
1772871715306690300,9.977690185546875,-1.5363311767578125,1.675323486328125,0.531005859375
1772871715316622000,9.9876220703125,-1.5057525634765625,1.6762542724609375,0.44927978515625
1772871715326555100,9.99755517578125,-1.3446197509765625,1.57635498046875,0.350494384765625
1772871715336487200,10.007487060546875,-1.123199462890625,1.448150634765625,0.2899017333984375
1772871715346420000,10.017419921875,-0.8892974853515625,1.3062286376953125,0.2591400146484375
1772871715356352000,10.02735205078125,-0.7137451171875,1.1694488525390625,0.264495849609375
1772871715366285000,10.03728515625,-0.6723175048828125,1.080413818359375,0.298797607421875
1772871715376218000,10.047218017578125,-0.7326812744140625,1.055877685546875,0.373748779296875
1772871715386150100,10.057150146484375,-0.877716064453125,1.05169677734375,0.431365966796875
1772871715396083200,10.067083251953125,-1.0206298828125,1.0215301513671875,0.4358367919921875
1772871715406015200,10.07701513671875,-1.03131103515625,0.966888427734375,0.41448974609375
1772871715415948000,10.086947998046876,-0.9263153076171875,0.8531646728515625,0.399200439453125
1772871715425880300,10.09688037109375,-0.791778564453125,0.7103729248046875,0.408966064453125
1772871715435813000,10.106813232421874,-0.6647491455078125,0.60711669921875,0.3973541259765625
1772871715445746200,10.11674609375,-0.6052398681640625,0.5539703369140625,0.36236572265625
1772871715455678200,10.12667822265625,-0.5985260009765625,0.5251312255859375,0.349609375
1772871715465611300,10.136611328125,-0.6216278076171875,0.51611328125,0.3492279052734375
1772871715475543000,10.14654296875,-0.6319732666015625,0.4988555908203125,0.3520355224609375
1772871715485476000,10.15647607421875,-0.6305389404296875,0.476898193359375,0.3413543701171875
1772871715495409000,10.166408935546874,-0.6210784912109375,0.4670562744140625,0.28814697265625
1772871715505341000,10.1763408203125,-0.607818603515625,0.4698333740234375,0.22808837890625
1772871715515274000,10.18627392578125,-0.5857696533203125,0.4581756591796875,0.2076568603515625
1772871715525206000,10.1962060546875,-0.5634002685546875,0.4473419189453125,0.202972412109375
1772871715535139000,10.20613916015625,-0.545654296875,0.4639892578125,0.1820526123046875
1772871715545071000,10.216071044921875,-0.42919921875,0.4541473388671875,0.1702423095703125
1772871715555004200,10.226004150390626,-0.32177734375,0.4018707275390625,0.1589202880859375
1772871715564937200,10.235937255859374,-0.3628082275390625,0.4168853759765625,0.1743927001953125
1772871715574869200,10.245869140625,-0.5087432861328125,0.4734954833984375,0.16845703125
1772871715584802000,10.255802001953125,-0.6463623046875,0.56365966796875,0.139007568359375
1772871715594734000,10.265734130859375,-0.7422637939453125,0.645538330078125,0.1124725341796875
1772871715604667100,10.275667236328125,-0.7884521484375,0.6802215576171875,0.123321533203125
1772871715614599200,10.28559912109375,-0.84442138671875,0.686187744140625,0.175506591796875
