time,seconds_elapsed,z,y,x
1772871705407613000,0.078613037109375,-0.3319447338581085,-0.8307611346244812,-0.6078912019729614
1772871705417546000,0.0885458984375,-0.36669841408729553,-0.8153325915336609,-0.5960158109664917
1772871705427478000,0.09847802734375,-0.4048548638820648,-0.759207010269165,-0.5493207573890686
1772871705437411000,0.1084111328125,-0.4509609639644623,-0.6780221462249756,-0.46739429235458374
1772871705447344000,0.11834423828125,-0.4944341480731964,-0.589752197265625,-0.3653222620487213
1772871705457276200,0.128276123046875,-0.5425660610198975,-0.5123757719993591,-0.2790910303592682
1772871705467209200,0.138209228515625,-0.5918659567832947,-0.3838346004486084,-0.19878099858760834
1772871705477142000,0.14814208984375,-0.576641857624054,-0.21302954852581024,-0.13187433779239655
1772871705487073800,0.15807373046875,-0.5165854692459106,-0.09635406732559204,-0.06570782512426376
1772871705497006800,0.1680068359375,-0.4690433740615845,-0.034639038145542145,-0.09150897711515427
1772871705506939000,0.17793896484375,-0.42205002903938293,-0.01451139897108078,-0.16807405650615692
1772871705516872000,0.187871826171875,-0.3756518065929413,-0.034873995929956436,-0.32750046253204346
1772871705526805000,0.197804931640625,-0.36324918270111084,-0.13219095766544342,-0.58381187915802
1772871705536737000,0.207737060546875,-0.35537099838256836,-0.262681782245636,-0.8354213833808899
1772871705546670000,0.217670166015625,-0.33687692880630493,-0.3992995619773865,-1.0281420946121216
1772871705556603000,0.227602783203125,-0.24619503319263458,-0.6212720274925232,-1.0999943017959595
1772871705566535000,0.237534912109375,-0.09513255953788757,-0.8171882629394531,-0.9892641305923462
1772871705576468000,0.247468017578125,0.0005069138132967055,-0.9864872694015503,-0.8201783299446106
1772871705586400000,0.25739990234375,-0.005905977915972471,-1.0611156225204468,-0.6946369409561157
1772871705596333000,0.2673330078125,-0.048005953431129456,-1.030988335609436,-0.646908164024353
1772871705606266000,0.27726611328125,-0.02595178596675396,-0.819200873374939,-0.6736849546432495
1772871705616198100,0.2871982421875,0.11734301596879959,-0.5621017813682556,-0.7937566637992859
1772871705626131000,0.297130859375,0.3798465430736542,-0.2971537411212921,-0.896101176738739
1772871705636063000,0.30706298828125,0.6283966898918152,-0.12055261433124542,-0.9692723155021667
1772871705645996000,0.31699609375,0.8293178081512451,-0.02786981500685215,-0.9867202639579773
1772871705655929000,0.32692919921875,0.8865195512771606,-0.008238989859819412,-0.9239423871040344
1772871705665860900,0.33686083984375,0.8279547691345215,-0.0851534754037857,-0.7743494510650635
1772871705675794200,0.346794189453125,0.6802838444709778,-0.203611359000206,-0.5837031006813049
1772871705685727200,0.356727294921875,0.5092239379882812,-0.2434415966272354,-0.43536826968193054
1772871705695659000,0.366658935546875,0.3775199353694916,-0.17489267885684967,-0.35187700390815735
1772871705705591800,0.376591796875,0.2695002555847168,0.0024621235206723213,-0.3579482138156891
1772871705715523800,0.38652392578125,0.24037450551986694,0.3762693405151367,-0.4465000033378601
1772871705725457000,0.396456787109375,0.29482710361480713,0.7462340593338013,-0.6232616901397705
1772871705735390000,0.406389892578125,0.29529958963394165,0.8638196587562561,-0.8164446353912354
1772871705745322000,0.416322021484375,0.18391476571559906,0.7287609577178955,-0.9977454543113708
1772871705755255000,0.426255126953125,0.00801547896116972,0.4502914249897003,-1.1739259958267212
1772871705765188000,0.43618798828125,-0.14850541949272156,0.1554182469844818,-1.296183466911316
1772871705775120100,0.4461201171875,-0.22767065465450287,0.03949464485049248,-1.351385474205017
1772871705785053000,0.456052978515625,-0.2715233266353607,0.07876241952180862,-1.33562433719635
1772871705794985000,0.46598486328125,-0.33760038018226624,0.21825313568115234,-1.2669841051101685
1772871705804918000,0.47591796875,-0.4197269380092621,0.32449567317962646,-1.2215481996536255
1772871705814851000,0.48585107421875,-0.4619293808937073,0.4803449809551239,-1.2443379163742065
1772871705824783000,0.495783203125,-0.45068445801734924,0.6312719583511353,-1.382375717163086
1772871705834716200,0.505716064453125,-0.37668275833129883,0.7865561246871948,-1.6187705993652344
1772871705844648200,0.515648193359375,-0.35522913932800293,0.8625108599662781,-1.835395336151123
1772871705854581000,0.5255810546875,-0.4517570734024048,0.834855318069458,-1.9132038354873657
1772871705864514000,0.53551416015625,-0.6716684103012085,0.6070247888565063,-1.7779444456100464
1772871705874445800,0.54544580078125,-0.9644225835800171,0.2230844348669052,-1.4419147968292236
1772871705884379000,0.55537890625,-1.1444661617279053,-0.1462579220533371,-0.9712082147598267
1772871705894312000,0.56531201171875,-1.0896074771881104,-0.4657447636127472,-0.478318989276886
1772871705904244000,0.575243896484375,-0.8609886765480042,-0.34249553084373474,-0.25949370861053467
1772871705914177000,0.585177001953125,-0.622334897518158,0.009292397648096085,-0.265479177236557
1772871705924109000,0.595109130859375,-0.4719448983669281,0.2285272777080536,-0.2764921486377716
1772871705934041900,0.605041748046875,-0.44344550371170044,0.3391094505786896,-0.3011421859264374
1772871705943975000,0.614974853515625,-0.473850280046463,0.3525139391422272,-0.28669771552085876
1772871705953907000,0.624906982421875,-0.5237761735916138,0.2596137821674347,-0.20581601560115814
1772871705963840000,0.634840087890625,-0.6047943234443665,0.12580029666423798,-0.09033869951963425
1772871705973772000,0.64477197265625,-0.6282185912132263,0.024218019098043442,-0.21925131976604462
1772871705983705000,0.654705078125,-0.5424490571022034,0.04402661323547363,-0.6437341570854187
1772871705993638100,0.66463818359375,-0.5004028081893921,0.007997503504157066,-0.5072977542877197
1772871706003570200,0.674570068359375,-0.44702163338661194,-0.22944754362106323,-0.3707242012023926
1772871706013503000,0.6845029296875,-0.34376060962677,-0.1797713339328766,-0.2522512674331665
1772871706023436000,0.69443603515625,-0.23748210072517395,-0.09144573658704758,-0.07661658525466919
1772871706033368000,0.7043681640625,-0.11125502735376358,-0.04315296933054924,0.014043099246919155
1772871706043301000,0.714301025390625,0.00669078528881073,0.03764786943793297,-0.03658385947346687
1772871706053233000,0.72423291015625,0.11548329889774323,0.07112114876508713,-0.1498757004737854
1772871706063166000,0.734166015625,0.1994975209236145,-0.017398865893483162,-0.2894434332847595
1772871706073099000,0.74409912109375,0.2738542854785919,-0.16585278511047363,-0.49083879590034485
1772871706083031000,0.754031005859375,0.3944243788719177,-0.34220969676971436,-0.7740576863288879
1772871706092963800,0.7639638671875,0.5850275754928589,-0.5640407800674438,-1.0877517461776733
1772871706102895900,0.773895751953125,0.842934787273407,-0.8287440538406372,-1.3506767749786377
1772871706112829000,0.783828857421875,1.1144415140151978,-1.1058356761932373,-1.5728131532669067
1772871706122762000,0.793761962890625,1.3324861526489258,-1.3730889558792114,-1.7773865461349487
1772871706132694000,0.803694091796875,1.4937928915023804,-1.5918625593185425,-1.975023865699768
1772871706142627000,0.813626953125,1.59515380859375,-1.7254794836044312,-2.143477439880371
1772871706152559900,0.823559814453125,1.601556658744812,-1.7405376434326172,-2.151837110519409
1772871706162492200,0.8334921875,1.5200375318527222,-1.601255178451538,-1.9642739295959473
1772871706172425000,0.843425048828125,1.2616655826568604,-1.3455482721328735,-1.5484095811843872
1772871706182357000,0.85335693359375,0.9566074013710022,-0.8759345412254333,-0.9274957180023193
1772871706192290000,0.8632900390625,0.75239098072052,-0.17104968428611755,-0.1378152221441269
1772871706202223000,0.87322314453125,0.6909406185150146,0.6674599051475525,0.8103976845741272
1772871706212155100,0.883155029296875,0.7310603260993958,1.5781759023666382,1.9523454904556274
1772871706222088200,0.893088134765625,0.7240577936172485,2.2207934856414795,3.1381452083587646
1772871706232020000,0.90302001953125,0.5278093814849854,2.4951822757720947,4.087782859802246
1772871706241953000,0.912953125,0.06792567670345306,2.2362382411956787,4.5876898765563965
1772871706251885800,0.9228857421875,-0.7120908498764038,1.4892479181289673,4.366021633148193
1772871706261817900,0.93281787109375,-1.6234378814697266,0.4145351052284241,3.2400732040405273
1772871706271751000,0.9427509765625,-2.306126594543457,-0.6234541535377502,1.5359290838241577
1772871706281684200,0.952684326171875,-2.5335426330566406,-1.2460604906082153,-0.10157670080661774
1772871706291616300,0.9626162109375,-2.2741994857788086,-1.1697392463684082,-1.240777850151062
1772871706301549300,0.97254931640625,-1.7582347393035889,-0.018081631511449814,-1.8950231075286865
1772871706311481300,0.9824814453125,-1.1285667419433594,0.998767077922821,-2.0353260040283203
1772871706321414100,0.9924140625,-0.6453923583030701,1.43443763256073,-1.7685127258300781
1772871706331347200,1.00234716796875,-0.4205132722854614,1.1568443775177002,-1.3400110006332397
1772871706341279200,1.012279296875,-0.34464672207832336,0.400774210691452,-0.8881918787956238
1772871706351212300,1.02221240234375,-0.36029496788978577,0.21851611137390137,-0.765556275844574
1772871706361144000,1.03214404296875,-0.36517947912216187,0.26265427470207214,-0.8956554532051086
1772871706371077000,1.0420771484375,-0.4653567373752594,0.4362504184246063,-1.0486319065093994
1772871706381010200,1.05201025390625,-0.602606475353241,0.7690153121948242,-1.217307448387146
1772871706390942200,1.061942138671875,-0.6693329215049744,1.0510257482528687,-1.51735258102417
1772871706400875000,1.071875,-0.47151440382003784,0.3036169707775116,-2.482262372970581
1772871706410808000,1.08180810546875,-0.12191253155469894,-0.6208968758583069,-3.0574941635131836
1772871706420740000,1.091739990234375,0.2638261020183563,-0.9520984888076782,-2.277235984802246
1772871706430673200,1.101673095703125,0.6066293120384216,-0.8011114001274109,-0.6156606078147888
1772871706440605200,1.111605224609375,0.7100640535354614,-0.4310217499732971,0.9286249876022339
1772871706450538200,1.121538330078125,0.5049207210540771,-0.02883075177669525,1.6874040365219116
1772871706460471000,1.131470947265625,0.01832759752869606,0.23779506981372833,1.720173716545105
1772871706470403000,1.141403076171875,-0.5412062406539917,0.38553646206855774,1.3615922927856445
1772871706480336100,1.151336181640625,-0.9517711400985718,0.5056929588317871,0.8638059496879578
1772871706490268200,1.16126806640625,-1.1301530599594116,0.5794019103050232,0.3363146185874939
1772871706500201200,1.171201171875,-1.1245242357254028,0.6761918067932129,-0.1138104721903801
1772871706510134300,1.18113427734375,-1.0177968740463257,0.8578838109970093,-0.4252198338508606
1772871706520066300,1.19106640625,-0.888460636138916,1.1479297876358032,-0.5863802433013916
1772871706529999400,1.200999267578125,-0.7651287913322449,1.3489772081375122,-0.6236643195152283
1772871706539932200,1.21093212890625,-0.6407519578933716,1.312921166419983,-0.6301661729812622
1772871706549864000,1.220864013671875,-0.5146216750144958,0.7451820969581604,-0.8768664002418518
1772871706559797200,1.23079736328125,-0.521104097366333,-0.47125428915023804,-1.4607678651809692
1772871706569729000,1.24072900390625,-0.6510860919952393,-2.1809449195861816,-2.279306411743164
1772871706579662000,1.250662109375,-0.8529411554336548,-3.866948127746582,-2.7215709686279297
1772871706589595100,1.26059521484375,-0.8877052664756775,-5.526770114898682,-2.577125310897827
1772871706599527200,1.270527099609375,-0.722163736820221,-6.340564727783203,-2.173470973968506
1772871706609460200,1.280460205078125,-0.5220407843589783,-6.20883846282959,-1.3508931398391724
1772871706619392300,1.290392333984375,-0.24354127049446106,-4.983317852020264,-0.5278493165969849
1772871706629325000,1.300324951171875,-0.13187655806541443,-2.9566004276275635,-0.0032946981955319643
1772871706639258000,1.310258056640625,-0.028716344386339188,-1.0600101947784424,0.2762370705604553
1772871706649190100,1.320190185546875,0.11016245186328888,0.3528430759906769,0.48251426219940186
1772871706659123200,1.330123291015625,0.2952081859111786,1.0603371858596802,0.6617167592048645
1772871706669056300,1.34005615234375,0.5361912846565247,1.1895440816879272,0.8222389221191406
1772871706678988300,1.34998828125,0.7626180052757263,0.9798002243041992,0.9905155301094055
1772871706688921000,1.359921142578125,0.898060142993927,0.7745583653450012,1.1842509508132935
1772871706698853400,1.369853271484375,0.9838346838951111,0.7644490003585815,1.347018837928772
1772871706708786200,1.3797861328125,1.0161582231521606,1.0002927780151367,1.4396382570266724
1772871706718719200,1.38971923828125,0.9500370621681213,1.323954701423645,1.5060737133026123
1772871706728651300,1.3996513671875,0.7705208659172058,1.5915696620941162,1.5724985599517822
1772871706738584300,1.409584228515625,0.4795566499233246,1.71488356590271,1.6571813821792603
1772871706748516000,1.41951611328125,0.09322172403335571,1.6795237064361572,1.7297781705856323
1772871706758449200,1.42944921875,-0.2851485013961792,1.3710159063339233,1.7185262441635132
1772871706768382000,1.4393818359375,-0.6233224868774414,0.856486976146698,1.7020182609558105
1772871706778314200,1.449314208984375,-0.898905336856842,0.1782081127166748,1.6471188068389893
1772871706788247000,1.4592470703125,-1.0642389059066772,-0.5574958920478821,1.3626761436462402
1772871706798180000,1.46918017578125,-1.1294384002685547,-0.9803715348243713,1.031074047088623
1772871706808112000,1.479112060546875,-1.057175636291504,-1.1016008853912354,0.7702778577804565
1772871706818045200,1.489045166015625,-0.8032891154289246,-0.8880236744880676,0.5205396413803101
1772871706827977200,1.498977294921875,-0.4018917679786682,-0.5278111696243286,0.13028360903263092
1772871706837910300,1.50891015625,-0.004918838385492563,-0.12534816563129425,-0.35313525795936584
1772871706847843000,1.518843017578125,0.26907721161842346,0.16211003065109253,-0.8317269682884216
1772871706857775000,1.528775146484375,0.4339473843574524,0.327610582113266,-1.2309560775756836
1772871706867708200,1.538708251953125,0.5380709767341614,0.33086976408958435,-1.4600902795791626
1772871706877640200,1.54864013671875,0.655997097492218,0.21104243397712708,-1.5106892585754395
1772871706887573200,1.5585732421875,0.7518719434738159,0.059603285044431686,-1.3984025716781616
1772871706897506300,1.56850634765625,0.7605552077293396,-0.10349349677562714,-1.1098109483718872
1772871706907438300,1.578438232421875,0.6981170773506165,-0.26429039239883423,-0.6470414400100708
1772871706917371400,1.588371337890625,0.6312983632087708,-0.3725430965423584,-0.10416246205568314
1772871706927303200,1.59830322265625,0.5953592658042908,-0.398621529340744,0.3710069954395294
1772871706937236000,1.608236083984375,0.5943779349327087,-0.38658055663108826,0.6974220871925354
1772871706947169000,1.6181689453125,0.5589678883552551,-0.3369823396205902,0.8757529854774475
1772871706957101000,1.62810107421875,0.4744729697704315,-0.28333213925361633,0.9312778115272522
1772871706967034000,1.6380341796875,0.3179754316806793,-0.13427303731441498,0.8588117957115173
1772871706976966100,1.647966064453125,0.08526203781366348,0.08514188230037689,0.6520956158638
1772871706986899200,1.657899169921875,-0.14317433536052704,0.3027530312538147,0.382544606924057
1772871706996832300,1.667832275390625,-0.29729127883911133,0.4804847836494446,0.18017631769180298
1772871707006764300,1.677764404296875,-0.35292068123817444,0.6392897367477417,0.10089729726314545
1772871707016697000,1.687697021484375,-0.3091422915458679,0.7828934788703918,0.07612351328134537
1772871707026630100,1.697630126953125,-0.18874216079711914,0.8677542209625244,0.06613515317440033
1772871707036562200,1.707562255859375,-0.09878323972225189,0.8697806596755981,0.049501314759254456
1772871707046495200,1.7174951171875,-0.10198892652988434,0.8224466443061829,0.04922976344823837
1772871707056427300,1.72742724609375,-0.1711703985929489,0.8270983695983887,0.032161034643650055
1772871707066360300,1.7373603515625,-0.13718992471694946,0.8144017457962036,-0.1721627116203308
1772871707076293000,1.747293212890625,0.0878828763961792,0.4954410791397095,-0.7361025214195251
1772871707086225200,1.75722509765625,0.3320178687572479,-0.17708660662174225,-1.6201231479644775
1772871707096158200,1.767158203125,0.43362918496131897,-0.8631888031959534,-2.476624011993408
1772871707106090000,1.777090087890625,0.26165881752967834,-1.1447657346725464,-2.733302593231201
1772871707116023000,1.78702294921875,-0.17650921642780304,-0.8588511943817139,-2.211185932159424
1772871707125956000,1.7969560546875,-0.6174910664558411,-0.25584980845451355,-1.2609281539916992
1772871707135888100,1.80688818359375,-0.8379648327827454,0.3763734698295593,-0.07756157964468002
1772871707145821200,1.8168212890625,-0.8146666884422302,0.9881753921508789,1.1260943412780762
1772871707155754000,1.82675390625,-0.6637458801269531,1.330299973487854,1.7239558696746826
1772871707165686000,1.83668603515625,-0.5508257150650024,1.1252851486206055,1.584045648574829
1772871707175619000,1.846619140625,-0.37586748600006104,0.5090993046760559,1.0311983823776245
1772871707185551000,1.856551025390625,0.03792805224657059,-0.16375750303268433,0.35288912057876587
1772871707195484200,1.866484130859375,0.6935141086578369,-0.678802490234375,-0.18673227727413177
1772871707205417200,1.876417236328125,1.3574057817459106,-1.0141605138778687,-0.4292832314968109
1772871707215349200,1.886349365234375,1.8638076782226562,-1.1330852508544922,-0.5508096814155579
1772871707225282300,1.8962822265625,2.0466527938842773,-1.1846957206726074,-0.630653977394104
1772871707235214300,1.90621435546875,1.8554776906967163,-1.272819995880127,-0.6534847021102905
1772871707245147100,1.916147216796875,1.4392369985580444,-1.3235180377960205,-0.5544216632843018
1772871707255080200,1.926080078125,1.0022351741790771,-1.213942050933838,-0.2653193175792694
1772871707265012200,1.93601220703125,0.6524658799171448,-0.919295608997345,0.19441092014312744
1772871707274945300,1.9459453125,0.34797969460487366,-0.501093327999115,0.7761076092720032
1772871707284877000,1.955876953125,0.07542115449905396,-0.041339028626680374,1.3646305799484253
1772871707294810000,1.96581005859375,-0.18146391212940216,0.4173167049884796,1.8214401006698608
1772871707304743200,1.9757431640625,-0.4709175229072571,0.8172599077224731,2.08486008644104
1772871707314675200,1.98567529296875,-0.7915328145027161,1.1375596523284912,2.164712905883789
1772871707324608000,1.99560791015625,-1.0517100095748901,1.3070259094238281,2.038738489151001
1772871707334539800,2.005539794921875,-1.2014012336730957,1.3119852542877197,1.7191330194473267
1772871707344473000,2.01547314453125,-1.2253979444503784,1.132261037826538,1.1133438348770142
1772871707354406100,2.02540625,-1.2015178203582764,0.9761852025985718,0.5003185272216797
1772871707364338000,2.035337890625,-1.1923640966415405,1.0075757503509521,0.15842166543006897
1772871707374271000,2.04527099609375,-1.1265294551849365,1.1161177158355713,-0.004254871979355812
1772871707384204000,2.0552041015625,-1.0315519571304321,1.1419546604156494,-0.2157573401927948
1772871707394136000,2.065135986328125,-0.89851313829422,0.9598701596260071,-0.5783520340919495
1772871707404068900,2.07506884765625,-0.7279685735702515,0.7415262460708618,-0.8835645318031311
1772871707414001000,2.0850009765625,-0.5426735877990723,0.5410637259483337,-1.0761467218399048
1772871707423934000,2.094933837890625,-0.3318554759025574,0.36726561188697815,-1.1764447689056396
1772871707433867000,2.104866943359375,-0.09100370109081268,0.20715506374835968,-1.2241140604019165
1772871707443799000,2.114799072265625,0.17373427748680115,0.038675110787153244,-1.2078551054000854
1772871707453732000,2.124732177734375,0.40462687611579895,-0.15666428208351135,-1.1089844703674316
1772871707463664000,2.1346640625,0.5473076701164246,-0.27644577622413635,-0.9508679509162903
1772871707473597000,2.144596923828125,0.6111870408058167,-0.3569693863391876,-0.752962589263916
1772871707483530000,2.154530029296875,0.6287873983383179,-0.3999893367290497,-0.5092988610267639
1772871707493462000,2.1644619140625,0.6273772716522217,-0.33733049035072327,-0.2531459331512451
1772871707503395000,2.17439501953125,0.595115065574646,-0.18080851435661316,-0.02359420247375965
1772871707513327000,2.1843271484375,0.5195443630218506,0.029783889651298523,0.18281489610671997
1772871707523260200,2.19426025390625,0.4005688726902008,0.24498505890369415,0.35283640027046204
1772871707533193200,2.204193115234375,0.22144676744937897,0.40828612446784973,0.48857906460762024
1772871707543125000,2.214125,-0.009475978091359138,0.5293968915939331,0.5679055452346802
1772871707553057800,2.224057861328125,-0.24857138097286224,0.6260648965835571,0.5647401213645935
1772871707562989800,2.23398974609375,-0.5012879371643066,0.686191976070404,0.4961605668067932
1772871707572923000,2.2439228515625,-0.718166708946228,0.7506740093231201,0.34529247879981995
1772871707582856000,2.25385595703125,-0.7816121578216553,0.8049994111061096,0.11064356565475464
1772871707592788000,2.2637880859375,-0.687039852142334,0.7746630907058716,-0.10440988093614578
1772871707602721000,2.273720947265625,-0.5280358195304871,0.6268702745437622,-0.1980699598789215
1772871707612653000,2.283653076171875,-0.44772976636886597,0.47343170642852783,-0.14567439258098602
1772871707622586000,2.293586181640625,-0.4611128568649292,0.22345401346683502,-0.21866187453269958
1772871707632519000,2.303518798828125,-0.5560302734375,-0.3641924262046814,-0.49461355805397034
1772871707642451000,2.313450927734375,-0.6951135993003845,-1.1530810594558716,-0.934698760509491
1772871707652384000,2.323384033203125,-0.7767245769500732,-1.567631721496582,-1.4009015560150146
1772871707662317000,2.333317138671875,-0.5626480579376221,-1.4754390716552734,-1.8483920097351074
1772871707672249000,2.3432490234375,-0.06245153397321701,-1.1626989841461182,-2.318781852722168
1772871707682182100,2.35318212890625,0.29036325216293335,-1.2069804668426514,-2.891228437423706
1772871707692114200,2.3631142578125,0.17781753838062286,-1.64059579372406,-2.948690176010132
1772871707702047200,2.373047119140625,-0.04515814036130905,-2.136141538619995,-1.9483873844146729
1772871707711980000,2.38297998046875,-0.20106731355190277,-2.0130138397216797,-0.5189154744148254
1772871707721911800,2.392911865234375,0.08066964894533157,-1.74392831325531,1.0331186056137085
1772871707731844900,2.402844970703125,0.2719722092151642,-0.6865013837814331,1.825028419494629
1772871707741777000,2.41277685546875,0.5967121720314026,0.5219560265541077,1.6745431423187256
1772871707751710000,2.4227099609375,0.8119882345199585,1.2982816696166992,1.0567684173583984
1772871707761643000,2.43264306640625,0.8812292814254761,1.42239248752594,0.4055364727973938
1772871707771575000,2.442574951171875,0.8935650587081909,1.0114288330078125,-0.07780276238918304
1772871707781508000,2.452508056640625,0.9416195750236511,0.35571420192718506,-0.26606613397598267
1772871707791440100,2.462440185546875,1.0181398391723633,-0.07942769676446915,-0.13155414164066315
1772871707801373000,2.472373046875,1.1151905059814453,-0.10847824811935425,0.20916074514389038
1772871707811306000,2.482305908203125,1.2407801151275635,0.21524149179458618,0.5564132332801819
1772871707821238000,2.492238037109375,1.3145161867141724,0.7761257290840149,0.8345552682876587
1772871707831171000,2.502171142578125,1.2124050855636597,1.3309074640274048,1.1248509883880615
1772871707841103000,2.51210302734375,0.912153959274292,1.7419816255569458,1.4794734716415405
1772871707851036200,2.5220361328125,0.4579731523990631,1.9525953531265259,1.8463523387908936
1772871707860969000,2.531968994140625,-0.07604382187128067,2.0246782302856445,2.1843972206115723
1772871707870901000,2.54190087890625,-0.592821478843689,1.98270583152771,2.3699774742126465
1772871707880834000,2.551833984375,-0.9287081956863403,1.5920050144195557,2.0409553050994873
1772871707890765800,2.561765869140625,-1.0697731971740723,1.0079386234283447,1.4333502054214478
1772871707900699000,2.571698974609375,-1.0655280351638794,0.7233179807662964,1.1188921928405762
1772871707910632000,2.5816318359375,-0.8760159015655518,0.7018275856971741,1.0594606399536133
1772871707920564000,2.59156396484375,-0.5924205780029297,0.7706257104873657,1.0757466554641724
1772871707930497000,2.6014970703125,-0.19049444794654846,0.8445116281509399,1.2253068685531616
1772871707940429000,2.611428955078125,0.28405654430389404,0.7855499386787415,1.0050013065338135
1772871707950361900,2.62136181640625,0.4830663204193115,0.6681780219078064,0.5201793909072876
1772871707960295000,2.631294921875,0.38628828525543213,0.5009826421737671,0.05733506381511688
1772871707970227000,2.64122705078125,0.26259031891822815,0.4161851406097412,-0.41881468892097473
1772871707980160000,2.651159912109375,0.20880141854286194,0.4081723988056183,-0.9603119492530823
1772871707990092000,2.661092041015625,0.24138785898685455,0.4179725646972656,-1.4705288410186768
1772871708000025000,2.671025146484375,0.23881641030311584,0.35725829005241394,-1.8849979639053345
1772871708009958100,2.680958251953125,0.17719697952270508,0.034825649112463,-2.119871139526367
1772871708019890200,2.69089013671875,0.12116432189941406,-0.33681055903434753,-2.1732804775238037
1772871708029823000,2.700822998046875,0.058678045868873596,-0.5776591897010803,-2.0068390369415283
1772871708039756000,2.710756103515625,-0.02184637077152729,-0.6497676372528076,-1.6543474197387695
1772871708049688000,2.72068798828125,-0.11302608251571655,-0.5725615620613098,-1.1866647005081177
1772871708059621000,2.73062109375,-0.18807682394981384,-0.4568673372268677,-0.6715970039367676
1772871708069553000,2.740552978515625,-0.21191105246543884,-0.3207254707813263,-0.18945296108722687
1772871708079486000,2.75048583984375,-0.26653480529785156,-0.14288397133350372,0.16175609827041626
1772871708089419000,2.7604189453125,-0.44969743490219116,0.06713876128196716,0.35351940989494324
1772871708099351000,2.77035107421875,-0.6902027130126953,0.2142113745212555,0.37434718012809753
1772871708109283800,2.780283935546875,-0.8492429256439209,0.2535366714000702,0.2868002951145172
1772871708119215900,2.7902158203125,-0.958042323589325,0.24099305272102356,0.20953287184238434
1772871708129149000,2.80014892578125,-0.9943622350692749,0.22047047317028046,0.14564310014247894
1772871708139082000,2.81008203125,-0.9178307056427002,0.15967264771461487,0.08692315965890884
1772871708149014000,2.820013916015625,-0.7345002889633179,0.10124101489782333,0.014226581901311874
1772871708158947000,2.829947021484375,-0.48506301641464233,0.025980956852436066,-0.05680737644433975
1772871708168879000,2.839879150390625,-0.24201709032058716,0.0012431195937097073,-0.08262991905212402
1772871708178812000,2.84981201171875,-0.035011764615774155,0.0906391590833664,-0.024152865633368492
1772871708188745000,2.859744873046875,0.09468817710876465,0.198299840092659,0.08335308730602264
1772871708198677000,2.869677001953125,0.09888600558042526,0.4001307785511017,0.20924516022205353
1772871708208610000,2.879610107421875,-0.019160207360982895,0.5415214896202087,0.2837585210800171
1772871708218542000,2.8895419921875,-0.17042194306850433,0.3286617696285248,0.09971164166927338
1772871708228475100,2.89947509765625,-0.31068745255470276,-0.5525305271148682,-0.5386486053466797
1772871708238408200,2.909408203125,-0.5747463703155518,-2.0511984825134277,-1.619755744934082
1772871708248340000,2.919340087890625,-0.9628447890281677,-3.6205503940582275,-2.6646406650543213
1772871708258272800,2.929272705078125,-1.2300004959106445,-4.487846851348877,-3.087836265563965
1772871708268204800,2.939204833984375,-1.2233260869979858,-4.42037296295166,-2.6558890342712402
1772871708278137900,2.949137939453125,-1.0185638666152954,-3.5423829555511475,-1.4344737529754639
1772871708288070400,2.9590703125,-0.694851279258728,-2.174549102783203,0.3170022666454315
1772871708298002400,2.96900244140625,-0.36492642760276794,-0.6342388987541199,1.884753704071045
1772871708307935500,2.978935546875,-0.19292883574962616,0.9447165131568909,2.6106605529785156
1772871708317867500,2.988867431640625,-0.14343738555908203,2.047778367996216,2.3933591842651367
1772871708327800600,2.998800537109375,-0.07748048007488251,2.2714757919311523,1.5134836435317993
1772871708337733600,3.008733642578125,0.1371760219335556,1.7080512046813965,0.4138542115688324
1772871708347665700,3.018665771484375,0.5311142206192017,0.9055300354957581,-0.4207804501056671
1772871708357598500,3.028598388671875,1.062873125076294,0.03770424798130989,-0.6615097522735596
1772871708367530500,3.038530517578125,1.577662706375122,-0.5917783379554749,-0.5448678731918335
1772871708377463600,3.048463623046875,1.8579849004745483,-0.8343780636787415,-0.45542624592781067
1772871708387396600,3.058396728515625,1.7902761697769165,-0.9067811369895935,-0.4522935748100281
1772871708397328600,3.06832861328125,1.4398061037063599,-0.862095057964325,-0.4013615846633911
1772871708407261700,3.07826171875,1.0394396781921387,-0.6541810035705566,-0.17940227687358856
1772871708417193700,3.08819384765625,0.7271958589553833,-0.21558654308319092,0.20846359431743622
1772871708427126500,3.09812646484375,0.49239957332611084,0.43734171986579895,0.6540504097938538
1772871708437059600,3.1080595703125,0.2639070451259613,1.10456383228302,1.0710675716400146
1772871708446991400,3.117991455078125,0.03061494417488575,1.5688142776489258,1.4183454513549805
1772871708456924400,3.12792431640625,-0.18737517297267914,1.7521263360977173,1.674880027770996
1772871708466856400,3.1378564453125,-0.36988186836242676,1.6075880527496338,1.8215948343276978
1772871708476789500,3.14778955078125,-0.5373570919036865,1.2834415435791016,1.8559930324554443
1772871708486722600,3.15772265625,-0.7269365787506104,0.9822475910186768,1.7884116172790527
1772871708496654600,3.167654541015625,-0.9126165509223938,0.6604024767875671,1.5617464780807495
1772871708506587400,3.17758740234375,-1.106187343597412,0.3404391407966614,1.2577141523361206
1772871708516520400,3.1875205078125,-1.2993172407150269,0.12910586595535278,1.0364311933517456
1772871708526452500,3.197452392578125,-1.414178490638733,0.02554325945675373,0.9837180972099304
1772871708536385500,3.207385498046875,-1.4780857563018799,0.0113860247656703,1.0577454566955566
1772871708546317600,3.217317626953125,-1.4810343980789185,0.00988213811069727,1.1052546501159668
1772871708556250600,3.227250732421875,-1.4250524044036865,0.027349136769771576,1.0623100996017456
1772871708566183700,3.23718359375,-1.343639850616455,-0.05964115634560585,0.9392451047897339
1772871708576115700,3.24711572265625,-1.2146776914596558,-0.20330943167209625,0.6949798464775085
1772871708586048500,3.257048583984375,-1.0566693544387817,-0.3864281475543976,0.3477504849433899
1772871708595980500,3.26698046875,-0.8485416769981384,-0.5671154260635376,-0.02448984421789646
1772871708605913600,3.27691357421875,-0.5274301767349243,-0.7292372584342957,-0.39648470282554626
1772871708615846700,3.2868466796875,-0.1957874894142151,-0.8446148633956909,-0.7029449939727783
1772871708625778400,3.2967783203125,0.02475872077047825,-0.9573233127593994,-0.9481531977653503
1772871708635711500,3.30671142578125,0.1532064527273178,-1.0825872421264648,-1.1517415046691895
1772871708645643500,3.3166435546875,0.21817053854465485,-1.2039523124694824,-1.2658345699310303
1772871708655576600,3.32657666015625,0.2536622881889343,-1.3318685293197632,-1.1922132968902588
1772871708665508600,3.336508544921875,0.2756059169769287,-1.3425699472427368,-0.9323164820671082
1772871708675441400,3.34644140625,0.31819456815719604,-1.2409074306488037,-0.5501898527145386
1772871708685374500,3.35637451171875,0.3778475224971771,-1.0242619514465332,-0.11422612518072128
1772871708695306500,3.366306396484375,0.40267086029052734,-0.7276869416236877,0.2703154385089874
1772871708705239600,3.376239501953125,0.33917179703712463,-0.43634963035583496,0.5385623574256897
1772871708715172600,3.386172607421875,0.20650441944599152,-0.19450928270816803,0.6385093927383423
1772871708725104600,3.396104736328125,0.044070761650800705,-0.002436515176668763,0.5898651480674744
1772871708735037400,3.406037353515625,-0.10547961294651031,0.15473012626171112,0.4268306493759155
1772871708744969700,3.4159697265625,-0.18468575179576874,0.28789669275283813,0.23188433051109314
1772871708754902500,3.425902587890625,-0.21534737944602966,0.3582952320575714,0.09302516281604767
1772871708764835600,3.435835693359375,-0.2328326404094696,0.4207538068294525,0.05615609511733055
1772871708774767600,3.445767578125,-0.22120271623134613,0.5472359657287598,0.07367631793022156
1772871708784700700,3.45570068359375,-0.1226780116558075,0.7549558281898499,0.11949414014816284
1772871708794632400,3.465632568359375,0.04062414914369583,1.0891035795211792,0.18428495526313782
1772871708804565500,3.4755654296875,0.1405712515115738,1.4241063594818115,0.13601621985435486
1772871708814498600,3.48549853515625,0.12666665017604828,1.34450364112854,-0.1268366277217865
1772871708824430600,3.4954306640625,-0.044517356902360916,0.6065137982368469,-0.806318998336792
1772871708834363400,3.50536328125,-0.26619094610214233,-0.44877293705940247,-1.7545068264007568
1772871708844295400,3.51529541015625,-0.48756274580955505,-1.2574505805969238,-2.6054468154907227
1772871708854228500,3.525228515625,-0.6909619569778442,-1.5735841989517212,-3.2735514640808105
1772871708864161500,3.53516162109375,-0.9281536936759949,-1.4832806587219238,-3.737452507019043
1772871708874093600,3.545093505859375,-1.001650333404541,-1.3066500425338745,-3.5010621547698975
1772871708884026600,3.555026611328125,-0.8291777968406677,-1.0385538339614868,-2.2621703147888184
1772871708893958700,3.564958740234375,-0.5142638683319092,-0.9335532784461975,-0.6039472818374634
1772871708903891500,3.574891357421875,-0.36742329597473145,-0.9327029585838318,1.0098638534545898
1772871708913824500,3.584824462890625,-0.4425986111164093,-0.7344760894775391,2.2693958282470703
1772871708923756500,3.594756591796875,-0.3663586974143982,-0.3128543198108673,2.7227165699005127
1772871708933689600,3.604689697265625,-0.167525976896286,0.11470621079206467,2.374286413192749
1772871708943621600,3.61462158203125,-0.015234431251883507,0.19494804739952087,1.6232181787490845
1772871708953554700,3.6245546875,0.1919488161802292,-0.06603940576314926,0.7714788317680359
1772871708963487700,3.63448779296875,0.6441277265548706,-0.5975751876831055,0.003978457301855087
1772871708973419800,3.644419677734375,1.2625553607940674,-1.0559191703796387,-0.5044627785682678
1772871708983352600,3.6543525390625,1.883738398551941,-1.1598865985870361,-0.6260355710983276
1772871708993284400,3.664284423828125,2.2491164207458496,-0.9517565965652466,-0.4114062190055847
1772871709003217400,3.674217529296875,2.3758418560028076,-0.5116782784461975,-0.1286349892616272
1772871709013150500,3.684150390625,2.358170986175537,-0.08624614775180817,-0.034310076385736465
1772871709023082500,3.69408251953125,2.1175880432128906,0.1670905202627182,-0.0633782148361206
1772871709033015600,3.704015625,1.5830230712890625,0.32590046525001526,-0.006327803712338209
1772871709042947600,3.713947509765625,0.8780760765075684,0.4187350571155548,0.1768537312746048
1772871709052880600,3.723880615234375,0.20331254601478577,0.4094909727573395,0.5355455279350281
1772871709062813400,3.7338134765625,-0.3539288640022278,0.3534913659095764,1.0782556533813477
1772871709072745500,3.743745361328125,-0.7895588278770447,0.35955116152763367,1.6879488229751587
1772871709082678500,3.753678466796875,-1.1253483295440674,0.4292229115962982,2.1774306297302246
1772871709092610600,3.763610595703125,-1.399731159210205,0.5720089077949524,2.4568984508514404
1772871709102543600,3.773543701171875,-1.609922170639038,0.7596645355224609,2.457474946975708
1772871709112476700,3.7834765625,-1.6811721324920654,0.8800536394119263,2.1301209926605225
1772871709122408700,3.79340869140625,-1.6349701881408691,0.8239293694496155,1.4864338636398315
1772871709132341500,3.803341552734375,-1.6135756969451904,0.7577505707740784,0.7777025103569031
1772871709142273800,3.813273681640625,-1.6058440208435059,0.794761061668396,0.2556323707103729
1772871709152206600,3.82320654296875,-1.5130095481872559,0.8184179663658142,-0.036612898111343384
1772871709162139600,3.8331396484375,-1.304097294807434,0.8710137605667114,-0.18661198019981384
1772871709172071400,3.843071533203125,-1.0019623041152954,0.8910689949989319,-0.34726205468177795
1772871709182004500,3.85300439453125,-0.6780740022659302,0.8294714093208313,-0.6007726192474365
1772871709191936500,3.8629365234375,-0.35834068059921265,0.6628134846687317,-0.9045096635818481
1772871709201869600,3.87286962890625,-0.07894233614206314,0.44204244017601013,-1.1602789163589478
1772871709211802400,3.88280224609375,0.15079151093959808,0.25239425897598267,-1.322974443435669
1772871709221734400,3.892734375,0.29572901129722595,0.11258894205093384,-1.3842860460281372
1772871709231667500,3.90266748046875,0.3396623134613037,0.03917156904935837,-1.333338737487793
1772871709241599500,3.912599609375,0.340162456035614,-0.029135581105947495,-1.1856271028518677
1772871709251532500,3.922532470703125,0.31851303577423096,-0.053291842341423035,-0.9675454497337341
1772871709261465600,3.932465576171875,0.27186110615730286,-0.05171125382184982,-0.7201617360115051
1772871709271397600,3.942397705078125,0.23799853026866913,-0.03237531706690788,-0.4760863184928894
1772871709281331200,3.952331298828125,0.2502988576889038,0.044219061732292175,-0.26466304063796997
1772871709291263200,3.96226318359375,0.29798421263694763,0.1445930004119873,-0.09502188861370087
1772871709301196300,3.9721962890625,0.34667450189590454,0.2416393905878067,0.049878042191267014
1772871709311129300,3.98212939453125,0.38753464818000793,0.2971538305282593,0.16812177002429962
1772871709321061400,3.992061279296875,0.4161282181739807,0.3064146935939789,0.26491570472717285
1772871709330994400,4.001994384765625,0.4141525328159332,0.28880882263183594,0.33688879013061523
1772871709340926500,4.011926513671875,0.3651106655597687,0.27130943536758423,0.3787558078765869
1772871709350859500,4.021859619140625,0.2955925762653351,0.3021680414676666,0.3803902566432953
1772871709360792300,4.031792236328125,0.24909672141075134,0.41887176036834717,0.3341439366340637
1772871709370724400,4.041724365234375,0.21678951382637024,0.5019623637199402,0.210565447807312
1772871709380657400,4.051657470703125,0.1447179764509201,0.6706672310829163,0.12631449103355408
1772871709390589400,4.06158935546875,0.0875973254442215,0.8629139065742493,0.03353900462388992
1772871709400522500,4.0715224609375,0.11919146776199341,0.8370338082313538,-0.1266368180513382
1772871709410455600,4.08145556640625,0.22985835373401642,0.3231724500656128,-0.41478514671325684
1772871709420387300,4.09138720703125,0.23104585707187653,-0.3426724076271057,-0.6174085140228271
1772871709430320400,4.1013203125,0.21330270171165466,-1.1850320100784302,-0.5866962671279907
1772871709440252400,4.11125244140625,0.370816171169281,-2.1581130027770996,-0.7369006872177124
1772871709450185200,4.121185302734375,0.5100728273391724,-2.786794900894165,-1.2594531774520874
1772871709460118300,4.1311181640625,0.24187548458576202,-2.8688673973083496,-2.0344479084014893
1772871709470050300,4.14105029296875,-0.3182528018951416,-2.565544366836548,-2.96396541595459
1772871709479983400,4.1509833984375,-0.782584547996521,-2.542961597442627,-4.018102645874023
1772871709489915400,4.160915283203125,-1.1699248552322388,-2.3898799419403076,-4.020596981048584
1772871709499848400,4.170848388671875,-1.1623737812042236,-2.4032645225524902,-2.1220736503601074
1772871709509781200,4.18078125,-0.5919641256332397,-1.8992654085159302,0.5689589977264404
1772871709519713300,4.19071337890625,0.09115003794431686,-0.5090157389640808,2.27091646194458
1772871709529646300,4.200646240234375,0.5803708434104919,0.9295948147773743,2.672567844390869
1772871709539578400,4.210578369140625,0.9265820384025574,2.0243561267852783,2.4761953353881836
1772871709549511400,4.220511474609375,1.2214386463165283,2.711700916290283,2.0195000171661377
1772871709559444500,4.230444580078125,1.3794636726379395,2.7819340229034424,1.3797472715377808
1772871709569376500,4.24037646484375,1.2711741924285889,2.1968016624450684,0.6370454430580139
1772871709579309600,4.2503095703125,1.0138691663742065,1.1242727041244507,-0.13612903654575348
1772871709589241300,4.260241455078125,0.7494418025016785,-0.08618342131376266,-0.639074981212616
1772871709599174400,4.27017431640625,0.5463030934333801,-0.9676567316055298,-0.6057900190353394
1772871709609107500,4.280107421875,0.46388155221939087,-1.3229949474334717,-0.16463248431682587
1772871709619039200,4.290039306640625,0.4008141756057739,-1.1759916543960571,0.4417399764060974
1772871709628972300,4.29997216796875,0.21842309832572937,-0.672143280506134,1.043257713317871
1772871709638904300,4.309904296875,-0.0862414613366127,-0.001625667791813612,1.5676501989364624
1772871709648837400,4.31983740234375,-0.45966237783432007,0.6232677102088928,2.0153958797454834
1772871709658770400,4.3297705078125,-0.9237762093544006,1.0681525468826294,2.368464946746826
1772871709668702500,4.339702392578125,-1.4207069873809814,1.3479244709014893,2.554680824279785
1772871709678635300,4.34963525390625,-1.7599141597747803,1.2853785753250122,2.3253016471862793
1772871709688567300,4.3595673828125,-1.8233773708343506,0.7717581391334534,1.5289101600646973
1772871709698501400,4.36950146484375,-1.775447964668274,0.3302233815193176,0.6550066471099854
1772871709708433400,4.379433349609375,-1.698952078819275,0.3048497140407562,0.28463879227638245
1772871709718366500,4.389366455078125,-1.467010498046875,0.4167187213897705,0.1702515035867691
1772871709728298500,4.399298583984375,-1.025049090385437,0.5534018874168396,0.015121565200388432
1772871709738231300,4.409231201171875,-0.5391583442687988,0.5025136470794678,-0.3806729018688202
1772871709748164400,4.419164306640625,-0.13496947288513184,0.24087956547737122,-0.8987998962402344
1772871709758096400,4.429096435546875,0.27742287516593933,-0.15128740668296814,-1.254592776298523
1772871709768029400,4.439029541015625,0.682022750377655,-0.503638505935669,-1.5032832622528076
1772871709777961500,4.44896142578125,0.988745927810669,-0.709923505783081,-1.6433385610580444
1772871709787894500,4.45889453125,1.095678687095642,-0.8970879912376404,-1.6658148765563965
1772871709797827600,4.46882763671875,0.9949950575828552,-0.9559731483459473,-1.5828107595443726
1772871709807759400,4.47875927734375,0.7480223178863525,-0.8302258849143982,-1.3452881574630737
1772871709817692200,4.488692138671875,0.44616666436195374,-0.6101875305175781,-0.9586553573608398
1772871709827624400,4.49862451171875,0.1969130039215088,-0.30204302072525024,-0.48511454463005066
1772871709837557200,4.50855712890625,0.05078350007534027,-0.011856453493237495,-0.01530255563557148
1772871709847489300,4.5184892578125,0.008434365503489971,0.17562240362167358,0.3306608498096466
1772871709857422300,4.52842236328125,0.0265119019895792,0.33111318945884705,0.4709995985031128
1772871709867355400,4.53835546875,0.06254298985004425,0.4297489821910858,0.435075968503952
1772871709877287400,4.548287353515625,0.06349586695432663,0.5055382251739502,0.31039395928382874
1772871709887220500,4.558220458984375,0.03909914568066597,0.5484827756881714,0.18917414546012878
1772871709897152500,4.568152587890625,0.004327048547565937,0.550758957862854,0.08573857694864273
1772871709907085300,4.578085205078125,-0.020989393815398216,0.5289353728294373,0.03957924619317055
1772871709917018400,4.588018310546875,-0.04075031727552414,0.4705492854118347,0.04947022721171379
1772871709926950400,4.597950439453125,-0.06058385223150253,0.40560340881347656,0.06714560836553574
1772871709936883500,4.607883544921875,-0.03555253520607948,0.3907754421234131,0.031233415007591248
1772871709946815500,4.6178154296875,0.026855438947677612,0.44634366035461426,-0.08487392216920853
1772871709956748500,4.62774853515625,0.14369577169418335,0.6183891892433167,-0.23412492871284485
1772871709966681600,4.637681640625,0.2613571286201477,0.929957389831543,-0.2559579610824585
1772871709976613400,4.64761328125,0.331754595041275,1.287175178527832,-0.289847731590271
1772871709986546200,4.657546142578125,0.36407703161239624,1.411787509918213,-0.5072606801986694
1772871709996478200,4.667478271484375,0.35939812660217285,0.9393314719200134,-0.954105019569397
1772871710006411300,4.677411376953125,0.3228946924209595,0.07342537492513657,-1.4283825159072876
1772871710016344300,4.68734423828125,0.14375849068164825,-0.7313648462295532,-1.720780611038208
1772871710026276400,4.6972763671875,-0.10592200607061386,-1.793226957321167,-1.9354937076568604
1772871710036209400,4.70720947265625,-0.3723009526729584,-2.4614198207855225,-2.0239126682281494
1772871710046141400,4.717141357421875,-0.35261356830596924,-2.620734214782715,-2.135540723800659
1772871710056074500,4.727074462890625,-0.18532045185565948,-2.048292636871338,-1.881873607635498
1772871710066007300,4.73700732421875,0.3075694143772125,-1.7174708843231201,-1.0226325988769531
1772871710075939300,4.746939208984375,0.6037606000900269,-1.0781457424163818,-0.14305946230888367
1772871710085872400,4.756872314453125,0.5993145108222961,-0.24296337366104126,0.6321209073066711
1772871710095804400,4.766804443359375,0.6316506266593933,0.4738171100616455,1.3440539836883545
1772871710105737500,4.776737548828125,0.8260364532470703,1.0286873579025269,1.6487419605255127
1772871710115670500,4.78667041015625,1.0174815654754639,1.3765788078308105,1.6667218208312988
1772871710125602600,4.7966025390625,1.2161192893981934,1.5093666315078735,1.6775569915771484
1772871710135535400,4.806535400390625,1.4740480184555054,1.4392637014389038,1.634037971496582
1772871710145467400,4.81646728515625,1.704634189605713,1.1672723293304443,1.3696300983428955
1772871710155400200,4.826400146484375,1.8007651567459106,0.7009361386299133,0.8713720440864563
1772871710165333200,4.836333251953125,1.7171989679336548,0.21379616856575012,0.1860925853252411
1772871710175265300,4.846265380859375,1.5513734817504883,-0.1917087286710739,-0.47624674439430237
1772871710185198300,4.8561982421875,1.3318054676055908,-0.40258508920669556,-0.7678415775299072
1772871710195130400,4.86613037109375,1.0092655420303345,-0.32185083627700806,-0.5562965869903564
1772871710205063400,4.8760634765625,0.5778527855873108,-0.012950696051120758,0.07950490713119507
1772871710214996200,4.885996337890625,0.07604561746120453,0.33387091755867004,0.9165944457054138
1772871710224928300,4.89592822265625,-0.42752933502197266,0.6963085532188416,1.7076975107192993
1772871710234861300,4.905861328125,-0.8558971881866455,0.9093955159187317,2.2629153728485107
1772871710244793300,4.91579345703125,-0.9923991560935974,0.6261789202690125,2.1824421882629395
1772871710254726400,4.925726318359375,-0.7814805507659912,-0.028749100863933563,1.2997421026229858
1772871710264659500,4.935659423828125,-0.6181626915931702,-0.3478080630302429,0.4914761185646057
1772871710274591500,4.945591552734375,-0.5873419046401978,-0.32021450996398926,0.37216782569885254
1772871710284523500,4.9555234375,-0.46805423498153687,-0.0180205088108778,0.6087562441825867
1772871710294455300,4.965455322265625,-0.2250666320323944,0.3877411186695099,0.626741349697113
1772871710304388400,4.975388427734375,-0.15100011229515076,0.5764855742454529,0.324223130941391
1772871710314321200,4.985321044921875,-0.42325133085250854,0.4893495738506317,-0.10259130597114563
1772871710324253400,4.99525341796875,-0.7555271983146667,0.27784016728401184,-0.45564091205596924
1772871710334186200,5.005186279296875,-0.907042384147644,0.09092516452074051,-0.692887544631958
1772871710344118300,5.0151181640625,-0.9263425469398499,-0.04190152511000633,-0.8845304846763611
1772871710354051300,5.02505126953125,-0.8933199048042297,-0.1492932289838791,-1.0920567512512207
1772871710363984400,5.034984375,-0.8192020654678345,-0.30083388090133667,-1.2717207670211792
1772871710373916400,5.04491650390625,-0.6568320393562317,-0.44044291973114014,-1.3044582605361938
1772871710383849500,5.054849365234375,-0.4318794310092926,-0.4493435323238373,-1.1494883298873901
1772871710393781500,5.064781494140625,-0.15394659340381622,-0.40596944093704224,-0.855798065662384
1772871710403714300,5.07471435546875,0.05436158552765846,-0.3312270939350128,-0.4755203425884247
1772871710413647400,5.0846474609375,0.12227698415517807,-0.22241193056106567,-0.07979138195514679
1772871710423579400,5.094579345703125,0.13227443397045135,-0.12303771823644638,0.24655842781066895
1772871710433512400,5.104512451171875,0.149820938706398,0.006881929002702236,0.4629130959510803
1772871710443444500,5.114444580078125,0.14272715151309967,0.1831122189760208,0.5901554822921753
1772871710453377500,5.12437744140625,0.09436759352684021,0.37106457352638245,0.6388812065124512
1772871710463309300,5.134309326171875,0.037885747849941254,0.49503591656684875,0.6161713004112244
1772871710473242400,5.144242431640625,0.014987356960773468,0.5862540006637573,0.5432025194168091
1772871710483175200,5.154175048828125,0.02133883722126484,0.6271793842315674,0.45228713750839233
1772871710493107200,5.164107177734375,0.0312894731760025,0.5802552700042725,0.3649567663669586
1772871710503040300,5.174040283203125,0.03236328065395355,0.4961512088775635,0.2801942527294159
1772871710512972300,5.18397216796875,0.027790632098913193,0.37464290857315063,0.19185666739940643
1772871710522905300,5.1939052734375,-0.011389477178454399,0.21950982511043549,0.09889057278633118
1772871710532838400,5.20383837890625,-0.06057220324873924,0.07281626015901566,-0.04278479516506195
1772871710542770400,5.2137705078125,-0.0581141859292984,0.07826417684555054,-0.1654340922832489
1772871710552703500,5.223703369140625,0.030309686437249184,0.28903019428253174,-0.24398909509181976
1772871710562635500,5.233635498046875,0.22903992235660553,0.550916850566864,-0.30452603101730347
1772871710572568300,5.243568359375,0.41531580686569214,0.5572469234466553,-0.4902980327606201
1772871710582501400,5.25350146484375,0.5113883018493652,-0.0645691528916359,-0.9214774966239929
1772871710592433400,5.263433349609375,0.3671182096004486,-0.7591396570205688,-1.07896089553833
1772871710602366500,5.273366455078125,0.17415747046470642,-1.6087942123413086,-1.0206122398376465
1772871710612298500,5.283298583984375,0.10552168637514114,-2.256572961807251,-1.3282525539398193
1772871710622231600,5.2932314453125,-0.05343491584062576,-2.4041411876678467,-1.8495341539382935
1772871710632164400,5.303164306640625,-0.21835410594940186,-2.2463784217834473,-2.0662589073181152
1772871710642096400,5.313096435546875,-0.11806809902191162,-2.0021653175354004,-1.6549254655838013
1772871710652029200,5.323029296875,0.007231235969811678,-1.7293453216552734,-0.9815928339958191
1772871710661961200,5.332961181640625,-0.21313685178756714,-1.4833918809890747,-0.33526840806007385
1772871710671894300,5.342894287109375,-0.5407493114471436,-1.216411828994751,0.36607080698013306
1772871710681827300,5.352827392578125,-0.527145504951477,-0.8830294609069824,0.9851772785186768
1772871710691759400,5.36275927734375,-0.13548661768436432,-0.47381025552749634,1.2566529512405396
1772871710701692400,5.3726923828125,0.4233557879924774,0.08992456644773483,1.1336915493011475
1772871710711624400,5.38262451171875,0.9600557088851929,0.6660203337669373,0.8007827997207642
1772871710721557500,5.3925576171875,1.344649076461792,1.001800298690796,0.45882734656333923
1772871710731490300,5.402490234375,1.5540971755981445,1.00448477268219,0.09725823998451233
1772871710741422300,5.41242236328125,1.5706267356872559,0.6465282440185547,-0.2835574746131897
1772871710751355400,5.42235546875,1.4235118627548218,0.07192935049533844,-0.5790977478027344
1772871710761287400,5.432287353515625,1.2303420305252075,-0.4156620502471924,-0.6271643042564392
1772871710771220500,5.442220458984375,1.073697805404663,-0.6391577124595642,-0.3601861894130707
1772871710781153500,5.452153564453125,0.9261147975921631,-0.6363047361373901,0.10424026101827621
1772871710791085600,5.46208544921875,0.717210590839386,-0.44438430666923523,0.6591940522193909
1772871710801018400,5.472018310546875,0.43117061257362366,-0.20293177664279938,1.240608811378479
1772871710810950400,5.481950439453125,0.08050419390201569,0.058793045580387115,1.8157349824905396
1772871710820883200,5.49188330078125,-0.3042736351490021,0.32760974764823914,2.3058671951293945
1772871710830816300,5.501816162109375,-0.7075052261352539,0.5661777853965759,2.4936606884002686
1772871710840748300,5.511748291015625,-1.0134546756744385,0.6023364067077637,2.1884772777557373
1772871710850681300,5.521681396484375,-1.2255557775497437,0.5775626301765442,1.4771714210510254
1772871710860613400,5.53161328125,-1.2607777118682861,0.6320552825927734,0.6036720275878906
1772871710870546400,5.54154638671875,-1.0904202461242676,0.823207676410675,-0.01920730248093605
1772871710880479200,5.551479248046875,-0.8468602895736694,1.1397236585617065,-0.24106663465499878
1772871710890411300,5.561411376953125,-0.7475022673606873,1.3826264142990112,-0.1594783067703247
1772871710900344300,5.57134423828125,-0.8377091884613037,1.2774442434310913,-0.18619531393051147
1772871710910276400,5.5812763671875,-0.9256172180175781,1.0208885669708252,-0.3023323118686676
1772871710920209400,5.59120947265625,-0.8558148741722107,0.7284968495368958,-0.4402971863746643
1772871710930142500,5.601142578125,-0.6533954739570618,0.5116667747497559,-0.6209061741828918
1772871710940074500,5.611074462890625,-0.4106927216053009,0.3814469575881958,-0.871163010597229
1772871710950007600,5.621007568359375,-0.21196207404136658,0.33009350299835205,-1.1603610515594482
1772871710959939600,5.630939697265625,-0.11599186062812805,0.25760966539382935,-1.4030429124832153
1772871710969872400,5.640872314453125,-0.10114526748657227,0.23336158692836761,-1.5218878984451294
1772871710979805400,5.650805419921875,-0.1201232448220253,0.167691171169281,-1.4627795219421387
1772871710989737200,5.6607373046875,-0.15885759890079498,0.08477285504341125,-1.2094820737838745
1772871710999670300,5.670670166015625,-0.16446368396282196,-0.016357749700546265,-0.8084465265274048
1772871711009602300,5.680602294921875,-0.14328275620937347,-0.1331903636455536,-0.4059488773345947
1772871711019535400,5.690535400390625,-0.10808099061250687,-0.23070581257343292,-0.08324159681797028
1772871711029467400,5.70046728515625,-0.0597909577190876,-0.29757460951805115,0.15264762938022614
1772871711039400400,5.710400390625,0.0013555849436670542,-0.30473190546035767,0.3435610234737396
1772871711049333200,5.720333251953125,0.03169111907482147,-0.27347198128700256,0.4839557111263275
1772871711059265300,5.730265380859375,0.012580431997776031,-0.1391465812921524,0.5119518041610718
1772871711069198300,5.7401982421875,-0.0014046253636479378,0.0522175170481205,0.42142781615257263
1772871711079130400,5.75013037109375,-0.004364758264273405,0.21790388226509094,0.26053717732429504
1772871711089063400,5.7600634765625,-0.05478478968143463,0.3703296184539795,0.03848174214363098
1772871711098996500,5.76999658203125,-0.15651968121528625,0.5524380803108215,-0.2032577395439148
1772871711108928500,5.779928466796875,-0.24415074288845062,0.7595018148422241,-0.4038523733615875
1772871711118861300,5.789861328125,-0.2870877981185913,1.009214997291565,-0.5213887095451355
1772871711128793600,5.799793701171875,-0.3281041979789734,1.167299747467041,-0.5222100615501404
1772871711138726400,5.809726318359375,-0.4810595214366913,1.2912322282791138,-0.42676371335983276
1772871711148659500,5.819659423828125,-0.6683598756790161,1.231459617614746,-0.39267444610595703
1772871711158591200,5.82959130859375,-0.773871123790741,0.5663737654685974,-0.5299773812294006
1772871711168524300,5.839524169921875,-0.7227134108543396,-0.5837640166282654,-0.633280336856842
1772871711178456300,5.849456298828125,-0.6659103035926819,-1.6530145406723022,-0.5274409651756287
1772871711188389400,5.859389404296875,-0.5327956676483154,-2.5816309452056885,-0.40137994289398193
1772871711198322200,5.869322265625,-0.3293968737125397,-3.027156352996826,-0.36963725090026855
1772871711208254500,5.87925439453125,-0.18626156449317932,-2.5770630836486816,-0.628351092338562
1772871711218187300,5.889187255859375,-0.2914016842842102,-1.8668429851531982,-0.8410662412643433
1772871711228119300,5.899119384765625,-0.5436480045318604,-1.4776337146759033,-0.6757965683937073
1772871711238052400,5.90905224609375,-0.709198534488678,-1.0070173740386963,-0.16523952782154083
1772871711247985400,5.9189853515625,-0.5441760420799255,-0.3723708689212799,0.6229605078697205
1772871711257917400,5.92891748046875,-0.0521794892847538,0.48012444376945496,1.340531587600708
1772871711267850500,5.9388505859375,0.5191042423248291,1.2914905548095703,1.6711266040802002
1772871711277782500,5.948782470703125,0.9362521767616272,1.718925952911377,1.606125831604004
1772871711287715600,5.958715576171875,1.2598867416381836,1.7770785093307495,1.2960796356201172
1772871711297647600,5.968647705078125,1.4627699851989746,1.6039522886276245,0.8594910502433777
1772871711307580700,5.97858056640625,1.4769320487976074,1.2936707735061646,0.4218063950538635
1772871711317513700,5.988513671875,1.3372715711593628,0.846255898475647,0.08743473142385483
1772871711327445800,5.99844580078125,1.1571696996688843,0.29513391852378845,-0.16433200240135193
1772871711337378800,6.00837890625,1.0498584508895874,-0.27563148736953735,-0.35488179326057434
1772871711347310600,6.018310546875,0.9596555233001709,-0.7240515947341919,-0.44375574588775635
1772871711357243600,6.02824365234375,0.8437252044677734,-0.9802109003067017,-0.331693559885025
1772871711367176400,6.038176513671875,0.7170085310935974,-1.0114758014678955,-0.016284743323922157
1772871711377108500,6.0481083984375,0.5985310673713684,-0.8317831754684448,0.4051905870437622
1772871711387041500,6.05804150390625,0.45840704441070557,-0.5646369457244873,0.8423354625701904
1772871711396973600,6.0679736328125,0.22511231899261475,-0.1995302438735962,1.191335678100586
1772871711406906600,6.07790673828125,-0.06710755825042725,0.32335343956947327,1.4246386289596558
1772871711416839700,6.087839599609375,-0.3094916045665741,0.8824840784072876,1.5832128524780273
1772871711426771700,6.097771728515625,-0.4473181962966919,1.341452956199646,1.7528983354568481
1772871711436704500,6.10770458984375,-0.5294408798217773,1.3861850500106812,1.9247479438781738
1772871711446636800,6.11763671875,-0.6408350467681885,1.0393317937850952,1.9024062156677246
1772871711456569600,6.127569580078125,-0.7500607371330261,0.5535680055618286,1.6876654624938965
1772871711466502700,6.137502685546875,-0.8377623558044434,0.17058834433555603,1.3921313285827637
1772871711476434700,6.1474345703125,-0.8866349458694458,-0.021603472530841827,1.1240864992141724
1772871711486367700,6.15736767578125,-0.8717132806777954,0.01180694904178381,0.8364835977554321
1772871711496299800,6.1672998046875,-0.7021358609199524,0.09582457691431046,0.4174399673938751
1772871711506232800,6.17723291015625,-0.4412651062011719,0.07992790639400482,-0.12554101645946503
1772871711516165600,6.18716552734375,-0.1892242729663849,-0.04278608411550522,-0.6641584634780884
1772871711526097700,6.19709765625,0.087180957198143,-0.27299559116363525,-1.0798288583755493
1772871711536030500,6.207030517578125,0.36574649810791016,-0.5325183868408203,-1.328794240951538
1772871711545962500,6.21696240234375,0.5810798406600952,-0.7066539525985718,-1.4412225484848022
1772871711555895600,6.2268955078125,0.7637147903442383,-0.806689441204071,-1.4503802061080933
1772871711565828600,6.23682861328125,0.844057559967041,-0.781741738319397,-1.348013162612915
1772871711575760600,6.2467607421875,0.7833877205848694,-0.674599826335907,-1.1530704498291016
1772871711585693700,6.256693603515625,0.6552476286888123,-0.5249366164207458,-0.9534710049629211
1772871711595625700,6.266625732421875,0.5204752683639526,-0.3554965853691101,-0.7935730814933777
1772871711605558500,6.27655859375,0.3660292327404022,-0.19280116260051727,-0.6842750906944275
1772871711615490600,6.286490478515625,0.17825078964233398,-0.07260744273662567,-0.5932889580726624
1772871711625423600,6.296423583984375,-0.021532895043492317,-0.006288337986916304,-0.45846986770629883
1772871711635356700,6.306356689453125,-0.17429053783416748,0.029181091114878654,-0.27097830176353455
1772871711645288700,6.316288818359375,-0.2278110235929489,0.013659924268722534,-0.07047927379608154
1772871711655221800,6.3262216796875,-0.23277756571769714,-0.027133028954267502,0.16819198429584503
1772871711665153800,6.33615380859375,-0.2141122668981552,-0.001795182004570961,0.3717794716358185
1772871711675086800,6.3460869140625,-0.16450628638267517,0.11677258461713791,0.48959779739379883
1772871711685019600,6.35601953125,-0.09799943119287491,0.3725588023662567,0.5340036153793335
1772871711694951400,6.365951416015625,-0.04229118674993515,0.7130127549171448,0.5367581248283386
1772871711704884500,6.375884521484375,-0.03975878655910492,0.968313992023468,0.5046364068984985
1772871711714816500,6.38581640625,-0.15104052424430847,1.0609012842178345,0.4758213758468628
1772871711724749600,6.39574951171875,-0.35413771867752075,1.0041704177856445,0.19955700635910034
1772871711734682600,6.4056826171875,-0.5324715971946716,0.5372533798217773,-0.2901027202606201
1772871711744614700,6.41561474609375,-0.5450094938278198,0.08749499917030334,-0.8133022785186768
1772871711754547700,6.425547607421875,-0.3308676779270172,-0.11653169244527817,-1.1766763925552368
1772871711764479700,6.435479736328125,0.001912411069497466,-0.12748900055885315,-1.299936056137085
1772871711774412500,6.44541259765625,0.41375982761383057,-0.037070322781801224,-1.4273210763931274
1772871711784345600,6.455345703125,0.748395562171936,-0.14018605649471283,-1.643455982208252
1772871711794277600,6.465277587890625,0.6398853063583374,-0.6658039093017578,-1.9267950057983398
1772871711804210700,6.475210693359375,0.03558981791138649,-1.1674245595932007,-1.8684148788452148
1772871711814142700,6.485142822265625,-0.5816218852996826,-1.4303858280181885,-1.0614978075027466
1772871711824075800,6.49507568359375,-0.8453680872917175,-1.280024766921997,0.08499854803085327
1772871711834007800,6.5050078125,-0.8955442905426025,-1.11002516746521,0.8309354186058044
1772871711843940600,6.514940673828125,-0.795610785484314,-0.929597020149231,1.3436061143875122
1772871711853873700,6.524873779296875,-0.34662580490112305,-0.5356902480125427,1.8211050033569336
1772871711863805400,6.534805419921875,0.4097297787666321,0.39159318804740906,2.001958131790161
1772871711873738500,6.544738525390625,1.208446979522705,1.6440610885620117,1.7236647605895996
1772871711883670500,6.55467041015625,1.7669821977615356,2.6125450134277344,1.1569569110870361
1772871711893603600,6.564603515625,1.9041117429733276,2.8878536224365234,0.544474184513092
1772871711903536600,6.57453662109375,1.7100626230239868,2.127681255340576,-0.05050716921687126
1772871711913468700,6.58446875,1.3856524229049683,0.5423316359519958,-0.7120240330696106
1772871711923401500,6.5944013671875,1.002792477607727,-1.0435101985931396,-1.0805081129074097
1772871711933333800,6.604333740234375,0.6854192614555359,-1.902448296546936,-0.9329448342323303
1772871711943266600,6.6142666015625,0.5287681221961975,-1.9058490991592407,-0.46812260150909424
1772871711953199600,6.62419970703125,0.42800822854042053,-1.4440823793411255,0.1401187926530838
1772871711963131600,6.634131591796875,0.42153915762901306,-0.7771897315979004,0.6237922310829163
1772871711973064700,6.644064697265625,0.5242457389831543,-0.12113050371408463,0.9025689363479614
1772871711982996700,6.653996826171875,0.5542629957199097,0.41784828901290894,1.0775142908096313
1772871711992929800,6.6639296875,0.37911152839660645,0.8859263062477112,1.2769532203674316
1772871712002862600,6.673862548828125,0.008891909383237362,1.1548539400100708,1.4955573081970215
1772871712012794600,6.683794677734375,-0.4191512167453766,1.0649354457855225,1.6033928394317627
1772871712022727700,6.693727783203125,-0.7524465918540955,0.7291768789291382,1.542073369026184
1772871712032659500,6.703659423828125,-0.9767130017280579,0.36962804198265076,1.3770257234573364
1772871712042592500,6.713592529296875,-1.1571592092514038,0.13846883177757263,1.293675184249878
1772871712052525600,6.723525634765625,-1.2916722297668457,0.15671047568321228,1.3720844984054565
1772871712062457600,6.73345751953125,-1.2778531312942505,0.2881036400794983,1.4530160427093506
1772871712072390700,6.743390625,-1.16573965549469,0.4410457909107208,1.4288032054901123
1772871712082322700,6.75332275390625,-1.0860261917114258,0.507037878036499,1.1538957357406616
1772871712092255500,6.76325537109375,-1.000868797302246,0.3610125482082367,0.5509943962097168
1772871712102187500,6.7731875,-0.784311056137085,0.013308387249708176,-0.1544783115386963
1772871712112120600,6.78312060546875,-0.4721689224243164,-0.34135136008262634,-0.7134660482406616
1772871712122053600,6.7930537109375,-0.09669465571641922,-0.5416224002838135,-1.0012320280075073
1772871712131985700,6.802985595703125,0.17287863790988922,-0.6095133423805237,-1.047175645828247
1772871712141918700,6.812918701171875,0.3002168536186218,-0.6325930953025818,-0.9734349846839905
1772871712151850800,6.822850830078125,0.35058778524398804,-0.7283251285552979,-0.9146373271942139
1772871712161783800,6.83278369140625,0.36708658933639526,-0.8895819783210754,-0.8938223123550415
1772871712171716600,6.842716552734375,0.31685492396354675,-1.0458720922470093,-0.8630977869033813
1772871712181648600,6.852648681640625,0.2116672396659851,-1.1660557985305786,-0.7984048128128052
1772871712191581700,6.862581787109375,0.12330938875675201,-1.1643903255462646,-0.7017548680305481
1772871712201513500,6.872513427734375,0.0874033197760582,-1.090694546699524,-0.5628070831298828
1772871712211446500,6.882446533203125,0.08940073102712631,-0.969825804233551,-0.37233179807662964
1772871712221379600,6.892379638671875,0.13506168127059937,-0.7171112895011902,-0.1315317153930664
1772871712231311600,6.9023115234375,0.23004616796970367,-0.41818127036094666,0.11846879124641418
1772871712241244700,6.91224462890625,0.28400367498397827,-0.1902085393667221,0.3459509313106537
1772871712251176700,6.9221767578125,0.20748774707317352,-0.046756207942962646,0.5264853239059448
1772871712261109500,6.932109619140625,0.038529083132743835,0.09241339564323425,0.6459142565727234
1772871712271041500,6.94204150390625,-0.14413036406040192,0.29953935742378235,0.7259838581085205
1772871712280974600,6.951974609375,-0.31977197527885437,0.6233882308006287,0.8384169340133667
1772871712290908200,6.961908203125,-0.46701499819755554,1.0948874950408936,0.9876607060432434
1772871712300840200,6.971840087890625,-0.6023666858673096,1.6426992416381836,1.2187045812606812
1772871712310773200,6.981773193359375,-0.7201178073883057,2.200164318084717,1.4478983879089355
1772871712320705000,6.991705078125,-0.7867673635482788,2.6078004837036133,1.479622721672058
1772871712330637800,7.001637939453125,-0.8184821605682373,2.439908266067505,1.012587070465088
1772871712340571100,7.011571044921875,-0.8334789276123047,1.7278969287872314,0.14152005314826965
1772871712350503000,7.0215029296875,-0.6457444429397583,1.1357578039169312,-0.4488629698753357
1772871712360436000,7.03143603515625,-0.19023607671260834,0.9893028736114502,-0.747470498085022
1772871712370368000,7.041367919921875,0.2328263223171234,0.9618847370147705,-0.9931418299674988
1772871712380301000,7.051301025390625,0.4173021614551544,0.5321909189224243,-1.1108639240264893
1772871712390234000,7.061234130859375,0.4182772934436798,-0.24345342814922333,-1.142993688583374
1772871712400166100,7.071166259765625,0.3072463572025299,-1.1580886840820312,-1.1216732263565063
1772871712410099000,7.081098876953125,0.17933829128742218,-1.8552073240280151,-1.0495318174362183
1772871712420031000,7.091031005859375,0.19413775205612183,-1.9885313510894775,-0.7301188707351685
1772871712429964000,7.100964111328125,0.38048580288887024,-1.613095998764038,-0.19316871464252472
1772871712439897000,7.11089697265625,0.5363610982894897,-1.0653759241104126,0.20311124622821808
1772871712449829000,7.1208291015625,0.5059069395065308,-0.8082168102264404,0.34756749868392944
1772871712459762200,7.13076220703125,0.3503386080265045,-0.9367257952690125,0.2813895344734192
1772871712469694200,7.140694091796875,0.24285010993480682,-1.1525490283966064,0.0670243427157402
1772871712479627000,7.150626953125,0.3108869194984436,-1.1941484212875366,-0.09279514849185944
1772871712489559000,7.16055908203125,0.515121340751648,-1.0645018815994263,-0.053366608917713165
1772871712499491800,7.170491943359375,0.7959804534912109,-0.7601384520530701,0.0970684289932251
1772871712509425200,7.180425048828125,1.0304509401321411,-0.4995734989643097,0.20342408120632172
1772871712519357000,7.19035693359375,1.1034537553787231,-0.3890555202960968,0.15171775221824646
1772871712529290000,7.2002900390625,1.0286743640899658,-0.42197173833847046,-0.09644351154565811
1772871712539222000,7.210221923828125,0.8372703790664673,-0.5825686454772949,-0.430878221988678
1772871712549155000,7.220155029296875,0.5861263275146484,-0.7510306239128113,-0.6217120885848999
1772871712559087900,7.230087890625,0.33787819743156433,-0.7912837862968445,-0.5498024821281433
1772871712569020200,7.240020263671875,0.12631171941757202,-0.7286913394927979,-0.2482430785894394
1772871712578953000,7.249952880859375,-0.04718310758471489,-0.6110414266586304,0.15221644937992096
1772871712588885000,7.259885009765625,-0.13547109067440033,-0.4136298894882202,0.5545406937599182
1772871712598818000,7.269818115234375,-0.1497669517993927,-0.08187965303659439,0.8713676929473877
1772871712608751000,7.279751220703125,-0.17844969034194946,0.35509294271469116,1.0440926551818848
1772871712618683100,7.28968310546875,-0.3318887948989868,0.8695722818374634,1.0455310344696045
1772871712628616200,7.2996162109375,-0.5969790816307068,1.3079394102096558,0.9413143992424011
1772871712638548200,7.30954833984375,-0.8982593417167664,1.5298429727554321,0.8171735405921936
1772871712648481000,7.31948095703125,-1.1411693096160889,1.5147722959518433,0.6095767617225647
1772871712658413000,7.3294130859375,-1.248015284538269,1.2366116046905518,0.2492225617170334
1772871712668345900,7.339345947265625,-1.2288827896118164,0.8634633421897888,-0.1145491898059845
1772871712678279200,7.349279052734375,-1.0567288398742676,0.6738505363464355,-0.25634998083114624
1772871712688211000,7.3592109375,-0.7417603135108948,0.72428297996521,-0.2110452651977539
1772871712698144000,7.36914404296875,-0.37211543321609497,0.9076554775238037,-0.14006803929805756
1772871712708076000,7.379075927734375,-0.03976677730679512,1.0700358152389526,-0.19324949383735657
1772871712718009000,7.389009033203125,0.14277826249599457,1.161466121673584,-0.36719438433647156
1772871712727942000,7.39894189453125,0.08663763105869293,1.1623024940490723,-0.6058567762374878
1772871712737874000,7.4088740234375,-0.09643898159265518,1.0527124404907227,-0.8538780212402344
1772871712747807000,7.418806884765625,-0.2900471091270447,0.8003617525100708,-1.0428403615951538
1772871712757739000,7.428739013671875,-0.4219928979873657,0.40216320753097534,-1.1569101810455322
1772871712767672000,7.438672119140625,-0.44540902972221375,-0.06785882264375687,-1.234607219696045
1772871712777604000,7.44860400390625,-0.35415104031562805,-0.5178789496421814,-1.206533432006836
1772871712787537200,7.458537109375,-0.21100381016731262,-0.8752265572547913,-1.0022730827331543
1772871712797470200,7.46847021484375,-0.12061824649572372,-1.077743649482727,-0.6926329731941223
1772871712807402200,7.47840234375,0.03478553146123886,-0.9765157699584961,-0.3933248817920685
1772871712817335000,7.4883349609375,0.22958937287330627,-0.6234871745109558,-0.14843259751796722
1772871712827266800,7.498266845703125,0.35285457968711853,-0.20124508440494537,-0.026921603828668594
1772871712837200100,7.5082001953125,0.395591676235199,0.289522260427475,-0.04297167435288429
1772871712847133200,7.51813330078125,0.3685092329978943,0.7249049544334412,-0.10831615328788757
1772871712857065000,7.52806494140625,0.225088968873024,0.9761803150177002,-0.08812406659126282
1772871712866998000,7.537998046875,0.03846607357263565,1.0110692977905273,0.0010871344711631536
1772871712876930000,7.547929931640625,-0.10597898811101913,0.8799462914466858,0.08829740434885025
1772871712886863000,7.557863037109375,-0.15712638199329376,0.7395325303077698,0.22734209895133972
1772871712896796000,7.5677958984375,-0.23653998970985413,0.7532837390899658,0.5179805755615234
1772871712906728000,7.57772802734375,-0.411008358001709,0.9756369590759277,0.5651830434799194
1772871712916661000,7.587660888671875,-0.6137129664421082,1.027626395225525,0.19928598403930664
1772871712926593000,7.597593017578125,-0.6448660492897034,0.8755809664726257,-0.159326434135437
1772871712936526000,7.607526123046875,-0.6006383895874023,0.8719486594200134,-0.39109012484550476
1772871712946458000,7.6174580078125,-0.46115317940711975,1.084290623664856,-0.5599448084831238
1772871712956391200,7.62739111328125,-0.37408989667892456,1.0086158514022827,-0.8276491761207581
1772871712966324000,7.637323974609375,-0.38524943590164185,0.45127350091934204,-1.032166838645935
1772871712976256300,7.64725634765625,-0.5121147632598877,-0.46712905168533325,-1.060552716255188
1772871712986189000,7.65718896484375,-0.6722008585929871,-1.3743842840194702,-0.5554054975509644
1772871712996120800,7.667120849609375,-0.5837663412094116,-2.0824410915374756,0.21221792697906494
1772871713006054100,7.67705419921875,-0.2922685742378235,-2.0741729736328125,0.7086452841758728
1772871713015987200,7.6869873046875,-0.027185512706637383,-1.437261700630188,0.7703613638877869
1772871713025919000,7.6969189453125,0.17687676846981049,-0.5686099529266357,0.7083864808082581
1772871713035852000,7.70685205078125,0.4245496690273285,0.2653544247150421,0.6861059665679932
1772871713045784000,7.7167841796875,0.7174485921859741,0.8844658732414246,0.611584484577179
1772871713055716900,7.726716796875,0.966554582118988,1.3215652704238892,0.3543201982975006
1772871713065650000,7.73664990234375,1.1175537109375,1.5139824151992798,0.0749819427728653
1772871713075582000,7.74658203125,1.2352592945098877,1.2447539567947388,-0.2229301631450653
1772871713085515000,7.756514892578125,1.354956030845642,0.48364943265914917,-0.666642427444458
1772871713095447000,7.766447021484375,1.4550890922546387,-0.27779892086982727,-0.8617983460426331
1772871713105380000,7.776380126953125,1.4939007759094238,-0.6821317076683044,-0.6193528771400452
1772871713115313200,7.786313232421875,1.3898998498916626,-0.8213452100753784,-0.19959422945976257
1772871713125245200,7.7962451171875,1.1002863645553589,-0.8552054762840271,0.1504184752702713
1772871713135178000,7.806177978515625,0.6384598016738892,-0.8489686250686646,0.28600960969924927
1772871713145110000,7.816110107421875,0.11612879484891891,-0.7875095009803772,0.26174426078796387
1772871713155043000,7.82604296875,-0.3340647220611572,-0.6316341757774353,0.22597642242908478
1772871713164974800,7.835974853515625,-0.631881833076477,-0.377770334482193,0.3019210696220398
1772871713174908200,7.845908203125,-0.7189328670501709,-0.026160631328821182,0.44243505597114563
1772871713184841200,7.85584130859375,-0.7452068328857422,0.2971375584602356,0.5665967464447021
1772871713194773000,7.86577294921875,-0.8028994202613831,0.45231330394744873,0.6517249941825867
1772871713204706000,7.8757060546875,-0.850344717502594,0.4595080018043518,0.7204521298408508
1772871713214638000,7.88563818359375,-0.8304312229156494,0.3663008213043213,0.8047334551811218
1772871713224571000,7.89557080078125,-0.7219957113265991,0.274542897939682,0.9715476036071777
1772871713234504000,7.90550390625,-0.5712690353393555,0.18538931012153625,1.0755497217178345
1772871713244436000,7.91543603515625,-0.43336132168769836,0.12169855087995529,1.0515080690383911
1772871713254369000,7.925369140625,-0.33380889892578125,0.03539722040295601,0.8891708254814148
1772871713264301000,7.935301025390625,-0.28303468227386475,-0.0021181032061576843,0.605575442314148
1772871713274234000,7.945234130859375,-0.24360869824886322,-0.014185152016580105,0.32842665910720825
1772871713284165600,7.95516552734375,-0.16431917250156403,-0.003976765088737011,0.10342662781476974
1772871713294098700,7.9650986328125,-0.07019747048616409,-0.009974470362067223,-0.1215878427028656
1772871713304031500,7.975031494140625,-0.028758039698004723,-0.06451384723186493,-0.403771311044693
1772871713313963800,7.9849638671875,-0.012464819476008415,-0.12541581690311432,-0.7010551691055298
1772871713323895800,7.994895751953125,-0.0024544044863432646,-0.15741939842700958,-0.9492311477661133
1772871713333828600,8.00482861328125,-0.005674166139215231,-0.1689213216304779,-1.0975672006607056
1772871713343760600,8.0147607421875,-0.013380765914916992,-0.16271893680095673,-1.1055121421813965
1772871713353693700,8.024693603515624,-0.019486861303448677,-0.16770118474960327,-0.9914734363555908
1772871713363626800,8.034626708984375,-0.04008921608328819,-0.21501408517360687,-0.7960816621780396
1772871713373558800,8.044558837890625,-0.058644525706768036,-0.29861631989479065,-0.5764092206954956
1772871713383491800,8.054491943359375,-0.07586097717285156,-0.3213263154029846,-0.3501770794391632
1772871713393423600,8.064423583984375,-0.08700338006019592,-0.29931849241256714,-0.14684607088565826
1772871713403356700,8.074356689453126,-0.09323016554117203,-0.15647614002227783,0.01121007651090622
1772871713413288700,8.084288818359376,-0.11382865160703659,0.08368667215108871,0.12266869843006134
1772871713423221500,8.094221435546874,-0.15120455622673035,0.2948967516422272,0.16704031825065613
1772871713433154600,8.104154541015625,-0.15819162130355835,0.4193183183670044,0.15866254270076752
1772871713443086600,8.114086669921875,-0.10745373368263245,0.5470321178436279,0.14398124814033508
1772871713453019600,8.12401953125,-0.006260538473725319,0.6290454864501953,0.12113479524850845
1772871713462951700,8.13395166015625,0.11374137550592422,0.5534913539886475,0.08389083296060562
1772871713472884700,8.143884765625,0.20343849062919617,0.32478201389312744,0.059843555092811584
1772871713482817500,8.153817626953124,0.29512786865234375,0.06158619746565819,0.05341371148824692
1772871713492749600,8.16374951171875,0.3933607041835785,-0.061347976326942444,0.06905286014080048
1772871713502682600,8.1736826171875,0.4037784934043884,0.025227736681699753,0.3118130564689636
1772871713512614700,8.18361474609375,0.2439991980791092,0.28636667132377625,0.5647030472755432
1772871713522547700,8.193547607421875,-0.05872632563114166,0.5826117992401123,0.5920671820640564
1772871713532479700,8.203479736328125,-0.18877193331718445,0.8251988887786865,0.37744230031967163
1772871713542412800,8.213412841796876,-0.11467210948467255,0.9525420665740967,-0.011143703013658524
1772871713552345900,8.223345947265624,-0.015774289146065712,0.7596437335014343,-0.5099050402641296
1772871713562277600,8.233277587890624,-0.016148097813129425,-0.06631428003311157,-1.2493996620178223
1772871713572210700,8.243210693359375,-0.20501761138439178,-1.4387809038162231,-2.009420394897461
1772871713582142500,8.253142578125,-0.5419594645500183,-3.032771587371826,-2.45009183883667
1772871713592075500,8.263075439453125,-0.7454736828804016,-4.354160308837891,-2.2498128414154053
1772871713602008600,8.273008544921876,-0.5910090804100037,-4.884024143218994,-1.1562296152114868
1772871713611940600,8.282940673828126,-0.20526832342147827,-4.0518364906311035,0.2864932119846344
1772871713621873700,8.292873779296874,0.324008584022522,-2.000854253768921,1.4387322664260864
1772871713631805700,8.3028056640625,0.9882835149765015,0.2755947709083557,2.110670804977417
1772871713641738800,8.31273876953125,1.4525905847549438,2.0881307125091553,2.154693126678467
1772871713651671600,8.322671630859375,1.4608160257339478,3.152066469192505,1.6678179502487183
1772871713661603600,8.332603515625,1.0672972202301025,3.3182246685028076,0.9668590426445007
1772871713671536600,8.34253662109375,0.5575956702232361,2.7237720489501953,0.262217253446579
1772871713681468700,8.35246875,0.1913236677646637,1.6768919229507446,-0.26165571808815
1772871713691401700,8.362401611328124,0.06972240656614304,0.5233857035636902,-0.49750739336013794
1772871713701335600,8.37233544921875,0.15638351440429688,-0.2879398763179779,-0.3507375717163086
1772871713711268600,8.3822685546875,0.3747116029262543,-0.5181703567504883,0.011031294241547585
1772871713721200600,8.39220068359375,0.613817036151886,-0.3116864860057831,0.3021993637084961
1772871713731133700,8.4021337890625,0.6858587265014648,0.07144255191087723,0.4561750888824463
1772871713741066800,8.412066650390624,0.5433210134506226,0.38114604353904724,0.4591003954410553
1772871713750998800,8.421998779296874,0.23271119594573975,0.49712935090065,0.3540501296520233
1772871713760931800,8.431931884765625,-0.13761195540428162,0.3564433753490448,0.22666867077350616
1772871713770863900,8.44186376953125,-0.4127444624900818,0.03438333421945572,0.14601004123687744
1772871713780796700,8.451796630859375,-0.5565823316574097,-0.26522740721702576,0.16452309489250183
1772871713790728400,8.461728515625,-0.6528311371803284,-0.37057244777679443,0.3067569136619568
1772871713800661500,8.47166162109375,-0.662018358707428,-0.24369239807128906,0.516764760017395
1772871713810594600,8.481594482421874,-0.5630161762237549,0.005860443692654371,0.6837539672851562
1772871713820526600,8.491526611328124,-0.46445390582084656,0.21095778048038483,0.6580328345298767
1772871713830459600,8.501459716796875,-0.5092533230781555,0.2637714743614197,0.38294723629951477
1772871713840391700,8.5113916015625,-0.6099655032157898,0.1423308253288269,-0.05800372734665871
1772871713850324700,8.52132470703125,-0.6173354983329773,0.0779435783624649,-0.4848234951496124
1772871713860257500,8.531257568359376,-0.5177299976348877,0.08892209827899933,-0.7762081027030945
1772871713870189600,8.541189453125,-0.3138522505760193,0.1777036488056183,-0.8933560252189636
1772871713880122600,8.55112255859375,-0.09305460751056671,0.34392133355140686,-0.8672927021980286
1772871713890054700,8.5610546875,0.033029019832611084,0.4644341766834259,-0.7254295945167542
1772871713899987700,8.57098779296875,-0.031356245279312134,0.4839317500591278,-0.4481956958770752
1772871713909919700,8.580919677734375,-0.2633170187473297,0.4347447454929352,-0.08940505981445312
1772871713919852800,8.590852783203125,-0.4869435727596283,0.2814171612262726,0.13193844258785248
1772871713929785900,8.600785888671876,-0.5806029438972473,0.11180149763822556,0.15573164820671082
1772871713939718000,8.6107177734375,-0.5274317264556885,-0.05976702645421028,0.038306765258312225
1772871713949650700,8.620650634765624,-0.3851851224899292,-0.16025981307029724,-0.10603496432304382
1772871713959582500,8.63058251953125,-0.18566711246967316,-0.2364444136619568,-0.17666484415531158
1772871713969515500,8.640515625,-0.0453622043132782,-0.38857296109199524,-0.16288059949874878
1772871713979448600,8.650448486328125,-0.025761449709534645,-0.5296891331672668,-0.12700942158699036
1772871713989380600,8.660380615234375,-0.10440805554389954,-0.5974165201187134,-0.07391025871038437
1772871713999313700,8.670313720703126,-0.2459467202425003,-0.6426876187324524,0.057753413915634155
1772871714009245700,8.68024560546875,-0.36915093660354614,-0.662966787815094,0.25021126866340637
1772871714019178800,8.6901787109375,-0.4119742810726166,-0.6576687097549438,0.41831931471824646
1772871714029111600,8.700111572265625,-0.4191605746746063,-0.6585869789123535,0.5396774411201477
1772871714039043600,8.710043701171875,-0.4483303725719452,-0.5972379446029663,0.6262800097465515
1772871714048976600,8.7199765625,-0.49547046422958374,-0.49530112743377686,0.6969994306564331
1772871714058908700,8.72990869140625,-0.500049889087677,-0.3938182592391968,0.7928515672683716
1772871714068841700,8.739841796875,-0.5017122626304626,-0.2956876754760742,0.8833681344985962
1772871714078773800,8.749773681640624,-0.5648669600486755,-0.2523438632488251,0.8980574011802673
1772871714088706800,8.759706787109375,-0.6091771125793457,-0.23977133631706238,0.7904475927352905
1772871714098639600,8.7696396484375,-0.5700920224189758,-0.22837936878204346,0.5528921484947205
1772871714108571600,8.779571533203125,-0.48241785168647766,-0.1164989098906517,0.25620266795158386
1772871714118504700,8.789504638671875,-0.36925870180130005,0.16438362002372742,-0.01517670601606369
1772871714128436500,8.7994365234375,-0.1552949994802475,0.5589644908905029,-0.1413852423429489
1772871714138369500,8.80936962890625,0.13543030619621277,0.9620054364204407,-0.09993952512741089
1772871714148302600,8.819302490234374,0.3823287785053253,1.3326469659805298,-0.008034108206629753
1772871714158234600,8.829234619140625,0.5925651788711548,1.5566543340682983,0.04044162109494209
1772871714168167700,8.839167724609375,0.6757165193557739,1.4249690771102905,0.0352545827627182
1772871714178099700,8.849099609375,0.48391979932785034,0.8678217530250549,0.019115647301077843
1772871714188032500,8.859032470703125,0.12867967784404755,-0.01915893889963627,-0.07499168068170547
1772871714197964500,8.868964599609376,-0.21518707275390625,-0.821000874042511,-0.37071093916893005
1772871714207897600,8.878897705078124,-0.4855956733226776,-1.297848105430603,-0.7521722912788391
1772871714217830700,8.88883056640625,-0.5850489139556885,-1.2974337339401245,-1.0341402292251587
1772871714227762700,8.8987626953125,-0.6630811095237732,-0.5557718276977539,-1.0810956954956055
1772871714237695700,8.90869580078125,-0.5902525782585144,0.5220243334770203,-0.6547921895980835
1772871714247627800,8.918627685546875,-0.16666267812252045,1.4901821613311768,0.28939613699913025
1772871714257560800,8.928560791015625,0.6205055117607117,1.8382034301757812,1.5970776081085205
1772871714267493600,8.93849365234375,1.4666000604629517,1.4323195219039917,2.5880088806152344
1772871714277425700,8.94842578125,1.8651299476623535,0.5331308841705322,2.574145793914795
1772871714287359000,8.95835888671875,1.704943299293518,-0.5981924533843994,1.6249663829803467
1772871714297291000,8.968291015625,1.2157926559448242,-1.6756457090377808,0.3563193380832672
1772871714307224000,8.97822412109375,0.6911197900772095,-2.1434199810028076,-0.6974436640739441
1772871714317156000,8.988156005859375,0.5634636282920837,-2.0580198764801025,-1.2180428504943848
1772871714327089200,8.998089111328126,0.6785398721694946,-1.4179515838623047,-1.1443294286727905
1772871714337022000,9.00802197265625,0.7433038353919983,-0.3580613434314728,-0.6469660401344299
1772871714346954000,9.0179541015625,0.6544964909553528,0.6758376955986023,-0.03521718084812164
1772871714356887000,9.027886962890625,0.46128636598587036,1.5032200813293457,0.3750951588153839
1772871714366818800,9.03781884765625,0.31252139806747437,2.10564923286438,0.4175792336463928
1772871714376751900,9.047751953125,0.3111480176448822,2.4611706733703613,0.10071606189012527
1772871714386685000,9.057684814453125,0.34241431951522827,2.5142271518707275,-0.4491739869117737
1772871714396617000,9.067616943359376,0.3243074119091034,2.115039348602295,-1.0275218486785889
1772871714406550000,9.077550048828124,0.21675273776054382,1.2788512706756592,-1.438010811805725
1772871714416482000,9.08748193359375,0.012176735326647758,-0.06001614034175873,-1.7088733911514282
1772871714426414800,9.097414794921875,-0.3230619728565216,-1.598066806793213,-1.7844816446304321
1772871714436347000,9.107346923828125,-0.6513798236846924,-2.7935709953308105,-1.5718202590942383
1772871714446280000,9.117280029296875,-0.8682665824890137,-3.2651827335357666,-1.115195393562317
1772871714456213000,9.127212890625,-0.9015786647796631,-3.041470766067505,-0.5232363343238831
1772871714466145000,9.13714501953125,-0.748496413230896,-2.2763936519622803,0.11396697908639908
1772871714476078000,9.147078125,-0.5070288777351379,-1.1940288543701172,0.5797577500343323
1772871714486010000,9.157010009765624,-0.21820291876792908,0.02800833247601986,0.7339444160461426
1772871714495943200,9.166943115234375,0.10261543840169907,0.9788263440132141,0.6503151655197144
1772871714505876000,9.1768759765625,0.3654787838459015,1.493471622467041,0.4712834060192108
1772871714515808000,9.18680810546875,0.5067179203033447,1.5334018468856812,0.26285871863365173
1772871714525741000,9.196740966796876,0.5113086700439453,1.1824003458023071,0.03327905014157295
1772871714535672800,9.2066728515625,0.3964473009109497,0.5697765946388245,-0.136426642537117
1772871714545606000,9.21660595703125,0.18969863653182983,-0.06482456624507904,-0.1458670049905777
1772871714555538000,9.226537841796874,0.0025307945907115936,-0.5267736315727234,-0.05864376202225685
1772871714565471000,9.236470947265625,-0.04426467418670654,-0.705079972743988,0.028407782316207886
1772871714575404000,9.246404052734375,0.04453117400407791,-0.639916718006134,0.12358985096216202
1772871714585336000,9.256336181640625,0.11187026649713516,-0.3880160450935364,0.22307328879833221
1772871714595268900,9.266268798828126,0.11544974893331528,-0.023556048050522804,0.2906654179096222
1772871714605201000,9.276200927734376,0.09269516170024872,0.30355632305145264,0.3440772593021393
1772871714615134000,9.286134033203124,0.03122674860060215,0.5285033583641052,0.3809649646282196
1772871714625067000,9.29606689453125,-0.06582683324813843,0.7163909673690796,0.4028170108795166
1772871714634999000,9.3059990234375,-0.17986366152763367,0.8164344429969788,0.4337897300720215
1772871714644932000,9.31593212890625,-0.28021958470344543,0.8280564546585083,0.499099999666214
1772871714654864100,9.325864013671875,-0.3375713527202606,0.7829421162605286,0.5581482648849487
1772871714664797200,9.335797119140626,-0.28920087218284607,0.7216928601264954,0.569476842880249
1772871714674729200,9.345729248046876,-0.09670524299144745,0.7273454070091248,0.45928114652633667
1772871714684662000,9.355662109375,0.2747710943222046,0.8506420254707336,0.2626650035381317
1772871714694595000,9.365594970703125,0.7040955424308777,1.0293538570404053,-0.014278166927397251
1772871714704526800,9.37552685546875,1.0979294776916504,1.2442115545272827,-0.3828117251396179
1772871714714460000,9.3854599609375,1.3778735399246216,1.365556001663208,-0.6813904047012329
1772871714724392000,9.395391845703125,1.3815127611160278,1.0907790660858154,-0.7636011242866516
1772871714734325000,9.405324951171876,1.0847434997558594,0.42292913794517517,-0.6753261685371399
1772871714744258000,9.415258056640624,0.638343095779419,-0.4568684995174408,-0.6116142868995667
1772871714754190000,9.425190185546874,0.3132742941379547,-1.0829578638076782,-0.6826776266098022
1772871714764123000,9.435122802734375,0.3205263614654541,-1.4164644479751587,-0.764812707901001
1772871714774055000,9.445054931640625,0.4173829257488251,-1.334534764289856,-0.7655882239341736
1772871714783988000,9.454988037109375,0.41896510124206543,-0.8531798720359802,-0.7328183054924011
1772871714793920000,9.464919921875,0.21325154602527618,-0.30736488103866577,-0.6213462948799133
1772871714803853000,9.47485302734375,-0.16831791400909424,0.2822219729423523,-0.5819929838180542
1772871714813786000,9.4847861328125,-0.5502328276634216,0.712777853012085,-0.47468599677085876
1772871714823718100,9.49471826171875,-0.7877936959266663,0.8609907031059265,-0.16200397908687592
1772871714833651000,9.50465087890625,-0.7564051747322083,0.6188145875930786,0.2756652235984802
1772871714843583200,9.514583251953125,-0.3975849449634552,0.1198287308216095,0.6246623992919922
1772871714853516000,9.52451611328125,0.10654984414577484,-0.3357603847980499,0.5099520683288574
1772871714863449000,9.534448974609376,0.6212797164916992,-0.6332650184631348,0.008466294035315514
1772871714873380900,9.544380859375,1.1520811319351196,-0.8265541195869446,-0.3401831388473511
1772871714883314000,9.55431396484375,1.5830042362213135,-0.9446098804473877,-0.3558920621871948
1772871714893246000,9.564245849609375,1.7537996768951416,-1.0498038530349731,-0.19861935079097748
1772871714903179000,9.574178955078125,1.5793644189834595,-1.2642216682434082,-0.04746737703680992
1772871714913111800,9.58411181640625,1.0498995780944824,-1.4437190294265747,0.08522188663482666
1772871714923043800,9.5940439453125,0.39963626861572266,-1.428740382194519,0.2099611610174179
1772871714932977000,9.603976806640626,-0.08354269713163376,-1.2585227489471436,0.401028037071228
1772871714942909000,9.613908935546876,-0.4247591495513916,-0.8268932700157166,0.6583703756332397
1772871714952842000,9.623842041015624,-0.6005717515945435,0.03153259679675102,0.9639124274253845
1772871714962774000,9.63377392578125,-0.6275463700294495,1.136308193206787,1.3385519981384277
1772871714972707000,9.64370703125,-0.653941810131073,2.0545120239257812,1.7035505771636963
1772871714982640000,9.65364013671875,-0.7731896638870239,2.584949016571045,1.9585559368133545
1772871714992572200,9.663572265625,-1.0187963247299194,2.533797025680542,2.0149288177490234
1772871715002505000,9.6735048828125,-1.4511761665344238,2.020012378692627,1.7859617471694946
1772871715012437000,9.68343701171875,-1.9043320417404175,1.3565821647644043,1.3084796667099
1772871715022370000,9.6933701171875,-2.0099267959594727,0.7539395093917847,0.8297405242919922
1772871715032301800,9.7033017578125,-1.8743878602981567,0.4950984716415405,0.46217796206474304
1772871715042235000,9.71323486328125,-1.4892669916152954,0.33761510252952576,0.10711252689361572
1772871715052168000,9.72316796875,-0.9504978060722351,0.3430233597755432,-0.0887531191110611
1772871715062100000,9.733099853515625,-0.4364137053489685,0.2910240888595581,-0.39008471369743347
1772871715072033000,9.743032958984376,0.04203309863805771,0.21642224490642548,-0.8663569688796997
1772871715081965000,9.752965087890624,0.3478052616119385,-0.0036667094100266695,-1.3312125205993652
1772871715091897900,9.76289794921875,0.45631927251815796,-0.3106330931186676,-1.603519320487976
1772871715101831000,9.772830810546875,0.30633509159088135,-0.546753466129303,-1.5720458030700684
1772871715111763000,9.782762939453125,-0.009962541982531548,-0.6974158883094788,-1.2152687311172485
1772871715121696000,9.792696044921875,-0.23944580554962158,-0.6145428419113159,-0.5771382451057434
1772871715131628000,9.8026279296875,-0.32972341775894165,-0.2961995005607605,0.06633581221103668
1772871715141561000,9.81256103515625,-0.35276854038238525,0.029682723805308342,0.495475709438324
1772871715151493000,9.8224931640625,-0.364986389875412,0.2863079905509949,0.679480791091919
1772871715161426200,9.83242626953125,-0.2623308598995209,0.47498735785484314,0.6635093092918396
1772871715171359000,9.84235888671875,-0.009686664678156376,0.6140680909156799,0.5225760340690613
1772871715181291000,9.852291015625,0.25270208716392517,0.6533816456794739,0.3888624310493469
1772871715191224000,9.86222412109375,0.45074161887168884,0.6008986234664917,0.3087020814418793
1772871715201155800,9.87215576171875,0.6621033549308777,0.401046484708786,0.3785671889781952
1772871715211089000,9.8820888671875,0.7497202157974243,0.1712595522403717,0.6215189099311829
1772871715221022000,9.89202197265625,0.648643970489502,-0.06529492139816284,0.8993760943412781
1772871715230954000,9.9019541015625,0.49313750863075256,-0.22836460173130035,0.9855385422706604
1772871715240887000,9.911886962890625,0.32948678731918335,-0.21157017350196838,0.8540481328964233
1772871715250819000,9.921819091796875,0.23125971853733063,0.038897719234228134,0.6931911706924438
1772871715260752000,9.931751953125,0.27483436465263367,0.47856858372688293,0.5265257954597473
1772871715270684000,9.941683837890626,0.55354243516922,0.7646903395652771,0.2793556749820709
1772871715280617000,9.951616943359374,0.824167013168335,0.5953689813613892,-0.03464619815349579
1772871715290550300,9.96155029296875,0.907724142074585,-0.06419249624013901,-0.3175699710845947
1772871715300482000,9.97148193359375,0.7949776649475098,-0.7273521423339844,-0.41043946146965027
1772871715310415000,9.9814150390625,0.5420142412185669,-1.0493923425674438,-0.21293185651302338
1772871715320347100,9.99134716796875,0.1504526138305664,-0.9539507627487183,0.22284890711307526
1772871715330280200,10.0012802734375,-0.2505616545677185,-0.546079695224762,0.658086359500885
1772871715340213000,10.011212890625,-0.6129931211471558,-0.05112909525632858,0.8564726710319519
1772871715350145000,10.02114501953125,-0.8322234749794006,0.3611355721950531,0.787156879901886
1772871715360078000,10.031078125,-0.854835569858551,0.4392450153827667,0.45970049500465393
1772871715370010000,10.041010009765625,-0.7384012341499329,0.2867206633090973,0.03209313750267029
1772871715379943200,10.050943115234375,-0.5464171767234802,0.06159595772624016,-0.24231845140457153
1772871715389875200,10.060875244140625,-0.36888834834098816,-0.13217535614967346,-0.24185512959957123
1772871715399808300,10.070808349609376,-0.2681087255477905,-0.16781458258628845,-0.07273029536008835
1772871715409741000,10.080740966796874,-0.1982596218585968,-0.09949439018964767,0.10231209546327591
1772871715419673000,10.090673095703124,-0.11721190810203552,-0.06560645997524261,0.1581316888332367
1772871715429606100,10.100606201171875,-0.02488107979297638,-0.08405929803848267,0.03988990560173988
1772871715439538200,10.1105380859375,0.01922166533768177,-0.08163395524024963,-0.11740357428789139
1772871715449471200,10.12047119140625,0.03081384487450123,-0.05513637885451317,-0.206130251288414
1772871715459404300,10.130404296875,-0.001502814469859004,-0.0784347802400589,-0.2102285921573639
1772871715469336000,10.140336181640626,-0.05785597860813141,-0.14512591063976288,-0.17470690608024597
1772871715479269000,10.15026904296875,-0.07541260123252869,-0.1904180347919464,-0.12135260552167892
1772871715489201200,10.160201171875,-0.0953180342912674,-0.18462064862251282,-0.044663768261671066
1772871715499134000,10.170134033203125,-0.14071720838546753,-0.1366232931613922,0.0517921969294548
1772871715509066000,10.18006591796875,-0.18474438786506653,-0.0794200599193573,0.1606479436159134
1772871715518999000,10.1899990234375,-0.21477685868740082,0.0077169728465378284,0.345146119594574
1772871715528932000,10.19993212890625,-0.20664718747138977,0.11255371570587158,0.5954400897026062
1772871715538864000,10.209864013671876,-0.14953090250492096,0.08506989479064941,0.47682690620422363
1772871715548797200,10.219797119140624,-0.09485805034637451,-0.037174057215452194,0.14309655129909515
1772871715558729200,10.229729248046874,-0.028991684317588806,-0.15770314633846283,-0.20408964157104492
1772871715568662300,10.239662353515625,0.046368557959795,-0.2242087423801422,-0.3597892224788666
1772871715578594300,10.24959423828125,0.056828390806913376,-0.20848436653614044,-0.3501824140548706
1772871715588527000,10.259527099609375,0.009105480276048183,-0.1490096002817154,-0.25900208950042725
1772871715598460200,10.269460205078126,-0.03354078531265259,-0.1327403485774994,-0.18112006783485413
1772871715608392200,10.27939208984375,-0.049711186438798904,-0.15004871785640717,-0.06464947015047073
1772871715618325200,10.2893251953125,-0.010087345726788044,-0.08304331451654434,0.18688422441482544
