time,seconds_elapsed,z,y,x
1772806927314948900,0.066948974609375,0.020735329514741895,-0.007984861274063587,0.019434686111798508
1772806927324880600,0.076880615234375,0.03135726129412651,-0.007265698420349508,0.003306658596266061
1772806927334812700,0.086812744140625,0.029409634357690808,-0.020515914610400796,-0.009521633254131301
1772806927344743700,0.09674365234375,0.02731470790505409,-0.011935809123236685,-0.0395689901266247
1772806927354675700,0.10667578125,0.03374561773538589,-0.025438009046670047,-0.04889422402582131
1772806927364607700,0.116607666015625,0.041674072647094725,-0.03146799165960401,-0.04083010523677803
1772806927374539500,0.12653955078125,0.03240004834532738,-0.021265728330705315,-0.012602456338424235
1772806927384470800,0.136470703125,0.023574936854839322,-0.02616272485833615,0.024851349998824296
1772806927394402800,0.14640283203125,0.026115853509306907,-0.014526410138327627,0.03865856075081974
1772806927404334800,0.1563349609375,0.030004677641391753,0.00028829715577885506,0.022349367982102557
1772806927414267000,0.166266845703125,0.04376841457784176,-0.010418481629155575,0.0017268420589156448
1772806927424197600,0.17619775390625,0.031048049214482305,0.005465553663205355,-0.03065848364131525
1772806927434129700,0.186129638671875,0.0463110847979784,0.018771683025266973,-0.0474234756198246
1772806927444061400,0.1960615234375,0.033144144710898396,0.037447888053115455,-0.04190545198386535
1772806927453993500,0.205993408203125,0.038381460842490195,0.0276833585543558,-0.030325242232112214
1772806927463924700,0.2159248046875,0.041674072647094725,0.02378419569134712,-0.0162714911068324
1772806927473856800,0.225856689453125,0.04017652756571769,0.020557653126586226,0.008406328955991194
1772806927483788500,0.23578857421875,0.027904490491747855,0.027637966776359824,0.018456753590889274
1772806927493720600,0.245720458984375,0.028950200152397153,0.006921177565306425,0.018632740345457567
1772806927503651600,0.255651611328125,0.03134381729066372,0.0006405811921693385,-0.010361783005855977
1772806927513583600,0.26558349609375,0.039422494328022,-0.016514369085151703,-0.007353057043394074
1772806927523515600,0.275515625,0.04136836769878864,-0.0269049945930019,-0.026785779526969415
1772806927533447400,0.285447509765625,0.026404022800922394,-0.02456168286986649,-0.0052100353990215805
1772806927543378700,0.295378662109375,0.03523439498841762,-0.040402262612991034,-0.008986950988695026
1772806927553310700,0.305310791015625,0.028500118297338485,-0.03668897771090269,-0.010342384185642003
1772806927563242800,0.31524267578125,0.044809448063373565,-0.019503084306046366,-0.01819349954482168
1772806927573174500,0.325174560546875,0.04525952991843223,-0.0056076290150173,-0.04104634180334396
1772806927583105500,0.33510546875,0.027152795341610907,-0.006773896315414458,-0.018428979667974636
1772806927593037600,0.34503759765625,0.040621933245658874,0.0008046674463897943,-0.003212705835653469
1772806927602969600,0.354969482421875,0.052443303942680354,0.007964384741615503,0.03137970145479776
1772806927612901600,0.364901611328125,0.037030630755424496,0.011432554042525588,0.05015499207610264
1772806927622832600,0.37483251953125,0.03418459367454052,0.03486643845885992,0.04053180727679282
1772806927632764700,0.3847646484375,0.03104045042991638,0.026205376689974216,0.010165730710793287
1772806927642696700,0.39469677734375,0.030740006178617475,0.01362889504302293,-0.03192052120007574
1772806927652628700,0.404628662109375,0.045405075868964195,0.02618007785193622,-0.07245658452687785
1772806927662559500,0.4145595703125,0.032981063103675844,-0.001440207137260586,-0.07029974441970697
1772806927672491500,0.424491455078125,0.028641572594642638,0.008196732192765921,-0.045193789472151545
1772806927682423600,0.434423583984375,0.03283376358747482,0.004273439535498619,-0.006183602272067218
1772806927692355600,0.44435546875,0.04076806371808052,0.0010267857644706965,0.019786467824690044
1772806927702286600,0.45428662109375,0.03807750945985317,-0.013807356882467866,0.028265588022256267
1772806927712218600,0.464218505859375,0.027902736926078794,-0.02012859579324722,0.02257660999987274
1772806927722150700,0.474150634765625,0.02580897951722145,-0.020909243043232707,-0.00584768484858796
1772806927732082700,0.484082763671875,0.030002924075722692,-0.019451975173316895,-0.015244805807061492
1772806927742013700,0.494013671875,0.037487726873159405,-0.036315504756011065,-0.022379397794185206
1772806927751945500,0.503945556640625,0.042729719179868696,-0.019986356044653802,-0.024322047161404042
1772806927761877500,0.51387744140625,0.023871873974800107,-0.02304240088071674,-0.014620554695185273
1772806927771809500,0.5238095703125,0.0394312621563673,-0.017267945665121076,-0.0032620614027138797
1772806927781740500,0.533740478515625,0.027461422899365425,-0.012701313603017478,0.008761946593783796
1772806927791672800,0.5436728515625,0.03329670492410659,-0.008802004609536378,-0.010042734518786891
1772806927801604600,0.5536044921875,0.03299742971658706,0.016645265455823392,-0.005287155755842104
1772806927811536600,0.56353662109375,0.030003508597612378,0.0342445437008515,-0.00970807747063227
1772806927821467600,0.573467529296875,0.03568739945292473,0.019485950508154926,0.009363830610224977
1772806927831399700,0.583399658203125,0.03448854505717754,0.012251103883795439,0.021146924256626516
1772806927841331500,0.59333154296875,0.028501871863007545,0.02602919813916087,0.018675373910786584
1772806927851263500,0.603263427734375,0.03777823425233364,0.015688421388715505,-0.0010193331103771925
1772806927861194500,0.613194580078125,0.03134498633444309,0.020426208766642955,-0.03186339331851341
1772806927871126500,0.62312646484375,0.031793899145722386,0.019562139283213764,-0.03896673165084794
1772806927881058800,0.633058837890625,0.033142391145229336,0.0033556123045273122,-0.04024484356157482
1772806927890989600,0.642989501953125,0.03224398100078106,-0.0006234839268960058,-0.03033441191925667
1772806927900921600,0.652921630859375,0.042269115930795666,-0.018798808494210242,0.006191685113823041
1772806927910853600,0.662853515625,0.0332920287489891,-0.02868749409560114,0.0316922562689986
1772806927920785700,0.67278564453125,0.015486907467246055,-0.036707792009226976,0.024997526137018576
1772806927930717700,0.6827177734375,0.03164659962952137,-0.01826532267201692,0.023825413617724552
1772806927940648400,0.6926484375,0.039275194811820985,-0.026172679996769872,0.016786537090037017
1772806927950580500,0.70258056640625,0.034033787027001376,-0.015602204409986734,-0.017155242538265884
1772806927960512500,0.712512451171875,0.03672434128522873,-0.007114435115084051,-0.04015111912982538
1772806927970444800,0.72244482421875,0.03403027989566326,-0.018588271016068754,-0.052904573912033806
1772806927980375600,0.73237548828125,0.03732055361270904,-0.004105992280412465,-0.038096259826095775
1772806927990307600,0.7423076171875,0.026396424016356466,-0.000032349633332341904,-0.007439191823732107
1772806928000239600,0.752239501953125,0.037319969090819353,0.013242434742394834,-0.0005858370639383793
1772806928010170600,0.762170654296875,0.03058686144351959,0.018374007210880516,0.00675237860335037
1772806928020102400,0.772102294921875,0.03148527158796787,0.02440298517681658,0.016590082936175168
1772806928030034400,0.782034423828125,0.036273090386390684,0.04160531825982034,0.01638631312553771
1772806928039966500,0.791966552734375,0.031032851645350454,0.02902753970492631,0.01978527138144709
1772806928049898800,0.801898681640625,0.029980127722024914,0.019301296389941124,0.019225673870462923
1772806928059829800,0.811829833984375,0.03326923239529132,0.0166162950896658,0.018023979063658043
1772806928069761500,0.821761474609375,0.02398936287462711,0.008973799246177076,0.0029288108603563157
1772806928079693600,0.831693603515625,0.033716391640901566,0.0012746413120068609,-0.014229445618903264
1772806928089624600,0.84162451171875,0.042994507595896715,-0.005314253825321793,-0.036078051871480415
1772806928099556600,0.851556640625,0.04269581691026687,-0.019098759555164723,-0.03925717509794049
1772806928109488400,0.86148828125,0.05287526561915874,-0.015778894417453556,-0.030262853653542695
1772806928119420400,0.87142041015625,0.035218612897396084,-0.014434914196282624,-0.011640013647591695
1772806928129351700,0.8813515625,0.031629648494720455,-0.010469700359739362,0.02180919669079594
1772806928139283700,0.89128369140625,0.027584757018089292,-0.008387487258203328,0.028851872610766438
1772806928149215700,0.9012158203125,0.04433949246406555,-0.01615401134015992,0.010845849328907206
1772806928159147500,0.9111474609375,0.03910042276680469,-0.007693184851109981,0.03421090629273094
1772806928169078500,0.92107861328125,0.04568213924467563,-0.008714545521792023,-0.0006403619964607059
1772806928179010600,0.931010498046875,0.0332616336107254,0.007426259276922792,-0.02654546796507202
1772806928188942600,0.940942626953125,0.03401157519519329,0.007982979844231158,-0.032452536584390325
1772806928198874600,0.95087451171875,0.03745090199410915,0.014642821325920522,-0.02762591101238504
1772806928208805600,0.9608056640625,0.04538403308093548,0.008609258516412227,-0.012934775299020112
1772806928218737700,0.970737548828125,0.02473229019641876,0.0027041443921625614,-0.005475718864193186
1772806928228669700,0.980669677734375,0.028920389536023137,0.01415405142828822,0.006048248921986669
1772806928238601700,0.990601806640625,0.035057284855842585,0.013131393849663435,0.012886387846339492
1772806928248532500,1.000532470703125,0.03550444410145283,0.011218984357081354,-0.0019696652383077887
1772806928258464500,1.010464599609375,0.03969780413806438,0.02143827188601717,-0.01805794526534155
1772806928268396500,1.020396484375,0.03655190732777119,0.014640738966688513,-0.010582485684985295
1772806928278328600,1.03032861328125,0.04522971930205822,0.0010550802771933376,-0.021876818566909057
1772806928288259600,1.040259521484375,0.02682721664905548,-0.0075410812956281,-0.013340186895290389
1772806928298191600,1.050191650390625,0.027723288705945013,0.012445914069842547,-0.018019330288004128
1772806928308123600,1.06012353515625,0.04343757518827915,0.00997963355416432,-0.0007796791356056928
1772806928318055700,1.0700556640625,0.04134790943264961,0.004670348164904863,-0.009168189307115972
1772806928327986400,1.079986328125,0.026385902622342108,-0.0083005578934215,-0.00232288085645996
1772806928337918500,1.08991845703125,0.04344108231961727,-0.020604013018961996,0.018521690319571644
1772806928347850500,1.0998505859375,0.03027180414497852,-0.016819051120150832,0.005877349334489554
1772806928357782500,1.109782470703125,0.034009237107634545,-0.02334247980583459,-0.0023290457357652483
1772806928367713800,1.1197138671875,0.029518939951062202,-0.03410791170913726,-0.009697026353655382
1772806928377645600,1.1296455078125,0.03820201262235641,-0.020529961402062324,-0.012186733410693705
1772806928387577600,1.13957763671875,0.041346740388870235,-0.003381075539346784,-0.02036123550534248
1772806928397509600,1.149509521484375,0.041648938205838204,-0.006663129417318851,-0.022281289448263124
1772806928407440600,1.159440673828125,0.03790799811184406,0.0009615750411525368,-0.019255374888982622
1772806928417372700,1.16937255859375,0.01830430297553539,0.007184559475537389,-0.02849640110344626
1772806928427304400,1.179304443359375,0.02788110961616039,0.02544233816191554,0.0021712704913225025
1772806928437236500,1.189236572265625,0.041348493954539295,0.0305518266627565,-0.01627978401114233
1772806928447167500,1.19916748046875,0.019200375032424926,0.02853789302445948,0.0019781956046354024
1772806928457099500,1.209099609375,0.028628128591179847,0.04127235997840762,0.009519879688462242
1772806928467031600,1.219031494140625,0.02967442277371883,0.026045656083617356,0.033489816343411805
1772806928476963600,1.228963623046875,0.02652911048531532,0.01733122015967965,0.0014617979145608842
1772806928486894600,1.23889453125,0.03775076172351837,0.015568941461201757,-0.011935288533428684
1772806928496826400,1.248826416015625,0.0338584304600954,0.009169486215058713,-0.027101266083773223
1772806928506758400,1.25875830078125,0.040891397836804386,-0.006109185328986496,-0.018512739828135817
1772806928516690400,1.2686904296875,0.017097849795222282,-0.003963953461218625,-0.01837634529843926
1772806928526621700,1.27862158203125,0.03475391799509525,-0.01321682537710294,0.018600600774679333
1772806928536553700,1.2885537109375,0.03071370269358158,-0.021161573836486786,0.007447776988986879
1772806928546485500,1.298485595703125,0.034601942303776737,-0.02929386249091476,-0.008836737996200099
1772806928556417500,1.30841748046875,0.04417816442251205,-0.020847868244815618,-0.007314104139339178
1772806928566348500,1.3183486328125,0.034904140120744706,-0.026711810108460483,0.0014353482990525663
1772806928576280600,1.328280517578125,0.024283377385139464,-0.022863683312945065,0.003186411483772099
1772806928586212400,1.33821240234375,0.014106266763806342,-0.03140237907748669,0.015074892600253223
1772806928596144400,1.348144287109375,0.033409517648816105,-0.0110684151715599,0.0016780527474358677
1772806928606075600,1.35807568359375,0.04508358882963657,-0.0065527826443314546,0.006637556584645063
1772806928616007700,1.368007568359375,0.03909866920113563,0.007495123262051493,-0.010597911582980304
1772806928625939700,1.377939697265625,0.03191431065499782,0.008307864417042583,-0.019978620262769982
1772806928635871500,1.38787158203125,0.04014204077422619,0.0060698944982141255,-0.0009377740404568612
1772806928645802500,1.397802490234375,0.027719197052717207,0.007114398582465946,0.0065884932785294946
1772806928655734500,1.407734619140625,0.03669803780019283,0.0035155703729018565,-0.002292494851350784
1772806928665666600,1.41766650390625,0.023977087914943695,0.0056850233664736145,-0.007021980191813782
1772806928675598600,1.4275986328125,0.045377018818259236,0.005329414861835539,-0.020598651857255026
1772806928685529300,1.437529296875,0.022484803530573843,0.009790814717486501,-0.007722730606002733
1772806928695461600,1.447461669921875,0.02802197939157486,0.0024142763338051735,-0.0019950736742001024
1772806928705393700,1.4573935546875,0.02772036609649658,-0.00404540293328464,0.008777171562379225
1772806928715325700,1.46732568359375,0.03909691563546657,-0.007990432498324661,-0.017488949738349763
1772806928725256400,1.47725634765625,0.029223756396770474,0.002239303359389305,-0.014273421757947652
1772806928735188500,1.4871884765625,0.04882628248929977,0.008404018267896026,-0.025697911225026474
1772806928745120500,1.49712060546875,0.03490706273019314,-0.004040909421257674,-0.03885913395737298
1772806928755052500,1.507052490234375,0.03446165705025196,-0.0018415362134575842,-0.030936569930333644
1772806928764983300,1.5169833984375,0.03431085040271282,0.009229326643515378,0.002106580357812345
1772806928774915600,1.52691552734375,0.038349896660447115,0.004739376546815038,0.019436777604185045
1772806928784847600,1.53684765625,0.03386018402576446,0.011970259382110089,0.01786612162082456
1772806928794779600,1.546779541015625,0.03745265555977821,0.010023819755762815,0.015518343785125762
1772806928804710700,1.556710693359375,0.0241337397813797,-0.006010620325338095,-0.0017850202532485127
1772806928814642400,1.566642333984375,0.03909691563546657,-0.013980466693360357,-0.011685615488141775
1772806928824574500,1.576574462890625,0.0462806896597147,-0.000830824800953269,-0.027771182968281207
1772806928834506500,1.586506591796875,0.02937397852241993,-0.0028422559549100695,-0.017360546718863768
1772806928844437500,1.5964375,0.033415362867712975,0.00041791488481685517,-0.02220221459637396
1772806928854369300,1.606369384765625,0.03236789964139462,-0.013615140512306242,-0.013005137121491133
1772806928864301600,1.616301513671875,0.030866847428679463,-0.0032870588466525075,-0.006177227330207824
1772806928874233600,1.626233642578125,0.035061961030960084,0.009249967572744934,0.004959138511028141
1772806928884164600,1.63616455078125,0.030272388666868207,0.010227690031100065,0.00579850281146355
1772806928894096600,1.6460966796875,0.035808980005979534,-0.0009743979901075362,0.01351096775177866
1772806928904028400,1.6560283203125,0.03356149334013462,-0.002369670007098466,-0.0036718660463113334
1772806928913960400,1.66596044921875,0.03356032429635525,0.003531023670360446,0.018751745348935946
1772806928923891500,1.675891357421875,0.025474632996320724,0.0028033304503187534,0.009153932452900335
1772806928933823500,1.685823486328125,0.029362288084626195,-0.010285630763415246,-0.006563084842637181
1772806928943755500,1.695755615234375,0.028165771776437757,-0.01603955464763567,-0.010629658428113907
1772806928953686500,1.7056865234375,0.03520224628448486,-0.003308631357643753,-0.034314750259695576
1772806928963618600,1.71561865234375,0.0437315896987915,-0.005120101226400583,-0.013187909809872507
1772806928973550600,1.725550537109375,0.03310731983184814,0.003986421021353453,0.0001657850209623575
1772806928983482600,1.735482666015625,0.027418752801418304,-0.008528320500999689,0.009751633484568447
1772806928993413400,1.745413330078125,0.04013794912099838,0.0013643106231465934,0.011008876137202604
1772806929003345400,1.755345458984375,0.02158347077667713,0.01795384557005018,0.02193559041628614
1772806929013277400,1.76527734375,0.039836920347809786,0.004098959751427173,0.02474561546887271
1772806929023209500,1.77520947265625,0.03430208257436752,0.005961557019222527,0.0041257746931165455
1772806929033140500,1.785140380859375,0.027717443487048146,-0.005136906230729073,0.007065499673131853
1772806929043072500,1.795072509765625,0.03145604549348354,-0.008330039716232567,-0.009962298826873302
1772806929053004500,1.805004638671875,0.03549509175121784,0.007137706392817199,-0.014613987957080824
1772806929062936600,1.8149365234375,0.023822189614176748,0.0001108947622589767,-0.021570958354976025
1772806929072867300,1.824867431640625,0.039086394241452216,-0.005889898288808763,-0.014279668835643678
1772806929082799400,1.83479931640625,0.04297580289542675,-0.015107315298821776,-0.005806932713091373
1772806929092731400,1.8447314453125,0.03324643604159355,-0.00033460224922746417,0.005439268444478512
1772806929102663400,1.854663330078125,0.03399462406039238,-0.0006209083773195743,0.011692757614981382
1772806929112594700,1.8645947265625,0.029508418557047843,-0.009530739009194076,-0.0012487944846972822
1772806929122526500,1.8745263671875,0.03579436695873737,0.00042328517967835067,-0.010047091033495962
1772806929132458500,1.88445849609375,0.03908756328523159,-0.002735087519697845,-0.0021717545485123993
1772806929142390500,1.894390625,0.03863923499584198,0.012247450621984898,-0.011869922546483575
1772806929152321500,1.904321533203125,0.041781624674797055,0.0041324236296117305,-0.0027895119875203816
1772806929162253600,1.914253662109375,0.04417641085684299,0.002802618064265698,-0.007292376364720985
1772806929172185300,1.924185302734375,0.04298047907054424,0.009707995272241532,-0.021835061784414574
1772806929182117400,1.934117431640625,0.028314824858307837,0.016341697665676475,-0.006680701606627554
1772806929192048600,1.944048583984375,0.030707272952795028,0.00590810979893431,-0.0094720036924351
1772806929201980700,1.953980712890625,0.024724106889963147,-0.001798281593620777,-0.0087695727778133
1772806929211912400,1.963912353515625,0.037895723152160644,0.005408160920161754,-0.01150064170951955
1772806929221844500,1.973844482421875,0.03714870417714119,0.012055544779077172,0.01787508124541491
1772806929231775500,1.983775390625,0.045079497176408766,-0.0032926666035316882,-0.006218618786521256
1772806929241707500,1.99370751953125,0.0352051688939333,-0.0017232618623413145,-0.008443656158540397
1772806929251639600,2.0036396484375,0.043135377371311186,-0.023159140861872582,-0.01831662360099144
1772806929261571300,2.0135712890625,0.03550385957956314,-0.0156701550796628,-0.02623567136353813
1772806929271502600,2.023502685546875,0.03595394143462181,-0.020496278328169137,-0.011933452769368887
1772806929281434600,2.0334345703125,0.038650925433635706,-0.00685457860250026,-0.0077962798994034525
1772806929291366700,2.04336669921875,0.030865093863010406,-0.00432785487016663,-0.011690812253067269
1772806929301298700,2.053298583984375,0.03520399985015392,0.0012951361107639968,0.004460559605434537
1772806929311229400,2.0632294921875,0.026520342656970022,0.014441891926340758,0.012266374518163502
1772806929321161500,2.073161376953125,0.029508418557047843,0.005476056790910661,0.006072040789527818
1772806929331093500,2.083093505859375,0.024718261671066284,0.009538429125305265,0.0054869435111060735
1772806929341025500,2.093025634765625,0.039083471632003784,0.01156960615934804,0.0002606510970275849
1772806929350956500,2.10295654296875,0.04282791885733604,0.001545987332984805,-0.013508684463147073
1772806929360888600,2.112888671875,0.047317631492018696,0.006786408737115561,-0.020586340364953503
1772806929370820600,2.122820556640625,0.02098082870841026,0.019805300389323384,-0.03089362583775073
1772806929380752600,2.132752685546875,0.027870003700256347,0.002397854921966791,-0.02408452121163718
1772806929390683400,2.142683349609375,0.03520166176259518,-0.0039006059014238415,-0.01083321817619726
1772806929400615400,2.152615478515625,0.03549976792633533,-0.011940941956080496,-0.013979370714817195
1772806929410547500,2.16254736328125,0.039542321315407754,-0.003596069996897131,-0.008723961804108693
1772806929420479500,2.1724794921875,0.02667465643584728,-0.017526907128561288,0.00045315972813405095
1772806929430410500,2.182410400390625,0.037896892195940016,-0.012994195602368563,0.009352715561166404
1772806929440342500,2.192342529296875,0.035651743617653844,-0.01597355847302824,0.003124032038357109
1772806929450274600,2.202274658203125,0.03340893312692642,-0.009320311128906906,0.009116395187797024
1772806929460206300,2.212206298828125,0.04208616057932377,-0.01570979297030717,-0.007990332033624871
1772806929470137300,2.222137451171875,0.03265782249867916,0.00060677025411278,-0.003127922762185335
1772806929480069400,2.2320693359375,0.04103285213410854,-0.0018926088135689497,-0.013297051006462425
1772806929490001400,2.24200146484375,0.039383331361413,0.016052158400882033,0.005013069788506254
1772806929499932400,2.251932373046875,0.03399579310417175,0.013238142159767449,-0.017574920121906323
1772806929509864400,2.261864501953125,0.03609071955680847,0.011473324444331228,-0.006171610440174117
1772806929519796500,2.27179638671875,0.03744271868765354,0.008729450829979031,0.00036096966634504494
1772806929529728500,2.281728515625,0.04388005825877189,0.019409432939533143,0.008544248722493647
1772806929539660500,2.29166064453125,0.04103402117788792,0.02010136072644964,0.016354137022141366
1772806929549591300,2.30159130859375,0.036839492097496984,0.0005315495934337377,0.0017604886001907289
1772806929559523300,2.3115234375,0.03848258312940597,0.00735023489864543,0.007127340262429788
1772806929569455400,2.321455322265625,0.04910802204012871,0.014510774177778511,-0.00493925563362427
1772806929579386400,2.331386474609375,0.03728723586499691,0.007775438040774315,-0.014428246993478387
1772806929589318400,2.341318359375,0.030102292796969413,0.0027388503793627024,-0.024213463087240233
1772806929599250400,2.35125048828125,0.025759879678487776,-0.0046337972804903985,-0.010530362772103398
1772806929609182500,2.361182373046875,0.037435119903087614,0.001383271051943302,-0.011820612645195796
1772806929619113500,2.371113525390625,0.024714754539728163,-0.007185052665881812,-0.02079547133729793
1772806929629045500,2.38104541015625,0.030995442244410514,-0.02601447549406439,0.01481013158368878
1772806929638977300,2.390977294921875,0.03623392741978168,-0.019457473332341758,0.001177300151064992
1772806929648909300,2.400909423828125,0.03833060743808746,0.0014081314985640346,-0.009613777650147676
1772806929658840300,2.41084033203125,0.04895370826125145,-0.00978818436898291,-0.007433638865780085
1772806929668772400,2.4207724609375,0.03937397901117801,-0.005951656679715961,-0.003047532736044377
1772806929678704400,2.430704345703125,0.035034488502144814,0.004930661335214972,-0.005334036238025874
1772806929688636400,2.440636474609375,0.029047815307974813,0.01003695323197171,0.0005785853392444551
1772806929698567400,2.4505673828125,0.03323649916946888,0.011435787179227918,-0.01674528263104148
1772806929708499500,2.46049951171875,0.04131576072871685,0.01840292277811095,-0.007266630002111196
1772806929718431500,2.470431396484375,0.040566988188028334,0.011000336637720464,-0.006794756440352648
1772806929728363300,2.48036328125,0.021861118674278257,0.01671264986991882,-0.002905082924896851
1772806929738294300,2.490294189453125,0.03696984047889709,0.018216149768047033,0.009225600316468626
1772806929748226300,2.500226318359375,0.04056055844724178,0.011670838044118136,0.006789258281327783
1772806929758158300,2.510158447265625,0.03008943331539631,0.01915138479154557,-0.004883104999596253
1772806929768090400,2.52009033203125,0.03248480401933193,0.014736235230416058,-0.0013840108374599367
1772806929778021400,2.530021484375,0.0215630125105381,-0.003705777449067682,-0.007140117545612156
1772806929787953400,2.539953369140625,0.0299415492773056,-0.00012311492301523685,-0.007432369357300922
1772806929797885400,2.549885498046875,0.03682546357214451,0.000613601853698492,-0.013764403656730427
1772806929807817500,2.5598173828125,0.03189092977941036,-0.015520590541139244,-0.010979175118682905
1772806929817748200,2.569748291015625,0.036684009274840355,-0.019286354549136013,-0.005096738617122173
1772806929827680300,2.57968017578125,0.029952655193209648,-0.0104139150518924,0.004536200391221791
1772806929837612300,2.5896123046875,0.02830897963941097,0.0014392572891898452,-0.0014269457968883216
1772806929847544300,2.59954443359375,0.03968494465649128,-0.013687420297227798,-0.004820917350426316
1772806929857475300,2.609475341796875,0.02996025397777557,-0.013296977941226213,-0.018920781772909685
1772806929867407400,2.619407470703125,0.03340308790802955,-0.0030451398495584723,0.0006987502533476799
1772806929877339400,2.62933935546875,0.042678865775465966,0.0037341632933355867,-0.0039986685815732925
1772806929887271400,2.639271484375,0.03310205913484096,0.015836725551914423,0.009390910413395613
1772806929897202400,2.649202392578125,0.04387655112743377,0.007720365118980407,-0.006146731727244332
1772806929907134200,2.65913427734375,0.02651566648185253,0.0073777256937697525,-0.022104772970732302
1772806929917066200,2.669066162109375,0.03085574151277542,0.00401913598086685,-0.020964571693353355
1772806929926998300,2.678998291015625,0.029658640682697295,0.006222783504985272,-0.03060043331114575
1772806929936929500,2.688929443359375,0.0434223776191473,0.01888926325663924,-0.0007325520582497119
1772806929946861300,2.698861328125,0.03638882572054863,0.021731756673566995,0.010848023019684478
1772806929956793300,2.70879345703125,0.03893383402824402,0.023665062823705375,0.004039621646469459
1772806929966725400,2.718725341796875,0.03564356031119823,0.005951857609115541,0.012046804350195452
1772806929976656400,2.728656494140625,0.04492167626619339,0.0021728870596736667,0.00428222563015297
1772806929986588400,2.73858837890625,0.027861820393800734,-0.004717091649770736,-0.00979442231352441
1772806929996520200,2.748520263671875,0.03758943368196487,-0.0012181070854887365,-0.0032091073727700857
1772806930006452200,2.7584521484375,0.013049451187252998,0.0044392062901519235,-0.0036843876011669633
1772806930016383500,2.768383544921875,0.0435790294855833,-0.005891907582804561,-0.011603024371759965
1772806930026315500,2.7783154296875,0.04627484444081783,-0.011378504034038632,-0.007121805570786818
1772806930036247600,2.78824755859375,0.030716040781140326,-0.008236771942209451,0.011617774416320024
1772806930046178300,2.79817822265625,0.023237667724490166,-0.013458561711106449,0.010545606007007881
1772806930056110300,2.8081103515625,0.037004911792278286,-0.010788849311508237,-0.0008632383663672953
1772806930066042400,2.81804248046875,0.027577742755413054,-0.007838438540697098,-0.0019720124590210616
1772806930075974400,2.827974365234375,0.01890168434679508,-0.004024634139891714,-0.010158789513353257
1772806930085905400,2.837905517578125,0.03581190261542797,-0.005979001344367862,-0.003687319343769923
1772806930095837400,2.84783740234375,0.02144669265449047,-0.008676094941236077,-0.006947563248733058
1772806930105769500,2.85776953125,0.02907762592434883,0.009765004422795027,0.002006864576693624
1772806930115701500,2.867701416015625,0.042243981489539145,0.001873831047862768,0.006117268170742317
1772806930125632300,2.87763232421875,0.04238894291818142,-0.006769969058968126,-0.00986345982858911
1772806930135564300,2.887564208984375,0.031166707158088683,-0.0011100801337510346,-0.01087608920354396
1772806930145496300,2.897496337890625,0.036404607811570164,0.005156414648797363,-0.004454549989756197
1772806930155428400,2.907428466796875,0.02308569203317165,0.0025991679140366613,0.004661461605550721
1772806930165359600,2.917359619140625,0.02442950785756111,0.0021010639324784276,-0.007110891451127826
1772806930175291400,2.92729150390625,0.03475391799509525,0.00976610040133819,0.014654137304378673
1772806930185223400,2.937223388671875,0.04044073145985603,0.006894088628981262,0.0058427164125256234
1772806930195155500,2.947155517578125,0.03101473146677017,0.005646024796646088,0.0033320944316219537
1772806930205086500,2.95708642578125,0.03161445092558861,-0.0012901676747016607,-0.0069885893788654355
1772806930215018200,2.967018310546875,0.03550795123279094,-0.0029630145240575074,-0.008234479520423338
1772806930224950300,2.9769501953125,0.04268821812570095,-0.013505323462281376,-0.01029098279196769
1772806930234882300,2.98688232421875,0.028175124126672745,-0.01608196901725605,-0.017113988079270347
1772806930244813600,2.9968134765625,0.049721185502409934,-0.002268730383273214,-0.0017886461155954747
1772806930254745600,3.00674560546875,0.04193944558501243,0.003743552176188677,0.010309952353918924
1772806930264677400,3.016677490234375,0.03475742512643337,-0.0008940627628937363,0.015673369950056075
1772806930274609400,3.026609375,0.03595686404407024,-0.01864210182884708,-0.001585944884037599
1772806930284540400,3.03654052734375,0.029369302347302437,-0.019296857676841316,0.010079029674874618
1772806930294472400,3.046472412109375,0.03191431065499782,-0.0012742394532077013,-0.003456122670089826
1772806930304404500,3.056404541015625,0.04897416652739048,0.004208849866688251,-0.013582507751183583
1772806930314336300,3.066336181640625,0.04089432044625282,0.0006698072866536676,-0.015529312703711912
1772806930324267300,3.076267333984375,0.03475684060454368,-0.00573271669941023,-0.007591377577604725
1772806930334199600,3.086199462890625,0.04478431362211704,-0.017006006793305276,0.0035721867978107183
1772806930344131600,3.096131591796875,0.03804828336536884,-0.002247870258335024,-0.006852240514941513
1772806930354063400,3.1060634765625,0.042236967226862904,-0.006210691208392381,-0.0008197919502854347
1772806930363994400,3.115994384765625,0.02996960632801056,-0.006453249526303261,-0.010732616479089484
1772806930373926400,3.125926513671875,0.05600654938220977,0.002477806556690484,-0.016483115430362523
1772806930383858400,3.1358583984375,0.020694412982463835,0.016263609194476156,-0.004111581770982593
1772806930393790500,3.14579052734375,0.03940028249621391,0.012526541558001189,0.01599809925924055
1772806930403721200,3.15572119140625,0.038652094477415085,0.006503390544652939,0.009510061547346413
1772806930413653200,3.1656533203125,0.016803250762820243,0.010269866938702762,0.01145804467680864
1772806930423585500,3.17558544921875,0.03491290794909,0.005787095501460135,-0.015176553743286057
1772806930433517600,3.185517578125,0.028480829074978828,-0.002442735243309289,-0.003877992210816592
1772806930443448800,3.19544873046875,0.029679683470726012,0.0054344096062704916,-0.013064064234495161
1772806930453380900,3.205380859375,0.04195172054469585,0.01008508495632559,-0.016150969999702645
1772806930463312600,3.215312744140625,0.04180500555038452,0.012617800038028508,0.009029895081277935
1772806930473244700,3.22524462890625,0.0317845467954874,-0.0025613383879885075,0.003964720646198839
1772806930483175700,3.23517578125,0.04405892195701599,0.002614383749477565,0.008043532658740877
1772806930493107700,3.245107666015625,0.02311491812765598,-0.015000822717044502,0.0027793193870689716
1772806930503039700,3.255039794921875,0.026404022800922394,-0.007653364297375082,0.001663101773476228
1772806930512971500,3.264971435546875,0.04481003258526325,-0.016493052302487193,0.0010754928775597364
1772806930522902800,3.27490283203125,0.04226677784323692,-0.010617420001048594,0.00541786033026874
1772806930532834800,3.284834716796875,0.0361328051328659,-0.000012567220628261566,-0.005101606588484719
1772806930542766800,3.294766845703125,0.035684476843476295,-0.019799108110554516,-0.00791926695825532
1772806930552697600,3.304697509765625,0.037032384321093556,-0.01300835199188441,0.006387390349013731
1772806930562629600,3.314629638671875,0.043020811080932614,-0.014334595626965164,0.004733357797982171
1772806930572561700,3.324561767578125,0.030752281138300894,0.0004684942945837974,-0.017973134792409837
1772806930582493700,3.33449365234375,0.03150339176654816,-0.008321856409776956,-0.022363624836318194
1772806930592424700,3.3444248046875,0.04182780190408229,-0.009170965786091983,-0.007168110664235427
1772806930602356700,3.354356689453125,0.029858547168970108,-0.00624099501511082,0.011069575082184747
1772806930612288800,3.364288818359375,0.03315057445168495,0.01722295574592426,-0.0025134532588068394
1772806930622220800,3.374220703125,0.02910685201883316,0.01538689942518249,0.02801608850690536
1772806930632151600,3.384151611328125,0.03404430842101574,0.018809384687151758,0.02254278992866166
1772806930642083600,3.39408349609375,0.028804069679975508,0.011117588075529783,0.0029032928266096857
1772806930652015600,3.404015625,0.046612698093056674,0.013129950811248271,-0.019357821483304723
1772806930661947600,3.41394775390625,0.04765840775370597,0.017339640928152947,-0.018822509030206127
1772806930671879000,3.42387890625,0.005161912807822227,-0.001508066475391388,-0.02021321446993388
1772806930681810700,3.433810791015625,0.05095043503642082,0.006745875797327608,-0.008719559623626992
1772806930691742700,3.44374267578125,0.02222001511454582,0.004608443643525243,-0.0024835878435056657
1772806930701674800,3.4536748046875,0.05394494067728519,-0.0030610498047433793,0.009701574664609506
1772806930711605800,3.463605712890625,0.025815993779897687,-0.014641305222269146,-0.004075012620259076
1772806930721537800,3.473537841796875,0.028804654201865194,-0.014946279518213122,-0.011879667622363194
1772806930731469600,3.483469482421875,0.038381460842490195,-0.008091043328586966,-0.01708415006343275
1772806930741401600,3.493401611328125,0.03823766845762729,-0.008239237893931568,-0.016569725134735928
1772806930751332900,3.503332763671875,0.04242752136290073,-0.003608308423962444,-0.01400026737237349
1772806930761265000,3.513264892578125,0.03165653650164604,-0.02286470622625202,0.02271727884588763
1772806930771196700,3.52319677734375,0.053203182399272915,-0.01203764379620552,0.0065504354236181825
1772806930781128700,3.533128662109375,0.025521394747495648,0.008992613544501364,0.0034905089968815446
1772806930791059700,3.543059814453125,0.03315408158302307,0.0035021446357481178,-0.010315103453071787
1772806930800991700,3.55299169921875,0.03614391104876995,0.011380842121597378,-0.023297215892001986
1772806930810923800,3.562923828125,0.027313538861274717,0.007912526690214873,-0.012910225379653275
1772806930820855600,3.57285546875,0.03823474584817886,0.00811639696555212,-0.023299891906278205
1772806930830786800,3.582786865234375,0.04871288524270057,0.023119539503846317,-0.017089419893594457
1772806930840718800,3.59271875,0.04721709372699261,0.002317391830589622,0.012021861705183982
1772806930850651000,3.60265087890625,0.032704584249854084,0.00235693838968873,-0.0009730554163921624
1772806930860583000,3.6125830078125,0.03375029391050339,-0.0034668358603492377,0.003388117201486602
1772806930870513700,3.622513671875,0.038836218872666355,-0.00403871746417135,0.0008371814765036105
1772806930880445700,3.63244580078125,0.03658873220682144,0.004616553884744644,-0.013871325496770441
1772806930890377700,3.642377685546875,0.035842882275581356,-0.015918887410033493,-0.007411235237726941
1772806930900309800,3.652309814453125,0.0379366396844387,-0.015611282765585929,-0.011243205482885241
1772806930910240800,3.66224072265625,0.029559856483340263,-0.022884671302046626,0.012769428669475018
1772806930920172800,3.6721728515625,0.04198270020484924,-0.022068222086317837,0.007269561744714156
1772806930930104800,3.682104736328125,0.04722118538022041,-0.022720237987954167,0.005931655071303248
1772806930940036900,3.692036865234375,0.03405190720558166,-0.02105405834140256,-0.01056241101133637
1772806930949967600,3.701967529296875,0.04811725743710994,-0.009677271340414881,0.0002531436440069228
1772806930959899600,3.711899658203125,0.03868716579079628,-0.003007365122437477,-0.011477014238759875
1772806930969831700,3.721831787109375,0.03345043418109417,-0.013488025267608462,0.002548926430987194
1772806930979763700,3.731763671875,0.03180325149595737,-0.008965634206030517,0.008846190811134875
1772806930989694700,3.74169482421875,0.03524491638243198,-0.007192724515683949,0.006245095801493152
1772806930999626800,3.751626708984375,0.029109190106391906,-0.00271358807394281,0.012450699842814356
1772806931009558800,3.761558837890625,0.03210311122536659,0.009628737757261842,0.01188936703247018
1772806931019489800,3.77148974609375,0.0434744000673294,0.004625175582617521,-0.011084206395735964
1772806931029421800,3.781421875,0.03299918328225612,0.017820903372764586,-0.006561934065166861
1772806931039353600,3.791353515625,0.037488895916938776,0.02075615310706198,0.001444791980832815
1772806931049285600,3.80128564453125,0.02327624616920948,0.014539123489428311,-0.0053920409024227406
1772806931059216600,3.811216552734375,0.039435353809595106,0.022658443064428865,-0.0002592537243850529
1772806931069148700,3.821148681640625,0.029710078608989714,0.006298132029827683,0.005132622781256213
1772806931079080700,3.831080810546875,0.035844051319360734,0.008614756675437093,0.02257979747080244
1772806931089012700,3.8410126953125,0.03315174349546432,0.0035445224727503953,0.021099523184634743
1772806931098943700,3.85094384765625,0.01983458128273487,-0.012202643365878611,0.00792482904936187
1772806931108875800,3.860875732421875,0.035551205852627756,-0.004867532971128821,-0.008963981105061247
1772806931118807800,3.870807861328125,0.03824877437353134,-0.015803517402056603,-0.014802815926913172
1772806931128739800,3.88073974609375,0.043186230775713916,-0.02971522970814258,-0.003683090693224221
1772806931138670600,3.890670654296875,0.043187984341382976,-0.021876352776028216,0.0035418829910922795
1772806931148602600,3.9006025390625,0.03166413528621197,-0.029307050766050814,0.001792408975260332
1772806931158534700,3.91053466796875,0.04274140961766243,-0.01940225428007543,0.010026925028301775
1772806931168466700,3.920466796875,0.027628596159815787,-0.017917075489927083,-0.00211836212715134
1772806931178397700,3.930397705078125,0.02433715339899063,-0.016287647657189517,0.004456550150597468
1772806931188329700,3.940329833984375,0.03495908517837524,-0.008185370548535138,-0.008970958835119381
1772806931198261800,3.95026171875,0.02957213144302368,0.004098430028464645,-0.000048798444634303445
1772806931208193800,3.96019384765625,0.04558277052342891,0.0018650449532084167,-0.0052492714308667926
1772806931218124500,3.97012451171875,0.041839492341876026,0.007652341384068131,-0.008655691474024205
1772806931228056600,3.980056640625,0.019992986714839935,0.010320263685379177,-0.011350319119170307
1772806931237988600,3.989988525390625,0.0425900184482336,0.017483561177179217,-0.010030222097085787
1772806931247920600,3.999920654296875,0.03540449085831642,0.010436784470826388,-0.022633390821563078
1772806931257851600,4.0098515625,0.029417233142256735,0.01663675335580483,-0.01463205333673395
1772806931267783700,4.01978369140625,0.04812485622167587,0.026693068875372407,-0.013902917078277096
1772806931277715700,4.0297158203125,0.04214169015884399,0.008615834387671202,0.003493605136265978
1772806931287647700,4.039647705078125,0.0407949517250061,0.004716671524662524,0.02222900213859975
1772806931297578800,4.049578857421875,0.03810498198866844,-0.004986519708298147,-0.0017605068664997814
1772806931307510500,4.059510498046875,0.02717792978286743,0.007864869889896363,0.0017046576265711336
1772806931317442600,4.069442626953125,0.02882452794611454,-0.010090272588096558,-0.010327433211682363
1772806931327374600,4.07937451171875,0.026578210324048994,-0.007492109321057796,-0.00025268698628060516
1772806931337305900,4.089305908203125,0.041543724265694616,-0.022548388552386313,-0.009513815273856743
1772806931347238000,4.09923779296875,0.028828619599342343,-0.020176490055583415,-0.012374501934600993
1772806931357169700,4.109169677734375,0.03197451640963554,-0.008162519395910202,0.007753472804138436
1772806931367101700,4.119101806640625,0.030179449686408042,-0.00927389643760398,-0.0033602519470266995
1772806931377032700,4.12903271484375,0.0415530766159296,-0.005746818289998918,0.013406575795542448
1772806931386964700,4.13896484375,0.03930851255953312,-0.009653342475555837,0.018662468763440847
1772806931396896500,4.148896484375,0.043050037175416944,-0.006243588830996304,0.007035835187230259
1772806931406828500,4.15882861328125,0.037514030358195304,-0.009769644065294415,0.0032455760587938127
1772806931416759800,4.168759765625,0.040056116056442256,-0.003891582344751805,-0.005161118223378435
1772806931426691800,4.17869189453125,0.033921558824181554,0.0077951108556240795,0.0023430559948086735
1772806931436624000,4.188623779296875,0.0333224238872528,-0.008451821198686957,0.000646755204629153
1772806931446555600,4.1985556640625,0.025536592316627502,-0.0017601232740096747,-0.01012207423215732
1772806931456486700,4.208486572265625,0.047829088145494456,0.0003306201938539743,0.012359121702378614
1772806931466418700,4.218418701171875,0.04004851727187633,-0.0009866364171728492,0.01071632293141447
1772806931476350700,4.228350830078125,0.028971827462315556,-0.01039500942202285,-0.011364731237012893
1772806931486282800,4.23828271484375,0.039897710624337196,-0.0013073928041383623,0.0006628478229045867
1772806931496213800,4.2482138671875,0.043487844070792196,0.0069462206750176845,0.007265406159404665
1772806931506145800,4.258145751953125,0.04333879098892212,-0.009075323391892015,0.01190897591523826
1772806931516077800,4.268077880859375,0.036307577177882196,-0.01378450572984293,0.022217503497051073
1772806931526009900,4.278009765625,0.04214052111506462,-0.0054477257455699145,0.018498117647739128
1772806931535940600,4.287940673828125,0.039893034449219704,-0.010414810101035982,-0.008580352082336321
1772806931545872600,4.29787255859375,0.03361176222264767,-0.02880308329928666,-0.0075742529128678135
1772806931555804700,4.3078046875,0.02523731710910797,-0.003707238753791898,-0.016166021438362075
1772806931565736000,4.31773583984375,0.04155073852837086,-0.012747417767066508,-0.0226156542354729
1772806931575668700,4.327668701171875,0.04005202440321445,-0.010833729632850736,0.0018938965883571655
1772806931585600500,4.3376005859375,0.028381460353732107,-0.015414280622452496,0.029239008764829485
1772806931595532500,4.347532470703125,0.029127310284972188,0.0071027629435993726,0.028403800049703568
1772806931605463800,4.3574638671875,0.033467385315895076,0.009087013829685747,0.012011577773187308
1772806931615395800,4.367395751953125,0.04902794254124164,0.005547934717033058,0.004114723576139658
1772806931625327900,4.377327880859375,0.028076924449205398,0.0008186594391241669,-0.005558510909974575
1772806931635259600,4.387259765625,0.03076981679499149,0.0036827618996612727,0.021962140496494247
1772806931645190700,4.397190673828125,0.03465980997085571,-0.0070270125599578015,0.003341784708574414
1772806931655122700,4.407122802734375,0.03016951281428337,-0.003226213771197945,0.0035987460111733525
1772806931665054700,4.4170546875,0.025978490865230557,0.004752710952423513,-0.0004076218196656555
1772806931674986500,4.426986572265625,0.04258826488256454,0.007040438297111541,-0.01386872254773043
1772806931684917800,4.436917724609375,0.031215806996822356,-0.0001537657896056771,-0.01248073878805153
1772806931694849800,4.446849853515625,0.044538229906558986,-0.005436765960138291,-0.003069379241671413
1772806931704781800,4.45678173828125,0.023590718945860862,-0.017584555599931627,-0.0019879498136695472
1772806931714713900,4.4667138671875,0.026882161706686017,-0.007077537170797586,-0.0012828794173896311
1772806931724644600,4.47664453125,0.04992635268568992,-0.008554222127236425,0.02726307818251662
1772806931734576600,4.48657666015625,0.04603519046604633,-0.009817720990721136,0.029218121240427716
1772806931744508700,4.4965087890625,0.0361591086179018,-0.009244213685393333,0.0017507161248475312
1772806931754440700,4.506440673828125,0.022544424763321875,-0.013558240959607063,-0.0010398005096707492
1772806931764371700,4.516371826171875,0.034815292793512344,-0.026652152343094346,-0.002236791741894558
1772806931774303700,4.5263037109375,0.025087679505348202,-0.01298310795277357,-0.011695725890202447
1772806931784235800,4.53623583984375,0.02059796687066555,-0.00858375874897465,-0.022716776522388682
1772806931794167800,4.546167724609375,0.030773323926329612,-0.019045805525220928,0.0015029884414747357
1772806931804098600,4.5560986328125,0.035408582511544225,-0.014711575713194905,0.00662441397528164
1772806931814030600,4.566030517578125,0.04138999500870704,-0.007533354646898805,0.00818521528490819
1772806931823962600,4.575962646484375,0.034953824481368065,-0.0018440569641068577,-0.006762406807020306
1772806931833894700,4.585894775390625,0.029564532658457755,-0.00145454618986696,-0.014216175145376472
1772806931843826000,4.595825927734375,0.044375732821226116,0.002741827787738293,-0.018453118595387785
1772806931853757700,4.6057578125,0.04153261834979057,0.008176730584353208,-0.01020521333781071
1772806931863689700,4.615689697265625,0.04257891253232956,0.0026853300938382745,-0.0036255152870900927
1772806931873620700,4.625620849609375,0.03314765184223652,0.004350194566138089,-0.006726221248786896
1772806931883552800,4.635552734375,0.04347206197977066,0.011243187216576188,0.008713157282304018
1772806931893484800,4.64548486328125,0.03898351838886738,0.01620846320744604,-0.000979978347523138
1772806931903416600,4.65541650390625,0.03883212721943855,0.006239113585278392,-0.0013578443497419357
1772806931913348600,4.6653486328125,0.01877718118429184,0.005147646820452064,0.0007028510397300124
1772806931923280000,4.67527978515625,0.03493570430278778,0.005682119023334235,-0.012584573621861635
1772806931933212000,4.6852119140625,0.035684476843476295,-0.002877126338891685,-0.0058717598439194255
1772806931943143700,4.695143798828125,0.0264081144541502,-0.007432944746036082,-0.000005772153660655021
1772806931953074700,4.70507470703125,0.023115502649545667,0.008169898984767497,0.0065825841275509445
1772806931963006700,4.7150068359375,0.029251813447475433,-0.01569446753701195,0.004791627323860302
1772806931972938800,4.724938720703125,0.02610825472474098,-0.014458258539251981,-0.0014337317307014017
1772806931982870800,4.734870849609375,0.0488555085837841,-0.011730934200901537,-0.011877868390921503
1772806931992801800,4.7448017578125,0.03688099315166473,-0.023709029829595236,-0.005291667534178123
1772806932002733800,4.75473388671875,0.041669980993866915,-0.026433559422660617,0.012089273518742992
1772806932012665900,4.764665771484375,0.019973112970590592,-0.024525004121288656,0.021422818588558584
1772806932022598000,4.774597900390625,0.03717909931540489,-0.01460305557111278,0.028731899492908268
1772806932032528600,4.784528564453125,0.03598609013855457,-0.015413385573308914,0.02251634031315334
1772806932042460700,4.794460693359375,0.027902736926078794,-0.0022804390873759984,0.0059470261703711
1772806932052392700,4.804392822265625,0.04047463372945785,0.00017678133901208638,-0.0032436763626523314
1772806932062324700,4.81432470703125,0.040924715584516526,-0.0002788900066167116,-0.006605216084467247
1772806932072255500,4.82425537109375,0.022370237240195275,0.00828192625818774,-0.021699489238625393
1772806932082187800,4.834187744140625,0.034191607937216754,0.007575074896775186,-0.022591853234777224
1772806932092119800,4.844119873046875,0.025064883151650428,0.020955694267153737,-0.02477664079479873
1772806932102051800,4.8540517578125,0.03194645935893058,0.0175519685045816,0.0034406876389402896
1772806932111982800,4.86398291015625,0.04316927964091301,0.0057364612927660345,0.03498488633991219
1772806932121914600,4.87391455078125,0.03553659280538559,0.013555482746940106,0.012575230404781177
1772806932131846700,4.8838466796875,0.03209492791891098,0.020108776847925038,0.03137720810361206
1772806932141778700,4.89377880859375,0.04211714023947716,0.012018117111828177,-0.0045070838945917785
1772806932151709700,4.903709716796875,0.03642740416526794,0.003759589995536953,-0.018551857128972185
1772806932161641700,4.913641845703125,0.03702653910219669,-0.010191888065356761,-0.008762120123719797
1772806932171573800,4.92357373046875,0.045403322303295135,-0.017573267020937054,-0.006020931656798348
1772806932181505800,4.933505859375,0.021762334474921225,-0.02403930296357721,-0.008489011403918266
1772806932191436800,4.943436767578125,0.03732289170026779,-0.031151747050974517,-0.010464640592131763
1772806932201368800,4.953368896484375,0.04300502898991108,-0.03155786190014332,-0.0048161863763816655
1772806932211300600,4.963300537109375,0.021759411865472793,-0.020126440368779003,0.007827186494320631
1772806932221232600,4.973232666015625,0.039867900007963177,-0.02340829331735149,-0.0077916128574404865
1772806932231163600,4.98316357421875,0.024753332984447478,-0.023512630474660543,0.0003105455202050507
1772806932241095700,4.993095703125,0.044507834768295285,-0.027458573355153202,0.005580823206482455
1772806932251027700,5.00302783203125,0.03208440652489662,-0.008581566791888326,-0.00940777021665126
1772806932260959700,5.012959716796875,0.02759527841210365,-0.004380425307620317,-0.000047419338300824164
1772806932270890800,5.022890869140625,0.026997897040843963,0.01076172384256497,-0.00008719422626309096
1772806932280822800,5.03282275390625,0.04106324727237224,0.014247447066474706,-0.0040379046134185045
1772806932290754800,5.0427548828125,0.030738837134838104,0.01492985810637474,-0.0036397721413057296
1772806932300686800,5.052686767578125,0.03507891216576099,0.007701441222801804,-0.022861290426459163
1772806932310617600,5.06261767578125,0.024604864424467087,0.02473619918655604,-0.029905208455445243
1772806932320549600,5.072549560546875,0.032390111473202705,0.019166655425913632,-0.013862630733661353
1772806932330481700,5.082481689453125,0.04017302043437958,0.018828345115948466,0.010592431690264493
1772806932340413700,5.09241357421875,0.03239303408265114,0.006692885234765708,0.02859551409636624
1772806932350344700,5.1023447265625,0.040621348723769185,-0.004671699871774762,0.021747557030897587
1772806932360276700,5.11227685546875,0.0476531470566988,0.006998078726418316,0.01242467035241425
1772806932370208800,5.122208740234375,0.03478314408957958,-0.0212764323878102,-0.008838199300924315
1772806932380140800,5.132140869140625,0.03373100468814373,-0.014546740540303289,-0.015747512898501008
1772806932390071600,5.142071533203125,0.012782909205555915,-0.003382993501797318,-0.02592265075845644
1772806932400003600,5.152003662109375,0.0361287134796381,-0.011989402473997324,-0.01367544673164375
1772806932409935600,5.161935546875,0.032089667221903796,-0.007395900671277195,-0.0006996453024912625
1772806932419867600,5.17186767578125,0.037027123624086375,-0.009283668912947178,0.018530047155963257
1772806932429798700,5.181798583984375,0.03582885375022888,-0.012235997646208852,0.019740792918903752
1772806932439730700,5.191730712890625,0.03702653910219669,-0.02194180096136406,0.011270358351292089
1772806932449663000,5.2016630859375,0.035379356417059894,-0.020105214917659757,0.003966346347704529
1772806932459594800,5.2115947265625,0.03867079917788505,-0.00008415288580581545,0.0036231315337587147
1772806932469525800,5.22152587890625,0.028643910682201384,0.005204034916497766,-0.003115392074175179
1772806932479457800,5.231457763671875,0.03088496760725975,0.008479549455828964,0.005774692677613347
1772806932489389800,5.241389892578125,0.02864274163842201,0.018110113843996075,0.00020970636107958853
1772806932499320800,5.25132080078125,0.03867138369977474,-0.004740655188448727,0.0033073801154736428
1772806932509252900,5.2612529296875,0.03148994776308536,-0.0017881985910236835,0.002708382175862789
1772806932519185000,5.271184814453125,0.030444238102436065,0.004430548059660941,-0.016347826012363658
1772806932529117000,5.281116943359375,0.03284077785015106,0.0007288987964391708,-0.00974521287693642
1772806932539048000,5.2910478515625,0.03882686652243137,-0.016692684794124214,-0.015934642101591453
1772806932548979700,5.300979736328125,0.02954816604554653,0.004326448364369571,0.009164663909468799
1772806932558911700,5.310911865234375,0.022816227442026136,0.019420922447927296,0.02488787348377518
1772806932568843800,5.32084375,0.044966099929809565,-0.007921203187014907,0.008754265610827133
1772806932578775000,5.330775146484375,0.03135141607522964,-0.006378193262405693,0.01987682212241925
1772806932588706800,5.340706787109375,0.04407236596047878,0.0038285818448290224,0.005282287784479558
1772806932598638800,5.350638916015625,0.04571604151427745,0.002213602662552148,-0.01635833827322349
1772806932608571000,5.36057080078125,0.03688508480489254,0.0014638985401019453,-0.024211855652043594
1772806932618502000,5.370501953125,0.03239654121398926,-0.007516513109952211,-0.01421578241973184
1772806932628434000,5.380433837890625,0.036440848168730736,-0.01007158615393564,-0.019060747366026042
1772806932638365700,5.39036572265625,0.0307563727915287,-0.008651745951268821,-0.00785310638686642
1772806932648297700,5.400297607421875,0.04003974944353103,-0.017672233883384614,0.013870266050845384
1772806932658229000,5.41022900390625,0.027321137645840644,-0.00930940614240244,0.007569375808350741
1772806932668161000,5.4201611328125,0.03211304809749126,-0.005378240705933421,-0.014670513050444423
1772806932678093000,5.430093017578125,0.03944587520360946,-0.009227573077846317,-0.01603885139473714
1772806932688024800,5.44002490234375,0.03675415190160274,0.005999971067160367,0.0026842432484496383
1772806932697955800,5.449955810546875,0.034809447574615474,0.013442122032959013,-0.018810626796167344
1772806932707887900,5.459887939453125,0.02762625807225704,0.0013668679064139722,-0.010456786079239099
1772806932717820000,5.46981982421875,0.03660626786351204,-0.0004939209967851639,0.008018014624994248
1772806932727751700,5.479751708984375,0.033764322435855865,0.019983543033059686,0.01498227328020148
1772806932737683000,5.489682861328125,0.04139700927138328,-0.0021960852721706033,-0.0043218909202609205
1772806932747615000,5.499614990234375,0.02972469165623188,0.00928105683075264,0.0019903244338463993
1772806932757547000,5.509547119140625,0.03286474324762821,-0.0027614823362790046,-0.0017336462590377777
1772806932767479000,5.51947900390625,0.02957213144302368,0.005512552876397967,-0.009689591965870931
1772806932777409800,5.529409912109375,0.03360883961319923,0.00012959946272894738,0.010674493083683774
1772806932787341800,5.539341796875,0.026426819154620168,-0.0027097886816598474,0.008802424734644591
1772806932797273900,5.54927392578125,0.043782443103194235,0.005354969428200274,0.0003032572628930211
1772806932807206000,5.559205810546875,0.03944587520360946,-0.01540417935354635,0.012246838700631632
1772806932817136600,5.56913671875,0.05306348166763782,-0.01085798729127273,-0.021693927147518843
1772806932827069000,5.57906884765625,0.043187984341382976,-0.008880312276445328,-0.021053629083139822
1772806932837001000,5.5890009765625,0.03241115426123142,-0.011770462493691593,-0.008088559110555798
1772806932846933000,5.59893310546875,0.036901451417803766,-0.011668883549049497,-0.002838904087198898
1772806932856863700,5.60886376953125,0.03645604573786258,-0.0016141937309876084,0.007388420617720112
1772806932866795800,5.618795654296875,0.014161211821436882,0.0049511378676630555,0.008527087525138631
1772806932876727800,5.628727783203125,0.026730186015367505,-0.0053845791151747105,0.0032011889277957376
1772806932886659800,5.638659912109375,0.03256722160577774,-0.0015885295667685568,0.012745399339916183
1772806932896590800,5.6485908203125,0.033763737913966176,0.0006225888777524232,0.003164080920955166
1772806932906522600,5.658522705078125,0.04767652793228626,-0.0034676761105656624,0.0024025036976207045
1772806932916455000,5.668454833984375,0.0216413384437561,-0.0021648864163085818,-0.010878363359021022
1772806932926387000,5.678386962890625,0.030322657549381255,0.0016520597896538675,-0.0049467174208723
1772806932936318000,5.68831787109375,0.047830257189273834,0.00595408609881997,-0.003226506032142788
1772806932946250000,5.69825,0.04319324503839016,0.0020393420741893348,0.0022352573719341307
1772806932956181800,5.708181640625,0.03032148850560188,-0.00024896979238837956,-0.002108005129918456
1772806932966113800,5.71811376953125,0.03885200096368789,0.0016789843291975556,-0.009053632149891928
1772806932976044800,5.728044921875,0.04229425037205219,0.0017941716740839182,0.0004198876461945474
1772806932985976800,5.737976806640625,0.02463350599706173,-0.0003495988889597356,-0.006793660461809486
1772806932995908900,5.747908935546875,0.03585223462581634,-0.014592972568515687,-0.007132865820918232
1772806933005841000,5.7578408203125,0.029866730475425717,-0.01008994379453361,0.009157804910419507
1772806933015772000,5.76777197265625,0.027623335462808606,0.001087466443143785,0.0018267679025884716
1772806933025704000,5.777703857421875,0.033010873720049856,-0.013279624947626143,0.006270906096184626
1772806933035636000,5.787635986328125,0.029718261915445326,0.004955503515526652,-0.004849074865831062
1772806933045567700,5.797567626953125,0.03301028919816017,0.002087565130088478,-0.01886252138018608
1772806933055498800,5.807498779296875,0.02822363944351673,0.005034980226214975,-0.02267691030288115
1772806933065430800,5.8174306640625,0.0382505279392004,0.015305157692171632,-0.017455860319500787
1772806933075362800,5.82736279296875,0.04752747485041618,0.011003259247168898,0.0006264978678897023
1772806933085293800,5.8372939453125,0.03450666523575783,0.0045211489525623615,0.005844789638603106
1772806933095225900,5.847225830078125,0.041538463568687435,0.01884248323915526,0.014715201575541868
1772806933105158000,5.857157958984375,0.03285772898495197,0.012495269636902957,0.013326103571010753
1772806933115090000,5.86708984375,0.023874212062358856,0.005020202782191336,-0.00009421762209385632
1772806933125020700,5.877020751953125,0.033898177948594094,0.002343348255753517,0.005585271052736789
1772806933134952700,5.88695263671875,0.03435001336932182,-0.0028530148109421134,-0.005105195918213575
1772806933144884700,5.896884765625,0.036298224827647205,-0.019859131202101706,0.007244966159574687
1772806933154816800,5.906816650390625,0.0279155964076519,-0.018696772891841826,0.01744295517215505
1772806933164748000,5.916748046875,0.02851122421324253,-0.01980683475928381,0.01890386717072688
1772806933174679800,5.9266796875,0.027612814068794247,-0.03054546998720616,0.008588316193083301
1772806933184611800,5.93661181640625,0.02147884135842323,-0.02567600078731775,0.015513430147990583
1772806933194543900,5.9465439453125,0.03060556614398956,-0.036768016030173746,-0.010560200787940992
1772806933204475000,5.956474853515625,0.019984218886494636,-0.027268548942077902,-0.008237822254979982
1772806933214406700,5.96640673828125,0.03838905962705612,-0.010023911087308079,-0.01429213559157215
1772806933224338700,5.976338623046875,0.022825579792261123,-0.022216215722262858,0.004977267822762951
1772806933234270700,5.986270751953125,0.03435059789121151,0.0007650112894363701,0.01605354664037004
1772806933244202000,5.996201904296875,0.03599661153256893,0.011585278652515262,0.012656223219120874
1772806933254134000,6.006134033203125,0.03509878591001034,0.0016838797000236808,0.000857950269896537
1772806933264065800,6.016065673828125,0.0350958633005619,0.002085720232874155,-0.006263763969345018
1772806933273997800,6.025997802734375,0.04272153587341308,0.016239296737127006,-0.004546648719999939
1772806933283928800,6.0359287109375,0.01922550947368145,0.015317688380181788,-0.020008631808543578
1772806933293860900,6.04586083984375,0.028354572346806526,0.01878426851220429,0.005297649750392884
1772806933303793000,6.05579296875,0.033145898276567456,0.0070513067509979,0.015615264820959419
1772806933313724700,6.065724609375,0.04167991786599159,0.017034885827917606,0.0040488735320046544
1772806933323656000,6.075656005859375,0.03599193535745144,0.014219499613624065,-0.007838073214516043
1772806933333588000,6.085587890625,0.0321025267034769,0.007268913290742784,-0.0103126466345042
1772806933343520000,6.09552001953125,0.03270107711851596,0.010257865973655134,-0.014488224419252946
1772806933353451800,6.10545166015625,0.030755203747749326,0.007725881544314324,-0.018218003798415882
1772806933363382800,6.1153828125,0.041381811702251435,0.0011973565584048628,0.0031795707510318605
1772806933373314800,6.125314697265625,0.03435176693499088,-0.003992467169649899,0.010431898233154787
1772806933383246800,6.135246826171875,0.02387888823747635,-0.005067877848818898,0.012101484546344727
1772806933393179000,6.145178955078125,0.015798457634449006,-0.016710549244377763,0.016558920612931252
1772806933403110000,6.15510986328125,0.016395254483819007,-0.013213628773018717,0.0230083890132606
1772806933413042000,6.1650419921875,0.024326047483086585,-0.009917235842440277,0.009077835009386762
1772806933422974000,6.174973876953125,0.023429390904307363,-0.012514522326644508,-0.006744944215565919
1772806933432906000,6.184906005859375,0.024178747966885565,-0.028891346104629335,-0.003750612104637548
1772806933442836500,6.19483642578125,0.032112463575601574,-0.02413032398158684,0.00470631452742964
1772806933452768500,6.2047685546875,0.02732347573339939,-0.028157844198308885,-0.0034866091398987917
1772806933462700500,6.214700439453125,0.03121171534359455,-0.02744850861886516,0.0030552593847736715
1772806933472632600,6.224632568359375,0.036894437155127524,-0.009773644386976957,-0.01669497721591033
1772806933482563600,6.2345634765625,0.04736497776508331,-0.012008801294211297,-0.00937033341624774
1772806933492495600,6.24449560546875,0.03359481108784675,0.007128554971981793,-0.014954444558359682
1772806933502427600,6.254427734375,0.033144144710898396,-0.001891348438244313,-0.009827036808338015
1772806933512359700,6.264359619140625,0.04406418265402317,0.0035353345192968844,0.011910711214598267
1772806933522290700,6.274290771484375,0.03867489083111286,0.01519382453849539,0.022755628961743785
1772806933532222500,6.284222412109375,0.029845687687397003,-0.0033755956466309726,0.006239698107168078
1772806933542154500,6.294154541015625,0.04375906222760677,-0.004448540374077856,0.015960972986090928
1772806933552086500,6.30408642578125,0.04749941779971122,-0.0002785064141266048,-0.01251169104874134
1772806933562017800,6.314017822265625,0.034331893190741536,-0.004657525215949863,-0.01601210951828398
1772806933571949600,6.323949462890625,0.013680150306224822,-0.006849628432746976,-0.0076006568626035
1772806933581881600,6.333881591796875,0.04361000914573669,-0.001993584970012307,-0.01300869905175641
1772806933591813600,6.343813720703125,0.04809913725852966,-0.0037748788962140675,-0.0009416282316669822
1772806933601744600,6.35374462890625,0.028498364731669425,-0.01748723270529881,0.0052413986516650765
1772806933611676700,6.3636767578125,0.0338888255983591,-0.0019078246490098535,0.025854974083416162
1772806933621608400,6.3736083984375,0.04571428794860839,-0.004267466452438384,0.017008838071208447
1772806933631539500,6.38353955078125,0.029254736056923865,-0.007133505141735077,0.01727011935589835
1772806933641471700,6.3934716796875,0.031498131069540976,-0.006749602124374359,-0.006414104826003313
1772806933651403800,6.40340380859375,0.04586392555236816,-0.016673249441292136,0.014279897164506837
1772806933661335800,6.413335693359375,0.03134849346578121,-0.015113306648191063,-0.007833442705171183
1772806933671266600,6.4232666015625,0.04017769660949707,-0.0005989888064563275,0.0033614940560422837
1772806933681198600,6.433198486328125,0.02401741992533207,-0.0077680401856079695,-0.010488971315789967
1772806933691130600,6.443130615234375,0.030752281138300894,-0.0006440700571984053,0.0035574550195597112
1772806933701062700,6.453062744140625,0.04421849643290043,-0.01064189685517922,-0.0135854942927137
1772806933710993400,6.462993408203125,0.021026421415805817,0.009868939721304922,0.0034352351456880567
1772806933720925700,6.47292578125,0.03539046233296394,0.008384089724719523,-0.009070601551001891
1772806933730857700,6.482857666015625,0.03628594986796379,0.014178236021474003,0.006206234228983521
1772806933740789800,6.492789794921875,0.032841362372040744,0.0021636077746748925,0.0008732574368827045
1772806933750720500,6.502720458984375,0.03239128051698208,0.009791983761265874,-0.0012970723395235835
1772806933760652500,6.512652587890625,0.03029576954245567,0.0025986564573831855,0.005864060594653711
1772806933770584600,6.52258447265625,0.03224456552267074,-0.005321249821688979,0.007609762617666274
1772806933780516600,6.5325166015625,0.028056466183066366,-0.008183507385011762,-0.003761681487923488
1772806933790447600,6.542447509765625,0.019677929416298864,-0.02102623875271529,-0.014923428365588187
1772806933800379400,6.55237939453125,0.027609891459345816,-0.0019297807524912057,-0.0008299297518096864
1772806933810311700,6.562311767578125,0.039729368320107455,-0.007577138989698142,0.004296245022350922
1772806933820243700,6.57224365234375,0.03628770343363285,-0.024107034437544642,0.010586568205058574
1772806933830174700,6.5821748046875,0.026708558705449102,-0.014194803563784808,0.02103537190724164
1772806933840106500,6.5921064453125,0.02940086652934551,-0.01589908673102036,-0.0011836842260789125
1772806933850038500,6.60203857421875,0.04077098632752895,-0.010419212281517683,0.006744935082411393
1772806933859970600,6.611970458984375,0.03523381046652794,0.0008131978127174079,-0.004145155247021466
1772806933869901600,6.621901611328125,0.03418576271831989,-0.0103636279030703,0.00495022455221042
1772806933879833600,6.63183349609375,0.04136778317689895,-0.0002953844836913049,-0.0025831483609974385
1772806933889765400,6.641765380859375,0.035980829441547395,-0.007267963442672044,-0.014539141755737364
1772806933899697700,6.65169775390625,0.027149288210272786,-0.00833336418448016,0.0010168945581186563
1772806933909628700,6.661628662109375,0.032982232147455215,0.010879285807628184,0.022547365639079362
1772806933919560700,6.671560791015625,0.04030979855656624,0.00133647276815027,0.007495178060978651
1772806933929492700,6.68149267578125,0.04509761735498905,0.007195738456677645,0.009006340675754471
1772806933939424500,6.691424560546875,0.042404725009202955,0.003306275003775954,0.007859663991816342
1772806933949355500,6.70135546875,0.03896306012272834,0.0131719998546876,-0.0017978523353580384
1772806933959287600,6.71128759765625,0.04315057494044303,0.004271046649012715,0.0018169497614726423
1772806933969219600,6.721219482421875,0.032526889595389366,0.004880666447337717,0.001421392838936299
1772806933979151400,6.7311513671875,0.029831074640154838,0.0013845314272679387,0.0231427194500342
1772806933989082600,6.74108251953125,0.03312485548853874,0.0023570297212339936,0.0005529120418708771
1772806933999014700,6.7510146484375,0.04000993882715702,0.003298895414918661,-0.01732174907843582
1772806934008946700,6.76094677734375,0.031631402060389516,-0.00406153208417818,-0.011364776902785523
1772806934018878700,6.770878662109375,0.030886136651039123,-0.005324775219336152,-0.01315923170465976
1772806934028809500,6.7808095703125,0.037619244298338884,-0.0037700748569332062,-0.0008744538801256567
1772806934038741500,6.790741455078125,0.03372515946924686,-0.0019607969452627,-0.006146256803208962
1772806934048673500,6.800673583984375,0.02609597976505756,-0.008748630454484372,0.015023272010870278
1772806934058605600,6.81060546875,0.02280512152612209,0.00111389779234305,0.018818216447578744
1772806934068536600,6.82053662109375,0.041807343637943264,-0.01458394901184365,0.025255090227816253
1772806934078468600,6.830468505859375,0.03612520634829998,-0.016755539163574574,-0.0014363620792049914
1772806934088400600,6.840400634765625,0.03088789021670818,-0.012186185421422123,-0.007974842203548178
1772806934098332700,6.850332763671875,0.03732464526593685,-0.009723521634936332,-0.0005389565817546099
1772806934108263400,6.860263427734375,0.03343114495873451,0.0036034861183725296,-0.00014476963239721952
1772806934118195500,6.870195556640625,0.043756724140048026,-0.004074446364678443,0.009607238311506807
1772806934128127500,6.88012744140625,0.05453238517642021,-0.012495324435830115,0.016558427422586827
1772806934138059500,6.8900595703125,0.04944587569236755,0.015054927524458616,0.00038577531403861937
1772806934147990800,6.89999072265625,0.0265519068390131,0.014155914591811597,0.0066006495072040705
1772806934157922600,6.909922607421875,0.03702478553652763,0.004521276816725731,-0.013203016047459095
1772806934167854600,6.9198544921875,0.034330724146962165,0.005903397091198712,-0.016952249045763163
1772806934177785600,6.92978564453125,0.02460603346824646,0.025462668563891202,-0.01580422978810966
1772806934187717600,6.939717529296875,0.03583002279400825,0.005947638091724366,0.002748138797516003
1772806934197649400,6.9496494140625,0.037926118290424346,0.0031762919485569,0.014168417880358174
1772806934207581400,6.95958154296875,0.04091477871239185,0.003016005086619407,0.010831081018038093
1772806934217513500,6.969513427734375,0.03477963695824146,-0.0026658034094609317,0.004992848984384909
1772806934227444700,6.97944482421875,0.03149053228497505,-0.00771970753185451,0.0037836649908684194
1772806934237376800,6.989376708984375,0.04466097950339317,0.007674498416949063,0.008005748798465356
1772806934247308500,6.99930859375,0.031045126605033873,-0.011512396079394966,-0.008348671351466327
1772806934257239600,7.009239501953125,0.035832360881567,-0.024062245447747408,-0.010814623073581605
1772806934267171600,7.019171630859375,0.03493278169333935,-0.014280910944659261,-0.007471322261355817
1772806934277103600,7.029103515625,0.03238543529808521,-0.033423801902495325,0.004290326738217845
1772806934287035600,7.03903564453125,0.040168344259262086,-0.031648736787680536,0.0026940339901018887
1772806934296966700,7.048966552734375,0.032384850776195524,-0.027233532427623865,0.010035793321346863
1772806934306898700,7.058898681640625,0.04076397206485271,-0.023299316517543047,-0.0032736239763442427
1772806934316830700,7.068830810546875,0.046454292660951614,-0.026162067271210253,-0.008679848667746409
1772806934326762800,7.0787626953125,0.04031681281924247,-0.015786730664037168,-0.00828094901065342
1772806934336693500,7.088693603515625,0.038970074385404584,-0.008002652659080923,0.009546457168133928
1772806934346625500,7.09862548828125,0.030440730971097944,0.016655311925802378,0.021890609630243852
1772806934356557600,7.1085576171875,0.028792963764071464,0.013884897364396602,0.012926208400074392
1772806934366489600,7.118489501953125,0.03148585610985756,0.0005634243027307093,-0.004511230346746742
1772806934376420600,7.128420654296875,0.031635493713617326,0.012051288729067891,-0.005659879792062565
1772806934386352600,7.1383525390625,0.0410650008380413,0.0302291340470314,-0.010765212707594037
1772806934396284700,7.14828466796875,0.040917116799950595,0.02719831498377025,-0.02168726907786913
1772806934406216700,7.158216796875,0.04016951330304146,0.020174261565878985,-0.00949461738304235
1772806934416147700,7.168147705078125,0.03882219034731388,0.014350121989659964,0.006418817533738911
1772806934426079500,7.17807958984375,0.03388298037946224,-0.0009944909300655127,-0.007850320774735882
1772806934436011500,7.188011474609375,0.030738252612948415,0.009834178935177624,0.0011061985430773347
1772806934445943000,7.197943115234375,0.024753917506337163,-0.003547901739925146,0.0051558849258348345
1772806934455874300,7.207874267578125,0.02759703197777271,-0.014037201849278062,0.013113967790827154
1772806934465806000,7.21780615234375,0.037025954580307004,-0.024284984820336104,-0.0027519838555715975
1772806934475738000,7.227738037109375,0.024456395864486693,-0.029979196140263228,-0.01604986597909592
1772806934485670100,7.237670166015625,0.029394436788558957,-0.03283206482073292,0.0037310123550239947
1772806934495601200,7.24760107421875,0.048994040271639824,-0.017751345267891884,0.004092694407422095
1772806934505533000,7.257532958984375,0.02579845812320709,-0.028579321013391015,0.004948480119695887
1772806934515465000,7.26746484375,0.035973230656981464,-0.01707083392413333,0.018505807763850315
1772806934525397000,7.27739697265625,0.04464928906559944,-0.017569960818998514,0.0007442607623524963
1772806934535328300,7.287328369140625,0.028787118545174597,-0.001958075265213847,-0.007875363884447142
1772806934545260300,7.29726025390625,0.03971066361963749,-0.005831245170440524,-0.009972144367452711
1772806934555192000,7.307192138671875,0.041054479444026945,0.012971435781288891,-0.010838707202067598
1772806934565124000,7.3171240234375,0.034172903236746786,0.02215789139745757,0.002090688668936491
1772806934575055000,7.32705517578125,0.024894202759861945,0.02217113447152078,0.005598888586135581
1772806934584987100,7.336987060546875,0.05003565827906131,0.008497505237627774,0.008795456137740984
1772806934594919200,7.346919189453125,0.034625907701253886,0.03471449930015951,-0.0013609404891263693
1772806934604851000,7.356850830078125,0.025793781948089598,0.02641394140673801,0.005676894858945161
1772806934614782200,7.3667822265625,0.029085224708914757,0.026134339014068246,-0.007650332090072333
1772806934624714200,7.37671435546875,0.04913783265650272,0.03149203012231737,-0.011887786996737123
1772806934634646300,7.386646240234375,0.030284663626551626,0.0023051168709062038,0.008682652546186
1772806934644578000,7.396578125,0.049290977391600606,-0.00396304014576599,-0.001285591964283958
1772806934654509000,7.406509033203125,0.042110125976800916,-0.014050992912612855,-0.005950670299027115
1772806934664441000,7.416441162109375,0.03807049519717693,-0.012475322827417402,0.004477967397961765
1772806934674373000,7.426373046875,0.038220132800936696,-0.008452606649976224,0.02056398240267299
1772806934684305200,7.43630517578125,0.03807224876284599,-0.04106324727237224,-0.006701223804848268
1772806934694236200,7.446236083984375,0.02670037539899349,-0.023720245343353596,-0.019867104446003214
1772806934704168200,7.456168212890625,0.03328501448631287,-0.03180242951205,-0.011370612988527864
1772806934714100200,7.466100341796875,0.04001753761172294,-0.02650337325586006,0.010279447617800907
1772806934724032300,7.4760322265625,0.0407645565867424,-0.030785178760904818,0.0025031236610375345
1772806934733963000,7.485962890625,0.04136369152367115,-0.014217837379500269,0.009274006035458296
1772806934743895000,7.49589501953125,0.02729600320458412,-0.01867660688664764,0.004396992849931121
1772806934753827000,7.5058271484375,0.039867315486073494,0.0005372121492400765,-0.009026324017858132
1772806934763758000,7.515758056640625,0.04749766423404216,0.011634360224939883,-0.01301706502130255
1772806934773690000,7.525690185546875,0.04345452632308006,0.013384418762661516,-0.00039403168573044235
1772806934783622100,7.5356220703125,0.049586160945892334,0.004368004217464477,-0.010747357390495017
1772806934793554200,7.54555419921875,0.04060615115463734,0.0053657648168504235,-0.00584971240889281
1772806934803485200,7.555485107421875,0.046887423381209374,0.015608688949700444,-0.0013296320354100315
1772806934813417200,7.565417236328125,0.02937865469753742,0.006258000948838889,-0.006794610309880226
1772806934823349000,7.575348876953125,0.02998129676580429,0.01704754438009113,-0.009562102261837572
1772806934833281000,7.585281005859375,0.03701251057684421,0.016566391533333807,0.003662175769358873
1772806934843212000,7.5952119140625,0.033120763835310936,0.02243921082317829,0.006068150065699592
1772806934853144000,7.60514404296875,0.03327157048285007,0.018100779760070143,-0.010654802002524956
1772806934863076000,7.615076171875,0.040755204236507414,0.007390566909033804,0.0040300227010622615
1772806934873008000,7.625008056640625,0.028934418061375616,-0.00820697959214449,0.0013556249931920318
1772806934882939100,7.634939208984375,0.04285422234237194,-0.019763671470992266,0.008206258072936908
1772806934892871200,7.64487109375,0.04808920038640499,-0.012755272279959172,0.01219500804869458
1772806934902803200,7.65480322265625,0.039111528682708736,-0.023620803556870667,0.009679874289454892
1772806934912735000,7.66473486328125,0.03357844447493553,-0.03225952562978491,0.0018296357131097464
1772806934922666000,7.674666015625,0.04330605776309967,-0.022283362674340605,0.005691781900823116
1772806934932598000,7.684597900390625,0.02878828758895397,-0.02170837579797953,0.0058184587541036305
1772806934942530000,7.694530029296875,0.03642214346826076,-0.016864826490636912,0.01183572801593691
1772806934952462000,7.704462158203125,0.043157004681229585,-0.019200009706243873,0.012941442501824349
1772806934962393000,7.71439306640625,0.040462943291664125,-0.008986494330968707,0.007986770103359594
1772806934972325000,7.7243251953125,0.032382512688636775,-0.01766565801212564,0.006474401912186295
1772806934982257200,7.734257080078125,0.03702010936141014,-0.015311276905704288,0.005907050353009253
1772806934992189200,7.744189208984375,0.03163257110416889,0.0011759484441950917,-0.02164482730878517
1772806935002120000,7.754119873046875,0.021153262665867804,-0.000910776435676962,-0.0152298365667928
1772806935012052000,7.764052001953125,0.040005262652039526,-0.005887286206614226,-0.011845683154370635
1772806935021984000,7.77398388671875,0.044644028368592256,0.004205123539641499,0.0038759920499753203
1772806935031916000,7.783916015625,0.03985445600450039,0.008624383020307868,-0.003562898379657417
1772806935041847000,7.793846923828125,0.023393150547146795,-0.002379168487805873,0.015569041925901547
1772806935051779000,7.803779052734375,0.028180384823679922,0.016088873682077974,-0.009865551320975646
1772806935061711000,7.813711181640625,0.016955226454138755,0.005392524959612638,-0.012839479964692145
1772806935071643100,7.82364306640625,0.03596212474107742,-0.0025150332945398984,0.00963530449536629
1772806935081574100,7.83357421875,0.03656067515611648,0.00496419827863574,-0.011747839669929816
1772806935091506000,7.843505859375,0.04119944087266922,0.0021462913136929274,0.00028679018528200684
1772806935101438000,7.85343798828125,0.02833294503688812,-0.0004423917389474809,-0.013328779585286974
1772806935111370000,7.863369873046875,0.03686111940741539,0.001540397842414677,-0.0005835629084613174
1772806935121301200,7.87330126953125,0.0353618207603693,-0.012731617409735918,0.0017396102089434862
1772806935131233000,7.88323291015625,0.02817746221423149,-0.01900083387233317,-0.0060271330687217415
1772806935141165000,7.8931650390625,0.044785482665896416,-0.02508185255276039,-0.008656422126386313
1772806935151097000,7.90309716796875,0.03132218998074531,-0.018209811358805745,0.004636619425239041
1772806935161028000,7.913028076171875,0.030723055043816564,-0.02778539415672421,0.005725163580616936
1772806935170960100,7.922960205078125,0.04613923536241054,-0.020909900630358604,0.0054136408128775656
1772806935180892000,7.932891845703125,0.04479366597235203,0.00043930473271757363,0.0021488851295784115
1772806935190824000,7.942823974609375,0.05122866745591163,-0.006009378216322511,0.005681826762389391
1772806935200755200,7.952755126953125,0.03835632640123367,0.0093803707530722,-0.005315386336483061
1772806935210687200,7.962687255859375,0.045836453023552895,0.0030645752023905513,-0.008118004400748759
1772806935220619300,7.972619384765625,0.035810733571648594,0.0081176025419496,0.009165595491230487
1772806935230550000,7.982550048828125,0.03581014904975891,0.008153130513057112,0.009128615348553285
1772806935240481000,7.99248095703125,0.046137481796741486,0.00555476631661877,0.0028961872323881835
1772806935250413000,8.0024130859375,0.038355741879343985,0.009619147945009171,-0.0000887559956870973
1772806935260345000,8.012344970703126,0.04508826500475406,0.003997399073094129,0.0010748718230519443
1772806935270277000,8.022277099609376,0.03730594056546688,-0.006752543000131845,0.010852416067011653
1772806935280208100,8.0322080078125,0.041944121760129925,0.006564874940924346,0.005367180455802008
1772806935290140200,8.04214013671875,0.034162381842732424,0.009151402569096535,0.014754446740541606
1772806935300072200,8.052072265625,0.03715747200548648,-0.0004190108633600175,-0.009934753232821822
1772806935310004000,8.06200390625,0.027134090641140935,0.003089490447938442,-0.0022192104194313288
1772806935319935000,8.07193505859375,0.027882278659939766,-0.007690737165696918,0.0008152162398677319
1772806935329867000,8.081866943359374,0.03821194949448108,-0.013441793239396064,0.006528935977863148
1772806935339799000,8.091799072265625,0.03701601770818233,-0.016963446293212472,0.006864460675697773
1772806935349731300,8.1017314453125,0.046592824348807335,-0.015871522870659828,-0.0033921905884053555
1772806935359662000,8.111662109375,0.03985504052639007,-0.01141284469505772,-0.00867887142021209
1772806935369594000,8.121593994140625,0.029680852514505383,-0.020133673827163873,-0.021230246025370433
1772806935379526100,8.131526123046875,0.03835983353257179,-0.013116616405639797,-0.0023464991940651088
1772806935389457000,8.141456787109375,0.03402209658920765,-0.014398052784614264,-0.006515848167426883
1772806935399389000,8.151388916015625,0.04315232850611209,-0.015053155692480504,-0.006641611705254763
1772806935409321000,8.161321044921875,0.042701077607274054,0.004502407719474286,0.0013103519462049006
1772806935419253000,8.1712529296875,0.03641279111802578,0.00812483600033447,0.010963858818542211
1772806935429184300,8.181184326171875,0.039406712237000464,-0.014965696604736149,0.012767885166360064
1772806935439116000,8.191115966796875,0.022796353697776793,-0.014864135926403104,0.0052680857291910795
1772806935449048600,8.201048583984376,0.04240004883408546,-0.012371058735344559,-0.014616746169747783
1772806935458980600,8.210980712890626,0.03686404201686382,-0.006681012133881449,-0.0154424929367844
1772806935468911400,8.220911376953126,0.030878537866473196,-0.0037373416311107573,-0.0029196411732118573
1772806935478843400,8.230843505859376,0.04060556663274765,0.016926822343561798,0.012881054084096103
1772806935488775400,8.240775390625,0.03267594267725944,0.002960347642935812,0.01841416569133289
1772806935498707500,8.25070751953125,0.03417524132430553,0.01387691498734057,0.013224734688922763
1772806935508638500,8.260638427734374,0.02415069091618061,0.01896452044993639,0.007118618099857121
1772806935518570500,8.270570556640624,0.03672141867578029,0.019809629504568875,-0.013946683154767379
1772806935528502500,8.28050244140625,0.017719781085848808,0.01413817800572142,-0.02555450243265368
1772806935538434600,8.2904345703125,0.029990649116039273,0.012887703020591288,-0.028342498316522687
1772806935548365300,8.300365234375,0.03163607823550701,0.02037113584484905,-0.012265698664728552
1772806935558297300,8.31029736328125,0.025354221487045286,0.0075048044058494265,0.013702809662604704
1772806935568229400,8.3202294921875,0.037027123624086375,-0.007803568156715482,0.004119299286557361
1772806935578161400,8.330161376953125,0.022061609682440756,-0.006655987290479243,0.014247812392655759
1772806935588092700,8.3400927734375,0.04301204325258732,-0.004072765864245593,0.016177958471328018
1772806935598024400,8.3500244140625,0.027749592190980908,-0.0011145188468508422,0.01632327609299682
1772806935607956500,8.35995654296875,0.021466566398739815,-0.010726762127038091,0.02072886324133724
1772806935617888500,8.369888427734375,0.03987374522686005,-0.005589910695236176,0.019441298515675588
1772806935627819500,8.379819580078125,0.03478489765524864,-0.020627320829313248,0.0044227392125409095
1772806935637751600,8.38975146484375,0.03224164291322231,-0.025768994566705075,0.02170182732618414
1772806935647683300,8.399683349609376,0.04107084605693817,-0.02443491468504071,0.009708068337477744
1772806935657615400,8.409615478515626,0.022364976543188093,-0.02488587332293391,-0.02281381628923118
1772806935667546600,8.419546630859376,0.04510638518333435,-0.00005618716664612293,-0.023248956303484735
1772806935677478700,8.429478759765624,0.04256079235374927,0.00023603724557906387,-0.013379167198808863
1772806935687410400,8.439410400390624,0.03478022148013115,-0.013341456403769552,0.013239183339383452
1772806935697342500,8.449342529296874,0.03642331251204014,-0.008661774154938757,0.005628945797681808
1772806935707273500,8.4592734375,0.021757073777914047,-0.0029056400473229586,0.020621110284235328
1772806935717205500,8.46920556640625,0.01995616183578968,0.001919094961695373,0.020846242543309926
1772806935727137500,8.479137451171875,0.03297171075344085,0.0016200754825025797,0.008231785239838063
1772806935737069300,8.4890693359375,0.03237199129462242,0.002502393008675426,-0.011363553060078992
1772806935747000600,8.49900048828125,0.023843232402205466,0.015554529343359172,-0.021290059054363517
1772806935756932600,8.5089326171875,0.03045885114967823,0.00996242669103667,-0.02739444034406915
1772806935766864600,8.51886474609375,-0.02071253316104412,0.015777871504146605,-0.0712716033928562
1772806935776796700,8.528796630859375,0.12487258033752441,-0.0009017894116230309,0.07536148478868417
1772806935786727400,8.5387275390625,0.036142742004990576,0.0032961372022517026,0.015722204927308484
1772806935796659500,8.548659423828125,-0.006060907474160194,0.011001688344590366,-0.01991537316767499
1772806935806591500,8.558591552734375,0.07803191870748996,0.0025230156715959308,0.04837898624637164
1772806935816523500,8.5685234375,0.008458616265654563,-0.0014602818109095096,-0.016562199415406213
1772806935826454500,8.57845458984375,-0.004697217905521392,-0.003913666312396526,-0.024318795758392662
1772806935836386600,8.588386474609376,0.028241759622097014,-0.021363836676627397,-0.007122125231195241
1772806935846318600,8.598318603515626,0.03274900791347027,-0.020181805551517752,-0.026400908395228906
1772806935856250600,8.608250732421874,0.037999768048524854,-0.013637516740895807,0.014097261473443359
1772806935866181400,8.618181396484376,0.02977203792929649,-0.01982957631405443,-0.004318201125832274
1772806935876113400,8.628113525390624,0.06836860282719134,-0.008656038533896208,0.04077978155533783
1772806935886045400,8.63804541015625,0.05592530083954334,-0.0016560418450273571,0.025388680879073217
1772806935895977500,8.6479775390625,0.04316577250957489,-0.0010742051027715206,0.003300868176296353
1772806935905908500,8.657908447265624,0.07156184591054916,-0.0025608451976440847,0.03311830701674334
1772806935915840500,8.667840576171875,-0.004442950883507728,0.00932190029779449,0.0006193557410500944
1772806935925772500,8.6777724609375,-0.06263795022070408,0.01973647293681279,-0.05960473827095702
1772806935935703600,8.68770361328125,0.04448854554593563,0.0201456747922115,0.02521990931658074
1772806935945635600,8.697635498046875,0.09939853186309337,0.022674718345794827,0.04636121668317355
1772806935955567400,8.7075673828125,-0.023888240587711333,0.0029446203508414325,-0.05749638608116656
1772806935965499400,8.71749951171875,0.018754969352483747,0.005986435732152313,-0.043277489255741236
1772806935975430400,8.727430419921875,0.06648468877673148,-0.006725892455223948,0.0053363103935029355
1772806935985362400,8.737362548828125,0.021900866162776946,-0.0028500374025665224,-0.002891081799007952
1772806935995294500,8.74729443359375,0.01277004972398281,-0.003187872788496315,0.010162661970872431
1772806936005226500,8.7572265625,0.06333937648832798,-0.015509192364290356,0.03441294993716292
1772806936015157500,8.767157470703125,0.04344225136339664,-0.018836966813821344,0.024581556614115832
1772806936025089500,8.777089599609376,0.007983984491229057,-0.027934556836448608,-0.0021614706165157256
1772806936035021600,8.787021484375,0.0376098919481039,-0.017087675461079924,0.0026305220335256308
1772806936044953600,8.79695361328125,0.04150339225530624,-0.01604633144829422,0.00022347915810532867
1772806936054884400,8.80688427734375,0.025492753174901007,-0.01716466795373708,-0.01575121182608418
1772806936064816400,8.81681640625,0.04120411704778671,-0.024220997939724473,0.013224332830123602
1772806936074748400,8.82674853515625,0.046292964619398115,-0.012112809657957404,0.011218427234655246
1772806936084680400,8.836680419921874,0.02474281159043312,-0.0019921967305243015,0.011522195954201743
1772806936094611500,8.846611572265624,0.021150340056419373,0.025375793998036533,0.014993278731405733
1772806936104543500,8.85654345703125,0.06290098507106304,0.024732509392127393,-0.003627360184304416
1772806936114475500,8.8664755859375,0.03372106781601906,0.020883524080086497,-0.033493643135158346
1772806936124407600,8.876407470703125,0.037462007910013195,0.022234408966079353,0.0027139625332783905
1772806936134338300,8.88633837890625,0.039404958671331404,0.04027962261401117,0.01713578891912475
1772806936144270300,8.896270263671875,0.051374213406443596,0.016062898990605024,0.003911684417864308
1772806936154202400,8.906202392578125,0.04119768730700016,-0.00020381547641009091,0.011905112590873613
1772806936164134400,8.916134521484375,0.044938627400994295,-0.010090857109986246,-0.017149552582995966
1772806936174065400,8.9260654296875,0.018005612289905548,-0.014799728920683264,-0.020594021347910163
1772806936183997400,8.93599755859375,0.03043079409897327,-0.017096315425261854,-0.023028144026501104
1772806936193929500,8.945929443359375,0.023701193583011627,-0.020521504100970922,-0.01568024721541442
1772806936203861500,8.955861572265626,0.026394670450687406,-0.018378537255525587,0.002946602245373651
1772806936213792500,8.96579248046875,0.02759235580265522,-0.028723935382161288,0.023734255602397024
1772806936223724300,8.975724365234376,0.024303835651278496,-0.025138733839150516,0.02881583318300545
1772806936233656300,8.98565625,0.03956804027855396,-0.004199808043707162,0.0113367655178532
1772806936243588400,8.99558837890625,0.03163958536684513,-0.007146803014725446,0.0071855458562262355
1772806936253519600,9.00551953125,0.04046469685733318,0.006128657214436679,-0.00645851022331044
1772806936263451600,9.01545166015625,0.040643560555577274,-0.00046474970122799275,-0.03778918490461074
1772806936273383400,9.025383544921874,-0.01534896030128002,0.022682627657614647,-0.0919352650440298
1772806936283315500,9.0353154296875,-0.17975275603830812,0.0031003406355157494,-0.14761260073818266
1772806936293246500,9.04524658203125,0.22111878564953802,0.002448635261133313,0.1722993164935149
1772806936303178500,9.055178466796875,0.17274083144962787,-0.003320942849945277,0.12960659572263247
1772806936313110300,9.0651103515625,0.1352864223241806,0.00003545490587130189,0.07240523793213069
1772806936323042300,9.075042236328125,-0.04127835132777691,-0.003941120574902743,-0.07381501796508673
1772806936332973600,9.0849736328125,-0.09472761744260788,0.0041210437190718945,-0.12467566952593624
1772806936342905600,9.094905517578125,0.1745651242673397,-0.006314425577502697,0.08675361548927613
1772806936352837600,9.104837646484375,0.04898001174628734,-0.016035682190116494,0.050092283837124704
1772806936362769400,9.114769287109375,-0.010267126992344855,0.002065663825534284,-0.005059566678199917
