time,seconds_elapsed,z,y,x
1772806927306259700,0.058259765625,-0.0004753742541652173,0.006102100946009159,-0.00036671728594228625
1772806927316191700,0.068191650390625,-0.0005289037944748998,0.0014018879737704992,-0.0014327806420624256
1772806927326123800,0.078123779296875,-0.001094559207558632,0.004506601020693779,0.002159290947020054
1772806927336054800,0.0880546875,-0.0017438378417864442,0.007062170654535294,0.0003009371866937727
1772806927345986600,0.097986572265625,-0.0008562062866985798,0.005642439238727093,0.0011771172285079956
1772806927355918600,0.107918701171875,0.00012144014181103557,0.004547880031168461,0.0020359866321086884
1772806927365850600,0.1178505859375,-0.0016852483386173844,0.007928230799734592,0.0018879148410633206
1772806927375782700,0.12778271484375,-0.001984054921194911,0.007576959673315287,-0.0032178976107388735
1772806927385714000,0.1377138671875,-0.0018972359830513597,0.004612328484654427,-0.0020793962758034468
1772806927395645700,0.147645751953125,-0.0002719087351579219,0.0041334922425448895,-0.0010721886064857244
1772806927405577700,0.15757763671875,-0.002834934974089265,0.0057401773519814014,-0.0009203884401358664
1772806927415509800,0.167509765625,0.0014053500490263104,0.006460828706622124,0.0019086875254288316
1772806927425440800,0.177440673828125,-0.002457298804074526,0.006649380549788475,-0.00038296254933811724
1772806927435372500,0.18737255859375,-0.0004820321628358215,0.005387841258198023,-0.00015526228526141495
1772806927445304600,0.1973046875,0.001187237212434411,0.007229683455079794,-0.0018602180061861873
1772806927455235600,0.207235595703125,-0.002241050126031041,0.007600928191095591,-0.0017033577896654606
1772806927465167600,0.217167724609375,-0.0023995081428438425,0.0073449984192848206,-0.0019435749854892492
1772806927475099600,0.227099609375,0.00009028115891851485,0.005393700208514929,0.0008767126128077507
1772806927485031700,0.23703173828125,0.0005965480813756585,0.005613144487142563,0.0007299724384211004
1772806927494962700,0.246962646484375,0.0007091998122632504,0.006827812176197767,0.0016050871927291155
1772806927504894500,0.25689453125,-0.002980609890073538,0.006414756178855896,0.0013816480059176683
1772806927514826500,0.266826416015625,-0.001555818715132773,0.006401706486940384,0.0008021441171877086
1772806927524758500,0.276758544921875,0.0006623281515203416,0.004246943164616823,0.00018216021999251097
1772806927534689800,0.286689697265625,-0.0009382316493429244,0.006448311731219292,0.00040027310024015605
1772806927544621800,0.296621826171875,-0.0028639633674174547,0.006295179948210716,0.00006231796578504145
1772806927554553600,0.3065537109375,-0.001901230658404529,0.004117247182875872,-0.001674595638178289
1772806927564485600,0.316485595703125,0.0010287790792062879,0.007780691608786583,0.0002008023438975215
1772806927574417700,0.326417724609375,-0.00043888893560506403,0.007515440694987774,0.002207494108006358
1772806927584348700,0.3363486328125,-0.0005502090789377689,0.005447229836136103,-0.0019204054260626435
1772806927594280400,0.346280517578125,-0.0016381103778257966,0.006901049055159092,-0.00038056570338085294
1772806927604212500,0.35621240234375,0.0015851134667173028,0.007013967260718346,0.0008218514849431813
1772806927614143500,0.3661435546875,-0.0020754013676196337,0.005367068573832512,0.00029587719473056495
1772806927624075800,0.37607568359375,-0.0010823087068274617,0.00376064982265234,0.0011558119440451264
1772806927634007800,0.3860078125,-0.0019715381786227226,0.004828577395528555,-0.003605920122936368
1772806927643939600,0.395939697265625,-0.002602973720058799,0.004339354578405619,0.00034168356796726584
1772806927653870600,0.40587060546875,-0.0027869981713593006,0.005388640332967043,0.0015211976133286953
1772806927663802600,0.415802734375,0.00044314999831840396,0.010721886530518532,0.0014365090755745769
1772806927673734700,0.425734619140625,-0.0009480853332206607,0.007770038675516844,0.00035127095179632306
1772806927683666700,0.435666748046875,-0.002419215627014637,0.007268565706908703,-0.0004844290087930858
1772806927693597400,0.445597412109375,-0.0014828480780124664,0.005038168281316757,-0.002731071785092354
1772806927703529500,0.455529541015625,-0.000639424950350076,0.006642189808189869,-0.0012684636749327183
1772806927713461800,0.465461669921875,-0.0032032502349466085,0.005961752496659756,0.0001893507578643039
1772806927723393800,0.475393798828125,0.0014761901693418622,0.006161223165690899,0.00014274542627390474
1772806927733324500,0.485324462890625,0.000496945867780596,0.007712514605373144,-0.002388589084148407
1772806927743256600,0.495256591796875,-0.000740625080652535,0.005831790156662464,-0.0014439659425988793
1772806927753188600,0.505188720703125,0.0009134642314165831,0.006041114684194326,0.0015355786308646202
1772806927763120600,0.51512060546875,0.000025832661776803434,0.003022421384230256,0.002114816103130579
1772806927773051400,0.525051513671875,-0.004731371998786926,0.0049489522352814674,-0.00012996226723771542
1772806927782983400,0.5349833984375,-0.001065264455974102,0.004870389122515917,-0.00033103092573583126
1772806927792915500,0.54491552734375,-0.0008237157016992569,0.007737015374004841,0.00045540055725723505
1772806927802847700,0.55484765625,-0.002061286708340049,0.00893996562808752,0.0006090649403631687
1772806927812778800,0.56477880859375,-0.003823500359430909,0.009011338464915752,-0.002739860210567713
1772806927822710500,0.57471044921875,-0.0018181400373578072,0.002766757970675826,-0.0009648632840253413
1772806927832642600,0.584642578125,-0.0025132251903414726,0.005682120565325022,-0.002243979601189494
1772806927842574600,0.59457470703125,-0.001883121207356453,0.005007009021937847,-0.0014415690675377846
1772806927852505600,0.604505615234375,-0.001437308033928275,0.0057199373841285706,-0.0007539408979937434
1772806927862437400,0.614437255859375,-0.0010010822443291545,0.005097290500998497,0.00048416267964057624
1772806927872369400,0.624369384765625,-0.002112952060997486,0.0057279267348349094,-0.0008713863207958639
1772806927882301700,0.6343017578125,-0.000028495824153651483,0.007684018462896347,0.00037710359902121127
1772806927892232700,0.644232666015625,-0.0007898935582488775,0.009016398340463638,0.0013251889031380415
1772806927902164700,0.654164794921875,-0.000020506340661086142,0.006730340886861086,0.0012636699248105288
1772806927912096500,0.664096435546875,-0.00177925790194422,0.007779359817504883,-0.0010727213229984045
1772806927922028500,0.674028564453125,-0.0029289445374161005,0.006666957400739193,-0.0012610068079084158
1772806927931959600,0.68395947265625,0.0007984156836755574,0.004466121084988117,-0.00043356261448934674
1772806927941891600,0.6938916015625,-0.003276220755651593,0.0018032263033092022,0.002283926820382476
1772806927951823600,0.70382373046875,0.0012434299569576979,0.005007808096706867,0.00029587719473056495
1772806927961755400,0.71375537109375,-0.0012426309986039996,0.006167614832520485,0.0003099919413216412
1772806927971686700,0.723686767578125,-0.0012599414912983775,0.006364955101162195,0.00112465291749686
1772806927981618700,0.73361865234375,-0.0027118970174342394,0.006684534251689911,0.0019859191961586475
1772806927991550700,0.74355078125,-0.0015523566398769617,0.004604072775691748,-0.0012775183422490954
1772806928001482500,0.753482421875,-0.0020932445768266916,0.006537261418998241,-0.00017470336752012372
1772806928011413500,0.76341357421875,-0.0001525991247035563,0.006628341507166624,-0.00048176583368331194
1772806928021345500,0.773345458984375,-0.0010490191634744406,0.007959122769534588,-0.0014149374328553677
1772806928031277600,0.783277587890625,0.002133724745362997,0.00498144282028079,-0.001427720650099218
1772806928041209600,0.793209716796875,-0.0006490123341791332,0.005751096177846193,0.0010487528052181005
1772806928051140600,0.803140625,-0.0017425062833353877,0.006857906002551317,0.0010514160385355353
1772806928061072600,0.81307275390625,-0.0005973470397293568,0.004516188520938158,-0.0009779128013178706
1772806928071004700,0.823004638671875,-0.0020668793004006147,0.003906857222318649,-0.0005587312043644488
1772806928080936700,0.832936767578125,-0.000179230744834058,0.0054762582294642925,-0.0012599414912983775
1772806928090867500,0.842867431640625,0.00018615495355334133,0.006620884872972965,-0.0006985471700318158
1772806928100799500,0.852799560546875,-0.0009446232579648495,0.008316786028444767,0.0010793792316690087
1772806928110731500,0.8627314453125,-0.00027616979787126184,0.006968427449464798,-0.00010333064710721374
1772806928120663600,0.87266357421875,0.00027856664382852614,0.004996889270842075,0.0005163869354873896
1772806928130594600,0.882594482421875,0.0013664679136127234,0.005592638161033392,-0.0005406216951087117
1772806928140526600,0.892526611328125,-0.0027979169972240925,0.005761216394603252,-0.00028309403569437563
1772806928150458600,0.902458740234375,0.0004822984628845006,0.0043798345141112804,0.0007241134881041944
1772806928160390700,0.912390625,-0.0018586200894787908,0.00871998816728592,-0.0012564794160425663
1772806928170321700,0.92232177734375,0.0005139900604262948,0.0022860574536025524,0.0020181434229016304
1772806928180253400,0.93225341796875,-0.001576857641339302,0.007487743627279997,0.0004780374001711607
1772806928190185500,0.942185546875,-0.001639441936276853,0.005964149255305529,0.0005270395777188241
1772806928200117500,0.952117431640625,-0.0021401161793619394,0.007138337008655071,0.0008072041091509163
1772806928210048800,0.962048828125,0.00018668759730644524,0.007478422485291958,0.00130920996889472
1772806928219980500,0.97198046875,0.0014269216917455196,0.0049678608775138855,0.00213585514575243
1772806928229912600,0.98191259765625,0.0003182477375958115,0.00765738682821393,-0.0016594156622886658
1772806928239844600,0.9918447265625,0.0005049353349022567,0.004830441437661648,0.003103115363046527
1772806928249775600,1.001775634765625,-0.002588059986010194,0.00823902152478695,0.0001776328426785767
1772806928259707600,1.011707763671875,-0.0013827132061123848,0.006400108803063631,-0.0009384979493916035
1772806928269639400,1.021639404296875,-0.00045593318645842373,0.0054972972720861435,0.00008602010348113254
1772806928279571500,1.031571533203125,-0.002174471039324999,0.0059510995633900166,0.00022210762836039066
1772806928289502700,1.041502685546875,-0.0012141350889578462,0.005705822724848986,-0.0009763148264028132
1772806928299434800,1.051434814453125,-0.0023060310631990433,0.008532768115401268,0.000699079770129174
1772806928309366800,1.06136669921875,-0.0008279767935164273,0.005389438942074776,-0.0029619678389281034
1772806928319298600,1.071298583984375,-0.0008122641011141241,0.008800948038697243,-0.0014213290996849537
1772806928329229600,1.0812294921875,-0.000606668065302074,0.009102950803935528,0.0014596786350011826
1772806928339161600,1.09116162109375,-0.004188087303191423,0.007831557653844357,-0.0018216022290289402
1772806928349093600,1.10109375,-0.0023102923296391964,0.006351905409246683,-0.00038935415796004236
1772806928359025400,1.111025390625,-0.0031414648983627558,0.004962534178048372,0.000182959163794294
1772806928368956700,1.120956787109375,0.0008042746339924634,0.005244562868028879,0.0003605920064728707
1772806928378888700,1.130888671875,-0.0025246767327189445,0.005819539539515972,-0.0008356999605894089
1772806928388820700,1.14082080078125,-0.000854075769893825,0.006918360013514757,-0.003341468283906579
1772806928398752800,1.150752685546875,-0.0008319715270772576,0.005607818253338337,-0.002246909076347947
1772806928408683500,1.16068359375,-0.0023371900897473097,0.006582801695913076,0.0008077367674559355
1772806928418615600,1.170615478515625,-0.00041518680518493056,0.006595318205654621,0.0008215851848945022
1772806928428547600,1.180547607421875,-0.0021499700378626585,0.0049558766186237335,-0.0016080166678875685
1772806928438479400,1.190479248046875,0.001389637473039329,0.009139969013631344,0.0000021305288555595325
1772806928448410600,1.20041064453125,-0.0025427863001823425,0.008614260703325272,-0.000838895735796541
1772806928458342700,1.2103427734375,0.00016245282313320786,0.006117547396570444,0.000020506340661086142
1772806928468274700,1.220274658203125,0.00019520970818120986,0.005196892656385899,-0.00010626012954162434
1772806928478206500,1.23020654296875,-0.0016522251535207033,0.005486644338816404,-0.0017502295086160302
1772806928488137500,1.240137451171875,0.0026527747977524996,0.0038163098506629467,0.0005049353349022567
1772806928498069500,1.250069580078125,-0.000746750389225781,0.005811816547065973,0.0011792477453127503
1772806928508001500,1.26000146484375,0.00045353634050115943,0.005169994663447142,-0.0014708638191223145
1772806928517933600,1.26993359375,0.0003656520275399089,0.006098638754338026,0.0009709885343909264
1772806928527864600,1.279864501953125,0.0021086910273879766,0.0046160570345819,0.0008258462767116725
1772806928537796600,1.289796630859375,-0.0017182715237140656,0.005361209623515606,0.00011904330312972888
1772806928547728600,1.299728759765625,-0.001648230361752212,0.006616889964789152,0.001454884884878993
1772806928557660700,1.30966064453125,-0.0024493092205375433,0.006484264507889748,0.00043809000635519624
1772806928567591400,1.31959130859375,-0.0021310613956302404,0.005821403581649065,-0.000803209375590086
1772806928577523500,1.3295234375,-0.0011768508702516556,0.004265584982931614,-0.0021728731226176023
1772806928587455500,1.33945556640625,0.00043036683928221464,0.0016916398890316486,-0.0011771172285079956
1772806928597386500,1.349386474609375,-0.0013646037550643086,0.004145210143178701,-0.002641855739057064
1772806928607318500,1.359318603515625,-0.0030282805673778057,0.006265885196626186,-0.001416269107721746
1772806928617250600,1.36925048828125,-0.0025569009594619274,0.006976416800171137,0.00009214537567459047
1772806928627182600,1.3791826171875,-0.000919323181733489,0.008897621184587479,-0.0021704763639718294
1772806928637113600,1.389113525390625,-0.0015094797126948833,0.0059926449321210384,0.00034940673504024744
1772806928647045600,1.399045654296875,-0.001446096459403634,0.00390286254696548,0.0008974852971732616
1772806928656977400,1.408977294921875,-0.0021225393284112215,0.00788322277367115,-0.0006479470757767558
1772806928666909400,1.418909423828125,-0.0003075950953643769,0.006079197861254215,0.0015217302134260535
1772806928676840400,1.42884033203125,-0.0012098740553483367,0.006600644905120134,0.0003936151915695518
1772806928686772500,1.4387724609375,-0.0011704593198373914,0.0035720979794859886,0.0006282397080212831
1772806928696704500,1.44870458984375,-0.0007022755453363061,0.004316185135394335,0.0016439693281427026
1772806928706636500,1.458636474609375,-0.001538241864182055,0.004854143597185612,-0.0029089709278196096
1772806928716567600,1.468567626953125,-0.0004918858758173883,0.004643221385776997,-0.0022799321450293064
1772806928726499600,1.47849951171875,-0.0015965650090947747,0.009870474226772785,0.0015606123488396406
1772806928736431600,1.488431640625,-0.00018375810759607702,0.008480570279061794,-0.0002247707889182493
1772806928746363400,1.49836328125,-0.0007805725326761603,0.010860636830329895,0.0021555626299232244
1772806928756294400,1.50829443359375,-0.0007004113867878914,0.006954045966267586,-0.00042051312630064785
1772806928766226400,1.518226318359375,-0.0017212009988725185,0.0059809270314872265,0.0007430219557136297
1772806928776158500,1.528158447265625,-0.0024740765802562237,0.004519384354352951,0.001079911831766367
1772806928786090500,1.538090576171875,0.00012436961696948856,0.006847786251455545,-0.0024551681708544493
1772806928796021500,1.548021484375,-0.0015273229219019413,0.005182777531445026,0.0010274475207552314
1772806928805953500,1.55795361328125,-0.00096113485051319,0.005569735076278448,-0.0013073458103463054
1772806928815885600,1.567885498046875,-0.0014620753936469555,0.004120443016290665,0.0015664712991565466
1772806928825817600,1.577817626953125,-0.0024383901618421078,0.006704507861286402,0.00009374327055411413
1772806928835748400,1.587748291015625,-0.0030831415206193924,0.007640875410288572,0.00035739620216190815
1772806928845680400,1.597680419921875,0.0005185174522921443,0.007949269376695156,0.00023675501870457083
1772806928855612400,1.6076123046875,-0.0036309538409113884,0.003946804907172918,0.002252235310152173
1772806928865544400,1.61754443359375,-0.000669518718495965,0.009564743377268314,-0.0014319816837087274
1772806928875475500,1.627475341796875,0.0012708604335784912,0.006955111399292946,0.00014913702034391463
1772806928885407500,1.637407470703125,-0.0008202536264434457,0.005347627215087414,0.0014343785587698221
1772806928895339500,1.647339599609375,-0.00027377295191399753,0.008364723064005375,-0.0013140037190169096
1772806928905271600,1.657271484375,-0.0016578177455812693,0.006523413117974997,0.0022559636272490025
1772806928915202600,1.66720263671875,0.0004474110610317439,0.0068243504501879215,0.0022503710351884365
1772806928925134300,1.67713427734375,-0.0008596684201620519,0.005518602207303047,0.0023166837636381388
1772806928935066400,1.68706640625,-0.0018096179701387882,0.006128998938947916,0.0004293015517760068
1772806928944998400,1.696998291015625,-0.002624278888106346,0.006928479764610529,-0.0025566346012055874
1772806928954929700,1.7069296875,-0.0016639430541545153,0.0067226174287498,-0.0007123955874703825
1772806928964861400,1.716861328125,-0.0011153318919241428,0.005983323790132999,0.0021853898651897907
1772806928974793500,1.72679345703125,-0.0014620753936469555,0.006023005116730928,-0.0008607336785644293
1772806928984725500,1.7367255859375,-0.002127599436789751,0.006485329940915108,-0.0005488775204867125
1772806928994656500,1.746656494140625,-0.0010639328975230455,0.0062855929136276245,0.0009773800848051906
1772806929004588500,1.756588623046875,0.0009211873984895647,0.0036573191173374653,0.0002894856152124703
1772806929014520300,1.766520263671875,0.00013369068619795144,0.004867193289101124,0.0015552861150354147
1772806929024452400,1.776452392578125,0.0003842941368930042,0.006197974551469088,0.0014980280539020896
1772806929034383600,1.786383544921875,-0.003260508179664612,0.006250705569982529,-0.002103364560753107
1772806929044315600,1.796315673828125,-0.0006199838826432824,0.007522630970925093,0.000040480048483004794
1772806929054247700,1.80624755859375,-0.0006953513366170228,0.005255215801298618,-0.0005131911602802575
1772806929064179500,1.816179443359375,0.0005866943974979222,0.006900516804307699,0.0003270361921750009
1772806929074110500,1.8261103515625,-0.0032985913567245007,0.006046440917998552,0.0007613977650180459
1772806929084042500,1.83604248046875,-0.00019467707898002118,0.0051657333970069885,0.002088450826704502
1772806929093974500,1.845974609375,0.0007621967233717442,0.005932724103331566,0.0005731122801080346
1772806929103906300,1.85590625,0.0014295848086476326,0.005081577692180872,-0.0002258360618725419
1772806929113837600,1.865837646484375,-0.0004822984628845006,0.004264520015567541,-0.0004141215467825532
1772806929123769600,1.87576953125,-0.00027057717670686543,0.004481833893805742,0.0005142564186826348
1772806929133701600,1.88570166015625,-0.001585646066814661,0.005794506054371595,-0.0017470336752012372
1772806929143633700,1.895633544921875,-0.001118793967179954,0.006138320080935955,-0.00024980452144518495
1772806929153564400,1.905564453125,-0.00327275856398046,0.00443895673379302,0.0009432916413061321
1772806929163496400,1.915496337890625,-0.00041625206358730793,0.006030994467437267,0.000248472933890298
1772806929173428500,1.925428466796875,-0.002582467393949628,0.006665625609457493,0.0015004249289631844
1772806929183360500,1.935360595703125,-0.0034887411165982485,0.0070800138637423515,0.0005888249143026769
1772806929193291500,1.94529150390625,-0.00028628981090150774,0.007506119552999735,0.00019760655413847417
1772806929203223600,1.9552236328125,-0.0019081549253314734,0.0059572248719632626,-0.0017568873008713126
1772806929213155600,1.965155517578125,-0.001528920722194016,0.005318598821759224,0.0005123922019265592
1772806929223087600,1.975087646484375,0.0015419702976942062,0.005126318894326687,0.00003009372085216455
1772806929233018400,1.985018310546875,0.0001549959706608206,0.0075780246406793594,0.0007470166892744601
1772806929242950400,1.994950439453125,-0.0013203952694311738,0.007642473094165325,-0.0002633866388350725
1772806929252882400,2.00488232421875,-0.0018897791160270572,0.00512844929471612,-0.000672181835398078
1772806929262813700,2.014813720703125,-0.004574245307594538,0.007860586047172546,-0.001062068622559309
1772806929272745700,2.024745849609375,-0.0021576930303126574,0.0075607141479849815,-0.0008306399104185402
1772806929282677500,2.034677490234375,-0.0017427726415917277,0.005927663762122393,-0.0005062668933533132
1772806929292609500,2.044609619140625,-0.00044288369826972485,0.004838164895772934,0.001996571896597743
1772806929302540500,2.05454052734375,0.002558498876169324,0.005556419026106596,-0.0026458504144102335
1772806929312472600,2.06447265625,-0.0012492889072746038,0.00637827068567276,0.0018927085911855102
1772806929322404600,2.074404541015625,-0.000642620783764869,0.006373210810124874,-0.0009273127070628107
1772806929332336400,2.08433642578125,-0.003590740030631423,0.00675244489684701,0.0010567422723397613
1772806929342267400,2.094267333984375,-0.001202150946483016,0.006934871431440115,-0.0030479878187179565
1772806929352199700,2.10419970703125,0.000011984225238848012,0.0070158313028514385,0.0010924286907538772
1772806929362131700,2.114131591796875,-0.0002495381922926754,0.0065223476849496365,0.0012293151812627912
1772806929372063500,2.1240634765625,-0.0029822078067809343,0.007364705670624971,-0.0010138654615730047
1772806929381994500,2.133994384765625,0.00022903185163158923,0.006022472400218248,0.0011193265672773123
1772806929391926500,2.143926513671875,-0.00042770366417244077,0.006624612957239151,-0.00032144354190677404
1772806929401858600,2.153858642578125,-0.0033505228348076344,0.0041188448667526245,-0.0021283982787281275
1772806929411790600,2.16379052734375,0.0005073322099633515,0.0073567163199186325,0.003406981937587261
1772806929421721300,2.173721435546875,-0.001942509668879211,0.006118346471339464,0.00037923414492979646
1772806929431653400,2.1836533203125,-0.000877511571161449,0.003546797903254628,0.0009299758239649236
1772806929441585400,2.19358544921875,0.00040799626731313765,0.005650429055094719,-0.0014346449170261621
1772806929451517400,2.203517333984375,-0.0022338596172630787,0.006325540132820606,0.0002865561400540173
1772806929461448400,2.213448486328125,-0.0009502158500254154,0.005541239399462938,0.0015512913232669234
1772806929471380500,2.22338037109375,-0.004012584686279297,0.005253884010016918,0.0006325007416307926
1772806929481312300,2.233312255859375,-0.0010599381057545543,0.005992112215608358,0.00017257283616345376
1772806929491244300,2.243244384765625,-0.0005435511702671647,0.006433132104575634,0.0008913599886000156
1772806929501175300,2.25317529296875,-0.00005379585491027683,0.005957491230219603,0.0002961435238830745
1772806929511107300,2.263107421875,-0.0023286680225282907,0.0067934575490653515,0.00009747169679030776
1772806929521039400,2.273039306640625,-0.00006711165769957006,0.006651777308434248,0.0015169365797191858
1772806929530971400,2.282971435546875,-0.0019518306944519281,0.0065255435183644295,-0.0002146507758880034
1772806929540902400,2.29290234375,-0.001282312092371285,0.004187021870166063,0.002240251051262021
1772806929550834400,2.30283447265625,-0.00008468852320220321,0.005675462540239096,0.00063383235828951
1772806929560766500,2.312766357421875,0.0002258360618725419,0.007330616936087608,-0.00021758026559837162
1772806929570698500,2.322698486328125,-0.0034115093294531107,0.00663499953225255,-0.000734766130335629
1772806929580629200,2.332629150390625,-0.0008109325426630676,0.0027561055030673742,-0.00043595946044661105
1772806929590561300,2.342561279296875,-0.0009739180095493793,0.006739129312336445,0.0018010957865044475
1772806929600493300,2.352493408203125,-0.0023009711876511574,0.0070397998206317425,0.0014820491196587682
1772806929610425600,2.362425537109375,-0.0009289105655625463,0.005994243081659079,-0.0003779025573749095
1772806929620356400,2.3723564453125,-0.0023584954906255007,0.006771087180823088,0.000844754686113447
1772806929630288400,2.382288330078125,0.0008878979133442044,0.004835767671465874,0.0007302387384697795
1772806929640220400,2.392220458984375,0.00039947417099028826,0.004758802708238363,-0.0031132353469729424
1772806929650152400,2.40215234375,0.0010876349406316876,0.005833920557051897,0.00037230990710668266
1772806929660083200,2.412083251953125,-0.0008506136364303529,0.00567013630643487,0.0008466189028695226
1772806929670015200,2.42201513671875,-0.001463939668610692,0.004963865969330072,-0.0003403519804123789
1772806929679947300,2.431947265625,0.0015161376213654876,0.006551908794790506,0.0005496764206327498
1772806929689879300,2.44187939453125,-0.002332130214199424,0.004217382054775953,0.0002865561400540173
1772806929699810300,2.451810302734375,-0.0007629956235177815,0.00740119069814682,0.0015571502735838294
1772806929709742300,2.461742431640625,-0.0003102582704741508,0.006087719928473234,0.000910268456209451
1772806929719674400,2.47167431640625,-0.0018482337472960353,0.008281365968286991,0.002519616624340415
1772806929729606400,2.4816064453125,-0.0034969968255609274,0.006512227933853865,0.0002961435238830745
1772806929739537400,2.491537353515625,-0.0021939121652394533,0.007868309505283833,-0.0011326423846185207
1772806929749469200,2.50146923828125,0.0014751249691471457,0.006421946454793215,-0.0015363775892183185
1772806929759401200,2.511401123046875,-0.0008266451768577099,0.006940464023500681,-0.0022218753583729267
1772806929769332500,2.52133251953125,-0.0011432950850576162,0.006857906002551317,0.0013081447687000036
1772806929779264500,2.531264404296875,0.0004892227007076144,0.007752461824566126,0.0016040218761190772
1772806929789196500,2.541196533203125,0.0007187871960923076,0.0052171326242387295,-0.0005336974863894284
1772806929799128300,2.55112841796875,-0.002348109148442745,0.004583832807838917,-0.0003707120195031166
1772806929809059300,2.561059326171875,-0.0030157635919749737,0.004789695143699646,-0.002216548891738057
1772806929818991400,2.570991455078125,-0.001008539111353457,0.003552656853571534,0.0013318468118086457
1772806929828923400,2.58092333984375,-0.0016772588714957237,0.004018177278339863,-0.0001752359967213124
1772806929838855200,2.590855224609375,-0.0015108112711459398,0.0062616243958473206,-0.0018285263795405626
1772806929848786400,2.600786376953125,-0.0018471685471013188,0.0054626758210361,-0.00003462109452812001
1772806929858718500,2.610718505859375,-0.002019741339609027,0.00609251344576478,0.0005185174522921443
1772806929868650500,2.620650390625,-0.0014674017438665032,0.004249073565006256,0.00035606464371085167
1772806929878582500,2.63058251953125,-0.0013883059145882726,0.005176386330276728,0.0006974819116294384
1772806929888513300,2.64051318359375,-0.0014599448768422008,0.005920739844441414,0.0008695221040397882
1772806929898445300,2.6504453125,-0.0026410568971186876,0.006650978233665228,0.0013843111228197813
1772806929908377300,2.66037744140625,-0.0005052016349509358,0.00612180819734931,-0.00011877698125317693
1772806929918309400,2.670309326171875,-0.001064998097717762,0.005431517027318478,0.0011398328933864832
1772806929928240400,2.680240478515625,-0.00239231763407588,0.005257878918200731,-0.0006857639527879655
1772806929938172400,2.69017236328125,-0.002213619416579604,0.004967061802744865,0.0001233043585671112
1772806929948104400,2.7001044921875,-0.0011270497925579548,0.007131146267056465,-0.0015816513914614916
1772806929958036500,2.710036376953125,-0.0018988338997587562,0.006676012184470892,-0.0013912353897467256
1772806929967967200,2.71996728515625,-0.002370745874941349,0.005045092198997736,-0.0002556634717620909
1772806929977899300,2.729899169921875,0.0016229304019361734,0.0054488275200128555,-0.003233343828469515
1772806929987831300,2.739831298828125,-0.0010468886466696858,0.006278135813772678,0.0018365158466622233
1772806929997763300,2.749763427734375,0.0007257114048115909,0.0037880802992731333,-0.00014674017438665032
1772806930007694600,2.759694580078125,-0.002377403900027275,0.004878911189734936,-0.0009038768475875258
1772806930017626400,2.76962646484375,0.0007131945458240807,0.0060019660741090775,-0.0013459615875035524
1772806930027558400,2.779558349609375,-0.00012756542128045112,0.007562845014035702,-0.0023182816803455353
1772806930037490400,2.789490478515625,-0.000999484327621758,0.0037499971222132444,-0.002237587934359908
1772806930047421400,2.79942138671875,-0.0026312030386179686,0.004989432170987129,0.00005912217602599412
1772806930057353500,2.809353515625,-0.0012362393317744136,0.00418382603675127,-0.0016207997687160969
1772806930067285200,2.81928515625,-0.0021339908707886934,0.006054696626961231,0.001555818715132773
1772806930077217300,2.82921728515625,0.00019361180602572858,0.00583791546523571,-0.00023382554354611784
1772806930087148500,2.8391484375,-0.0007840346079319715,0.006624879315495491,0.0010080065112560987
1772806930097080600,2.84908056640625,-0.0021997711155563593,0.007648864760994911,0.0006817692192271352
1772806930107012400,2.859012451171875,-0.0023843280505388975,0.005960953421890736,-0.002834668615832925
1772806930116944400,2.8689443359375,-0.0010713896481320262,0.006144179031252861,-0.0003195793251506984
1772806930126875400,2.87887548828125,-0.0010644654976204038,0.0049500176683068275,0.0023694143164902925
1772806930136807400,2.888807373046875,-0.003522563260048628,0.006807838566601276,-0.001273257308639586
1772806930146739500,2.898739501953125,-0.0003158508916385472,0.006660299375653267,0.0004857605672441423
1772806930156671200,2.908671142578125,0.0003307645965833217,0.005136705003678799,0.0011400992516428232
1772806930166602500,2.9186025390625,-0.0012096078135073185,0.004868524614721537,0.00041571943438611925
1772806930176534500,2.928534423828125,-0.0006865629111416638,0.006397179327905178,0.0011028150329366326
1772806930186466600,2.938466552734375,-0.0025771409273147583,0.00384453940205276,0.00013209278404247016
1772806930196398600,2.948398681640625,0.0013334447285160422,0.006898385938256979,0.00004660531703848392
1772806930206329300,2.958329345703125,0.00037470675306394696,0.004050135146826506,0.001151284552179277
1772806930216261400,2.968261474609375,-0.0005033374181948602,0.005228850524872541,0.0014745922526344657
1772806930226193400,2.978193359375,-0.00008974852971732616,0.003756921272724867,0.0011763182701542974
1772806930236125400,2.98812548828125,-0.0011270497925579548,0.0046695866622030735,0.0026466494891792536
1772806930246056200,2.99805615234375,-0.0025750105269253254,0.005137504078447819,0.00012410330236889422
1772806930255988500,3.007988525390625,0.0004743089957628399,0.006434729788452387,0.0006897587445564568
1772806930265920500,3.01792041015625,-0.0002759034978225827,0.006096508353948593,-0.000699079770129174
1772806930275851500,3.0278515625,-0.003328684950247407,0.006440855097025633,0.00006657902849838138
1772806930285783300,3.037783203125,-0.0011251855175942183,0.005113269202411175,-0.0014274542918428779
1772806930295715300,3.04771533203125,-0.0014037522487342358,0.006954045966267586,-0.0001584580895723775
1772806930305647400,3.0576474609375,-0.0001739044237183407,0.005140167195349932,-0.001350755337625742
1772806930315578400,3.067578369140625,0.00025246766745112836,0.0031933963764458895,-0.0029521139804273844
1772806930325510400,3.077510498046875,0.00034434671397320926,0.006261890754103661,-0.0007430219557136297
1772806930335442400,3.0874423828125,-0.0007006776868365705,0.00538437906652689,0.00133877107873559
1772806930345374500,3.09737451171875,-0.0007126618875190616,0.007370031904429197,0.00042317630141042173
1772806930355305500,3.107305419921875,-0.0000958738019107841,0.006736465729773045,0.0002921487612184137
1772806930365237500,3.117237548828125,0.00043302998528815806,0.006238454952836037,-0.0011267834343016148
1772806930375169300,3.127169189453125,-0.0006146575906313956,0.006657369900494814,-0.0010037453612312675
1772806930385101300,3.137101318359375,-0.0007864314829930663,0.006490123458206654,0.0003025351034011692
1772806930395032300,3.1470322265625,-0.0002271676348755136,0.004715392831712961,-0.0005147890187799931
1772806930404964400,3.15696435546875,-0.0010974886827170849,0.005045891273766756,0.0016817862633615732
1772806930414896400,3.166896484375,-0.0010357033461332321,0.004552407655864954,-0.002156894188374281
1772806930424828400,3.176828369140625,0.0005424859118647873,0.007795604877173901,-0.0004689826746471226
1772806930434759400,3.186759521484375,-0.0008487494196742773,0.004595017991960049,-0.001383778522722423
1772806930444691700,3.196691650390625,-0.00007057376933516935,0.004922853317111731,-0.0014823154779151082
1772806930454623700,3.206623779296875,-0.000996554852463305,0.003805390791967511,-0.0010727213229984045
1772806930464555800,3.2165556640625,0.001017061178572476,0.007762582041323185,-0.0033625070936977863
1772806930474486800,3.22648681640625,-0.002376604825258255,0.006650179624557495,-0.0007054713787510991
1772806930484418600,3.23641845703125,-0.0015752597246319056,0.00415453128516674,-0.0006045375484973192
1772806930494350600,3.2463505859375,-0.0014831144362688065,0.006569485645741224,-0.0016825852217152715
1772806930504282600,3.25628271484375,-0.001427720650099218,0.005838980432599783,0.0009856359101831913
1772806930514214000,3.2662138671875,-0.0012538161827251315,0.004246943164616823,0.000059388490626588464
1772806930524145700,3.276145751953125,-0.002109756227582693,0.0037433390971273184,0.0008311725687235594
1772806930534077700,3.28607763671875,0.0005083974683657289,0.004844556096941233,0.0019137475173920393
1772806930544009700,3.296009765625,0.00006604639202123508,0.006359096150845289,0.000707868195604533
1772806930553940700,3.305940673828125,-0.0004703142330981791,0.004289553500711918,0.00036272252327762544
1772806930563872800,3.315872802734375,-0.0007371630053967237,0.005976932588964701,-0.0002585929469205439
1772806930573804500,3.325804443359375,-0.00004820321555598639,0.006266151554882526,-0.003343332326039672
1772806930583736600,3.335736572265625,-0.0013688647886738181,0.0065439194440841675,-0.002484729280695319
1772806930593667800,3.345667724609375,-0.00017363809456583112,0.005905559752136469,-0.001014664419926703
1772806930603600000,3.355599853515625,-0.0011374361347407103,0.006862965878099203,-0.0019355855183675885
1772806930613532000,3.365531982421875,-0.0007547398563474417,0.006564425770193338,0.0004338289436418563
1772806930623463700,3.375463623046875,0.00003834952076431364,0.004495149478316307,0.0016106797847896814
1772806930633394700,3.385394775390625,0.0006418218254111707,0.0041579934768378735,0.0005699164466932416
1772806930643326700,3.39532666015625,0.0004271710349712521,0.008449943736195564,0.0009257147903554142
1772806930653258800,3.4052587890625,-0.0012535499408841133,0.006080529186874628,-0.0009941579774022102
1772806930663190500,3.4151904296875,-0.00017070861940737814,0.008814264088869095,-0.0010538127971813083
1772806930673121800,3.425121826171875,-0.002612827345728874,0.006249640136957169,0.00027563716867007315
1772806930683053800,3.4350537109375,-0.0004410194815136492,0.0068033114075660706,0.0008913599886000156
1772806930692985900,3.44498583984375,-0.0020415792241692543,0.0049409628845751286,0.0004929511342197657
1772806930702918000,3.45491796875,-0.0007552724564447999,0.0041702440939843655,-0.0026160231791436672
1772806930712848600,3.4648486328125,0.0017920411191880703,0.004486094694584608,0.0017326525412499905
1772806930722780700,3.47478076171875,0.0009318400407209992,0.007760717533528805,0.00024394555657636374
1772806930732712700,3.484712646484375,-0.0014772554859519005,0.00818176381289959,-0.0011520835105329752
1772806930742644700,3.494644775390625,0.0003281014505773783,0.0068243504501879215,-0.00018615495355334133
1772806930752575700,3.50457568359375,-0.0006340986583381891,0.004006193019449711,-0.0008069378091022372
1772806930762507800,3.5145078125,0.0003046656202059239,0.008320514112710953,-0.00016245282313320786
1772806930772439800,3.524439697265625,0.00011398329661460593,0.005250954534858465,0.00210682675242424
1772806930782370800,3.534370849609375,-0.0005576659459620714,0.0021819279063493013,-0.0007057376787997782
1772806930792302600,3.544302490234375,-0.0008548747282475233,0.0063007730059325695,0.0006024070316925645
1772806930802234600,3.554234619140625,-0.00196408131159842,0.00833649281412363,-0.000029294771593413316
1772806930812166700,3.564166748046875,-0.002147306688129902,0.005550294183194637,0.0008713863207958639
1772806930822097700,3.57409765625,-0.0006476807757280767,0.006521814968436956,-0.00019654128118418157
1772806930832029700,3.58402978515625,0.00026551715563982725,0.006367884576320648,0.0015153386630117893
1772806930841961700,3.593961669921875,0.00007723167072981596,0.004988100845366716,-0.0011547466274350882
1772806930851893800,3.603893798828125,0.0012964267516508698,0.0018764632986858487,0.0005728459218516946
1772806930861824800,3.61382470703125,-0.0012090750969946384,0.006842193193733692,0.002332130214199424
1772806930871756800,3.6237568359375,0.0011677960865199566,0.00398568669334054,0.0020037624053657055
1772806930881688800,3.633688720703125,-0.0014743260107934475,0.008713862858712673,0.000215716048842296
1772806930891620600,3.64362060546875,0.00025752768851816654,0.008146610110998154,-0.00030546457855962217
1772806930901551600,3.653551513671875,-0.002101234160363674,0.006400375161319971,0.001383778522722423
1772806930911483600,3.663483642578125,-0.0009715211344882846,0.006450176239013672,-0.0013347762869670987
1772806930921415700,3.673415771484375,-0.00261788722127676,0.00651595601812005,0.00018988338706549257
1772806930931347700,3.68334765625,-0.0018279937794432044,0.0060946443118155,0.0018879148410633206
1772806930941278700,3.69327880859375,0.0005025385180488229,0.006136455573141575,-0.0015124091878533363
1772806930951210800,3.703210693359375,-0.0030370689928531647,0.0070374030619859695,0.0020516992080956697
1772806930961142800,3.713142822265625,-0.0000780306218075566,0.006150037981569767,-0.0006767092272639275
1772806930971074800,3.72307470703125,-0.0024897893890738487,0.003990214318037033,0.0019536949694156647
1772806930981005600,3.733005615234375,-0.0024591628462076187,0.005061337724328041,-0.0015339808305725455
1772806930990937600,3.7429375,-0.0014253237750381231,0.005833654198795557,0.0013187973527237773
1772806931000869600,3.75286962890625,-0.004310858901590109,0.007144995033740997,0.0007539408979937434
1772806931010802000,3.762802001953125,0.00023968449386302382,0.006637662649154663,-0.0010791128734126687
1772806931020732700,3.772732666015625,-0.002020274056121707,0.005953496787697077,0.0007720504072494805
1772806931030664700,3.782664794921875,-0.0006018743733875453,0.007792941760271788,0.0003051982494071126
1772806931040596700,3.7925966796875,-0.00032197617110796273,0.00376064982265234,0.0002721750643104315
1772806931050528800,3.80252880859375,-0.0020724718924611807,0.00717588746920228,0.0024650217965245247
1772806931060459500,3.81245947265625,-0.0013795174891129136,0.0029878003988415003,-0.0006255765329115093
1772806931070391600,3.8223916015625,0.0010213222121819854,0.0062800003215670586,-0.0024650217965245247
1772806931080323600,3.832323486328125,-0.0016674051294103265,0.006989732384681702,0.0014748586108908057
1772806931090255600,3.842255615234375,0.00022610237647313625,0.006346046458929777,-0.00035712990211322904
1772806931100187000,3.852186767578125,0.0014018879737704992,0.008509598672389984,0.0026581010315567255
1772806931110118700,3.86211865234375,0.00022690132027491927,0.004316717851907015,0.0012335762148723006
1772806931120050700,3.87205078125,0.00027856664382852614,0.005209941882640123,-0.0011235876008868217
1772806931129982700,3.881982666015625,-0.0024293356109410524,0.004418450407683849,0.0005251753609627485
1772806931139913700,3.891913818359375,-0.0009555422002449632,0.005754824727773666,-0.000021837920940015465
1772806931149845500,3.901845458984375,-0.0012056130217388272,0.006031793542206287,0.001752360025420785
1772806931159777500,3.911777587890625,-0.0007858988246880472,0.005942311137914658,-0.000547279603779316
1772806931169709600,3.92170947265625,0.0010953581659123302,0.0062421830371022224,-0.0004516721237450838
1772806931179640800,3.931640869140625,-0.001960352761670947,0.00492098880931735,0.0009432916413061321
1772806931189572900,3.94157275390625,-0.0010578075889497995,0.007780158892273903,0.0011110707418993115
1772806931199504600,3.951504638671875,-0.0013960290234535933,0.00785765703767538,0.00039707732503302395
1772806931209436700,3.961436767578125,-0.0011102718999609351,0.006771087180823088,-0.00006950850365683436
1772806931219367700,3.97136767578125,0.0013584784464910626,0.004293282050639391,0.0007105313707143068
1772806931229299000,3.981298828125,-0.00192200334277004,0.0049409628845751286,-0.0010873686987906694
1772806931239229700,3.991229736328125,-0.002157160546630621,0.006715427152812481,0.0005728459218516946
1772806931249161700,4.00116162109375,-0.000016777914424892515,0.005033107940107584,0.0006737797521054745
1772806931259093800,4.01109375,-0.0025481125339865685,0.006376406643539667,-0.000107858024421148
1772806931269025800,4.02102587890625,-0.0018969696247950196,0.005513808690011501,0.00034221619716845453
1772806931278956500,4.03095654296875,-0.0005989448982290924,0.005721002817153931,-0.00014194648247212172
1772806931288888600,4.040888671875,-0.00038482676609419286,0.0048829056322574615,-0.000886566296685487
1772806931298820600,4.050820556640625,-0.00017736652807798237,0.0062488410621881485,0.0013731258222833276
1772806931308753000,4.0607529296875,-0.0036754286848008633,0.00740119069814682,-0.0006103964988142252
1772806931318683600,4.07068359375,-0.0004117247008252889,0.006804376374930143,-0.0002540655550546944
1772806931328615700,4.08061572265625,0.0000023968450477696024,0.006593986880034208,0.000681236619129777
1772806931338547700,4.090547607421875,-0.000508663768414408,0.009466738440096378,-0.0013510215794667602
1772806931348479700,4.100479736328125,0.001734516816213727,0.003896737238392234,0.0029995182994753122
1772806931358410800,4.11041064453125,-0.0024048343766480684,0.00683154072612524,-0.0014266553334891796
1772806931368342500,4.120342529296875,0.00011851066665258259,0.005795837379992008,0.002251968951895833
1772806931378274600,4.130274658203125,-0.0012205267557874322,0.006661098450422287,-0.0012900352012366056
1772806931388206800,4.140206787109375,0.0007856325246393681,0.006080795545130968,-0.00006338323146337643
1772806931398137900,4.150137939453125,-0.0008732505375519395,0.006283994764089584,-0.00105301383882761
1772806931408069600,4.160069580078125,-0.0005075985100120306,0.005452822428196669,0.0005350290448404849
1772806931418001700,4.170001708984375,-0.0025185514241456985,0.007763913366943598,0.00006657902849838138
1772806931427933700,4.17993359375,0.0013350426452234387,0.006265086587518454,0.000023968450477696024
1772806931437864700,4.18986474609375,0.0012580773327499628,0.005206213798373938,0.002272475278005004
1772806931447796700,4.199796630859375,0.00028762139845639467,0.006490123458206654,-0.0005589975044131279
1772806931457728500,4.209728515625,-0.003471430391073227,0.0078571243211627,-0.0009776464430615306
1772806931467659800,4.21965966796875,-0.0025446503423154354,0.003959055058658123,0.002148372121155262
1772806931477591800,4.229591796875,-0.0010628675809130073,0.008622516877949238,-0.0007432882557623088
1772806931487523800,4.23952392578125,-0.0015989618841558695,0.008077633567154408,0.001490304945036769
1772806931497455900,4.249455810546875,-0.00021678130724467337,0.00723367789760232,0.0015712650492787361
1772806931507386600,4.25938671875,-0.002906840294599533,0.004423776641488075,-0.0013976269401609898
1772806931517318700,4.269318603515625,-0.0012546151410788298,0.005597165785729885,0.0004966795677319169
1772806931527250700,4.279250732421875,-0.002004827605560422,0.007170561235398054,-0.000017310547264060006
1772806931537182700,4.2891826171875,-0.0013646037550643086,0.004200603812932968,0.0008016114588826895
1772806931547113700,4.29911376953125,-0.0015614113071933389,0.003626426449045539,0.001986984396353364
1772806931557045800,4.309045654296875,-0.0010636665392667055,0.007185208611190319,-0.0019409117521718144
1772806931566977800,4.318977783203125,-0.0023315974976867437,0.006958040874451399,-0.0007526093395426869
1772806931576909800,4.328909912109375,-0.0011819108622148633,0.005359877832233906,0.002636263146996498
1772806931586841900,4.338841796875,-0.000934236915782094,0.007878429256379604,-0.00012729909212794155
1772806931596773600,4.348773681640625,-0.002150502521544695,0.0049249837175011635,-0.00014700648898724467
1772806931606704600,4.35870458984375,-0.0007840346079319715,0.005626726895570755,0.0006428870838135481
1772806931616636700,4.36863671875,-0.0013662016717717052,0.006589192897081375,0.00033955302205868065
1772806931626568700,4.378568603515625,-0.0032083101104944944,0.00563950976356864,-0.0015491608064621687
1772806931636500700,4.388500732421875,-0.0014330470003187656,0.0070461914874613285,-0.0007563377148471773
1772806931646431700,4.398431640625,-0.0011020160745829344,0.006226737052202225,-0.0017723336350172758
1772806931656363800,4.40836376953125,0.00046924897469580173,0.003062102710828185,0.0007398261222988367
1772806931666295800,4.4182958984375,-0.0008724515791982412,0.00552233075723052,-0.0015515576815232635
1772806931676227800,4.428227783203125,-0.0019329222850501537,0.0044136568903923035,0.0004918858758173883
1772806931686158600,4.43815869140625,-0.0016487629618495703,0.006900250446051359,-0.0007520766812376678
1772806931696090600,4.448090576171875,-0.002001631772145629,0.006584133021533489,-0.00007110639853635803
1772806931706022700,4.458022705078125,-0.0018165421206504107,0.007077616639435291,-0.0002569950302131474
1772806931715954700,4.46795458984375,-0.0008961536805145442,0.0062336609698832035,0.0003475425182841718
1772806931725885700,4.4778857421875,0.0004087952256668359,0.005915945861488581,0.0022679478861391544
1772806931735817700,4.487817626953125,-0.0022690133191645145,0.0056741307489573956,0.00013741910515818745
1772806931745749800,4.497749755859375,-0.00015765913121867925,0.005583849735558033,0.0032234902027994394
1772806931755681800,4.507681884765625,-0.00013076121103949845,0.0049620019271969795,0.0002913498319685459
1772806931765612500,4.517612548828125,-0.0014362427173182368,0.006823285017162561,-0.0006298375665210187
1772806931775544600,4.527544677734375,-0.0024839304387569427,0.005456284619867802,-0.00021651499264407903
1772806931785476600,4.5374765625,-0.0035214978270232677,0.006006759591400623,-0.00005672533006872982
1772806931795408600,4.54740869140625,0.00039068571641109884,0.005919408053159714,0.00041012681322172284
1772806931805340000,4.55733984375,-0.003061569994315505,0.005637645721435547,-0.001318264752626419
1772806931815271700,4.567271728515625,-0.002282329136505723,0.006617422681301832,-0.00028522455249913037
1772806931825203700,4.57720361328125,-0.0009387642494402826,0.004711132030934095,-0.0010463559301570058
1772806931835135700,4.5871357421875,-0.0010277138790115714,0.008235825225710869,0.0017326525412499905
1772806931845066800,4.597066650390625,-0.0003968109958805144,0.006030728109180927,0.0012689962750300765
1772806931854998800,4.606998779296875,-0.0022389194928109646,0.008327704854309559,-0.0009893643436953425
1772806931864930600,4.6169306640625,-0.0014921691035851836,0.004788363818079233,0.0015787219163030386
1772806931874861800,4.62686181640625,-0.0015302523970603943,0.006714361719787121,0.000467118457891047
1772806931884793900,4.6367939453125,0.0005083974683657289,0.004010987002402544,-0.0002300971100339666
1772806931894726000,4.646725830078125,-0.0016429040115326643,0.008730107918381691,-0.0030035129748284817
1772806931904657700,4.65665771484375,-0.0025800704024732113,0.008437693119049072,0.0004743089957628399
1772806931914589700,4.666589599609375,-0.0014540859265252948,0.006674946751445532,0.0008178567513823509
1772806931924520700,4.676520751953125,-0.0013222594279795885,0.007379885762929916,-0.0026405241806060076
1772806931934452700,4.68645263671875,-0.0014908375451341271,0.00640863087028265,-0.0009952232940122485
1772806931944384800,4.696384765625,-0.0006386260502040386,0.007132744416594505,0.0011028150329366326
1772806931954315800,4.706315673828125,-0.0010626012226566672,0.006039516534656286,-0.000037017940485384315
1772806931964247800,4.716247802734375,-0.0005462143453769386,0.004397145472466946,-0.000847950461320579
1772806931974179800,4.726179931640625,-0.0027859327383339405,0.00878177396953106,-0.0004492752777878195
1772806931984111900,4.73611181640625,-0.0015358449891209602,0.005281314719468355,0.0002932140196207911
1772806931994042600,4.746042724609375,-0.00018375810759607702,0.005812881514430046,-0.0005075985100120306
1772806932003974700,4.755974609375,-0.0012855078093707561,0.007012369576841593,0.00040027310024015605
1772806932013906700,4.76590673828125,-0.0014615427935495973,0.007646734360605478,-0.0013470269041135907
1772806932023838700,4.775838623046875,-0.00009667274571256712,0.005841909907758236,0.0005193164106458426
1772806932033769700,4.785769775390625,0.0008476841612718999,0.004800081718713045,0.00042637207661755383
1772806932043701800,4.79570166015625,-0.0018279937794432044,0.008437160402536392,-0.0008633967954665422
1772806932053633800,4.8056337890625,-0.0009528790251351893,0.005889580585062504,-0.00036378781078383327
1772806932063565800,4.81556591796875,-0.0013827132061123848,0.00675377668812871,-0.001413339632563293
1772806932073496800,4.825496826171875,0.0003222425002604723,0.0055031562224030495,-0.00021518341964110732
1772806932083428600,4.8354287109375,0.000565389113035053,0.008696818724274635,-0.0004948153509758413
1772806932093360600,4.845360595703125,0.0006900250446051359,0.007392402272671461,-0.000031957933970261365
1772806932103292700,4.855292724609375,0.00014567491598427296,0.007538876496255398,0.0027451864443719387
1772806932113223700,4.8652236328125,0.0002793656021822244,0.007871771231293678,-0.0007928230334073305
1772806932123155700,4.87515576171875,-0.0009592706337571144,0.00663420045748353,-0.0014183996245265007
1772806932133087700,4.885087646484375,0.0005936186062172055,0.00643819198012352,0.0003046656202059239
1772806932143019800,4.895019775390625,-0.0004625910660251975,0.005330849438905716,0.0027174896094948053
1772806932152950800,4.90495068359375,0.0004159857635386288,0.0067569720558822155,-0.0007294398383237422
1772806932162882800,4.9148828125,0.000016777914424892515,0.004724713973701,0.0008442220860160887
1772806932172814600,4.924814697265625,-0.0002926813904196024,0.006695985794067383,0.0007981493836268783
1772806932182746600,4.93474658203125,-0.0010812433902174234,0.005154548212885857,0.00023675501870457083
1772806932192677600,4.944677734375,-0.0010394317796453834,0.006200371775776148,0.0013006879016757011
1772806932202609700,4.954609619140625,-0.0027920580469071865,0.0068387314677238464,-0.00023036343918647617
1772806932212541700,4.964541748046875,0.001110005541704595,0.0049526807852089405,0.00025832661776803434
1772806932222473700,4.9744736328125,-0.0014767227694392204,0.006771087180823088,0.000011451592399680521
1772806932232404700,4.98440478515625,-0.0025814019609242678,0.0073133064433932304,0.0004756405542138964
1772806932242336800,4.994336669921875,0.0002615224220789969,0.005013400688767433,0.0006319681415334344
1772806932252268800,5.004268798828125,-0.002118811011314392,0.004962800536304712,-0.0025326660834252834
1772806932262200800,5.014200927734375,-0.0010492854053154588,0.007399859372526407,0.0036911412607878447
1772806932272131600,5.024131591796875,-0.0017638115677982569,0.00586800929158926,-0.0030477214604616165
1772806932282063600,5.034063720703125,-0.0008942894637584686,0.005330849438905716,-0.0012538161827251315
1772806932291995600,5.04399560546875,-0.0015180017799139023,0.0038461373187601566,0.0013638047967106104
1772806932301927700,5.053927734375,0.0003885551996063441,0.005600095260888338,0.001612544059753418
1772806932311858700,5.063858642578125,-0.003304982790723443,0.006736732088029385,-0.0007198524544946849
1772806932321790700,5.073790771484375,-0.0012295814231038094,0.007072024047374725,-0.0005768407136201859
1772806932331722800,5.08372265625,0.00017736652807798237,0.004489556886255741,-0.0014335796004161239
1772806932341654800,5.09365478515625,-0.0004644552827812731,0.005608617328107357,-0.00017843178648035973
1772806932351585500,5.10358544921875,-0.0005877596559002995,0.006474677007645369,-0.0033630398102104664
1772806932361517600,5.113517578125,-0.0020684772171080112,0.0023579627741128206,0.0011379687348380685
1772806932371449600,5.12344970703125,-0.0005648564547300339,0.005275455769151449,-0.0004415521107148379
1772806932381381600,5.133381591796875,-0.0025092302821576595,0.005860019475221634,0.001130511867813766
1772806932391312600,5.143312744140625,-0.0012069445801898837,0.00863316934555769,-0.0015307849971577525
1772806932401244700,5.15324462890625,-0.0012266519479453564,0.006330067757517099,0.0005105279851704836
1772806932411176700,5.1631767578125,0.0012002866715192795,0.005964681971818209,-0.0004516721237450838
1772806932421108700,5.173108642578125,0.000031957933970261365,0.005885319784283638,-0.0008117315010167658
1772806932431039700,5.183039794921875,-0.0027427896857261658,0.005495166406035423,0.0005656554130837321
1772806932440971500,5.192971435546875,0.00024234765442088246,0.006845921743661165,0.0004037352045997977
1772806932450903800,5.20290380859375,-0.001097755040973425,0.005425658077001572,0.0016935041639953852
1772806932460835800,5.2128359375,-0.0006865629111416638,0.006666691042482853,0.0008839031797833741
1772806932470766800,5.222766845703125,-0.0013960290234535933,0.0054640076123178005,0.00011717908637365326
1772806932480699000,5.232698974609375,-0.0006972155533730984,0.00583711639046669,0.0012024171883240342
1772806932490631000,5.242630859375,-0.0013949638232588768,0.004950284026563168,0.0015614113071933389
1772806932500562000,5.25256201171875,0.0001661812566453591,0.00415346585214138,-0.00020985709852539003
1772806932510493700,5.26249365234375,-0.00008735168376006186,0.004452272783964872,0.0019864519126713276
1772806932520425700,5.27242578125,-0.003215234261006117,0.006835269276052713,-0.00047857005847617984
1772806932530357800,5.282357666015625,0.00036698358599096537,0.006620085798203945,-0.0024290692526847124
1772806932540289000,5.2922890625,-0.0001906823308672756,0.004234958905726671,0.0016234630020335317
1772806932550220800,5.302220703125,-0.0018455706303939223,0.006916761863976717,-0.002272741636261344
1772806932560152800,5.31215283203125,-0.0008980178972706199,0.0029995182994753122,0.0005193164106458426
1772806932570084900,5.3220849609375,-0.0007310376968234777,0.005661614239215851,-0.00017683389887679368
1772806932580015900,5.332015869140625,-0.00033928672201000154,0.006170810665935278,-0.001019990653730929
1772806932589948000,5.341947998046875,0.0015078817959874868,0.004552674014121294,-0.0001853560097515583
1772806932599879700,5.351879638671875,-0.002141447737812996,0.005554288625717163,-0.0015523566398769617
1772806932609811700,5.361811767578125,0.0006117281154729426,0.006848052144050598,-0.003442668356001377
1772806932619743000,5.371742919921875,-0.0008372978190891445,0.006132461130619049,-0.0008673915872350335
1772806932629675000,5.381675048828125,0.00032410668791271746,0.008853412233293056,-0.0008143946761265397
1772806932639607000,5.39160693359375,-0.000761664065066725,0.006554039195179939,0.0012737899087369442
1772806932649538800,5.401538818359375,-0.0015273229219019413,0.005241899751126766,-0.00021385183208622038
1772806932659469800,5.4114697265625,-0.0002926813904196024,0.005037102848291397,0.000966993800830096
1772806932669401900,5.42140185546875,0.0008317052270285785,0.006938866339623928,-0.0011022823164239526
1772806932679334000,5.431333984375,0.00020666129421442747,0.006119944155216217,0.0010524812387302518
1772806932689265700,5.441265625,-0.001958488719537854,0.006806507240980864,-0.0000029294772048160667
1772806932699197000,5.451197021484375,0.00023568976030219346,0.005200354848057032,-0.0015209312550723553
1772806932709129000,5.46112890625,-0.000056459015468135476,0.00455640209838748,-0.0000857537888805382
1772806932719061000,5.47106103515625,-0.002439721953123808,0.007823036052286625,0.0015124091878533363
1772806932728993000,5.480992919921875,0.0000500674286740832,0.0065167550928890705,-0.0005488775204867125
1772806932738923800,5.490923828125,-0.001005343277938664,0.006511695217341185,0.00015952334797475487
1772806932748855800,5.500855712890625,-0.001321194227784872,0.00458782771602273,0.0011464908020570874
1772806932758787800,5.510787841796875,-0.0008849684381857514,0.0038722362369298935,0.0012540825409814715
1772806932768720000,5.520719970703125,-0.0015393070643767715,0.006744988262653351,-0.00019041601626668125
1772806932778651000,5.53065087890625,-0.00011132013605674729,0.007437676191329956,0.0025750105269253254
1772806932788583000,5.5405830078125,-0.0031228226143866777,0.007935420610010624,0.00013262542779557407
1772806932798515000,5.550514892578125,-0.00256355875171721,0.005341236013919115,-0.0033507891930639744
1772806932808447000,5.560447021484375,0.0006886934279464185,0.0046842340379953384,-0.0008804410463199019
1772806932818377700,5.570377685546875,-0.001261539408005774,0.005293831694871187,0.0016013587592169642
1772806932828309800,5.580309814453125,0.0003001382574439049,0.003932423423975706,0.00041998049709945917
1772806932838241800,5.59024169921875,-0.0010333064710721374,0.00634791050106287,0.000943025341257453
1772806932848173800,5.600173828125,-0.00002902845517382957,0.007929296232759953,-0.0010716560063883662
1772806932858104800,5.610104736328125,0.0005467469454742968,0.006016347091645002,-0.0008807073463685811
1772806932868036900,5.620036865234375,-0.0004913532175123692,0.0067809405736625195,0.002560629276558757
1772806932877969000,5.629968994140625,-0.0030104373581707478,0.005964948330074549,-0.0004886900424025953
1772806932887901000,5.63990087890625,-0.0007592672482132912,0.008176171220839024,-0.0023574302904307842
1772806932897832000,5.64983203125,-0.0018956380663439631,0.0059958407655358315,0.000743820914067328
1772806932907764000,5.659763916015625,0.0015124091878533363,0.004698348697274923,0.002255697501823306
1772806932917695700,5.66969580078125,-0.001353684812784195,0.006675213109701872,0.0007904262165538967
1772806932927627800,5.679627685546875,-0.0005017395596951246,0.006945790257304907,0.002600044244900346
1772806932937558800,5.689558837890625,0.0013369068037718534,0.004839496221393347,0.0012958941515535116
1772806932947490800,5.69949072265625,0.0002426139690214768,0.006594253238290548,0.000529436394572258
1772806932957422800,5.7094228515625,-0.00038456046604551375,0.007066165097057819,0.0003784351865760982
1772806932967355000,5.71935498046875,-0.001445830101147294,0.006657369900494814,0.00004846953015658073
1772806932977286000,5.729285888671875,-0.001719603082165122,0.0041646515019237995,-0.0013169331941753626
1772806932987218000,5.739218017578125,-0.0028306739404797554,0.0075940038077533245,0.0003014698449987918
1772806932997150000,5.74914990234375,-0.0016982977977022529,0.006797985173761845,0.0023989754263311625
1772806933007081700,5.759081787109375,-0.0009523464250378311,0.006569752003997564,0.000022636868379777297
1772806933017012700,5.7690126953125,-0.00130947632715106,0.006512227933853865,-0.0009392969077453017
1772806933026944800,5.77894482421875,-0.0020732709672302008,0.006933805998414755,-0.0001882854849100113
1772806933036876800,5.788876708984375,-0.003603257006034255,0.0057103498838841915,0.00008628641808172688
1772806933046808800,5.798808837890625,-0.0008367652189917862,0.00768881244584918,-0.002514823107048869
1772806933056739800,5.80873974609375,0.000663393409922719,0.006013417616486549,0.0009121326729655266
1772806933066671900,5.818671875,0.0004980111261829734,0.00603392394259572,-0.0008080030675046146
1772806933076604000,5.82860400390625,-0.0023675502743571997,0.00666456064209342,0.0013510215794667602
1772806933086534700,5.83853466796875,0.0007837683078832924,0.00720518222078681,0.0012386362068355083
1772806933096466700,5.848466796875,-0.00045327001134864986,0.0070680296048521996,0.0009629990672692657
1772806933106398700,5.858398681640625,0.00024394555657636374,0.005122057627886534,-0.0011747203534469008
1772806933116330800,5.868330810546875,-0.0005528722540475428,0.00666349520906806,0.00023222764139063656
1772806933126262000,5.878261962890625,-0.003099919529631734,0.008263789117336273,-0.0010881676571443677
1772806933136193800,5.88819384765625,-0.0009033442474901676,0.006658435333520174,0.00045034053619019687
1772806933146125800,5.898125732421875,-0.002675145398825407,0.010004963725805283,-0.0004021373169962317
1772806933156057900,5.908057861328125,0.00019254654762335122,0.00421338714659214,0.0014170679496601224
1772806933165988900,5.91798876953125,-0.0018346516881138086,0.0062067629769444466,-0.0014152037911117077
1772806933175920600,5.927920654296875,0.0001893507578643039,0.006709035485982895,-0.00005832322858623229
1772806933185852700,5.937852783203125,-0.0014082795241847634,0.006142847239971161,-0.002623746171593666
1772806933195784700,5.94778466796875,-0.0015896408585831523,0.007849933579564095,-0.0003278351214248687
1772806933205716000,5.957716064453125,0.00006631271389778703,0.0065348646603524685,0.0014881744282320142
1772806933215648000,5.96764794921875,-0.0003832288784906268,0.007242732681334019,0.002516953507438302
1772806933225579800,5.977579833984375,-0.0008325041271746159,0.008172175846993923,-0.0021081583108752966
1772806933235511800,5.98751171875,-0.0016200009267777205,0.006658968050032854,-0.0006825681775808334
1772806933245442800,5.99744287109375,-0.00014940333494450897,0.0041401502676308155,0.0007938882918097079
1772806933255374800,6.007374755859375,-0.0014213290996849537,0.008654740639030933,-0.00014221279707271606
1772806933265307000,6.017306884765625,-0.0002639192680362612,0.005991845857352018,0.0011584750609472394
1772806933275238700,6.02723876953125,-0.002478603972122073,0.006867759861052036,0.00015952334797475487
1772806933285170000,6.037169921875,0.0007526093395426869,0.006649646908044815,-0.0011888351291418076
1772806933295102000,6.04710205078125,-0.0009512811084277928,0.006426207721233368,-0.0013105415273457766
1772806933305034000,6.057033935546875,-0.0002767024270724505,0.005751362536102533,-0.0012689962750300765
1772806933314965800,6.0669658203125,0.0004873584839515388,0.003882622579112649,-0.001178182428702712
1772806933324896800,6.076896728515625,-0.0016615461790934205,0.005794771946966648,0.00008628641808172688
1772806933334828800,6.086828857421875,0.0013243899447843432,0.005881591234356165,-0.00014753911818843335
1772806933344760800,6.0967607421875,-0.0009036105475388467,0.007131412625312805,0.0018991001415997744
1772806933354692900,6.10669287109375,-0.0023928501177579165,0.0037491980474442244,-0.001204814063385129
1772806933364624000,6.116623779296875,0.0012247877893969417,0.006423810962587595,0.001285241567529738
1772806933374556000,6.126555908203125,-0.001999501371756196,0.006465089973062277,-0.0006162554491311312
1772806933384488000,6.136488037109375,-0.0014362427173182368,0.006175870541483164,0.00021651499264407903
1772806933394420000,6.146419921875,-0.0007262440049089491,0.0062728095799684525,0.00007110639853635803
1772806933404350700,6.156350830078125,-0.0030807447619736195,0.0070485882461071014,-0.0015694007743149996
1772806933414282800,6.16628271484375,-0.0012508867075666785,0.00663446681573987,-0.0024825986474752426
1772806933424214800,6.17621484375,-0.0031353395897895098,0.007924235425889492,0.0010319749126210809
1772806933434146800,6.186146728515625,-0.0000857537888805382,0.00845686811953783,0.0006639260682277381
1772806933444077600,6.19607763671875,0.00046631949953734875,0.005376123357564211,0.00007057376933516935
1772806933454009600,6.206009521484375,-0.0002918824611697346,0.004698881413787603,0.002546248259022832
1772806933463941600,6.215941650390625,-0.00012357067316770554,0.006301305256783962,-0.0003680488734971732
1772806933473873700,6.225873779296875,-0.0025651566684246063,0.004037085920572281,-0.00207726564258337
1772806933483804700,6.2358046875,-0.002401106059551239,0.0038839541375637054,-0.000648479734081775
1772806933493736400,6.245736328125,-0.0011867046123370528,0.00749014038592577,-0.0007659250986762345
1772806933503668500,6.25566845703125,-0.0008141283178701997,0.0075671058148145676,-0.00021198761533014476
1772806933513600500,6.2656005859375,-0.0022916500456631184,0.0070278155617415905,-0.0021233384031802416
1772806933523531800,6.27553173828125,-0.0029225528705865145,0.006364955101162195,0.0019592875614762306
1772806933533463600,6.285463623046875,0.0010551444720476866,0.003919906914234161,0.0008380967774428427
1772806933543395600,6.2953955078125,-0.0023968450259417295,0.007306648883968592,0.0010434264549985528
1772806933553327600,6.30532763671875,-0.003034672001376748,0.0073103769682347775,0.00021758026559837162
1772806933563258600,6.315258544921875,0.00045859633246436715,0.005289304070174694,0.00009108010999625549
1772806933573190700,6.325190673828125,0.0018812569323927164,0.006563626695424318,-0.002341983839869499
1772806933583122400,6.335122314453125,-0.0028250813484191895,0.00780679052695632,0.0012343751732259989
1772806933593054500,6.345054443359375,-0.0003424825263209641,0.006618754006922245,0.0016112125013023615
1772806933602985700,6.35498583984375,-0.0004932174342684448,0.007662713527679443,0.001184307737275958
1772806933612917800,6.364917724609375,-0.0010791128734126687,0.006126335822045803,-0.0034708979073911905
1772806933622849800,6.374849853515625,0.000006391586794052273,0.00595562718808651,0.000565389113035053
1772806933632780500,6.384780517578125,-0.0022213426418602467,0.007707187905907631,0.0005858954391442239
1772806933642712600,6.394712646484375,0.0016138756182044744,0.0073133064433932304,-0.00019441076437942684
1772806933652644600,6.40464453125,-0.00016831177345011383,0.006036054342985153,-0.00008229167724493891
1772806933662576600,6.41457666015625,-0.001219727797433734,0.0060056946240365505,-0.0012503541074693203
1772806933672507600,6.424507568359375,-0.002171807922422886,0.007939149625599384,-0.0005856291390955448
1772806933682439700,6.434439697265625,0.0009707222343422472,0.006086920853704214,0.000313986703986302
1772806933692371700,6.444371826171875,0.0001371527905575931,0.006077333353459835,-0.0006255765329115093
1772806933702303700,6.4543037109375,-0.0012309130979701877,0.005013400688767433,0.0004492752777878195
1772806933712234500,6.464234375,0.000005060006060375599,0.009928797371685505,-0.0029172266367822886
1772806933722166500,6.47416650390625,0.0002639192680362612,0.008869658224284649,-0.0006170544074848294
1772806933732098600,6.4840986328125,-0.002011485630646348,0.007217699196189642,0.00010945591930067167
1772806933742030600,6.494030517578125,-0.0013693973887711763,0.00826991442590952,0.0024919197894632816
1772806933751961600,6.503961669921875,-0.0005390237784013152,0.004618720151484013,-0.0010791128734126687
1772806933761893600,6.5138935546875,-0.001264202524907887,0.006295979022979736,-0.0015664712991565466
1772806933771825700,6.52382568359375,-0.003314037574455142,0.0073564499616622925,-0.003406981937587261
1772806933781757700,6.5337578125,-0.003308711340650916,0.002245843643322587,-0.00017177389236167073
1772806933791688700,6.543688720703125,-0.0009981527691707015,0.003861583536490798,-0.0030269487760961056
1772806933801620500,6.553620361328125,-0.001657018787227571,0.005028847139328718,0.0004942826926708221
1772806933811552500,6.563552490234375,-0.0033742249943315983,0.005609150044620037,0.00088976213010028
1772806933821484500,6.573484619140625,-0.003552390495315194,0.005036037415266037,0.0004623247659765184
1772806933831415600,6.58341552734375,0.00012969593808520585,0.006127933505922556,0.000806138850748539
1772806933841347600,6.59334765625,-0.0000399474156438373,0.005841377656906843,-0.00022184131375979632
1772806933851279600,6.603279541015625,-0.0013230583863332868,0.008480303920805454,0.0009001484140753746
1772806933861211600,6.613211669921875,0.0004900216590613127,0.0060323262587189674,-0.0035715652629733086
1772806933871142700,6.623142578125,-0.002769421087577939,0.008856075815856457,-0.0034021881874650717
1772806933881074700,6.63307470703125,-0.0008250473183579743,0.005221659783273935,-0.00045593318645842373
1772806933891006700,6.6430068359375,-0.001728391507640481,0.007787615526467562,-0.00016484966909047216
1772806933900938500,6.6529384765625,-0.0008378304773941636,0.00657587731257081,0.00021544973424170166
1772806933910869500,6.662869384765625,-0.0013009541435167193,0.006850715726613998,-0.0011656655697152019
1772806933920801500,6.672801513671875,-0.0025308020412921906,0.005915147252380848,-0.0009587379754520953
1772806933930733600,6.682733642578125,0.0015747271245345473,0.006458165589720011,-0.0015781891997903585
1772806933940665600,6.69266552734375,-0.00276169809512794,0.006452572997659445,0.0012032161466777325
1772806933950596600,6.7025966796875,-0.002419215627014637,0.0055180699564516544,0.0010985539993271232
1772806933960528600,6.712528564453125,-0.0012871057260781527,0.007815845310688019,0.0016170714516192675
1772806933970460700,6.722460693359375,-0.0017931063193827868,0.00752129964530468,0.00027856664382852614
1772806933980392700,6.732392822265625,0.0005968143814243376,0.004806206561625004,-0.0012905678013339639
1772806933990323500,6.742323486328125,-0.0022977753542363644,0.0060235378332436085,-0.00041199102997779846
1772806934000255500,6.75225537109375,-0.0013547500129789114,0.006243514828383923,-0.0013052152935415506
1772806934010187500,6.7621875,-0.0024165522772818804,0.005678125657141209,0.0003731088654603809
1772806934020119600,6.77211962890625,-0.001008805469609797,0.0059897154569625854,0.0004822984628845006
1772806934030050600,6.782050537109375,-0.0008913599886000156,0.006434197071939707,-0.002359294332563877
1772806934039982600,6.791982666015625,0.0004474110610317439,0.005422462243586779,0.0003350256592966616
1772806934049914600,6.80191455078125,0.0013366405619308352,0.006150570698082447,-0.0006905576447024941
1772806934059846700,6.8118466796875,0.0002926813904196024,0.005291434936225414,0.0006191849242895842
1772806934069777400,6.82177734375,-0.00207726564258337,0.006398244295269251,0.00040613205055706203
1772806934079709400,6.83170947265625,-0.001722798915579915,0.0031334753148257732,-0.00017070861940737814
1772806934089641500,6.841641357421875,0.0005997438565827906,0.004444549325853586,-0.0010900318156927824
1772806934099573500,6.851573486328125,-0.0008812400046736002,0.007065366487950087,-0.0005203816690482199
1772806934109504800,6.8615048828125,-0.001347559504210949,0.005048554390668869,0.002549710450693965
1772806934119436500,6.8714365234375,-0.003305781865492463,0.007863515987992287,0.0011057445080950856
1772806934129368600,6.88136865234375,0.0005209143273532391,0.007789213676005602,-0.0012309130979701877
1772806934139300600,6.891300537109375,-0.0001901497016660869,0.007511978503316641,-0.0017092167399823666
1772806934149231600,6.901231689453125,-0.001466602785512805,0.004993160720914602,0.004750014282763004
1772806934159163400,6.911163330078125,0.00006524744821945205,0.005846171174198389,-0.0013219931861385703
1772806934169095400,6.921095458984375,-0.0036698358599096537,0.004018976353108883,0.001201884588226676
1772806934179026700,6.931026611328125,-0.0008029430755414069,0.007611047942191362,0.0006639260682277381
1772806934188958700,6.940958740234375,-0.0010865697404369712,0.006052832584828138,-0.0014985607704147696
1772806934198890800,6.950890869140625,-0.0004191815387457609,0.005456284619867802,-0.0004830974212381989
1772806934208822500,6.960822509765625,-0.001805623178370297,0.0062554990872740746,-0.0024530377704650164
1772806934218754600,6.970754638671875,0.00033422670094296336,0.00490314606577158,-0.0010982876410707831
1772806934228685600,6.980685546875,-0.0018133464036509395,0.0062184808775782585,0.0002687129599507898
1772806934238617600,6.99061767578125,0.0003885551996063441,0.006755108013749123,-0.0006684534018859267
1772806934248549600,7.000549560546875,-0.00101173494476825,0.006914098747074604,-0.0007089334540069103
1772806934258480600,7.010480712890625,-0.0026407905388623476,0.00475534051656723,0.0031414648983627558
1772806934268412700,7.02041259765625,-0.0010072075529024005,0.007000118959695101,-0.000568318588193506
1772806934278344700,7.0303447265625,-0.003222158644348383,0.007411577273160219,0.0010311759542673826
1772806934288276700,7.04027685546875,-0.0035832831636071205,0.008305600844323635,0.00004394215648062527
1772806934298207500,7.05020751953125,-0.001148355077020824,0.008095210418105125,0.0008266451768577099
1772806934308139500,7.060139404296875,-0.0006474144756793976,0.0030474551022052765,0.0015899071004241705
1772806934318071600,7.070071533203125,-0.0006181196658872068,0.006725813262164593,-0.0009760485263541341
1772806934328003600,7.080003662109375,-0.0009318400407209992,0.005203550215810537,0.0002061286650132388
1772806934337934600,7.0899345703125,0.0002639192680362612,0.004985703621059656,0.00019760655413847417
1772806934347866600,7.09986669921875,-0.00063383235828951,0.006747651379555464,0.0017694041598588228
1772806934357798700,7.109798583984375,0.0010394317796453834,0.0057678744196891785,0.0026349315885454416
1772806934367730700,7.119730712890625,0.00022983079543337226,0.005212338641285896,-0.00028282770654186606
1772806934377661700,7.12966162109375,-0.002121474128216505,0.0051960935816168785,0.00044128578156232834
1772806934387593500,7.139593505859375,-0.0007640608819201589,0.005619802512228489,-0.002016279147937894
1772806934397525500,7.149525390625,-0.00022929816623218358,0.005835518706589937,-0.001088700257241726
1772806934407457500,7.15945751953125,-0.0019864519126713276,0.004718588665127754,-0.0003427488263696432
1772806934417388800,7.169388916015625,-0.00008309062832267955,0.007158843334764242,0.0009480853332206607
1772806934427320600,7.179320556640625,-0.00010333064710721374,0.003979561384767294,0.0011406318517401814
1772806934437252600,7.189252685546875,-0.0005073322099633515,0.005915147252380848,0.0009571401169523597
1772806934447184100,7.19918408203125,0.0008546083699911833,0.005048554390668869,-0.0005094627267681062
1772806934457115100,7.209115234375,0.0016021577175706625,0.007502657361328602,-0.00148151651956141
1772806934467047000,7.219046875,0.0019765980541706085,0.004501807503402233,-0.0006269080913625658
1772806934476979000,7.22897900390625,-0.0023369237314909697,0.0051809134893119335,0.0003134540456812829
1772806934486911000,7.238910888671875,-0.0008258462767116725,0.005144428461790085,0.0002846919232979417
1772806934496842200,7.24884228515625,-0.0026458504144102335,0.007187072653323412,0.0007821703911758959
1772806934506774300,7.258774169921875,-0.0009635316673666239,0.006529804784804583,0.001145425601862371
1772806934516706000,7.2687060546875,-0.0006825681775808334,0.005673065781593323,0.0015584818320348859
1772806934526638000,7.27863818359375,-0.0006111954571679235,0.005126318894326687,-0.0002663161139935255
1772806934536569000,7.288569091796875,-0.00017603494052309543,0.006429669912904501,-0.0004828310920856893
1772806934546501000,7.298501220703125,-0.000589091214351356,0.006643255241215229,0.0015912387752905488
1772806934556433200,7.30843310546875,-0.00008229167724493891,0.005933789070695639,-0.0025297366082668304
1772806934566365000,7.318364990234375,0.0002364887041039765,0.005218730308115482,0.0011925635626539588
1772806934576296200,7.328296142578125,-0.0019076223252341151,0.006399842444807291,-0.0007768440991640091
1772806934586228200,7.338228271484375,0.00018855179951060563,0.006607835181057453,-0.0018511632224544883
1772806934596160300,7.34816015625,-0.0025931198615580797,0.00574896577745676,-0.003746002446860075
1772806934606092000,7.358092041015625,-0.0003810983616858721,0.005137770436704159,-0.0004857605672441423
1772806934616023000,7.36802294921875,-0.0054123420268297195,0.007821970619261265,-0.0001637844106880948
1772806934625955000,7.377955078125,0.00012490226072259247,0.0034085798542946577,-0.0011049455497413874
1772806934635887000,7.38788720703125,-0.0011864382540807128,0.008234228007495403,-0.0004040015337523073
1772806934645819100,7.397819091796875,-0.002115348819643259,0.006821686867624521,-0.0016524913953617215
1772806934655750100,7.407750244140625,-0.0024373249616473913,0.007457649800926447,0.0004900216590613127
1772806934665682200,7.41768212890625,-0.0007688545738346875,0.004662129562348127,-0.0010154632618650794
1772806934675614200,7.4276142578125,-0.0004338289436418563,0.004796619527041912,-0.000570981705095619
1772806934685546200,7.437546142578125,-0.0004599279200192541,0.0052136704325675964,-0.00015446334145963192
1772806934695477000,7.44747705078125,-0.0004985437262803316,0.007488542702049017,-0.0012604740913957357
1772806934705409000,7.457408935546875,-0.0032858080230653286,0.008780442178249359,0.0009185242815874517
1772806934715341000,7.467341064453125,0.0007611314067617059,0.006154032424092293,0.0005371595616452396
1772806934725273000,7.477273193359375,-0.000696150294970721,0.006713829003274441,0.0011326423846185207
1772806934735204000,7.4872041015625,-0.000018109494703821838,0.00743075180798769,-0.0008940231637097895
1772806934745136000,7.49713623046875,-0.001785116852261126,0.0054365769028663635,-0.0012833772925660014
1772806934755068200,7.507068115234375,-0.002285258611664176,0.008685367181897163,-0.00008681904728291556
1772806934764999200,7.516999267578125,-0.0024807346053421497,0.00555056007578969,0.00024580975878052413
1772806934774931200,7.52693115234375,-0.001859152689576149,0.007556719705462456,0.0014109427575021982
1772806934784863000,7.536863037109375,-0.0011475561186671257,0.005877596326172352,0.0006021407316438854
1772806934794795000,7.546794921875,-0.0007720504072494805,0.005513275973498821,0.00014540860138367862
1772806934804726000,7.55672607421875,-0.0011470235185697675,0.005938050337135792,0.0004577973741106689
1772806934814658000,7.566657958984375,-0.0010924286907538772,0.0062581622041761875,-0.002037318190559745
1772806934824590000,7.576590087890625,-0.003582217963412404,0.006595850922167301,0.0004183826094958931
1772806934834522000,7.586522216796875,-0.0009209210984408855,0.0052472264505922794,0.0011193265672773123
1772806934844453000,7.596453125,-0.0016460998449474573,0.009008408524096012,-0.0008016114588826895
1772806934854385200,7.60638525390625,-0.0012101404136046767,0.007472297176718712,0.00013448962999973446
1772806934864317200,7.616317138671875,0.00010652644414221868,0.006377205718308687,-0.0010519486386328936
1772806934874249000,7.6262490234375,-0.0015425028977915645,0.007890413515269756,0.0006434197421185672
1772806934884180000,7.636179931640625,-0.0009121326729655266,0.007742607966065407,0.001449025934562087
1772806934894112000,7.646112060546875,0.0008828379213809967,0.0037936728913336992,-0.0014516890514642
1772806934904044000,7.6560439453125,-0.00007829693640815094,0.005077849142253399,0.000025300030756625347
1772806934913976300,7.665976318359375,-0.0018138790037482977,0.006478405557572842,-0.0011744539951905608
1772806934923907000,7.675906982421875,-0.0016197345685213804,0.00618146313354373,-0.0001994707708945498
1772806934933839000,7.685839111328125,-0.0036362800747156143,0.007928497157990932,0.0004846953088417649
1772806934943771100,7.695771240234375,-0.0006756439688615501,0.007140467409044504,-0.0015494271647185087
1772806934953703200,7.705703125,-0.0019294602097943425,0.005542837083339691,-0.002292981604114175
1772806934963634000,7.715634033203125,-0.00025752768851816654,0.008636098355054855,-0.00010492854926269501
1772806934973566000,7.72556591796875,-0.002046639332547784,0.006917294580489397,-0.0005773733137175441
1772806934983498000,7.735498046875,-0.0023284016642719507,0.005566539242863655,0.0009182579233311117
1772806934993430000,7.745429931640625,-0.0004410194815136492,0.006490656174719334,0.003424026072025299
1772806935003361000,7.755361083984375,-0.0015736619243398309,0.006482400465756655,0.00005725796290789731
1772806935013293000,7.76529296875,0.001865544356405735,0.007558583747595549,0.0024319987278431654
1772806935023225000,7.77522509765625,-0.000892691605258733,0.007050452753901482,-0.002109223511070013
1772806935033157000,7.7851572265625,-0.0013659353135153651,0.006704241503030062,0.0025569009594619274
1772806935043088100,7.795088134765625,-0.0014772554859519005,0.00806005671620369,0.00047164582065306604
1772806935053020000,7.80502001953125,0.00049082055920735,0.006776679772883654,0.0014524880098178983
1772806935062952000,7.814951904296875,-0.000303334032651037,0.0062698801048099995,0.000003728425554072601
1772806935072884000,7.824884033203125,-0.0006910903030075133,0.00683074165135622,-0.0022543659433722496
1772806935082815200,7.834815185546875,0.0005659217131324112,0.006644054315984249,0.0023912524338811636
1772806935092747300,7.844747314453125,-0.00039175100391730666,0.007361243478953838,-0.0010245180455967784
1772806935102679000,7.854678955078125,0.0003028014034498483,0.0062970444560050964,-0.0015283881220966578
1772806935112611000,7.864611083984375,-0.0023102923296391964,0.006523945834487677,-0.00021411814668681473
1772806935122542000,7.8745419921875,-0.000985103310085833,0.003522030543535948,0.0010713896481320262
1772806935132474000,7.88447412109375,0.0004551342281047255,0.006551376078277826,0.0027928571216762066
1772806935142406000,7.894406005859375,-0.001662877737544477,0.007003581151366234,-0.001865277998149395
1772806935152338000,7.904337890625,-0.0035396073944866657,0.007843541912734509,0.0014895059866830707
1772806935162269200,7.914269287109375,-0.0011374361347407103,0.008006260730326176,-0.00002609897819638718
1772806935172201200,7.924201171875,0.0007185208378359675,0.005763879511505365,0.0012655340833589435
1772806935182133200,7.93413330078125,0.00035606464371085167,0.00586614478379488,0.0008588694618083537
1772806935192065000,7.94406494140625,-0.0007006776868365705,0.004442685283720493,0.000494016392622143
1772806935201996000,7.95399609375,0.000022903184799361043,0.005813414230942726,0.000391218374716118
1772806935211928000,7.963927978515625,-0.0003936151915695518,0.0057100835256278515,0.000251402409048751
1772806935221860000,7.973860107421875,-0.0025270734913647175,0.006828078534454107,-0.00037470675306394696
1772806935231791000,7.983791015625,0.000005858954409632133,0.00686136819422245,-0.0009651295840740204
1772806935241723100,7.99372314453125,-0.002645584288984537,0.008186557330191135,-0.00024181502521969378
1772806935251655200,8.0036552734375,-0.000045273736759554595,0.0067604342475533485,0.00022157499915920198
1772806935261586200,8.013586181640624,-0.0010785802733153105,0.006130862981081009,-0.002406965009868145
1772806935271518000,8.02351806640625,-0.0006673881434835494,0.007252053823322058,-0.0024165522772818804
1772806935281450000,8.033449951171875,-0.0007190534961409867,0.0062637547962367535,-0.00046339002437889576
1772806935291381200,8.04338134765625,-0.000707868195604533,0.007044593803584576,0.001038366463035345
1772806935301313300,8.053313232421875,-0.0008855010382831097,0.0062491074204444885,-0.0000399474156438373
1772806935311245300,8.063245361328125,-0.0007363640470430255,0.0073532541282474995,0.0003576625313144177
1772806935321177000,8.073177001953125,-0.0008900284301489592,0.007078948430716991,0.00011584750609472394
1772806935331109000,8.083109130859375,-0.0016000272007659078,0.006596117280423641,0.001493500778451562
1772806935341040000,8.0930400390625,0.0003201119543518871,0.005213404074311256,0.000728907180018723
1772806935350972200,8.10297216796875,-0.0011938951211050153,0.00637747161090374,-0.0003376888344064355
1772806935360904000,8.112904052734375,-0.0012362393317744136,0.005816610064357519,-0.0012945625931024551
1772806935370835000,8.1228349609375,-0.002457032445818186,0.005953230429440737,0.0002061286650132388
1772806935380767200,8.132767333984376,-0.0025273398496210575,0.004891428165137768,-0.0023787354584783316
1772806935390699300,8.14269921875,-0.00034354778472334146,0.004573712591081858,0.0021078919526189566
1772806935400631300,8.15263134765625,-0.0008684568456374109,0.005049886181950569,-0.0010183927370235324
1772806935410562000,8.16256201171875,-0.000931041082367301,0.006366286426782608,-0.00036671728594228625
1772806935420494000,8.172494140625,-0.0010271812789142132,0.004533765371888876,0.0007720504072494805
1772806935430426000,8.182426025390624,-0.0013760552974417806,0.005727394018322229,-0.002691923175007105
1772806935440358100,8.192358154296874,-0.0012234562309458852,0.0055090151727199554,-0.0010306433541700244
1772806935450289400,8.202289306640624,-0.0005286374944262207,0.00791225116699934,-0.0017270599491894245
1772806935460221400,8.212221435546875,-0.001493500778451562,0.005322061013430357,0.00023435817274730653
1772806935470153500,8.222153564453125,-0.001107076066546142,0.0038069887086749077,-0.0013755226973444223
1772806935480085200,8.232085205078125,-0.0017869811272248626,0.005848035216331482,-0.0012455604737624526
1772806935490016500,8.2420166015625,-0.001356347929686308,0.006228334736078978,-0.00009427589975530282
1772806935499948500,8.251948486328125,0.0021321268286556005,0.004749215207993984,-0.00014434332842938602
1772806935509880600,8.261880615234375,-0.0014775217277929187,0.0062491074204444885,0.0009030779474414885
1772806935519812600,8.2718125,0.0002671150432433933,0.0056770602241158485,-0.0007089334540069103
1772806935529743400,8.281743408203125,-0.00009347695595351979,0.004879443906247616,0.0022863238118588924
1772806935539675400,8.29167529296875,-0.0007076018955558538,0.005602492019534111,-0.001511876587755978
1772806935549607400,8.301607421875,-0.0011350392596796155,0.007538343779742718,-0.00044821001938544214
1772806935559539500,8.31153955078125,-0.0025632926262915134,0.0054304515942931175,-0.0007874967413954437
1772806935569472500,8.321472412109374,-0.0018274611793458462,0.0057436395436525345,0.00007163903501350433
1772806935579404300,8.331404296875,-0.0024927188642323017,0.006106362212449312,-0.0011494202772155404
1772806935589335600,8.34133544921875,-0.0008732505375519395,0.00589490681886673,-0.00034940673504024744
1772806935599267600,8.351267578125,-0.0025414545089006424,0.005089833401143551,-0.0001358212175546214
1772806935609199600,8.36119970703125,-0.0003616572648752481,0.005089833401143551,0.00040559942135587335
1772806935619131600,8.371131591796875,0.0016698020044714212,0.005823800805956125,-0.0000697748182574287
1772806935629062400,8.3810625,-0.0000601874417043291,0.006797452457249165,0.00038962045800872147
1772806935638994400,8.390994384765625,-0.00261841993778944,0.0033920682035386562,0.00013768543431069702
1772806935648926500,8.400926513671875,0.00140987744089216,0.004824316129088402,0.0031382690649479628
1772806935658857500,8.410857421875,-0.00015659387281630188,0.0028839372098445892,0.0031728900503367186
1772806935668789500,8.42078955078125,-0.00047617321251891553,0.007126086391508579,0.0006591323763132095
1772806935678721500,8.430721435546875,0.0002721750643104315,0.007420632056891918,0.000505734293255955
1772806935688653600,8.440653564453125,-0.0007235808880068362,0.00666349520906806,0.0008516788948327303
1772806935698584600,8.45058447265625,-0.0015600797487422824,0.006263222079724073,-0.0008263788768090308
1772806935708516400,8.460516357421875,-0.0026378610637038946,0.007297860458493233,0.00005858954318682663
1772806935718448400,8.470448486328126,-0.0038189729675650597,0.006317550782114267,-0.0002873550693038851
1772806935728380400,8.48038037109375,-0.0014239922165870667,0.006312224548310041,0.000215716048842296
1772806935738311400,8.4903115234375,-0.000755805114749819,0.00512791657820344,-0.0008231831016018987
1772806935748243500,8.500243408203126,-0.001517202821560204,0.047137949615716934,0.0070488546043634415
1772806935758175500,8.510175537109374,-0.0022594258189201355,0.04680478945374489,0.003736947663128376
1772806935768107500,8.520107421875,-0.0015393070643767715,-0.029143771156668663,-0.0041705104522407055
1772806935778038500,8.53003857421875,-0.0000010652644277797663,0.01624980941414833,-0.00016831177345011383
1772806935787970600,8.539970458984374,-0.0007619303651154041,0.004787298385053873,-0.00016964336100500077
1772806935797902600,8.549902587890625,0.0005789712304249406,-0.008637962862849236,-0.0018964370246976614
1772806935807834400,8.55983447265625,-0.0016418388113379478,0.02215244062244892,0.000630636524874717
1772806935817765400,8.569765380859375,-0.0005928196478635073,0.025534121319651604,0.0013116068439558148
1772806935827697400,8.579697509765625,0.00010492854926269501,0.03376595303416252,0.005142830312252045
1772806935837629400,8.58962939453125,-0.001710548298433423,0.04122333601117134,0.004644020460546017
1772806935847561500,8.5995615234375,-0.0013254552613943815,0.036018453538417816,0.0032645028550177813
1772806935857492500,8.609492431640625,0.0005478122038766742,0.02118358202278614,0.0033601103350520134
1772806935867424500,8.619424560546875,0.00021438446128740907,-0.01230353768914938,-0.004270112607628107
1772806935877356500,8.6293564453125,-0.001570998691022396,-0.025861958041787148,-0.0016740630380809307
1772806935887288600,8.63928857421875,0.0013877731980755925,-0.04869350418448448,-0.008384163491427898
1772806935897219300,8.64921923828125,0.00046818371629342437,-0.07232586294412613,-0.010865696705877781
1772806935907151400,8.6591513671875,-0.00007536746124969795,-0.0011041465913876891,-0.0017811221769079566
1772806935917083400,8.66908349609375,-0.003995540551841259,0.05290156230330467,0.003065032185986638
1772806935927015400,8.679015380859376,-0.00012010856153210625,-0.012461729347705841,-0.0027502465527504683
1772806935936946400,8.688946533203126,-0.0011408982099965215,-0.02141580916941166,-0.0014056164072826505
1772806935946878500,8.69887841796875,-0.0032658344134688377,0.024998826906085014,0.0028122980147600174
1772806935956810500,8.708810546875,0.0005544701125472784,0.01510092243552208,0.0020897823851555586
1772806935966742500,8.718742431640624,-0.003376089269295335,-0.013310479000210762,-0.0024378576781600714
1772806935976673300,8.72867333984375,-0.0016506272368133068,0.013371732085943222,0.0023403859231621027
1772806935986605300,8.738605224609374,-0.0005840312223881483,0.014935273677110672,0.0022892532870173454
1772806935996537300,8.748537353515625,-0.002019741339609027,-0.004344947170466185,-0.0011765845119953156
1772806936006469400,8.758469482421875,-0.00030306773260235786,0.006058425176888704,0.00022024342615623027
1772806936016400600,8.768400634765625,-0.0013845774810761213,0.011025220155715942,0.001246625673957169
1772806936026332400,8.77833251953125,0.00041545313433744013,0.0013318468118086457,-0.0011448930017650127
1772806936036264400,8.788264404296875,-0.0005739112384617329,0.007706922013312578,-0.0010309095960110426
1772806936046196500,8.798196533203125,-0.001773398951627314,0.010298177599906921,-0.0011265170760452747
1772806936056127500,8.80812744140625,0.00010998855577781796,0.0031182952225208282,-0.001059405505657196
1772806936066059300,8.818059326171875,-0.00032091091270558536,0.005811816547065973,-0.00008335694292327389
1772806936075991300,8.8279912109375,0.000031158982892520726,0.005270662251859903,0.0014149374328553677
1772806936085923300,8.83792333984375,-0.0013662016717717052,0.00301709515042603,0.0016088156262412667
1772806936095854600,8.8478544921875,-0.002597647253423929,0.008798818103969097,-0.0017947042360901833
1772806936105786600,8.85778662109375,-0.0010460896883159876,0.008974586613476276,0.001439971150830388
1772806936115718400,8.867718505859376,0.0005877596559002995,0.005118595436215401,-0.00205249828286469
1772806936125650400,8.877650390625,-0.0014231932582333684,0.005860552191734314,-0.0015518239233642817
1772806936135581400,8.88758154296875,-0.000333161442540586,0.006870422977954149,0.0014966964954510331
1772806936145513500,8.897513427734374,-0.0006588660762645304,0.003238936420530081,-0.0005784385721199214
1772806936155445500,8.907445556640624,-0.0011744539951905608,0.006201170384883881,-0.001913481275551021
1772806936165377300,8.917377197265624,-0.0017563547007739544,0.007791610434651375,-0.00003861583536490798
1772806936175308500,8.92730859375,-0.0020564929582178593,0.009554622694849968,-0.0014407701091840863
1772806936185240600,8.937240478515625,0.0014002900570631027,0.0062341936863958836,0.001514273346401751
1772806936195172600,8.947172607421875,-0.0013784521725028753,0.007816111668944359,0.00024740767548792064
1772806936205104400,8.9571044921875,-0.0024517059791833162,0.0063002402894198895,-0.000467118457891047
1772806936215035400,8.967035400390625,-0.0003126551164314151,0.004622981417924166,-0.00207699928432703
1772806936224967400,8.976967529296875,0.0012982910266146064,0.005815810989588499,-0.0008663262706249952
1772806936234899500,8.9868994140625,-0.0009219863568432629,0.0037499971222132444,-0.0012330436147749424
1772806936244830500,8.99683056640625,-0.0010716560063883662,0.005120726302266121,0.0007281082216650248
1772806936254762500,9.006762451171875,0.00017363809456583112,0.007956193760037422,0.001597630325704813
1772806936264694500,9.016694580078125,-0.00583764910697937,0.2475099265575409,0.028963740915060043
1772806936274626600,9.02662646484375,-0.00469488650560379,0.15344788134098053,0.014957111328840256
1772806936284558600,9.03655859375,-0.003022687742486596,0.042090993374586105,0.0018764632986858487
1772806936294489300,9.0464892578125,0.0005363606614992023,-0.08261232078075409,-0.00806378573179245
1772806936304421400,9.05642138671875,0.004817392211407423,-0.12087981402873993,-0.007605188991874456
1772806936314353400,9.066353515625,-0.00014407701382879168,0.01317998394370079,0.0008327704854309559
1772806936324284700,9.07628466796875,-0.0018967032665386796,-0.012505405582487583,-0.0038045919500291348
1772806936334216400,9.086216552734374,0.0015560849569737911,-0.09158238023519516,-0.012596485204994678
1772806936344148500,9.0961484375,0.002162220422178507,-0.08762972056865692,-0.011715511791408062
1772806936354080500,9.10608056640625,-0.00041092574247159064,-0.007753527257591486,-0.003213103860616684
