time,seconds_elapsed,z,y,x
1772882741791563500,0.0715634765625,0.3521475505292415,0.041549131093174214,0.8190576446615159
1772882741801496600,0.08149658203125,0.41829613921940323,0.23970219782739877,0.6951764865141361
1772882741811428600,0.0914287109375,0.3416968836635351,0.39989918952435255,0.49928391205780204
1772882741821361700,0.101361572265625,0.16483458836972711,0.46594139523059125,0.31139797231592237
1772882741831293700,0.111293701171875,0.08221066569685935,0.46184550421908493,0.4966381102567538
1772882741841226500,0.1212265625,0.0651771133095026,0.22453180896341798,0.8403798341535031
1772882741851159600,0.13115966796875,0.11360650543570518,-0.035299276918172834,0.9717432378150522
1772882741861091600,0.141091552734375,0.22107143937647342,-0.21713117731809614,1.119043996125087
1772882741871024600,0.151024658203125,0.32183775246143337,-0.29158289945125576,1.1612107476599514
1772882741880956700,0.160956787109375,0.36756548441350456,-0.3520765311196446,0.9622603930681943
1772882741890889700,0.1708896484375,0.35073943729698653,-0.3688371117845177,0.764647716820985
1772882741900821500,0.180821533203125,0.40702363457679747,-0.4078852198421955,0.46829215960782017
1772882741910754600,0.190754638671875,0.4176800531476736,-0.4644499876290559,0.4294800522631034
1772882741920686600,0.2006865234375,0.5810697034060954,-0.5924646653845906,0.5622343988263979
1772882741930619400,0.210619384765625,0.5878250228852033,-0.7602104650259017,0.8020182470552623
1772882741940551400,0.220551513671875,-0.05759527987837791,-0.9432251454696059,0.7726720333226025
1772882741950484500,0.230484375,0.02902735704183578,-0.9889128376722335,0.309392587310262
1772882741960416500,0.24041650390625,0.6043810208886862,-0.7055383791178464,0.3985384956303984
1772882741970350000,0.25035009765625,0.4011532812386751,-0.7635641593679785,0.25490027841590346
1772882741980283100,0.260283203125,0.4333785575389862,-1.072098778142035,-0.1776671454032883
1772882741990215000,0.27021484375,0.48028877727389335,-0.9989265744253992,-0.409622418898344
1772882742000147700,0.280147705078125,0.2714128026038408,-0.7632529014617204,-0.57971828879714
1772882742010079700,0.290079833984375,0.06735737995803356,-0.6175698805466294,-0.7212512773606926
1772882742020012800,0.3000126953125,-0.13652736229598522,-0.46138855423182246,-0.5484280283246189
1772882742029944800,0.30994482421875,-0.31035306637287136,-0.29711715270280836,-0.1865048606470227
1772882742039878000,0.3198779296875,-0.6297603768169879,-0.2901701100438833,0.36401436780318613
1772882742049810000,0.329809814453125,-1.0096972670257092,-0.4337570354625582,0.6045452715396881
1772882742059743000,0.339742919921875,-1.1522224084317683,-0.3602779577538371,0.4624493153311312
1772882742069675000,0.349675048828125,-1.247793490961194,-0.021314882968366144,-0.08032624018974602
1772882742079608000,0.359608154296875,-0.47359015641808505,0.3231082107886672,-0.9107232441850006
1772882742089540900,0.369540771484375,-0.23720541257560251,0.22154168723672626,-0.840738146071881
1772882742099473000,0.379472900390625,-0.8687193550616502,-0.3956450392112136,-0.45773222368136046
1772882742109406000,0.389406005859375,-0.7878373076200484,-0.6609513416334987,-0.550863438777998
1772882742119338000,0.399337890625,-0.5453326195925474,-0.6431032579928636,-0.6032651686012744
1772882742129271000,0.40927099609375,-0.28475509925782677,-0.5662582109823823,-0.5525494191035628
1772882742139202800,0.419202880859375,-0.2198690778493881,-0.5685667801856994,-0.5076448401026428
1772882742149136000,0.429135986328125,-0.3997030824303627,-0.6322273514524102,-0.7007943994611501
1772882742159068000,0.43906787109375,-0.43928807384371754,-0.3437348192319274,-0.9234443402007222
1772882742169001000,0.4490009765625,-0.773882432025671,-0.3162400785848498,-1.236386838544905
1772882742178933000,0.45893310546875,-0.7124222934126854,-0.39092736303955317,-1.0887490303002296
1772882742188865800,0.46886572265625,-0.6150520525068044,-0.44721477518975733,-0.9109104373201727
1772882742198798800,0.478798828125,-0.5400538024067878,-0.582333147470653,-0.6619767391584813
1772882742208731000,0.48873095703125,-0.4526011444032192,-0.7477893748700618,-0.3434628704227507
1772882742218664000,0.498663818359375,-0.29416765524744987,-1.0032596351936458,-0.2122331761434674
1772882742228596000,0.508595947265625,-0.06648527329862117,-1.0980506732612847,-0.2208573582343757
1772882742238529000,0.518529052734375,0.1508762056440115,-1.1522039959922432,-0.3685004271760583
1772882742248461000,0.5284609375,0.17471067021787165,-1.1137024159014224,-0.5700215090386569
1772882742258394000,0.53839404296875,0.04937982471883297,-1.0485589126005768,-0.7040827734820544
1772882742268326100,0.548326171875,0.0021972177833318707,-0.8946294568657874,-0.7934970869474113
1772882742278259000,0.558259033203125,-0.015713117438554764,-0.7676970213890075,-0.8205671724416315
1772882742288190700,0.568190673828125,-0.008257540735602378,-0.7390697695806622,-0.679397391167283
1772882742298123800,0.578123779296875,0.057661330851912496,-0.7512868615970015,-0.45711087691262364
1772882742308055800,0.588055908203125,0.2503203302145004,-0.8295090421795844,-0.32470190972089763
1772882742317988900,0.59798876953125,0.4141887039005756,-0.942156347194314,-0.2725109731040895
1772882742327922000,0.607921875,0.5020183785229921,-0.9445455804184079,-0.3379896997086704
1772882742337854000,0.61785400390625,0.4705781151205301,-0.8189324108466506,-0.46193844319954513
1772882742347787000,0.627787109375,0.4645961181014776,-0.7154159222707152,-0.6276273103110492
1772882742357719000,0.637718994140625,0.3735872289210558,-0.657979632346332,-0.7340393741980195
1772882742367651800,0.64765185546875,0.22907471309006214,-0.5615539788141847,-0.7252822133772074
1772882742377583900,0.657583984375,-0.19334581258296965,-0.3972600731924176,-0.5431989685647189
1772882742387517000,0.667516845703125,-0.8718974005758762,-0.2320139814123511,-0.19036548159793018
1772882742397449000,0.677448974609375,-1.3191162674188612,-0.12833061183691025,-0.16703619006723164
1772882742407382000,0.687382080078125,-1.399465230897069,-0.05258563502281904,-0.48865197034105656
1772882742417314000,0.69731396484375,-1.1101637203812598,-0.12774053698927162,-0.6688350806206464
1772882742427247000,0.7072470703125,-0.6940577846825122,-0.3451674823835492,-0.6862305981881917
1772882742437180200,0.71718017578125,-0.38470308169722556,-0.6730404233559966,-0.5405176205262542
1772882742447112000,0.72711181640625,-0.24251520942151544,-0.9724933255299926,-0.3039028673201799
1772882742457044700,0.737044677734375,-0.2736328167408705,-1.2366487043514847,-0.099581048823148
1772882742466976800,0.746976806640625,-0.5429360798448324,-1.5102680770888923,0.12069660982713103
1772882742476909800,0.756909912109375,-0.8307342000603676,-1.6851994043201206,0.29874796877503396
1772882742486841900,0.766841796875,-1.105844103616476,-1.676368447610736,0.5273959808856249
1772882742496775000,0.77677490234375,-1.5659668756961822,-1.365561207729578,0.9986354825243353
1772882742506707000,0.78670703125,-2.100914294874668,-0.9059832100510596,1.4932444615736602
1772882742516640000,0.796639892578125,-2.567399003201723,-0.4445136995375156,1.762797900046408
1772882742526572000,0.806572021484375,-2.7740046948522328,-0.0505763410270214,1.6520403543010354
1772882742536505000,0.816505126953125,-2.6934242607057093,0.23889818796813486,1.2192192845143377
1772882742546438000,0.82643798828125,-2.4426778140336274,0.3860737855285406,0.7168618832953274
1772882742556370000,0.836369873046875,-2.1665151865541934,0.37039632392525673,0.3881133285321295
1772882742566303000,0.846302978515625,-1.7857663954406975,0.14263853865265846,0.22554931544288992
1772882742576234800,0.85623486328125,-1.4864140310317278,-0.24282734411060808,0.09233443869575858
1772882742586168000,0.86616796875,-1.3307219495385885,-0.7105512388437986,0.11228592435643077
1772882742596099800,0.876099853515625,-1.3039566922098398,-1.1236591617703438,0.28911534029394387
1772882742606033000,0.886032958984375,-1.353970138657093,-1.3860013536900282,0.6130495535779744
1772882742615965000,0.89596484375,-1.3729215073645114,-1.622422922411561,0.8556391434099525
1772882742625898000,0.90589794921875,-1.2149737558990716,-1.7260364416211842,1.0973791306752712
1772882742635830000,0.915830078125,-1.1056810220092534,-1.701346237000823,1.4522731303684413
1772882742645762800,0.9257626953125,-0.9651982000857591,-1.7575006704211233,1.70517967768386
1772882742655696000,0.93569580078125,-0.7955570882171392,-1.7146973014831541,1.7066610022827982
1772882742665628000,0.9456279296875,-0.6579495294690132,-1.5445014783412216,1.6215597297109663
1772882742675561000,0.95556103515625,-0.673125471290946,-1.1787199547350407,1.4162046226434408
1772882742685493000,0.965492919921875,-0.7389373753726481,-0.6366115578860044,1.036806077095121
1772882742695426000,0.975426025390625,-0.7237801382511854,0.023714637586474418,0.5024747439883649
1772882742705358000,0.985358154296875,-0.652582449477911,0.7271499069452285,-0.11182692854255437
1772882742715291100,0.995291015625,-0.6488976234853268,1.3772504764795304,-0.7303818746037781
1772882742725223000,1.005222900390625,-0.725119862422347,1.8314631477326153,-1.192579114869982
1772882742735155700,1.01515576171875,-0.680160192233324,1.9827070176452397,-1.5428458200886845
1772882742745087700,1.025087646484375,-0.3070703914403915,2.002024297055602,-1.8347106052212416
1772882742755020800,1.035020751953125,0.2071247470885515,1.8659411713957785,-2.0251145191334188
1772882742764953900,1.044953857421875,0.7198170798391104,1.6069699172139167,-2.118588775514066
1772882742774886000,1.054885986328125,1.1932973461419343,1.3217244040906428,-2.122313056734204
1772882742784819000,1.06481884765625,1.6042261714637278,0.9806932908594608,-1.959044256376475
1772882742794751000,1.0747509765625,1.9719120673865078,0.6598106471657753,-1.6790027416370807
1772882742804684000,1.08468408203125,2.0443717389196157,0.4179980330556631,-1.0497745720006524
1772882742814616000,1.094615966796875,2.1798832021713257,0.10102759436964988,-0.34111469986140724
1772882742824548900,1.104548828125,2.4714690242320296,-0.08178922541439533,0.16833061379194258
1772882742834481000,1.11448095703125,2.5472826823681594,0.011345569878816604,0.65095251018852
1772882742844414000,1.1244140625,2.375263735452294,0.048620530784130096,0.8161210066877305
1772882742854346000,1.134345947265625,1.847767801323533,-0.09425415471196175,0.8614557937994599
1772882742864279000,1.144279052734375,1.1009557470530271,0.007170330020785332,1.0578456502534448
1772882742874212000,1.154212158203125,0.8384656710952519,0.6971382150411606,1.195287935437262
1772882742884143900,1.164143798828125,1.0120932222515344,1.1907692889690398,1.0104521770462394
1772882742894077000,1.174076904296875,0.9616390462994575,1.49353409217,0.7987604143030941
1772882742904009000,1.184009033203125,0.9540361700803041,1.615518549850583,0.38685909068733454
1772882742913941800,1.193941650390625,0.7352157245010137,1.4656138195872306,-0.11836845914050936
1772882742923873800,1.203873779296875,0.3446580715566873,1.3814426674723623,-0.39122298498526215
1772882742933806800,1.213806884765625,0.33237726665437217,1.2459434791803359,-0.5878166934482753
1772882742943739000,1.22373876953125,0.523926843470335,1.0454477948427199,-0.7561345938891172
1772882742953672000,1.233671875,0.765336721998453,0.7911568074315786,-0.8621974059469998
1772882742963604000,1.24360400390625,1.0651906061887741,0.5063420869410038,-0.7568173154562712
1772882742973537000,1.253537109375,1.2875824805140494,0.17293430819511413,-0.6955174819715321
1772882742983470000,1.263469970703125,1.4312532848238944,-0.15549100596308707,-0.6006622926265001
1772882742993402000,1.273402099609375,1.4086089068174361,-0.39419162553250786,-0.3426435168638825
1772882743003335000,1.2833349609375,1.3812386693328618,-0.5406523528218269,-0.2729455651290715
1772882743013266700,1.2932666015625,1.3660656501203774,-0.49055298165678973,-0.3400868181183934
1772882743023199700,1.30319970703125,1.3028344101816416,-0.44956689127385613,-0.4193804273247719
1772882743033131800,1.3131318359375,1.2599182285189627,-0.47310266516208643,-0.4899140992313623
1772882743043064800,1.32306494140625,1.2502175032377243,-0.43946576849818225,-0.5341013237431645
1772882743052996900,1.332996826171875,1.0131412699997424,-0.4713847553282976,-0.6019578853949904
1772882743062930000,1.342929931640625,0.6384598161011934,-0.48945057337284087,-0.5842297748722136
1772882743072862000,1.352862060546875,0.1874450641065836,-0.476600444149971,-0.5189996162012219
1772882743082795000,1.362794921875,-0.3351128290981054,-0.4695709839046001,-0.5135854821979999
1772882743092727800,1.372727783203125,-0.9003910891324282,-0.5020569569677115,-0.5239420410394668
1772882743102659800,1.382659912109375,-1.4085539617598055,-0.5608119282752275,-0.5137541167631745
1772882743112593000,1.392593017578125,-1.922367992016673,-0.5547305625349283,-0.32452202310934664
1772882743122525000,1.40252490234375,-2.2485580944687125,-0.581741903579235,-0.1682867746502161
1772882743132458000,1.4124580078125,-2.3336422697752712,-0.6052525430262088,0.018652824152261018
1772882743142390000,1.42239013671875,-2.209151966753602,-0.6145522862911224,0.191152832583338
1772882743152323000,1.432322998046875,-2.0236685581088065,-0.6564128214210272,0.2800451680012047
1772882743162254800,1.4422548828125,-1.808973668026924,-0.6155050569713115,0.48919104565382
1772882743172188000,1.45218798828125,-1.4876713376164437,-0.4772282206594944,0.6020886721678078
1772882743182120000,1.462119873046875,-1.1561574097931384,-0.3613777356892824,0.4703273552298546
1772882743192052700,1.472052734375,-0.7409270878851413,-0.25211773502528667,0.20938041706085203
1772882743201985800,1.48198583984375,-0.38527825123667714,-0.13201076165437697,-0.10648995142877102
1772882743211917800,1.491917724609375,-0.17951719371676444,0.008584872993826865,-0.4963631292402744
1772882743221851000,1.501850830078125,-0.007054594686627388,0.12127893975973128,-0.7777132423602044
1772882743231783000,1.511782958984375,0.11667407631278037,0.11153905151188373,-0.8285233921431004
1772882743241716000,1.521716064453125,0.20681611953079698,-0.013303133687376975,-0.8078424231640994
1772882743251648000,1.53164794921875,0.32473405842483044,-0.017602292186021804,-0.6069277827620506
1772882743261581000,1.5415810546875,0.38662382062673567,-0.05394435615539551,-0.4347118519693613
1772882743271513000,1.55151318359375,0.29992811847031114,-0.22352175513803957,-0.3508350066259503
1772882743281446000,1.56144580078125,0.10696867485642432,-0.37504385747015473,-0.3998610494710505
1772882743291377700,1.571377685546875,-0.09238543823063373,-0.4593716614514589,-0.4750162436984479
1772882743301310700,1.581310791015625,-0.36967502391338347,-0.4445762433797121,-0.610672960639745
1772882743311242800,1.59124267578125,-0.7056967845499516,-0.4310463151991367,-0.9146804573781788
1772882743321175800,1.60117578125,-1.1018465584129093,-0.3359270680904388,-1.0847646368391812
1772882743331108900,1.61110888671875,-1.5709499248057603,-0.2778624171346426,-1.1313773349322378
1772882743341041000,1.621041015625,-1.864977879321575,-0.28683132100999353,-1.1307217936329543
1772882743350974000,1.630973876953125,-1.797971797019243,-0.3114332628250122,-0.9865415784962475
1772882743360906000,1.640906005859375,-1.460403975984454,-0.38678924032151696,-0.7591445893600582
1772882743370838800,1.6508388671875,-0.9173521608054638,-0.3916261589586735,-0.4160612197741866
1772882743380770800,1.660770751953125,-0.43635728108882904,-0.1599210973650217,0.007739654341340064
1772882743390703900,1.670703857421875,-0.2630664145410061,0.2806862423837185,0.387035324037075
1772882743400636000,1.680635986328125,-0.38623102191686626,0.8293488831818103,0.5759517758704722
1772882743410569000,1.69056884765625,-0.8052315100133418,1.4932406621813774,0.41499227536842226
1772882743420501000,1.7005009765625,-1.5088462275922299,2.059579829445481,-0.06252645267024635
1772882743430434000,1.71043408203125,-2.1529133621811867,2.3450942226380107,-0.6828317495301366
1772882743440367000,1.7203671875,-2.2828338735580442,2.445738955169916,-1.2419248911887406
1772882743450299000,1.730298828125,-1.9590356346786022,2.391543839123845,-1.7588373258523642
1772882743460231700,1.740231689453125,-1.6417022078990935,2.191583576837182,-1.9311375739276408
1772882743470163700,1.750163818359375,-1.401872876560688,1.8245944310069082,-1.6700117720603942
1772882743480096800,1.7600966796875,-1.1309738686978816,1.4337795884311197,-1.1050016614429652
1772882743490028800,1.77002880859375,-0.6823153244405985,1.0668903958439826,-0.47396534640602767
1772882743499961900,1.7799619140625,-0.043269232884049415,0.7947071933895349,0.09387063528709114
1772882743509894000,1.789893798828125,0.6989654304683208,0.5775988124251366,0.5768874492853879
1772882743519827000,1.799826904296875,1.227205460962653,0.32718554323017596,0.8758854472987353
1772882743529759000,1.809759033203125,1.5243348886251449,0.046619712355732916,1.013622477645427
1772882743539692000,1.819692138671875,1.8800655583381651,-0.15259528452157972,1.0560730876229703
1772882743549624800,1.829624755859375,2.3935569325119257,-0.21885610141456127,1.0745112461112438
1772882743559556900,1.839556884765625,2.9441520026773214,-0.2846902173280716,1.1083091785557568
1772882743569490000,1.849489990234375,3.3564275664329526,-0.3499935873657465,1.119417578677833
1772882743579422000,1.859421875,3.5770752274394035,-0.43000352814793585,1.159202184316516
1772882743589355000,1.86935498046875,3.660124097526073,-0.49469665733277796,1.2995057041503488
1772882743599286800,1.879286865234375,3.4646704990088937,-0.6849795752137899,1.691891741565615
1772882743609219800,1.8892197265625,2.932719923558831,-0.9491209255099295,2.1561197570070623
1772882743619152000,1.89915185546875,2.067349878925085,-1.1466852325707673,2.4772674813777207
1772882743629085000,1.9090849609375,1.026329252874851,-1.1145552333384752,2.743962607809901
1772882743639017000,1.919016845703125,-0.1173351705700159,-0.8545219028830527,2.7480615675613285
1772882743648949800,1.92894970703125,-1.349626556494832,-0.44291386312544345,2.299670588199049
1772882743658882800,1.9388828125,-2.4090368257164956,-0.056469490718841546,1.466968010675162
1772882743668814800,1.94881494140625,-3.0945266885399816,0.28662323121726513,0.38085904655493796
1772882743678748000,1.958747802734375,-3.3073055158674713,0.5471469755381345,-0.8009909498341381
1772882743688680000,1.968679931640625,-3.1873931882858275,0.6399982777148485,-1.7018205765143035
1772882743698613000,1.978613037109375,-2.86742824395895,0.6079343294560909,-2.092404532943666
1772882743708545000,1.988544921875,-2.288936282086372,0.43196869074106214,-2.112594211274385
1772882743718478000,1.99847802734375,-1.539808352088928,0.1324275257617235,-1.8127780287459492
1772882743728410000,2.00841015625,-0.715727764698863,-0.22622750696539878,-1.5187630798421798
1772882743738343000,2.018343017578125,0.054203299352526664,-0.4252613020569086,-1.2244152457222341
1772882743748274700,2.028274658203125,0.4978793790221214,-0.6133791508585215,-1.0731580779366194
1772882743758207700,2.038207763671875,0.7592536026924848,-0.785396928730607,-0.9844022283799946
1772882743768139800,2.048139892578125,0.8860252946496009,-0.8671037365585565,-0.8114160438671708
1772882743778072800,2.05807275390625,0.9188356773614883,-0.9549059386521578,-0.6851121155522764
1772882743788006000,2.068005859375,0.8545470373243093,-1.0969213769704103,-0.5166056337367743
1772882743797938000,2.07793798828125,0.8420499593228101,-1.2291700390338898,-0.37704489509426053
1772882743807871000,2.08787109375,0.9703437462806701,-1.3286790455341337,-0.34573687976934014
1772882743817803000,2.097802978515625,1.1060141994863748,-1.4056126476109028,-0.31949615777134893
1772882743827735800,2.10773583984375,1.2390683327138423,-1.5206453864574432,-0.24738405756689608
1772882743837667800,2.117667724609375,1.2419161233603953,-1.6756225976794956,-0.02527180390059948
1772882743847601000,2.127600830078125,1.2194383340924977,-1.8171821089237927,-0.011309767913073301
1772882743857533000,2.137532958984375,1.1725427274048328,-1.8150643861174582,-0.1328818454004824
1772882743867466000,2.147466064453125,1.0256745883584022,-1.7320985181391237,-0.19075959548205138
1772882743877399000,2.15739892578125,0.6769482444494962,-1.640282404229045,-0.17805442768782376
1772882743887331000,2.1673310546875,0.26059564051330086,-1.5735814423531294,-0.24042473994828759
1772882743897264000,2.17726416015625,0.005407412001490593,-1.4816776501595974,-0.32760201507657766
1772882743907196000,2.18719580078125,-0.13916647862792014,-1.4081792832285165,-0.3351000426817685
1772882743917128700,2.197128662109375,-0.15420798041522502,-1.3796405864864587,-0.5079084594748914
1772882743927060700,2.207060791015625,-0.14569734170138834,-1.341166771185398,-0.6150136932577938
1772882743936993800,2.216993896484375,-0.2268319025993347,-1.2613216655761004,-0.6481918863687663
1772882743946925800,2.22692578125,-0.27123101629614826,-1.1484189244955778,-0.6595914514571428
1772882743956859000,2.23685888671875,-0.17594401140511035,-1.026474798825383,-0.7157330984611063
1772882743966791000,2.246791015625,-0.08596621883809566,-0.8854133002310991,-0.8005212134305387
1772882743976723200,2.25672314453125,0.08059738528132439,-0.8164139982849359,-0.9275010682456195
1772882743986655200,2.2666552734375,0.19258359603881836,-0.7568868735611438,-0.8547536658123135
1772882743996588300,2.27658837890625,0.06270692380368709,-0.7182172434270382,-0.6232447113126516
1772882744006521300,2.286521240234375,-0.27052666741907594,-0.6701794809669256,-0.340249899725616
1772882744016453400,2.296453369140625,-0.671542001491785,-0.6346136620670557,0.04902048988714814
1772882744026386200,2.30638623046875,-1.013207320973277,-0.6637146688669919,0.3493720944665372
1772882744036318200,2.316318115234375,-1.2950509166985749,-0.6759831988096237,0.572313419368118
1772882744046251300,2.326251220703125,-1.5052607703208922,-0.6960667864173651,0.8338000173717737
1772882744056183300,2.336183349609375,-1.704292811846733,-0.8065297331303357,1.1763009108945726
1772882744066116400,2.346116455078125,-2.2379653887838122,-0.9613426937013864,1.6564324517801403
1772882744076048400,2.35604833984375,-2.8443028044372793,-1.302163963574171,2.1827798003956675
1772882744085981400,2.3659814453125,-3.382089830955863,-1.6599696859955786,2.6103093396455046
1772882744095913200,2.375913330078125,-3.5714614792108534,-1.667401297301054,2.6594699686557055
1772882744105846300,2.38584619140625,-3.036801644802093,-1.0504507176965474,2.2280932524584234
1772882744115779000,2.395779052734375,-2.0370400808572766,-0.007141688448190689,1.455920693090558
1772882744125711000,2.405711181640625,-1.1779454632312059,1.2573340572446583,0.784274719767645
1772882744135644200,2.41564404296875,-0.9210662128925323,2.1213240456968543,0.5736980786595494
1772882744145576200,2.425576171875,-1.0933487791806458,2.5144500878244638,0.6861963305924087
1772882744155509200,2.43550927734375,-1.418719381943345,2.8216619335621593,0.8690968831371515
1772882744165441300,2.445441162109375,-1.842749096378684,3.0417993069589135,1.0795588118243962
1772882744175374300,2.455374267578125,-2.455296472588181,3.0154578280001876,1.3311878134846686
1772882744185306400,2.465306396484375,-3.0228941154807805,2.610234520843625,1.61034874599725
1772882744195239400,2.475239501953125,-3.032376814097166,1.836320524635911,1.8812734728232026
1772882744205171500,2.48517138671875,-2.5486510481119153,1.0644669680893422,2.1510696340106428
1772882744215104300,2.495104248046875,-1.6178548838436602,0.4968628954559564,2.2237691056489943
1772882744225037300,2.505037353515625,-0.33694004452526566,0.1922100865513086,1.9953822286926208
1772882744234969300,2.51496923828125,1.2357739673435688,0.23005495629906653,1.3574977282613514
1772882744244902400,2.52490234375,2.875846528214216,0.5085837283879519,0.43640119329579175
1772882744254834200,2.534834228515625,4.289094200748205,0.7831313218861817,-0.3816459591489285
1772882744264767200,2.544767333984375,5.279730208951235,0.9221548849120735,-1.0600355615131556
1772882744274699300,2.55469921875,5.773150854998827,0.960330594049394,-1.4391042905852198
1772882744284632300,2.56463232421875,5.832724741473793,0.9827212895557284,-1.548602191658318
1772882744294564400,2.574564453125,5.519405226510763,0.9815560451686381,-1.4236138759866357
1772882744304497200,2.5844970703125,5.006236508420109,0.9382651849746704,-1.094132111578062
1772882744314429200,2.59442919921875,4.265307666969299,0.8870762650072574,-0.6443605645775795
1772882744324362200,2.6043623046875,3.3148791659921404,0.7820639849156141,0.07923230747319758
1772882744334295300,2.61429541015625,2.331807455563545,0.5550538031399249,0.9956869349170475
1772882744344227300,2.624227294921875,1.4370546645790339,0.4217471564561128,2.0658304142728445
1772882744354160400,2.634160400390625,0.6707137339740992,0.2888081740409136,2.9219919010564683
1772882744364092400,2.644092529296875,0.048236499902606006,0.30888474738597865,3.6088317171841857
1772882744374025500,2.654025390625,-0.3665530925005674,0.5056581963300705,3.9710251531705256
1772882744383957500,2.66395751953125,-0.6440297251880168,0.828573807156086,3.797773157328367
1772882744393890300,2.673890380859375,-0.805303990727663,1.3234043200016021,3.119237643687427
1772882744403822000,2.683822021484375,-0.7849883479297161,1.839522535547614,1.9988205325782298
1772882744413755100,2.693755126953125,-0.6825239987552165,2.2140110972225666,0.7594278632808477
1772882744423687200,2.703687255859375,-0.36623452807068824,2.289069553077221,-0.3153656338378787
1772882744433620200,2.7136201171875,0.26184242570400235,2.115706205815077,-1.137127349826321
1772882744443553300,2.72355322265625,0.9768588272631168,1.754731790229678,-1.510643924663961
1772882744453485300,2.7334853515625,1.679670996287465,1.2675982616275547,-1.6714064412891865
1772882744463418400,2.74341845703125,2.302624615699053,0.726664169254899,-1.62074592911005
1772882744473350400,2.753350341796875,2.6286317627996203,0.2345090130984783,-1.3338368666887284
1772882744483283200,2.763283203125,2.6266496490716933,-0.20750994701385497,-0.952182651168108
1772882744493215200,2.77321533203125,2.333612459158897,-0.5621610047966241,-0.528401066274941
1772882744503148300,2.783148193359375,1.72138189381361,-0.7054378413528204,-0.26616299231685697
1772882744513080300,2.793080322265625,0.8036322581231594,-0.6208908416628838,0.05357106586359441
1772882744523013400,2.803013427734375,0.05662380449771881,-0.5147971960753203,0.22135727058053015
1772882744532945200,2.812945068359375,-0.5677350055366754,-0.37157881170809265,0.2816071566209197
1772882744542878200,2.822878173828125,-0.838551595813036,-0.23492110103070735,0.3497943384665996
1772882744552811300,2.832811279296875,-0.843044231057167,-0.018382628908753394,0.4136160916443914
1772882744562743300,2.842743408203125,-0.7180956628739833,0.15120587598979474,0.5043446295134723
1772882744572676000,2.852676025390625,-0.5221235934406518,0.2570622056901455,0.5003608205743134
1772882744582608100,2.862608154296875,-0.41367257107198235,0.4132774342745542,0.548735852164775
1772882744592541200,2.872541259765625,-0.3638981940776109,0.594222614967823,0.44362544546090066
1772882744602473200,2.88247314453125,-0.18401801226735115,0.7646247743368149,0.26161840768978
1772882744612406300,2.89240625,-0.18074001350998878,0.8092144421696662,0.13229367024898528
1772882744622338300,2.90233837890625,-0.15723989545702932,0.7611404393523931,0.02806362657621503
1772882744632271400,2.912271240234375,-0.10722177283465861,0.6925953109145164,0.06292188172861933
1772882744642203400,2.922203369140625,-0.12086918991506099,0.4476894069641828,0.08742255512624979
1772882744652136400,2.932136474609375,-0.06520224775075913,0.14965806202590465,0.14728358797952532
1772882744662068500,2.942068359375,0.0985123966783285,-0.12558861965239046,0.2883148375660181
1772882744672001300,2.952001220703125,0.15762801799178122,-0.4554062649518251,0.39278132034316654
1772882744681934300,2.961934326171875,0.23731238008141517,-0.6874760682046414,0.42324864706024523
1772882744691866000,2.9718662109375,0.32056466378569604,-0.8007073105871677,0.39791108444705603
1772882744701799200,2.981799072265625,0.3937199163675308,-0.8141782020568847,0.26624460618570445
1772882744711731200,2.991731201171875,0.5379273117721081,-0.7585615287750959,0.10475158332884311
1772882744721664300,3.001664306640625,0.6693009445667266,-0.6381038422703743,-0.03589899637699127
1772882744731596300,3.01159619140625,0.7135135957807303,-0.4663181195884943,-0.28995354468375445
1772882744741529300,3.021529296875,0.6532026272028684,-0.3013601971000433,-0.4688768641605973
1772882744751461400,3.03146142578125,0.5925953060269356,-0.10975859783589839,-0.6543138033151626
1772882744761394200,3.041394287109375,0.4612333636701107,0.07729951277971267,-0.8082352218739688
1772882744771326200,3.051326171875,0.34337329244315623,0.21638532738685606,-0.9538124443270265
1772882744781259300,3.06125927734375,0.2559410927057266,0.39985213551223275,-1.1054660640843212
1772882744791192300,3.0711923828125,0.17706921604275702,0.5829150390118361,-1.294415687534958
1772882744801124400,3.081124267578125,0.04747136074900627,0.7968383601993322,-1.3173643091849983
1772882744811057400,3.091057373046875,-0.0323684841632843,0.968747416999936,-1.3838134882569313
1772882744820989400,3.100989501953125,-0.07459902164936065,1.0939140118479729,-1.509608444136381
1772882744830922200,3.110922119140625,-0.078962477555871,1.2275801394939423,-1.4635042800873517
1772882744840854300,3.120854248046875,-0.22921266025602816,1.2402543276280165,-1.415379131604731
1772882744850787000,3.130787109375,-0.4140209461182356,1.1419570350050925,-1.3494728272378445
1772882744860719000,3.140718994140625,-0.5265086766570806,1.0165081160843372,-1.1770496834352613
1772882744870652200,3.150652099609375,-0.5534954677820205,0.7837023997724056,-0.9454049737267196
1772882744880584200,3.160584228515625,-0.5338631310731172,0.4579939433574676,-0.6935559726402163
1772882744890517200,3.170517333984375,-0.47129006278216834,0.131512749004364,-0.4068944552391767
1772882744900450300,3.1804501953125,-0.28439094212055205,-0.12471651299297809,0.05184095413535833
1772882744910382300,3.19038232421875,0.16908756963908672,-0.13004618358314038,0.5987511983081698
1772882744920315400,3.2003154296875,0.7666466355532408,0.4573416169285774,1.1340456773586571
1772882744930247400,3.210247314453125,1.0027467172354458,1.081347375741601,1.5229584857054055
1772882744940180200,3.22018017578125,0.7766758621364831,1.880119918873906,1.5200727011360227
1772882744950112300,3.2301123046875,-0.13278642220199108,2.9964374857097864,0.9963222371459006
1772882744960045300,3.24004541015625,-1.5402297923713921,3.9554029288858175,0.009739157595485447
1772882744969977900,3.249977783203125,-2.784841730687022,4.577627649500966,-1.1065168883115053
1772882744979911000,3.259910888671875,-3.313132614585757,4.619742451652884,-2.061218390432745
1772882744989842700,3.2698427734375,-3.1099709259092805,4.112909950846434,-2.5812773064285515
1772882744999776000,3.27977587890625,-2.025766991692781,3.1070798806428908,-2.32438548886925
1772882745009708800,3.289708740234375,-0.5535632723212242,1.7609487650483846,-1.2735976481728255
1772882745019640600,3.299640625,0.7169312952697277,0.35726036349833007,0.011495061352103948
1772882745029573600,3.30957373046875,1.7209616225749254,-0.805773946326971,1.3977803465500473
1772882745039505700,3.319505615234375,2.3229613012850283,-1.7981413083672522,2.6312854921787974
1772882745049438700,3.329438720703125,2.6595272518008946,-2.4892951883018015,3.494416817975044
1772882745059370800,3.339370849609375,2.865129903888702,-2.833956766989827,4.015677657106519
1772882745069303800,3.3493037109375,3.153814159289002,-2.957944381186366,4.201987579703331
1772882745079235800,3.35923583984375,2.957690114164352,-2.714053207236528,4.121851089932024
1772882745089169000,3.3691689453125,2.421702830544114,-1.9439152224361895,3.5228836185246704
1772882745099101700,3.379101806640625,1.6965128254950046,-0.955159036630392,2.607282685300708
1772882745109033700,3.38903369140625,1.0631991401106118,-0.16281681880652904,1.6226792352601884
1772882745118966800,3.398966796875,0.7758990325450896,0.5206745636761189,0.7151195696726441
1772882745128898800,3.40889892578125,0.39355215858519077,0.9423825571656227,0.013648732254654168
1772882745138832000,3.418831787109375,-0.1306762981802225,1.0736363629728556,-0.5973831248253584
1772882745148763600,3.428763671875,-0.7269599373310804,1.0890338385909795,-0.7809010786160826
1772882745158696700,3.43869677734375,-1.2957833226263522,0.9048276102751492,-0.7705677545197308
1772882745168628700,3.448628662109375,-1.6147177548617124,0.6428922455906868,-0.749487264829129
1772882745178561800,3.458561767578125,-1.665277144753933,0.35775954519212244,-0.7408886555708944
1772882745188493800,3.468493896484375,-1.3857932638972996,0.022777064475417136,-0.8226328727997839
1772882745198426600,3.478426513671875,-0.9398720356494188,-0.29353227995336056,-0.9257279210932552
1772882745208359700,3.488359619140625,-0.4894605102449655,-0.5946919860452413,-0.9143025639764965
1772882745218291700,3.498291748046875,-0.04663724801242351,-0.8358177869349718,-0.8380902619116007
1772882745228224800,3.508224853515625,0.4527046047776937,-0.936408158931136,-0.7048188326716422
1772882745238156800,3.51815673828125,0.8717769890666007,-0.968755015784502,-0.5772388930715621
1772882745248089900,3.52808984375,1.1552420485138892,-0.9090086953520774,-0.49528658604994413
1772882745258022000,3.53802197265625,1.2292355054855346,-0.8051543531239033,-0.3930447935849428
1772882745267955000,3.547954833984375,1.0795488018870354,-0.7880477355003357,-0.14835194786339997
1772882745277887000,3.557886962890625,0.8451748133450746,-0.7800754414469003,0.13347279703095555
1772882745287819800,3.56781982421875,0.5912807162970304,-0.7317477561295032,0.46638884673714637
1772882745297751600,3.57775146484375,0.33823534503281116,-0.7186153028339147,0.7503868440173566
1772882745307684600,3.5876845703125,0.12397592375874518,-0.7644318821132182,0.886317847855389
1772882745317616600,3.59761669921875,0.06259001942574978,-0.766164989516139,0.903500161063671
1772882745327549700,3.6075498046875,0.08924714020490646,-0.7900643360197543,0.9052993194401263
1772882745337482800,3.617482666015625,0.11567337483763694,-0.8189356257170438,0.7607263055935501
1772882745347414800,3.627414794921875,0.12447568997442722,-0.7941402071565389,0.49426104239448904
1772882745357347800,3.637347900390625,0.10086509728431702,-0.798957252049446,0.23434096305519342
1772882745367279900,3.64727978515625,-0.01604044969677925,-0.8934136513352393,0.10685966152399778
1772882745377212700,3.657212646484375,-0.18296178121268747,-1.0720242516010998,0.024490444264560936
1772882745387144700,3.667144775390625,-0.34312720872759817,-1.208978899398446,-0.0110167763158679
1772882745397077800,3.677077880859375,-0.4730231701850891,-1.2653262250423432,-0.09362301720157265
1772882745407009800,3.687009765625,-0.5310948354035616,-1.1809189260840416,-0.3699212537594139
1772882745416942800,3.69694287109375,-0.5290373183518647,-1.0999047766953707,-0.7056861170254647
1772882745426876000,3.7068759765625,-0.5688122793793678,-0.9849082782059907,-0.8833389781750738
1772882745436808000,3.716807861328125,-0.5368132130503654,-0.8782318642944097,-0.9982428299449384
1772882745446741000,3.726740966796875,-0.5192208577364683,-0.7824918549388646,-0.9836514100126922
1772882745456672800,3.7366728515625,-0.5078454772412777,-0.6588777502298355,-0.9769428522847592
1772882745466605600,3.74660546875,-0.516589924710989,-0.6605991671949625,-0.7862896397866308
1772882745476537600,3.75653759765625,-0.5550274996548891,-0.745720751902461,-0.4265738459601998
1772882745486470700,3.766470703125,-0.6719733786463737,-0.7582587464362383,-0.013115209899842738
1772882745496402700,3.776402587890625,-0.7878618575394153,-0.7503361367434263,0.3099890553660691
1772882745506335700,3.786335693359375,-0.8992413345754146,-0.6853618525296449,0.5392904168188571
1772882745516267800,3.796267822265625,-0.8387386428177356,-0.6569289542496204,0.6381279537983239
1772882745526200800,3.806200927734375,-0.7056412549704313,-0.6382283454328775,0.665739014301449
1772882745536134000,3.8161337890625,-0.5707131445646285,-0.6201806475669145,0.6830095903150737
1772882745546066000,3.82606591796875,-0.45198388928771016,-0.6181903505325317,0.6805934690840542
1772882745555998700,3.835998779296875,-0.4127554562270641,-0.645256636634469,0.760756408470869
1772882745565930800,3.8459306640625,-0.3397749756902456,-0.7488929521977901,0.8011667447924613
1772882745575863800,3.85586376953125,-0.28951076935231684,-0.8402899639129638,0.843432061330974
1772882745585795800,3.8657958984375,-0.23488953684866426,-0.9252928906768559,0.8311037640251219
1772882745595729000,3.87572900390625,-0.2170294705092907,-0.961548445406556,0.7793504881732165
1772882745605660700,3.88566064453125,-0.4232400253623724,-0.9293389511972665,0.7814484833657741
1772882745615593700,3.89559375,-0.652662528976798,-0.9484569086432456,0.8292432308502495
1772882745625525800,3.90552587890625,-0.7779021890610456,-0.9275964914441108,0.7515216932661831
1772882745635458800,3.915458740234375,-0.8106167101830244,-0.8692571152001619,0.657626142733544
1772882745645391600,3.9253916015625,-0.9350924001574515,-0.8997060294777154,0.605176701311022
1772882745655323600,3.93532373046875,-1.1827508176863193,-1.0278817430138587,0.6471184849835931
1772882745665256700,3.945256591796875,-1.625136273023486,-1.0842208853513002,0.884057501707971
1772882745675188700,3.955188720703125,-2.0521271753519774,-1.203811141371727,1.1654453164897858
1772882745685121800,3.965121826171875,-2.2689450489372014,-1.3490993177503348,1.277102003031969
1772882745695053800,3.9750537109375,-2.1903753700912,-1.501622706079483,1.3343252347275614
1772882745704987000,3.98498681640625,-1.9639502947270868,-1.6279080758243798,1.4132695921048521
1772882745714917600,3.994917724609375,-1.639782053491473,-1.7985796997845171,1.4612708219468593
1772882745724850700,4.0048505859375,-1.295572894746065,-1.9865216074973344,1.530574221406132
1772882745734782700,4.01478271484375,-0.8740583780020474,-2.124752851101756,1.5072997288025916
1772882745744715800,4.0247158203125,-0.6052525430262088,-2.215045116445422,1.36679776378721
1772882745754647800,4.034647705078125,-0.5115606983721256,-2.1080600749760863,1.1531257870122789
1772882745764580600,4.04458056640625,-0.37560558300614355,-1.4053607186764479,0.5181204952791333
1772882745774512600,4.0545126953125,0.18957681543827057,-0.3455103044718504,-0.27835589974001046
1772882745784445700,4.06444580078125,1.0730120935946703,0.6069827278196811,-0.9188651957169175
1772882745794378800,4.074378662109375,1.880884473505616,1.6466577844798564,-1.1746377999879418
1772882745804310800,4.084310791015625,2.013070591726899,2.1034107878655193,-0.7898470400072634
1772882745814243800,4.094243896484375,1.4048638750702143,1.8797212749451397,0.14943258270695806
1772882745824175900,4.10417578125,0.19937106422185896,1.346983933031559,1.7803771036177873
1772882745834109000,4.11410888671875,-1.6192314328938722,0.4976923320174217,3.7954973213508723
1772882745844041000,4.124041015625,-3.519712002751231,-0.5666115544646978,5.414841859230399
1772882745853973800,4.133973876953125,-4.465606367430091,-1.2443512415528297,6.151953188219666
1772882745863905800,4.14390576171875,-4.370890440425277,-1.2960212230354546,5.824576506331563
1772882745873838600,4.153838623046875,-3.614504502123594,-0.5682651668906211,4.241510611796379
1772882745883770600,4.1637705078125,-2.08365920869112,0.5631511848777532,1.9690880960069597
1772882745893703700,4.17370361328125,-0.11118190863728522,1.5258821180671454,-0.2300917811781168
1772882745903636700,4.18363671875,1.5480957034409046,2.1488813301861285,-2.187870109272003
1772882745913568800,4.19356884765625,2.433943303436041,2.4723458070665596,-3.4056408024132248
1772882745923501800,4.203501708984375,2.6590035201877353,2.665474177506566,-3.9422751517653465
1772882745933433900,4.213433837890625,2.431467853233218,2.6924495704546567,-4.066976174928247
1772882745943366700,4.22336669921875,1.911450292161107,2.610402278625965,-3.9928225589588284
1772882745953298700,4.233298583984375,1.2296756504684685,2.4644930477395652,-3.841084475788474
1772882745963231700,4.243231689453125,0.8325035478204488,2.147492506176233,-3.5781525012820956
1772882745973163300,4.253163330078125,0.6884937208145856,1.7524881029561161,-3.1331489724010226
1772882745983096300,4.263096435546875,0.8578004861623049,1.218654490238428,-2.6308251811906693
1772882745993029400,4.273029296875,1.2700117525100707,0.6625567310035229,-2.050392606644332
1772882746002961200,4.282961181640625,1.823494360810518,0.09309884719699621,-1.2236569747008383
1772882746012894200,4.292894287109375,2.4489643469572067,-0.46181057903617617,-0.24659414929822085
1772882746022826200,4.302826171875,3.010224018999934,-0.8598492353856563,0.7258087214693427
1772882746032759300,4.31275927734375,3.341972924622893,-0.9578121814876794,1.651779219146818
1772882746042691300,4.32269140625,3.2082331472188232,-0.752686499261856,2.2334565330572427
1772882746052624100,4.3326240234375,2.6589140883386135,-0.31965631676912304,2.306521623137593
1772882746062556200,4.34255615234375,1.7070482480347156,0.28931700034588576,1.9921070064142345
1772882746072489200,4.3524892578125,0.8099287279188633,0.9170482094228267,1.4220155008792876
1772882746082421200,4.362421142578125,0.19493805021047592,1.5233961464703083,0.8938980738513171
1772882746092355300,4.372355224609375,-0.19494447995126246,1.8022426062062382,0.2756793740071356
1772882746102287400,4.382287353515625,-0.6442202793240547,1.691601380316913,-0.19415493700876832
1772882746112220200,4.39222021484375,-0.8544342245995998,1.133640165297687,-0.2978226706236601
1772882746122152400,4.40215234375,-0.5271417138636112,0.4157300881236791,-0.20572291746661064
1772882746132085200,4.412085205078125,0.18883271907269952,-0.4779331540584564,0.15508797812014818
1772882746142017300,4.422017333984375,0.9593956512868403,-1.3649115116491912,0.485486199786514
1772882746151950300,4.431950439453125,1.5429191775858402,-1.9082544187292456,0.5835023373804986
1772882746161882000,4.441882080078125,1.832320056822896,-2.064555572031438,0.35983752050995826
1772882746171815200,4.451815185546875,1.7653911314100026,-1.795157616381347,-0.20405542264580726
1772882746181748200,4.461748291015625,1.2691361387193203,-1.3929302761703728,-0.8486772685080766
1772882746191680300,4.47168017578125,0.6778127523243427,-1.0845546473503112,-1.3474351839303969
1772882746201613300,4.48161328125,0.016546061131358147,-0.5942050793111324,-1.5437649807602167
1772882746211545300,4.49154541015625,-0.7638637268364429,-0.12110475223660469,-1.3927778620876372
1772882746221478100,4.50147802734375,-1.262097910645604,-0.09785364050865172,-1.1677398571677506
1772882746231410200,4.51141015625,-1.6088368801295756,-0.14372867197692393,-0.8190265188708901
1772882746241343200,4.52134326171875,-1.654538308596611,-0.17922317920625208,-0.40808424954563377
1772882746251275300,4.531275146484375,-1.461376035887003,-0.3054465896308422,-0.008203618591278791
1772882746261208300,4.541208251953125,-1.1246534335047005,-0.3775222302824259,0.2026008399233222
1772882746271140400,4.551140380859375,-0.7120785945415496,-0.2727566184282303,0.3284276522457599
1772882746281073400,4.561073486328125,-0.2756704600483179,-0.1315133335262537,0.32001214446946974
1772882746291006200,4.571006103515625,0.10140694907605648,-0.06843816093206405,0.24729542943537233
1772882746300938200,4.580938232421875,0.4118582151263952,-0.00888356367945671,0.22331205791011452
1772882746310871300,4.590871337890625,0.48223991134166716,-0.02575403445959091,0.30170988732054826
1772882746320803000,4.600802978515625,0.21253508169949054,-0.06641629971563816,0.5421384997263551
1772882746330736000,4.610736083984375,-0.17590835556983947,-0.16000059234201908,0.7651613654315471
1772882746340668200,4.620668212890625,-0.39679859316051,-0.378984119528532,0.6823996417231858
1772882746350601200,4.630601318359375,-0.254994751766324,-0.5692699600189924,0.4242266983121633
1772882746360533200,4.640533203125,0.0071831895023584365,-0.7294675362378359,0.12553513589948415
1772882746370466300,4.65046630859375,0.24132862998545168,-0.9192115249365568,-0.21585048985779284
1772882746380399000,4.660399169921875,0.4120750727474689,-1.0834797115951775,-0.5314551931485534
1772882746390331400,4.670331298828125,0.5574550190627574,-1.1735311539202928,-0.8244407990045846
1772882746400264200,4.68026416015625,0.5926847378760576,-1.2222849556952715,-1.0597867013186215
1772882746410196200,4.6901962890625,0.43860827488601206,-1.284386314821243,-1.1548523185439408
1772882746420129300,4.70012939453125,0.06667875004410743,-1.2863269274950027,-1.1128130658462643
1772882746430061300,4.710061279296875,-0.43870822812914845,-1.1517460230916738,-0.9900188992179929
1772882746439994400,4.719994384765625,-1.0694582005053759,-0.9465659803301095,-0.9163014827087521
1772882746449926400,4.729926513671875,-1.6809458385288714,-0.6698609165370464,-0.8134377589531242
1772882746459859500,4.739859375,-1.9530600674003362,-0.3777186296373605,-0.8477705289267004
1772882746469791200,4.749791259765625,-1.8203250831246376,-0.04614215797185898,-1.06313265074566
1772882746479724300,4.759724365234375,-1.5266951880156994,0.14208850355446337,-1.3356051915355025
1772882746489657000,4.769656982421875,-1.0877414606928826,0.239058346965909,-1.5080639911733567
1772882746499589000,4.779589111328125,-0.637811581325531,0.24623861385881898,-1.5832020881354807
1772882746509522200,4.789522216796875,-0.3535854743778705,0.1947428198993206,-1.5248453223653138
1772882746519454200,4.7994541015625,-0.2004103441417217,0.11785539505183697,-1.298412648216635
1772882746529387300,4.80938720703125,-0.27483985444307324,-0.1092880577147007,-0.9175865540832281
1772882746539319300,4.8193193359375,-0.49125499244630333,-0.387984587585926,-0.433581240504235
1772882746549252400,4.82925244140625,-0.7646206826835871,-0.6849930192172526,0.034047377160936594
1772882746559184400,4.839184326171875,-1.0305606068342923,-0.8812643638581037,0.4050242774531245
1772882746569117200,4.8491171875,-1.1116484059810638,-0.7899222972005605,0.4141967410765588
1772882746579050200,4.85905029296875,-0.8062953398525714,-0.2907803508967161,-0.08175225440487265
1772882746588982300,4.868982177734375,-0.2663070038974285,0.5574029966145754,-0.6805585439011455
1772882746598915300,4.878915283203125,-0.12476035213470459,1.47404496332407,-1.252805912295729
1772882746608847400,4.888847412109375,-0.017682371684908865,2.2438789967417714,-1.5158961461037397
1772882746618780400,4.898780517578125,-0.11748539269566535,2.6551480138033625,-1.5287898222073912
1772882746628712200,4.908712158203125,-0.9754109665423631,2.7285680548012254,-1.4609335528165102
1772882746638645200,4.918645263671875,-1.9904455029428003,2.7084090638697145,-1.26517819487378
1772882746648577300,4.928577392578125,-3.0084827282905575,2.3732068029224873,-1.0418228823438287
1772882746658510300,4.93851025390625,-3.391798739543557,1.6824188336908816,-0.8052578134983778
1772882746668442400,4.9484423828125,-2.622998725348711,1.1306547197461128,-0.42840339947491884
1772882746678375200,4.958375244140625,-1.4035352568149566,0.49658115590512747,0.07509981077834964
1772882746688308200,4.96830810546875,-0.017571312525868413,-0.23919804769754408,0.6277556128658354
1772882746698240300,4.978240234375,1.3696481847822666,-0.5947399168401957,1.2457657845258712
1772882746708173300,4.98817333984375,2.499124508398771,-0.7430301976442336,1.8198880068816243
1772882746718105300,4.998105224609375,3.3757010067015885,-0.6420797601640225,2.3679678793556986
1772882746728038400,5.008038330078125,3.8322301382035016,-0.5081657952368259,2.686459097868204
1772882746737970400,5.017970458984375,3.7292619311600923,-0.13735913694500923,2.7237562706053255
1772882746747903200,5.0279033203125,3.2107226259469983,0.38472061735391616,2.6826678888916966
1772882746757835300,5.037835205078125,2.4912229414939877,1.1273872423827647,2.2996482302367687
1772882746767768300,5.047768310546875,1.7470242845922708,1.781662467253208,1.5009170420281588
1772882746777701400,5.057701416015625,1.095067858058214,2.1701853994995353,0.6584487111628056
1772882746787633200,5.067633056640625,0.49875849994421,2.1559277415663,0.09932619727924466
1772882746797566200,5.077566162109375,-0.13459551745057105,1.8414999731004238,-0.03422916346862912
1772882746807498200,5.087498291015625,-0.6445990495085716,1.5959131011486052,-0.19207184712439773
1772882746817431300,5.097431396484375,-1.2500941691190004,1.1123667833834885,-0.04852949149981141
1772882746827363300,5.10736328125,-1.8900152899444103,0.41036183908879753,0.36472426963821053
1772882746837296000,5.117296142578125,-2.482684830251336,-0.23799627069234847,0.7795423574835062
1772882746847228400,5.127228515625,-2.9039158538788556,-0.7021791318178177,1.0372140733741224
1772882746857161200,5.1371611328125,-3.0142975520491597,-0.8742752356231213,0.9985533571988343
1772882746867094300,5.14709423828125,-2.794906028583646,-0.8412000644952058,0.6082974636800587
1772882746877026300,5.1570263671875,-2.1612521514594554,-0.6378168420225382,0.00116027595102787
1772882746886959400,5.16695947265625,-1.2085650579005478,-0.46279052998423575,-0.6802500624738633
1772882746896891400,5.176891357421875,-0.10615268229842185,-0.37407530469894407,-1.1552490627765655
1772882746906824400,5.186824462890625,0.914306217238307,-0.41341655048429965,-1.436731716234982
1772882746916756200,5.196756103515625,1.7754215270370244,-0.42977322652339933,-1.5305252676978707
1772882746926689300,5.206689208984375,2.3943033669650555,-0.5963023438513279,-1.3390841196924448
1772882746936621300,5.216621337890625,2.572859022173285,-0.8281646418333053,-0.9008815029978752
1772882746946554000,5.22655419921875,2.447798225787282,-1.0622206504672764,-0.21694500709623096
1772882746956487200,5.236487060546875,2.230655358031392,-1.2780723093688486,0.3868057530649006
1772882746966419200,5.246419189453125,1.9938176097244023,-1.378683139631152,0.7668275450780987
1772882746976353000,5.25635302734375,1.8406904102832078,-1.3864338998883963,1.0818361821718514
1772882746986285000,5.26628515625,1.7647136705398558,-1.2526689880430697,1.1939977494962513
1772882746996217900,5.2762177734375,1.6470523367553949,-1.0332570063114166,1.0820983402393758
1772882747006150000,5.28614990234375,1.3904314450919628,-0.8725316068261861,0.8002645352557302
1772882747016083000,5.2960830078125,1.1169815837025643,-0.7417407423555851,0.5588464734211563
1772882747026015000,5.306014892578125,0.81778645568192,-0.5888689789801835,0.3915622999422252
1772882747035948000,5.315947998046875,0.4760901565402746,-0.44472646550536155,0.10017039301842451
1772882747045880000,5.325880126953125,0.03229308083951473,-0.3505243332415819,-0.18936025007814167
1772882747055813000,5.335813232421875,-0.47223640372157094,-0.4028372888028621,-0.34421675752997394
1772882747065746200,5.34574609375,-0.8242121048152447,-0.5066740953743457,-0.39421602932140226
1772882747075678200,5.35567822265625,-1.023772554129362,-0.5649561884731054,-0.3422653312012553
1772882747085611000,5.365611083984375,-1.1552601686924695,-0.6684247462540864,-0.44920390318036074
1772882747095542800,5.375542724609375,-1.2317682388335465,-0.8288023552149534,-0.3953000251658261
1772882747105475800,5.385475830078125,-1.158860823532939,-1.0212123482525348,-0.3708342769511044
1772882747115408000,5.395407958984375,-0.9946808996796608,-1.1198586004436015,-0.40538361228480935
1772882747125341000,5.4053408203125,-0.8184814522087573,-1.226664778214693,-0.4571662603616714
1772882747135273000,5.41527294921875,-0.665995473280549,-1.2746136933475731,-0.5714682007156312
1772882747145206000,5.4252060546875,-0.5523527274876833,-1.2098644500613212,-0.6834671248242259
1772882747155139000,5.43513916015625,-0.45389644491076464,-1.0507616833418607,-0.7989242265626788
1772882747165071000,5.445071044921875,-0.42445173923969265,-0.8501789052426815,-0.8744052917435765
1772882747175004000,5.45500390625,-0.48443128390610213,-0.5714040494382381,-0.8666771817095578
1772882747184936000,5.46493603515625,-0.6604501141130924,-0.2696311798840761,-0.8235489647313952
1772882747194869000,5.474868896484375,-0.6576759732246399,0.0036211131066083905,-0.882889919233322
1772882747204801000,5.484801025390625,-0.499657494610548,0.11756722576022148,-0.9430160327635705
1772882747214734000,5.494734130859375,-0.2949415622293949,0.1040723688930273,-0.6858350229993462
1772882747224666000,5.504666015625,-0.13164894260466098,-0.00020575170516967773,-0.19709172111302614
1772882747234599200,5.51459912109375,-0.12592355069518088,-0.231585234606266,0.5321690405063331
1772882747244532200,5.5245322265625,-0.21725626500248907,-0.46913843770623204,1.3073143320746718
1772882747254464000,5.534464111328125,-0.35390871498286725,-0.7165531096071004,2.118614056085795
1772882747264396800,5.544396728515625,-0.6292793153017759,-0.9324392553001641,2.814568175908923
1772882747274328800,5.554328857421875,-1.0450725317895413,-0.9828922622084617,3.149522599574923
1772882747284262000,5.564261962890625,-1.1882581829309462,-0.48045770410001276,2.7826778306514024
1772882747294194000,5.57419384765625,-0.5280833786278962,0.5236562098354101,1.8575239100538192
1772882747304127000,5.584126953125,0.23147008379399775,1.5931576649606227,0.6612991321578622
1772882747314059000,5.59405908203125,0.6980629286706447,2.3695377590209246,-0.1737745584115386
1772882747323992000,5.603991943359375,0.7471236044377089,2.7692987091183663,-0.3499301667407155
1772882747333925000,5.613925048828125,0.14009294582307338,2.854154920887947,0.004555763608217239
1772882747343857200,5.623857177734375,-0.9352975673407316,2.68603765758574,0.5881282436154782
1772882747353790000,5.6337900390625,-2.218787810105085,2.289855735018849,1.3245659111268817
1772882747363722000,5.643721923828125,-3.3771792625606056,1.6209370677679775,1.9507554437197743
1772882747373655000,5.653655029296875,-3.952764397075772,0.8392495149493217,2.2937620948076245
1772882747383587000,5.663587158203125,-3.5681571769684552,0.35060791987180706,2.4596628511041403
1772882747393520000,5.67352001953125,-2.154714274123311,0.3050754182308912,2.0757225704729554
1772882747403452000,5.683451904296875,-0.336489962670207,0.5281780711740255,1.1390260961197316
1772882747413385000,5.693385009765625,1.5089543641418217,0.8523042268335819,-0.08908478925004601
1772882747423317000,5.70331689453125,3.265903245899081,1.3686889843612908,-1.1423469111055136
1772882747433250000,5.71325,4.32813792489171,1.7305343375623226,-1.926632225332409
1772882747443182800,5.723182861328125,4.7029047189861535,1.853864364632964,-2.3464142191953954
1772882747453115000,5.733114990234375,4.533777986380458,1.9191519525796175,-2.2997217338643967
1772882747463048000,5.7430478515625,4.170698122948408,1.9938561881691217,-1.8680371207617221
1772882747472980000,5.75297998046875,3.636248716419935,2.0846786148667333,-1.345155110169202
1772882747482913000,5.7629130859375,2.94441562204957,2.1568898645967245,-0.8066121507167816
1772882747492845000,5.772844970703125,2.4519711275577545,2.13183199570775,-0.37716844840869307
1772882747502778000,5.782778076171875,2.307657933691144,2.122073402759433,-0.10341332046240567
1772882747512710100,5.792710205078125,2.421611645129323,2.140409854438901,0.0610759616009891
1772882747522643200,5.802643310546875,2.487291447263956,2.007221865698695,0.2669241128824651
1772882747532576000,5.812575927734375,2.362058216920495,1.8690987586438654,0.6472730910234152
1772882747542508000,5.822508056640625,2.0812562392026184,1.8354595238924025,1.032940049316734
1772882747552441000,5.832441162109375,1.6635545587450264,1.8009125266462565,1.3059637942485511
1772882747562372900,5.842372802734375,1.3298907594114542,1.8752946906745434,1.5486197273150086
1772882747572306000,5.852305908203125,0.9576946925878524,1.901759503751993,1.6778174773752688
1772882747582238000,5.862238037109375,0.6941846259325742,1.8099089030504225,1.6921740656383335
1772882747592171000,5.8721708984375,0.59396717890203,1.7094833662271498,1.6700068036243318
1772882747602103000,5.88210302734375,0.5570528680026531,1.4694932913690804,1.5818239316500722
1772882747612036000,5.8920361328125,0.6577630669862031,1.111116491061449,1.3416260592602192
1772882747621969000,5.901968994140625,0.8823708637952804,0.8290197973579168,1.2385608215831219
1772882747631901000,5.91190087890625,0.9843202491849661,0.5714315219670534,1.099263117790967
1772882747641834000,5.921833984375,1.0035352372646331,0.4242056555241346,0.843526315485686
1772882747651766000,5.93176611328125,1.0745534778177737,0.4129875114172697,0.4674503384888172
1772882747661699000,5.941698974609375,1.0686077211558818,0.5375257452338934,0.02510784551054239
1772882747671631000,5.951631103515625,0.9914233591884374,0.7542974415898323,-0.35304669132605193
1772882747681564200,5.961564208984375,0.8770435312926769,0.9752174897968768,-0.5864769692771137
1772882747691496200,5.97149609375,0.7690636335670947,1.1327367867171765,-0.7043593984663487
1772882747701429200,5.98142919921875,0.7329179689526557,1.3321686412155627,-0.7118973927557468
1772882747711362000,5.991362060546875,0.6122820032715797,1.4882587821155786,-0.7899312111593783
1772882747721293800,6.0012939453125,0.3577840951114893,1.6238222678154706,-0.7899794342152774
1772882747731227000,6.011226806640625,0.015575170272588729,1.7456670247644186,-0.661139996073395
1772882747741159000,6.021158935546875,-0.3637479719519615,1.821564269530773,-0.4473598096836358
1772882747751092000,6.031092041015625,-0.7228104164361954,1.8748311648160219,-0.20658311449252068
1772882747761024000,6.04102392578125,-0.8554337570309638,1.8004092532992362,0.10708682134337723
1772882747770957000,6.05095703125,-0.6020844343841075,1.6999802093446255,0.33842385334223507
1772882747780889000,6.06088916015625,-0.03523205690085888,1.5652607732534407,0.5362944498732686
1772882747790822100,6.070822265625,0.5859492921411991,1.3947107298463581,0.6756517748981714
1772882747800755000,6.0807548828125,1.1093816300928592,1.28366501480937,0.621972937811166
1772882747810687000,6.09068701171875,1.496931917914748,1.2748697139352558,0.5087247442938387
1772882747820620000,6.1006201171875,1.8033780399769543,1.2556851209938524,0.2982603313885629
1772882747830552000,6.110552001953125,1.9913059191644191,1.288801208654046,0.16349004189297556
1772882747840485000,6.120485107421875,2.1536387538462876,1.3443272810429334,0.010802256782352923
1772882747850417200,6.130417236328125,2.1154116067826747,1.3690379439294338,0.04139233309626579
1772882747860350200,6.14035009765625,2.0225731640875337,1.3773334785878657,0.09557561257407068
1772882747870282000,6.150281982421875,1.7536048320263624,1.3803525341480969,0.2352116084098816
1772882747880215000,6.160215087890625,1.2981067971378564,1.3416700445324181,0.45860403807982797
1772882747890147800,6.17014794921875,0.9414443995326757,1.270300506323576,0.6558622018009423
1772882747900079900,6.180079833984375,0.8323615090012549,1.2109312025099992,0.854693167796731
1772882747910013000,6.190012939453125,0.9090174631804228,1.1297440346419811,0.8364582767955958
1772882747919945000,6.199945068359375,1.0041279424607754,1.146021800225973,0.722202075279504
1772882747929878000,6.2098779296875,1.0997095463842153,1.2787234667539595,0.5955389582633972
1772882747939810000,6.21981005859375,1.1253396622031926,1.4771861839592455,0.3988257150739431
1772882747949743000,6.2297431640625,1.1336451337337494,1.6646803479045629,0.1995879218429327
1772882747959675100,6.239675048828125,1.0859048929154873,1.8637568130940199,-0.04838526072353124
1772882747969608200,6.249608154296875,1.0838210723787545,2.060613848668337,-0.2781668069086969
1772882747979540200,6.259540283203125,1.0249299074709415,2.1527175473481415,-0.3938628319695592
1772882747989473000,6.26947314453125,1.0453501796871423,2.12953833181262,-0.40993528423979875
1772882747999406000,6.279406005859375,1.2473100913584232,2.045610925325751,-0.4367440884493291
1772882748009338000,6.289338134765625,1.5367536406934261,1.9117182954475282,-0.44233007188811896
1772882748019271200,6.299271240234375,1.7892133210241794,1.7922221474513411,-0.4194597761712968
1772882748029203200,6.309203125,2.0943179653495547,1.7054066183075307,-0.3115244482398033
1772882748039136300,6.31913623046875,2.3109166432261468,1.685256395204365,-0.18563070816099642
1772882748049068300,6.329068359375,2.3304747456550596,1.7151225411579012,-0.14886910360530017
1772882748059001000,6.3390009765625,2.1833079159229993,1.7779145128965377,-0.2595974232561886
1772882748068933400,6.348933349609375,1.7777186980634927,1.8567706074684858,-0.32892902589663864
1772882748078866200,6.3588662109375,1.2766799782276153,1.900000969646871,-0.40106384938955303
1772882748088799200,6.36879931640625,0.7732511483848095,1.8852891382053494,-0.3268887522406876
1772882748098731000,6.37873095703125,0.42816111515164373,1.7308382889449596,-0.14910042814314364
1772882748108664000,6.3886640625,0.33636253689825535,1.5011463207393885,0.1285546298511326
1772882748118596000,6.39859619140625,0.5233037431359291,1.10336543854326,0.4331329122148454
1772882748128529200,6.408529052734375,0.7249719783842563,0.5662652252450585,0.8360729307398199
1772882748138461200,6.418461181640625,0.8770587288618087,-0.0005614332750439643,1.348773300666362
1772882748148394000,6.42839404296875,0.9723048172205686,-0.5854106552198529,1.8283702962838113
1772882748158326300,6.438326171875,0.9899883579492569,-1.041417516413331,2.15787259202376
1772882748168259000,6.448259033203125,0.7609837874859571,-1.3482470848351715,2.321926259148866
1772882748178192100,6.458192138671875,0.261596926510334,-1.451796891158819,2.1740875215046107
1772882748188124200,6.468124267578125,-0.3021481326073408,-1.2466840684145688,1.6929335057035086
1772882748198057200,6.47805712890625,-0.632030075314641,-1.0111620788812636,1.0132665038146078
1772882748207989200,6.4879892578125,-0.5896271038711071,-0.8499339905709028,0.34145372255742545
1772882748217922300,6.49792236328125,-0.38907939708530903,-0.5965788227051496,-0.01911371966227889
1772882748227854300,6.507854248046875,-0.38368250647783275,-0.4371241738080978,0.028443565804511305
1772882748237787100,6.517787109375,-0.8157353683710098,-0.5377198065012693,0.3843910931386053
1772882748247719200,6.52771923828125,-1.6137071165144443,-0.5680272664815187,0.8566733818285167
1772882748257652000,6.53765185546875,-2.572885910180211,-0.3559375904619694,1.2156475635074078
1772882748267585000,6.5475849609375,-3.618063071388006,-0.14799860438108442,1.1378164280690253
1772882748277517000,6.55751708984375,-4.175782878866792,0.19200959554314612,0.8310597787529229
1772882748287450000,6.5674501953125,-4.455104847159982,0.5156014981955289,0.3132930653475225
1772882748297382100,6.577382080078125,-4.188852203798294,0.6924123555630445,-0.3905558993786573
1772882748307315200,6.587315185546875,-3.354061421823501,0.6969418156862258,-1.1953763443730772
1772882748317247200,6.597247314453125,-2.1811177124023438,0.5250187303602695,-1.8035018124870954
1772882748327180000,6.607179931640625,-1.0828829147458077,0.20772914272248744,-2.1438941894233228
1772882748337112000,6.617112060546875,-0.243323603194952,-0.3080482965618372,-2.1173086725756525
1772882748347045000,6.627045166015625,0.36922786466777324,-0.944575098773837,-1.761162407799065
1772882748356978200,6.636978271484375,0.603532879626751,-1.6686229480504988,-1.1132349445201455
1772882748366910200,6.64691015625,0.687251027277112,-2.428176410472393,-0.2748267027005553
1772882748376843300,6.65684326171875,0.818636935031414,-3.121581284204125,0.6287827639564871
1772882748386775300,6.666775390625,1.168515956106782,-3.5839176406800743,1.2697031249523163
1772882748396708400,6.676708251953125,1.4549217451810836,-3.6636890965312716,1.5241742912359535
1772882748406640000,6.68664013671875,1.6298814217239617,-3.2901568126678464,1.4105765536285937
1772882748416573000,6.696572998046875,1.757994006896019,-2.5699364127248523,0.8806992773212492
1772882748426505200,6.706505126953125,1.7467226712971924,-1.8000369128555058,0.25091113571450113
1772882748436438000,6.71643798828125,1.5207143600404263,-1.0557704514145851,-0.29876243569180366
1772882748446371000,6.72637109375,1.1218138261646031,-0.407207174450159,-0.700046795964241
1772882748456303000,6.73630322265625,0.6909656638860702,0.2160790379166603,-0.9255886587530374
1772882748466236200,6.746236083984375,0.17368308073580263,0.6260398949891328,-1.0709449319317936
1772882748476168200,6.756168212890625,-0.385127444589138,0.8622650643557309,-1.1101013226695358
1772882748486101200,6.766101318359375,-0.8183879287064075,0.9790437700867652,-1.0236413289651274
1772882748496033300,6.776033203125,-0.9609867198705673,0.9502344397097825,-0.8358284544594585
1772882748505966000,6.785966064453125,-0.8148989175468683,0.7976309718817473,-0.5954786063782871
1772882748515898000,6.795898193359375,-0.38599721316099167,0.49048576163947577,-0.344858270303905
1772882748525831200,6.8058310546875,0.04767945054173469,0.18138415663242338,-0.05648045050427317
1772882748535764200,6.81576416015625,0.5495937841683626,-0.08690846812427043,0.11679770269244909
1772882748545696300,6.8256962890625,0.9986264224350452,-0.17066636326313017,0.3206083567969501
1772882748555629300,6.83562939453125,1.3472919760674238,-0.13621347404122353,0.4601416229106486
1772882748565561000,6.84556103515625,1.5696978789180516,-0.007646130838990211,0.5846269574962556
1772882748575494100,6.855494140625,1.7021745045185088,0.12881459596157074,0.6654002838663756
1772882748585426200,6.86542626953125,1.74715638653934,0.3167226014047861,0.7040069317668676
1772882748595359000,6.87535888671875,1.7257190462350844,0.4187736936032772,0.7615738623335957
1772882748605291000,6.885291015625,1.6512077028691767,0.5500672468990088,0.8974170417577028
1772882748615224000,6.89522412109375,1.6515028864234684,0.6666817019790411,1.039668042397499
1772882748625157000,6.9051572265625,1.6074685143858194,0.6841980694472789,1.11280254445225
1772882748635089200,6.915089111328125,1.601316421496868,0.7266396193355321,1.0645252741478384
1772882748645022200,6.925022216796875,1.661740787321329,0.8290577912807464,0.8990732845321298
1772882748654954200,6.934954345703125,1.7839467787981031,0.8980565087050199,0.7059300087839364
1772882748664887300,6.94488720703125,1.882249916639924,0.9318599941074848,0.38938568655550476
1772882748674819300,6.9548193359375,1.867835022318363,1.0214566784024237,0.15785568926781415
1772882748684752100,6.964752197265625,1.8800503607690333,1.1382862375378608,0.09534604160189628
1772882748694684000,6.974683837890625,1.940303461679816,1.2562953618466854,0.24174977800697087
1772882748704617200,6.9846171875,1.6696441077917814,1.367489545443654,0.7258037530332804
1772882748714550300,6.99455029296875,1.1387211218237876,1.4443424834996461,1.1263440169401466
1772882748724482000,7.00448193359375,0.4192945026069879,1.499171805796027,1.393341341189295
1772882748734415000,7.0144150390625,-0.46167058604359623,1.502245221891999,1.5955702790603041
1772882748744347100,7.02434716796875,-1.4167776002258061,1.3902759622693062,1.659787169035524
1772882748754280200,7.0342802734375,-2.2633161031395197,1.2993582585036754,1.7171407491125166
1772882748764212200,7.044212158203125,-2.974809591269493,1.12980190230906,1.700794156076014
1772882748774145000,7.05414501953125,-3.420429790744185,0.7009802774220705,1.8649729108855126
1772882748784077000,7.0640771484375,-3.3092455440193413,-0.008805237746238708,2.079918706988543
1772882748794010000,7.074010009765625,-2.653850959730148,-0.7484463774740695,2.139743061093241
1772882748803943200,7.083943115234375,-1.7477116823345422,-1.3750310468643903,1.9882162825860081
1772882748813875200,7.093875244140625,-1.0297849462866782,-1.773059474080801,1.6438402428410945
1772882748823808300,7.103808349609375,-0.5339554855316877,-1.8572803105562925,1.0966666715569793
1772882748833740300,7.113740234375,-0.21286533656716344,-1.624205714175105,0.42496524171978234
1772882748843673300,7.12367333984375,-0.10546996073126792,-1.2260913622409104,-0.2893523639202118
1772882748853605000,7.133605224609375,-0.11883622278273105,-0.7901683809161186,-0.9745436821885406
1772882748863538000,7.143537841796875,-0.17281272764205932,-0.35088264515995976,-1.6294458067856727
1772882748873470000,7.153469970703125,-0.2777303151875734,0.03526946630179882,-2.196259167432785
1772882748883403000,7.163403076171875,-0.40658816576898094,0.37781039957404133,-2.560554251873493
1772882748893336000,7.173336181640625,-0.31053660624623297,0.4365191936522722,-2.5273393800139425
1772882748903268000,7.18326806640625,0.023235329636931416,0.38859307487308975,-2.34558960493952
1772882748913201200,7.193201171875,0.314020356708765,0.27917408425509926,-2.0929121902048586
1772882748923133200,7.20313330078125,0.423063499751687,0.1386982765942812,-1.964814364210516
1772882748933066200,7.213066162109375,0.2754816594779491,0.10068448002040385,-1.8712894005559384
1772882748942998300,7.222998291015625,-0.2557540457010269,0.1484802504181862,-1.664549415001273
1772882748952931000,7.23293115234375,-0.933664997702837,0.2868997100710869,-1.3511189870096743
1772882748962863000,7.242863037109375,-1.2891133433431385,0.43405952554047106,-1.101536907941848
1772882748972795600,7.252795654296875,-1.3819067778527736,0.4938356565892696,-1.015773664329946
1772882748982728700,7.262728759765625,-1.3307453304141759,0.4691390222281217,-0.9036382543601095
1772882748992660700,7.27266064453125,-1.2977660208761692,0.32617958105802536,-0.7598752417221665
1772882749002593800,7.28259375,-1.3625181867718696,0.0927051717042923,-0.685517481482774
1772882749012525800,7.29252587890625,-1.503264043545723,-0.04168576308488846,-0.7564861838057637
1772882749022459000,7.302458984375,-1.4896709870010614,-0.08346037349700927,-0.8561552031733095
1772882749032391000,7.312390869140625,-1.235223347723484,-0.1963070004761219,-0.9630091656088828
1772882749042323700,7.32232373046875,-0.8454062840133905,-0.47121524398028847,-0.9297421251706779
1772882749052255700,7.332255859375,-0.2767231839716434,-0.7876707188814878,-0.690188249772787
1772882749062188800,7.342188720703125,0.2927233016580343,-1.0097896214842796,-0.4443025410048663
1772882749072121900,7.352121826171875,0.6546148320883513,-1.1475877343684435,-0.4346723967418074
1772882749082053600,7.3620537109375,0.8544815708726644,-1.115747073471546,-0.4581463574402034
1772882749091986700,7.371986572265625,1.01557054297328,-0.9477104741901159,-0.5101642755776643
1772882749101918700,7.381918701171875,1.1131523808032273,-0.680999565666914,-0.5704122619219124
1772882749111851800,7.391851806640625,0.9669546883642673,-0.3805605750650167,-0.7077130928084254
1772882749121783800,7.40178369140625,0.6474474246770143,-0.11929331890046596,-0.6513564148142933
1772882749131716600,7.411716552734375,0.3237555687814951,0.09069967710077761,-0.5388092091731727
1772882749141649000,7.42164892578125,0.007926701346039771,0.2696358560591936,-0.33562136314213276
1772882749151581700,7.431581787109375,-0.24095804310739039,0.37935645997226236,-0.15014131549820303
1772882749161514800,7.4415146484375,-0.6332306832760572,0.39452421848773955,0.09621186465099453
1772882749171446800,7.45144677734375,-1.0095856233447789,0.43757133305370804,0.31456410819664593
1772882749181379800,7.4613798828125,-1.299271164742112,0.5342483309984207,0.4026519953638315
1772882749191312000,7.471311767578125,-1.4771528662115334,0.6370762527883053,0.3330193639501929
1772882749201245000,7.481244873046875,-1.483380946946144,0.6890823343575,0.21436258938759564
1772882749211177000,7.491177001953125,-1.3355845871388912,0.6823761147171259,0.2181827321976423
1772882749221109800,7.50110986328125,-0.9197913706511258,0.5531470927357673,0.15850333952158688
1772882749231041800,7.511041748046875,-0.2676128257989883,0.407871191316843,-0.019036855033785105
1772882749240974600,7.520974609375,0.3660001347929239,0.35492344498336315,-0.14314678043574094
1772882749250907600,7.53090771484375,0.9017840047955512,0.313794731259346,-0.3318640564352274
1772882749260839700,7.540839599609375,1.2866910846322774,0.33062253194153307,-0.5626468886174262
1772882749270772700,7.550772705078125,1.3788918139457702,0.38247254616618154,-0.6364823785483836
1772882749280704800,7.560704833984375,1.3967168089717625,0.4115092555582523,-0.6505035973772406
1772882749290637800,7.570637939453125,1.382331140744686,0.41066754403710365,-0.6300003230527043
1772882749300569900,7.58056982421875,1.3371090202271938,0.4086906910061836,-0.5638802298046648
1772882749310502700,7.590502685546875,1.082266828674078,0.47852352116703983,-0.3953662222698331
1772882749320435700,7.600435791015625,0.90516195679605,0.44905368105471133,-0.17623495717570184
1772882749330367700,7.61036767578125,0.808121970757842,0.3938888431936502,0.010774053601175546
1772882749340300800,7.62030078125,0.6823568254947662,0.3346387818455696,0.20197408632710576
1772882749350232800,7.63023291015625,0.659646981036663,0.2258171725988388,0.3459219540126621
1772882749360166000,7.640165771484375,0.6893512144267558,0.22514438790380953,0.3836807529121637
1772882749370098000,7.650097900390625,0.6946738707542419,0.21511516132056713,0.3936610257871449
1772882749380031000,7.660031005859375,0.741367817389965,0.20968261487782,0.38643195131644603
1772882749389962800,7.669962646484375,0.9010948534876108,0.237092599850893,0.3428064523406327
1772882749399895600,7.6798955078125,1.102091473084688,0.31620529953241344,0.2088259980484843
1772882749409828600,7.68982861328125,1.2731342684447764,0.4086772470027208,0.03429492218121886
1772882749419760600,7.6997607421875,1.3112246373862027,0.45261575745046134,-0.07421674433350563
1772882749429693700,7.709693603515625,1.3048732225328683,0.5027022691339255,-0.132136579991132
1772882749439625700,7.719625732421875,1.2458990555167198,0.6030751989871264,-0.08342837092354893
1772882749449558800,7.729558837890625,1.1211755282610654,0.6951841583639383,-0.034109774872660634
1772882749459490800,7.73949072265625,0.9927671750128269,0.8004857767909764,0.033242198257893325
1772882749469423900,7.749423828125,0.836951174879074,0.8787222781598567,0.12530877979770302
1772882749479356000,7.75935595703125,0.7280003862947225,0.9370932185858487,0.2051021552197635
1772882749489288700,7.769288818359375,0.7137959198534488,0.9586059622138738,0.22343246941938996
1772882749499221800,7.7792216796875,0.7604489499568938,0.9752502230226993,0.22244024351164698
1772882749509153800,7.78915380859375,0.8782043917655944,0.9958312387585639,0.16460662483274935
1772882749519086800,7.7990869140625,0.9553682954668998,0.8985112667351961,0.07360124278366566
1772882749529019000,7.809018798828125,0.8670733414202928,0.7452350142121315,0.1539370545193553
1772882749538952000,7.818951904296875,0.6031178690850735,0.4850023617923259,0.3069017568752169
1772882749548883700,7.8288837890625,0.33759061738848684,0.10750935760438442,0.49133872520700095
1772882749558816800,7.838816650390625,0.1095493389993906,-0.2936772413820028,0.7004622448973358
1772882749568748800,7.848748779296875,-0.07812427316606044,-0.6855009687393904,0.8859529600657522
1772882749578681600,7.858681640625,-0.19603344423174857,-0.9717349083781242,1.1259243302233517
1772882749588614700,7.86861474609375,-0.3172527627587318,-1.2259119140207766,1.393727125636488
1772882749598546700,7.878546630859375,-0.49078328328132625,-1.4197130691558122,1.6463596783161163
1772882749608479700,7.888479736328125,-0.8847124584853648,-1.433952606910467,1.8597624827608465
1772882749618411800,7.898411865234375,-1.7081196766585112,-1.109354157564044,1.7468946668632328
1772882749628344800,7.9083447265625,-2.7303286347329614,-0.5598872146457433,1.1621712632551788
1772882749638276900,7.91827685546875,-3.4181834731221197,0.12283259894251823,0.2940389143012464
1772882749648210000,7.9282099609375,-3.6917613448053594,0.8798059817433357,-0.7413543733865022
1772882749658142700,7.938142822265625,-3.753789054173231,1.2793056505560874,-1.8938617362394927
1772882749668074800,7.94807470703125,-3.3801281754940744,1.2735288207203148,-2.8747826983749865
1772882749678007800,7.9580078125,-2.625007142561674,0.986491163483262,-3.305402312594652
1772882749687939800,7.96793994140625,-1.8118518538117407,0.30236440570652484,-3.1415418299540874
1772882749697873000,7.977872802734375,-1.330213415494561,-0.5932669216781854,-2.4170118962489067
1772882749707804700,7.9878046875,-1.1923404838085174,-1.4704793797969817,-1.3843063863404095
1772882749717736700,7.99773681640625,-1.2597358576893807,-2.1518056932002305,-0.45199543359503147
1772882749727669800,8.007669677734375,-1.402778885489702,-2.557686587482691,0.27565803895816204
1772882749737601800,8.017601806640625,-1.4704244347393511,-2.722201442378759,0.6829363789483904
1772882749747534800,8.027534912109376,-1.3512743237018585,-2.6059143195569514,0.7309978145450353
1772882749757467600,8.037467529296874,-1.090603279864788,-2.194136768451333,0.38022505950033664
1772882749767399700,8.047399658203124,-0.797368521553278,-1.56945822494328,-0.04685512854680419
1772882749777332700,8.057332763671875,-0.5514683458685875,-0.9575660977721214,-0.4420112151972949
1772882749787264800,8.0672646484375,-0.31771862670481205,-0.39551381404697894,-0.7733304972313344
1772882749797197800,8.07719775390625,-0.059818801146745676,0.039271103158593175,-1.038963401259482
1772882749807129900,8.0871298828125,0.16633797867000102,0.3094891430199146,-1.2242948342129587
1772882749817063000,8.09706298828125,0.3436836735665798,0.4040414038956165,-1.2775420018844306
1772882749826994700,8.10699462890625,0.47728082762956614,0.34393267989158627,-1.1394722324520348
1772882749836927700,8.116927734375,0.6448989092379808,0.1337958915054798,-0.8272419740304351
1772882749846860800,8.12686083984375,0.8624281459629535,-0.16825462594628332,-0.36017420511841775
1772882749856792600,8.13679248046875,1.1767869408458471,-0.49938160027861594,0.13957345199361443
1772882749866725600,8.1467255859375,1.5617308455616234,-0.8213269047677516,0.63238604914546
1772882749876657700,8.15665771484375,2.0072054990857837,-1.196086100077629,1.0695533314429222
1772882749886590700,8.1665908203125,2.197501276448369,-1.3476193083256482,1.5059974140323698
1772882749896522800,8.176522705078124,2.107225377717614,-1.2511743655711411,1.6386613788984714
1772882749906455800,8.186455810546875,1.8972060782313345,-0.8952192394524812,1.341239836421609
1772882749916387800,8.196387939453125,1.7691683118611574,-0.4173357697546482,0.8964524345092475
1772882749926321000,8.20632080078125,1.6011170995324848,0.030043256086111067,0.5020870598450303
1772882749936253700,8.216253662109375,1.4347113163232803,0.36127895148992534,0.1708176083020866
1772882749946185700,8.226185791015626,1.248813481658697,0.5157774392843246,0.10563961820974946
1772882749956118800,8.236118896484374,1.0195458763450385,0.5532394471943378,0.22566958082169292
1772882749966050800,8.24605078125,0.7125479656189679,0.44022856956422324,0.5329622367106378
1772882749975983400,8.2559833984375,0.25278525902330873,0.14462182142436503,0.947258931030333
1772882749985915400,8.265915283203125,-0.08188099535107612,-0.06392623646557331,1.33277975885123
1772882749995848400,8.275848388671875,-0.30369770013689995,-0.16409633722305297,1.4559398361824452
1772882750005781500,8.285781494140625,-0.5827367598354816,-0.14107552711963653,1.2482874119579792
1772882750015713500,8.295713623046876,-0.7558633757323027,0.01779635345339775,0.838932850215584
1772882750025646300,8.305646240234376,-0.6927449485182762,0.1981622729539871,0.3255420138068497
1772882750035578400,8.315578369140624,-0.5155927303671837,0.27895839567780495,-0.14211305347383021
1772882750045511400,8.325511474609375,-0.3293056041240692,0.2428565702050924,-0.350323696102947
1772882750055443200,8.335443115234375,-0.09249474382400512,0.24716040487885474,-0.3755884857408702
1772882750065376300,8.345376220703125,0.10684884786903857,0.21874036608040331,-0.3143815912365913
1772882750075308300,8.355308349609375,0.19317630123496055,0.21653438046872614,-0.22198037091493605
1772882750085243400,8.365243408203124,0.18986907638311384,0.213712893307209,-0.14886588873490691
1772882750095175400,8.375175537109374,0.1749269433170557,0.21346797863543032,0.028389059138298034
1772882750105108500,8.3851083984375,0.24343173974454402,0.1540910760372877,0.19812880907580255
1772882750115040300,8.395040283203125,0.4786942015588283,0.17857903608381748,0.27280118822231886
1772882750124973300,8.404973388671875,0.8486994803398847,0.173283267763257,0.3026125352486968
1772882750134906400,8.41490625,1.2810218068242072,0.08936053745150566,0.29432109224349257
1772882750144838400,8.42483837890625,1.7103303384453057,0.12987725675702094,0.31906361157298085
1772882750154771200,8.434771240234374,2.077012610283494,0.22161387569010257,0.4153299828901887
1772882750164703500,8.444703369140624,2.174729472669959,0.3899117562562227,0.5559551358938217
1772882750174636300,8.45463623046875,2.101598185485601,0.7085305466711521,0.5414475948527455
1772882750184568300,8.464568359375,1.866005468803644,1.0951023448497057,0.41931028469800946
1772882750194501400,8.47450146484375,1.597342257168889,1.3593535852611065,0.2774891999080777
1772882750204433400,8.484433349609375,1.379990715098381,1.610150885337591,0.10954247086718678
1772882750214366500,8.494366455078126,1.377099669831991,1.5877081673830746,0.05751052420437336
1772882750224299500,8.504299560546874,1.1687684695631264,1.1654261733978986,0.4038793452017009
1772882750234231600,8.5142314453125,0.7591518958836794,0.6813274824470281,0.8668228737905621
1772882750244164400,8.524164306640625,0.24305238503813742,0.24486381837427615,1.3280964233405887
1772882750254096400,8.534096435546875,-0.3518991287261247,-0.18328969799280165,1.742236173532903
1772882750264029400,8.544029541015625,-0.9527472993135452,-0.4607318438887596,2.096248787281662
1772882750273961200,8.553961181640625,-1.473545197108388,-0.436200629222393,2.363938769970089
1772882750283894300,8.563894287109376,-1.7086451618373393,-0.23645079481601713,2.391796498710662
1772882750293827300,8.573827392578124,-1.7766332409143446,0.08722878611981869,2.20524341500774
1772882750303759400,8.58375927734375,-1.6512357599198817,0.4154261367410421,1.737879439628124
1772882750313692400,8.5936923828125,-1.3132728020876645,0.6633686319082975,1.0562399686224757
1772882750323624400,8.60362451171875,-0.8445937985867261,0.827939600905776,0.41743192360550163
1772882750333557200,8.61355712890625,-0.5222060110270976,0.8821481609553098,-0.04479337371140718
1772882750343489500,8.623489501953125,-0.22986147955358027,0.832480751466751,-0.3722365449644625
1772882750353422300,8.63342236328125,0.08364858954548836,0.7415788297921418,-0.5448443976841867
1772882750363354400,8.643354248046874,0.13259060736894607,0.6696592564851045,-0.6402950687043368
1772882750373287400,8.653287353515625,-0.19632161352336405,0.7241992404460906,-0.7041980704247951
1772882750383220500,8.663220458984375,-0.514234301495552,0.7972592159599066,-0.6025844928607345
1772882750393152500,8.673152587890625,-0.7480208455383777,0.6919570130109787,-0.4737754498571157
1772882750403085600,8.68308544921875,-0.9988719216287135,0.4284755879282951,-0.21985168832316992
1772882750413017600,8.693017578125,-1.3161428045660257,-0.021013561934232712,0.06766030842736363
1772882750422950400,8.702950439453126,-1.5316840823441742,-0.44123511625826356,0.3748411745049059
1772882750432882400,8.71288232421875,-1.548966056534648,-0.820984959462285,0.562524139020592
1772882750442815200,8.722815185546875,-1.4416566054165363,-1.0482026465088128,0.5902792841695249
1772882750452748300,8.732748291015625,-1.2479063036859035,-0.999618940603733,0.36125410930961366
1772882750462680300,8.742680419921875,-0.9842004221975803,-0.6900678382635116,-0.25923122029229995
1772882750472613400,8.75261328125,-0.8135393196314573,-0.18665479051172731,-1.0352733145698905
1772882750482545400,8.76254541015625,-0.5330179124206305,0.23281331509649753,-1.8526390606217085
1772882750492478500,8.772478515625,-0.10408464385271071,0.5837520743578672,-2.536590607962012
1772882750502410500,8.782410400390624,0.5105208339303732,0.7793781068325042,-2.9905396598428484
1772882750512343300,8.79234326171875,0.8971633592575788,0.7061655711054802,-3.2520775496423244
1772882750522275300,8.802275390625,1.0074760838449002,0.43448973365128035,-3.1607179473280906
1772882750532208400,8.81220849609375,0.9568138181000947,0.027210078486800193,-2.881313561448455
1772882750542141400,8.822141357421875,0.7437561738312244,-0.47389527684450145,-2.3318371200494465
1772882750552073500,8.832073486328126,0.3862871360182762,-1.0562620343238114,-1.7895722174644468
1772882750562006500,8.842006591796874,0.1062853687673807,-1.499903042680025,-1.3722642124995588
1772882750571938300,8.851938232421874,-0.10457564224004745,-1.6401818664640186,-0.9796132405377924
1772882750581871600,8.86187158203125,-0.2813689639508724,-1.6893576930433511,-0.6356019424520433
1772882750591803400,8.871803466796875,-0.44566286957263945,-1.7095049935370683,-0.4093843723587692
1772882750601736200,8.881736083984375,-0.4738198735207319,-1.5068950935244558,-0.2671476925052702
1772882750611669200,8.891669189453125,-0.37723639907836914,-1.1115168885558844,-0.24178221897184848
1772882750621601300,8.901601318359376,-0.26731004346013065,-0.7661895394355058,-0.31119390111118556
1772882750631534300,8.911534423828124,-0.14875205309689044,-0.4737164131462574,-0.4137828995786607
1772882750641466400,8.92146630859375,-0.10802315234541893,-0.2320610354244709,-0.49228155901506543
1772882750651399400,8.9313994140625,-0.10732406416535377,0.02758358797430992,-0.48217649071663615
1772882750661331500,8.94133154296875,-0.20190672017931938,0.2776478976011276,-0.42815921545550223
1772882750671264500,8.951264404296875,-0.5414344431102276,0.5124497561663389,-0.37219372873604295
1772882750681196500,8.961196533203125,-0.8833575367450713,0.712117172986269,-0.3758548815920949
1772882750691129300,8.97112939453125,-1.2307915027558802,0.8111965558975934,-0.24327538013905287
1772882750701062400,8.9810625,-1.3904524878799915,0.700059655445814,-0.16298633015453814
1772882750710994400,8.990994384765624,-1.1806640745401382,0.47590661666691303,-0.01791267330944538
1772882750720927500,9.000927490234375,-0.7295189741641283,0.19263912561833857,0.20079890506789086
1772882750730859300,9.010859375,-0.20558979260623453,-0.06554068592488765,0.3937812911659479
1772882750740792600,9.02079248046875,0.21519348725378512,-0.20273498769700526,0.5235914740361273
1772882750750724400,9.030724365234375,0.5074965176731348,-0.2920388265252113,0.5198934963010251
1772882750760657400,9.040657470703126,0.7273305242091417,-0.33455285712778565,0.4948123926669359
1772882750770590200,9.050590087890624,0.8055752088844775,-0.3249111685574054,0.4258867404788732
1772882750780522200,9.060522216796874,0.8180074049562215,-0.3062017919123173,0.23883126021176576
1772882750790455300,9.070455322265625,0.7368050395190715,-0.23965222120583057,0.016196370910853148
1772882750800387300,9.08038720703125,0.6103700321704149,-0.16030746633410453,-0.13744900718554853
1772882750810320400,9.0903203125,0.45204584860801694,-0.11900924126207828,-0.253359259518981
1772882750820252400,9.10025244140625,0.285564077553153,-0.03661737377941608,-0.20821078875958918
1772882750830185500,9.110185546875,0.23813480238020418,0.0011456629037857055,-0.22825199853032827
1772882750840118500,9.120118408203124,0.2659101135343313,0.09950082319378853,-0.2528410808637738
1772882750850050600,9.130050537109375,0.29820260985195635,0.18669687608778476,-0.15390388290211557
1772882750859983400,9.1399833984375,0.26626141119003294,0.23897476033568382,-0.04093699054419994
1772882750869915400,9.149915283203125,0.1759597934961319,0.30855040086507796,0.07535568523555994
1772882750879848400,9.159848388671875,0.11124036082625388,0.39732232477366924,0.12423910473957657
1772882750889780200,9.1697802734375,0.02065408097207546,0.5026069920659065,0.04088613713979721
1772882750899713300,9.17971337890625,-0.07497194661498069,0.90618779271245,-0.07048048041462898
1772882750909645300,9.189645263671874,-0.06941665057539939,0.9322060310661793,-0.12624050768986345
1772882750919578400,9.199578369140625,0.14043489112854002,1.1397323446929455,-0.16090294800922272
1772882750929511400,9.209511474609375,0.6562655219048261,1.3079969075113533,-0.09930530062168837
1772882750939443500,9.219443359375,1.2874369345635175,1.4039257174372672,0.15130407566726206
1772882750949376300,9.229376220703125,1.5859329744040964,1.3089707209795713,0.30108167241960765
1772882750959308300,9.239308349609376,1.269409110441804,1.1725883201122282,0.28157237756848336
1772882750969241300,9.249241455078124,0.5533925919294357,1.0217881023138762,0.06517623652666807
1772882750979173400,9.25917333984375,-0.17716098597943783,0.8983476006060838,-0.0544182572774589
1772882750989106400,9.2691064453125,-0.5627303291171789,0.4755202476978302,-0.06123538994640112
1772882750999039500,9.27903955078125,-0.27700258543491363,-0.021366613155603408,0.39379502743035555
1772882751008971300,9.28897119140625,0.08994622838497161,-0.7029436864495276,1.2614642889171839
1772882751018904300,9.298904296875,0.40675826163887974,-1.4312322420358656,2.186466087692976
1772882751028836400,9.30883642578125,0.7732125699400901,-1.8003133917093277,2.7290061539575454
1772882751038769200,9.31876904296875,0.8490186292916536,-1.7671464506447314,2.6815377158179876
1772882751048701200,9.328701171875,0.5225228218913078,-1.3883137222856283,2.159613444341719
1772882751058634200,9.33863427734375,-0.046532034072279925,-0.8533189568340778,1.4451619831889866
1772882751068566300,9.348566162109375,-0.7688999674379825,-0.26833704842031003,0.7401122643709183
1772882751078499300,9.358499267578125,-1.45761405300498,0.2175344974219799,0.05915799915045499
1772882751088432400,9.368432373046875,-1.9426713598549366,0.5062643455296755,-0.573733661429584
1772882751098364400,9.378364501953126,-2.1739456288158894,0.5880711066007613,-1.0309361621484159
1772882751108297500,9.38829736328125,-2.078112680479884,0.398529362475872,-1.2837915637984871
1772882751118229500,9.3982294921875,-1.6690052253663539,-0.05177694898843765,-1.3220140346869826
1772882751128162300,9.408162353515625,-1.1052870542556046,-0.4864584058195352,-1.0809826340824364
1772882751138094300,9.41809423828125,-0.6558885052859783,-0.893501914140582,-0.7104594689071178
1772882751148027400,9.42802734375,-0.39215807387828827,-1.2347417016863822,-0.36039310856610535
1772882751157960400,9.43796044921875,-0.15059914226830004,-1.3885837713986635,-0.022594109123945234
1772882751167892200,9.447892333984376,0.05758592752814293,-1.334872639477253,0.16566928562819958
1772882751177825300,9.4578251953125,0.028407179316878316,-1.1967010171055794,0.23273469690233467
1772882751187757300,9.46775732421875,-0.15864976225495336,-0.9631728317379951,0.1638879551693797
1772882751197690400,9.4776904296875,-0.35774317857921123,-0.6865355724841355,0.015582184535264968
1772882751207622400,9.487622314453125,-0.44828094311654565,-0.45735973710715766,-0.039192777225375175
1772882751217555200,9.49755517578125,-0.4103986639678478,-0.1953261727452278,-0.07743219924867152
1772882751227487200,9.5074873046875,-0.30058687463998796,-0.09653320555984973,-0.19105448677539824
1772882751237420300,9.517420166015626,-0.023524667972326278,-0.06039806233942508,-0.21406360644102096
1772882751247353300,9.527353271484374,0.3869716111510992,-0.12145780345797538,-0.046401101168990135
1772882751257285400,9.537285400390624,0.661495239251852,-0.2470095982313156,0.11629326030164956
1772882751267218400,9.547218505859375,0.749514298966527,-0.3250046920597553,0.3743430157244205
1772882751277150500,9.557150390625,0.8081710705965757,-0.40675826163887974,0.5939011279284954
1772882751287083300,9.567083251953125,0.7464251007795334,-0.37499826476275916,0.7737997221782803
1772882751297015600,9.577015625,0.6402765101343393,-0.2879348983377218,0.8271022732987999
1772882751306948400,9.5869482421875,0.5286813445210456,-0.16701485501825808,0.7790320698738098
1772882751316881400,9.59688134765625,0.5472983667075634,-0.08086217369735241,0.5991589023262262
1772882751326813200,9.606813232421874,0.5578180071562528,-0.07448854701220989,0.41824207094460725
1772882751336746200,9.616746337890625,0.5043272399872542,0.020364158114790917,0.2574485746592283
1772882751346678300,9.62667822265625,0.4044119907736778,-0.034579145950078966,0.23566899678856132
1772882751356611300,9.636611328125,0.36493630495369433,-0.1388502522855997,0.4375014826878905
1772882751366543400,9.64654345703125,0.47149990614056586,-0.25104689092338084,0.6704021838068962
1772882751376476200,9.65647607421875,0.452312390589714,-0.4337427146762609,0.7904340461149811
1772882751386409200,9.6664091796875,0.31076807691454883,-0.4288122725367546,0.9547221065178513
1772882751396341200,9.67634130859375,0.06740881788432598,-0.4496428791195154,0.9666691494211554
1772882751406274300,9.6862744140625,-0.1539466991305351,-0.4855342767119407,0.8050538153588771
1772882751416206300,9.696206298828125,-0.28380700475275517,-0.513038954231143,0.7048983276486397
1772882751426139400,9.706139404296875,-0.40439620868265624,-0.6588023469060659,0.6290832082077861
1772882751436071400,9.716071533203126,-0.3075292411237955,-0.8503016548395156,0.5173571096912026
1772882751446004500,9.72600439453125,-0.14898235472142696,-0.9801660521149634,0.361464244928956
1772882751455937300,9.735937255859374,-0.00106616792678833,-1.0585405006498099,0.07962152598649262
1772882751465869300,9.745869384765625,0.052371407750248906,-1.1037509307295084,-0.12842062820792197
1772882751475802400,9.75580224609375,0.03763736447691917,-1.2024229018837214,-0.18817776229530572
1772882751485734100,9.765734130859375,0.04485387172698974,-1.3179928163468837,-0.18249650178849697
1772882751495667200,9.775667236328125,-0.018485504761338232,-1.369665720438957,-0.13400076642781494
1772882751505599200,9.78559912109375,-0.06112988374531269,-1.4247247598379849,-0.14570903213918207
1772882751515532300,9.7955322265625,-0.14026947143375873,-1.4584195241689681,-0.2308008062303066
1772882751525464300,9.80546435546875,-0.2444207507818937,-1.398765558195114,-0.32439795833826063
1772882751535397400,9.8153974609375,-0.2381213583767414,-1.4165309319883583,-0.4033744644194841
1772882751545330200,9.825330078125,-0.1533814664632082,-1.508254691439867,-0.47353462683856484
1772882751555262200,9.83526220703125,-0.09672492873966693,-1.589568700557947,-0.523516509103775
1772882751565195300,9.8451953125,-0.09261223272383212,-1.642742072340846,-0.5303653520852327
1772882751575127300,9.855127197265626,-0.16913725399971008,-1.6756529928177595,-0.48022068047374483
1772882751585060400,9.865060302734374,-0.23384090457856654,-1.6979150935083627,-0.437045555613935
1772882751594992400,9.874992431640624,-0.2789478742837906,-1.689160124644637,-0.4036643872767687
1772882751604925400,9.884925537109375,-0.2675830151826143,-1.6109925968587397,-0.3448617774352431
1772882751614858500,9.8948583984375,-0.17897592644691465,-1.546591728618741,-0.30336393813788887
1772882751624790300,9.904790283203125,-0.06061199735105037,-1.4886895747482776,-0.3196399501562118
1772882751634723300,9.914723388671876,0.0053641573816537854,-1.34798931068182,-0.24486264933049678
1772882751644655000,9.924655029296876,0.025736498802900312,-1.3342822723686694,-0.20581687936037776
1772882751654588200,9.934588134765624,-0.01955225721001625,-1.383245332980156,-0.009568038812279701
1772882751664520200,9.944520263671874,-0.1891267335832119,-1.4321189617425203,0.35821985618025065
1772882751674453200,9.954453369140625,-0.37594577474594115,-1.4770137500017881,0.674651073423028
1772882751684385300,9.96438525390625,-0.49833472157418723,-1.4447797058731318,0.8259697621375321
1772882751694318300,9.974318359375,-0.5141635743469,-1.4220979184657334,0.8755839801341295
1772882751704251400,9.98425146484375,-0.4966852008014917,-1.4809744703263044,1.1298320051863788
1772882751714183400,9.994183349609376,-0.626563626602292,-1.357629245686531,1.0920070091828704
1772882751724116200,10.0041162109375,-0.6419628557860851,-1.3079098137497902,1.3809876171812414
1772882751734048300,10.01404833984375,-0.4238923517912626,-1.0893921505093573,1.4103873146668076
1772882751743981300,10.023981201171875,-0.12332476637363433,-0.49221886904239653,1.0303925567910075
1772882751753913300,10.033913330078125,0.3462584924906492,0.030264205360412594,0.6793214033216237
1772882751763846400,10.043846435546875,0.5320990440100432,0.45885143696963787,0.2779467344172299
1772882751773779500,10.053779541015626,-0.004835165071487427,1.4634189398914574,-0.26640710327103734
1772882751783711200,10.063711181640626,-0.8613707458645105,2.03774267616868,-0.7937740041926503
1772882751793644500,10.07364453125,-1.7062176424294708,2.27377846044302,-1.2532684152409435
1772882751803576300,10.083576416015624,-2.722006212067604,2.2575737600952386,-1.4215569434568285
1772882751813509000,10.093509033203125,-3.3865164152264593,1.8637866237103937,-1.062867862329632
1772882751823441200,10.103441162109375,-3.7959196384161706,1.0075608395189046,0.36523499563932416
1772882751833374200,10.113374267578125,-3.381145243582129,-0.4810878186970949,2.31247614762783
1772882751843306200,10.12330615234375,-1.7968781565636396,-1.673164098611474,3.4493618707180023
1772882751853239300,10.1332392578125,-0.31720950813889504,-1.7310680060476065,3.293485080307722
1772882751863172400,10.14317236328125,0.5212883116602898,-1.150029866823554,2.3224100971430537
1772882751873104400,10.1531044921875,1.1967419336378573,-0.26326807459294793,1.3347422910958529
1772882751883037400,10.163037353515625,1.556826706907153,0.6142144326388835,0.4917594348371029
1772882751892969500,10.172969482421875,1.680195312422514,1.471625627222657,-0.08038330413922667
1772882751902902300,10.18290234375,1.4866191982150077,2.126041721868515,-0.41585502967759963
1772882751912834300,10.192834228515625,1.0237199471592902,2.667874808907509,-0.6712497405469418
1772882751922767400,10.202767333984376,0.4244850569874048,3.051881140512228,-0.9176501208387314
1772882751932700400,10.212700439453124,-0.3667717036873102,3.2778385983645912,-0.9660473642610012
1772882751942632200,10.222632080078125,-1.3236100717067718,3.1019530391484498,-0.568669217646867
1772882751952565200,10.232565185546875,-2.076421074131131,2.5749510260164734,-0.06425342259332538
1772882751962497300,10.242497314453125,-2.625453132763505,1.7826105617582797,0.6301265797808766
1772882751972430300,10.252430419921875,-2.2996096517920495,1.0212895051419735,1.01948683963418
1772882751982362600,10.262362548828126,-1.2564964373767376,0.3418973746716976,0.9738760120600461
1772882751992295700,10.272295654296874,-0.12455167782008647,-0.3461673070758581,0.6816743961885571
1772882752002228700,10.282228759765625,0.8604863642454147,-0.6204512812018395,0.13345818398371337
1772882752012160800,10.292160888671875,1.38491589654088,-0.8117547743022442,-0.5982752513594926
1772882752022093800,10.30209375,1.7789298274189234,-0.8998428075999021,-1.2141462190337478
1772882752032025900,10.31202587890625,2.0073218189418314,-0.9991250196069479,-1.6633279103823004
1772882752041959000,10.321958984375,1.9725883592128752,-1.164645836675167,-2.008347508727759
1772882752051891000,10.331890869140626,1.7588532540738582,-1.2793144183844327,-2.1348947442792356
1772882752061823700,10.34182373046875,1.3403525321930647,-1.3682868333011864,-1.9215275956697762
1772882752071755800,10.351755859375,1.1808721643328666,-1.328922791162133,-1.834629941200465
1772882752081688800,10.361688720703125,1.2183382638961076,-1.2249848623037338,-1.944095255178213
1772882752091622000,10.371621826171875,1.0737591125696897,-1.0729466271430252,-2.1001967942550777
1772882752101553700,10.3815537109375,0.8828595240950584,-0.6390250487685203,-2.31151124811843
1772882752111486700,10.39148681640625,0.5840840827912092,-0.23549276343882083,-2.625173146778345
1772882752121418800,10.401418701171876,0.2455500470727682,0.12064590255320072,-2.621185538446903
1772882752131351800,10.411351806640624,0.06889291896224022,0.5194844771087169,-2.5168507192254066
1772882752141283800,10.421283935546874,-0.07102700838148593,0.7772218055814504,-2.370448151864111
1772882752151216600,10.431216552734375,-0.31804888157248495,0.8620558055192231,-1.810600100184977
1772882752161148700,10.441148681640625,-0.705740623691678,0.8146376362621783,-0.9289211641766131
1772882752171081700,10.451081787109375,-1.0167945318102836,0.6742360628813505,-0.11835369996279477
1772882752181014800,10.461014892578126,-1.1044728152632712,0.5665542713195085,0.6925120165452361
1772882752190946800,10.47094677734375,-1.1228694726973771,0.37371757730245586,1.3747903699763118
1772882752200879900,10.4808798828125,-1.188130172637105,0.23044541692137716,1.7363631898462772
1772882752210812000,10.49081201171875,-0.8487450730472803,0.37179800741672514,1.815329028403014
1772882752220745000,10.500744873046875,-0.443420059081912,0.6062134970128535,1.5874207287438213
1772882752230676700,10.5106767578125,0.037926118290424346,0.7314467273563147,1.153796087489277
1772882752240609800,10.52060986328125,0.6430903985112905,0.7040384959489107,0.8221357369326054
1772882752250542800,10.53054296875,1.1690291663259267,0.6247913562327623,0.5202316422142088
1772882752260474600,10.540474609375,1.4967290888190268,0.4105073850393295,0.3542388237200677
1772882752270407700,10.55040771484375,1.684341326186061,0.12735855193436146,0.44746144342720506
1772882752280339700,10.560339599609375,1.554458224210143,-0.1315302846610546,0.768220168480277
1772882752290272800,10.570272705078125,1.3233756784290074,-0.38818917024731636,1.0885084995426237
1772882752300204800,10.580204833984375,1.285802026838064,-0.5923398699611425,1.1125818874388933
1772882752310137900,10.590137939453125,1.5110522132039068,-0.7073825456798076,0.9149163119606674
1772882752320070000,10.60006982421875,1.8871873730421065,-0.6032756899952888,0.6012662498690188
1772882752330002700,10.610002685546876,2.1269541605383155,-0.3614209903091192,0.174999131770432
1772882752339935700,10.619935791015624,2.0492378836512564,-0.14704232656955718,-0.25480127502083777
1772882752349867800,10.62986767578125,1.7769588196069002,0.13809271191656589,-0.5917544712886214
1772882752359800800,10.63980078125,1.3951467831760644,0.3842529998421669,-0.8126713046252727
1772882752369732900,10.64973291015625,0.8112713746994733,0.4776666120767593,-0.9982697179518639
1772882752379666000,10.659666015625,0.10653145248293876,0.5233996047258377,-1.0118557602338492
1772882752389597700,10.66959765625,-0.5711725787699222,0.5202969625353813,-0.8706189050726592
1772882752399531000,10.679531005859374,-1.2523609450072049,0.40047114419341084,-0.5722583281800151
1772882752409463800,10.6894638671875,-1.9043565345078706,0.2530389415234327,-0.11387027093842625
1772882752419395600,10.6993955078125,-2.256384258049726,0.013790624943375587,0.26085209949240085
1772882752429328600,10.70932861328125,-2.377608252751827,-0.2515326286137104,0.47707156879305834
1772882752439260700,10.7192607421875,-2.220375956079364,-0.2941179708868265,0.39409225681126114
1772882752449193700,10.72919384765625,-2.0051602569937703,-0.25979776813387867,-0.05506503074839711
1772882752459125800,10.739125732421876,-1.7915245205760002,-0.2790536727458238,-0.5343235881917179
1772882752469058800,10.749058837890624,-1.5042945556372402,-0.35274434737861154,-0.9004149083994328
1772882752478992000,10.758991943359375,-1.2415864530146121,-0.6014549043089151,-1.1100642055295407
1772882752488924000,10.768923828125,-0.994872622859478,-0.8587181855291127,-1.122106963892281
1772882752498856700,10.778856689453125,-0.8011305044353008,-1.0713584811687469,-1.1255905682243406
1772882752508788700,10.788788818359375,-0.6744798085093497,-1.2294219679683447,-1.0557431250162421
1772882752518721800,10.7987216796875,-0.6143097097069025,-1.2818085732877254,-1.0373298087082803
1772882752528653800,10.80865380859375,-0.5708084216326474,-1.2229483880400658,-1.0934009477593003
1772882752538587000,10.8185869140625,-0.6222036778271198,-1.049996544188261,-1.3333575587391853
1772882752548518700,10.8285185546875,-0.7194003157317638,-0.7587158425539732,-1.689851906301081
1772882752558451700,10.83845166015625,-0.7843927201241254,-0.5645698195040225,-1.8850386705756186
1772882752568384800,10.848384765625,-0.7482704363852739,-0.49324879661202425,-1.7139768782541154
1772882752578316800,10.85831689453125,-0.7009282549738883,-0.5641624077469111,-1.1205081503935157
1772882752588249600,10.86824951171875,-0.6486380957663059,-0.8331815932124853,-0.3512643379539251
1772882752598181600,10.878181640625,-0.6676046620428562,-1.0741887361586093,0.41629298270344733
1772882752608114700,10.88811474609375,-0.7497960385173559,-1.251803311124444,0.9712667063444852
1772882752618046700,10.898046630859374,-0.7937099990457296,-1.3471248028069733,1.277648530998826
1772882752627979800,10.907979736328125,-0.825660550057888,-1.2530816604971884,1.3772889087937772
1772882752637912800,10.917912841796875,-0.8935323092788457,-0.9828887550771236,1.151784601536393
1772882752647844900,10.927844970703125,-0.9817723182678222,-0.6242676246196032,0.7647884404659271
1772882752657777700,10.937777587890626,-0.9523463172972202,-0.31728549598455424,0.38156317623630165
1772882752667710000,10.9477099609375,-0.8812129259318113,-0.1352653795361519,0.10592676458805798
1772882752677642800,10.957642822265624,-0.794320824420452,0.041299394115805625,0.012331804437190293
1772882752687574800,10.96757470703125,-0.734167092230916,0.5313216298967599,-0.21176555863171814
1772882752697507800,10.9775078125,-0.6943593979775905,1.2694120330512524,-0.51687239491418
1772882752707439600,10.987439697265625,-0.8312374734073877,1.935975077086687,-0.6110837333977223
1772882752717372700,10.99737255859375,-1.1627151608735322,2.4347552043408154,-0.3238277572348714
1772882752727305700,11.0073056640625,-1.3508885392546652,3.007376228353381,-0.052512715917080635
1772882752737237800,11.01723779296875,-1.9950936210095882,3.2579964182972905,-0.22295403825268148
1772882752747170600,11.027170654296874,-3.024914807653427,3.4154853200793265,-0.6053127487808465
1772882752757102800,11.037102783203125,-3.6411961096942425,3.627129005897045,-1.1917935174502432
1772882752767035600,11.04703564453125,-3.3443390692323445,3.6290263639509677,-1.9702591856129466
1772882752776967700,11.0569677734375,-2.372089781591296,3.031162177610397,-2.309252947797626
1772882752786900700,11.066900634765625,-0.902647928148508,2.0382973874419927,-1.9344940447486936
1772882752796833800,11.076833740234376,0.7644897497802973,0.8302326802790164,-0.9524942013353109
1772882752806765800,11.086765869140624,2.2654665591716765,-0.3462064700424671,0.27327085156068204
1772882752816699000,11.096698974609374,3.6544782005935907,-0.9972329222500323,1.3185330607034265
1772882752826631000,11.106630859375,4.753635373792052,-1.203755027270317,1.7496620857499539
1772882752836563700,11.116563720703125,5.501483785372972,-0.9413567212492226,1.5307703285001217
1772882752846495700,11.126495849609375,5.7323161557853215,-0.2941898670792579,0.8590062086902558
1772882752856428800,11.1364287109375,5.168984353643656,0.2859720738321543,-0.006013268940150737
1772882752866361900,11.14636181640625,4.357850341588258,0.7446890707671642,-0.40413142026662824
1772882752876293600,11.156293701171874,3.1754291942477226,1.024714803415537,-0.48206703899279235
1772882752886226700,11.166226806640625,1.6772773791491984,1.05106154307127,-0.3497591940879822
1772882752896158700,11.17615869140625,0.24844927564561364,0.9114853145986795,-0.08631459388434887
1772882752906091800,11.186091796875,-1.0059288544028997,0.7334943075358867,0.22349267517402766
1772882752916023800,11.19602392578125,-1.9367676887691019,0.5612193400323391,0.38138752740845083
1772882752925956600,11.20595654296875,-2.370381224107742,0.5589578248411416,0.4135411997772753
1772882752935888600,11.215888671875,-2.3469091631054875,0.7003723746567964,0.3262402252040803
1772882752945821700,11.22582177734375,-2.0110078139781953,0.7484183204233646,0.15922420114204286
1772882752955754800,11.235754638671875,-1.4324573999166488,0.6074994451701641,-0.042494156858325
1772882752965686800,11.245686767578125,-0.9510609536617993,0.3681920918792486,-0.059372080292552705
1772882752975620000,11.2556201171875,-0.5168488679081201,0.18322423154115675,-0.03332695393189788
1772882752985552100,11.26555224609375,-0.23076515039503573,0.12646131083369255,-0.21034838531017302
1772882752995485200,11.275485107421876,0.5601175162702798,0.14441256258785723,-0.4354140088893473
1772882753005417200,11.285417236328126,1.0994903506755829,-0.09681436058878898,-0.3384361283019185
1772882753015350000,11.29535009765625,0.9601280572146177,-0.321523279684782,-0.0954008405290544
1772882753025283000,11.305282958984375,1.0555389807462692,-0.307250424182415,0.2564747611910105
1772882753035215000,11.315215087890625,1.1635644711792468,-0.1404185245156288,0.36632030665799975
1772882753045148200,11.325148193359375,1.4967559768259524,-0.1660334427654743,0.4141543632395565
1772882753055080200,11.335080078125,1.7839432716667651,-0.05381693038344383,0.42973274838253855
1772882753065013200,11.34501318359375,1.8040327044934032,0.07245265727043151,0.43411417833715676
1772882753074945000,11.354945068359376,1.3536989205002783,0.09712006553709507,0.4388081813722849
