time,seconds_elapsed,z,y,x
1772882741791563500,0.0715634765625,0.059317320585250854,-0.3967342674732208,-0.5078449249267578
1772882741801496600,0.08149658203125,0.013041170313954353,-0.5159160494804382,-0.5667383074760437
1772882741811428600,0.0914287109375,-0.0722138062119484,-0.6242830157279968,-0.6263638138771057
1772882741821361700,0.101361572265625,-0.14845877885818481,-0.6713317036628723,-0.6644119024276733
1772882741831293700,0.111293701171875,-0.1655680537223816,-0.6530510187149048,-0.6524530053138733
1772882741841226500,0.1212265625,-0.12543927133083344,-0.6014847755432129,-0.5912924408912659
1772882741851159600,0.13115966796875,-0.025133436545729637,-0.4714696705341339,-0.5009363889694214
1772882741861091600,0.141091552734375,0.10393373668193817,-0.29783132672309875,-0.4046873450279236
1772882741871024600,0.151024658203125,0.2148224413394928,-0.12099353224039078,-0.3267947733402252
1772882741880956700,0.160956787109375,0.28024300932884216,0.03850265219807625,-0.2856278717517853
1772882741890889700,0.1708896484375,0.2837885618209839,0.13223882019519806,-0.2725018262863159
1772882741900821500,0.180821533203125,0.2459639459848404,0.18659020960330963,-0.291476845741272
1772882741910754600,0.190754638671875,0.18279767036437988,0.23004700243473053,-0.33814284205436707
1772882741920686600,0.2006865234375,0.13828186690807343,0.2866050601005554,-0.3802242577075958
1772882741930619400,0.210619384765625,0.16448591649532318,0.1892126053571701,-0.392063170671463
1772882741940551400,0.220551513671875,0.1874210685491562,0.08266699314117432,-0.41445741057395935
1772882741950484500,0.230484375,0.2596701383590698,-0.008537307381629944,-0.4965830147266388
1772882741960416500,0.24041650390625,0.3675854206085205,0.0558006688952446,-0.546281099319458
1772882741970350000,0.25035009765625,0.426906555891037,0.20536261796951294,-0.5356839895248413
1772882741980283100,0.260283203125,0.45580318570137024,0.39745667576789856,-0.5180490612983704
1772882741990215000,0.27021484375,0.47205352783203125,0.6019178628921509,-0.5059286952018738
1772882742000147700,0.280147705078125,0.45171818137168884,0.7493086457252502,-0.4768994152545929
1772882742010079700,0.290079833984375,0.3963070511817932,0.8405638337135315,-0.43772271275520325
1772882742020012800,0.3000126953125,0.3382037878036499,0.8201983571052551,-0.4198734164237976
1772882742029944800,0.30994482421875,0.34741148352622986,0.6859842538833618,-0.3825594484806061
1772882742039878000,0.3198779296875,0.38551679253578186,0.5482327938079834,-0.3634510040283203
1772882742049810000,0.329809814453125,0.43528130650520325,0.386080801486969,-0.39971938729286194
1772882742059743000,0.339742919921875,0.40957754850387573,-0.04266442731022835,-0.533704936504364
1772882742069675000,0.349675048828125,0.31197890639305115,-0.26845017075538635,-0.7482829093933105
1772882742079608000,0.359608154296875,0.19999060034751892,-0.402372807264328,-0.9153874516487122
1772882742089540900,0.369540771484375,0.1228959783911705,-0.37330690026283264,-0.8913670182228088
1772882742099473000,0.379472900390625,0.12117024511098862,-0.24754390120506287,-0.7048205733299255
1772882742109406000,0.389406005859375,0.1798573136329651,-0.09069652110338211,-0.5005174875259399
1772882742119338000,0.399337890625,0.23103846609592438,0.1657182276248932,-0.38278183341026306
1772882742129271000,0.40927099609375,0.28112056851387024,0.3622410297393799,-0.3358522057533264
1772882742139202800,0.419202880859375,0.31987330317497253,0.42461758852005005,-0.31767213344573975
1772882742149136000,0.429135986328125,0.2307860106229782,0.2753320634365082,-0.4045577049255371
1772882742159068000,0.43906787109375,0.19290706515312195,0.27570784091949463,-0.3570604920387268
1772882742169001000,0.4490009765625,0.10275288671255112,0.3014817535877228,-0.2700178623199463
1772882742178933000,0.45893310546875,0.029624084010720253,0.287643700838089,-0.18334342539310455
1772882742188865800,0.46886572265625,-0.019345426931977272,0.2662658393383026,-0.10378476977348328
1772882742198798800,0.478798828125,-0.012012678198516369,0.2513401508331299,-0.03756340220570564
1772882742208731000,0.48873095703125,0.040988169610500336,0.21739046275615692,-0.007293864153325558
1772882742218664000,0.498663818359375,0.1176920086145401,0.19112557172775269,-0.036257874220609665
1772882742228596000,0.508595947265625,0.1800684630870819,0.14603076875209808,-0.12132830172777176
1772882742238529000,0.518529052734375,0.20655758678913116,0.10883865505456924,-0.2162497490644455
1772882742248461000,0.5284609375,0.20715546607971191,0.08211777359247208,-0.2904958724975586
1772882742258394000,0.53839404296875,0.1874278336763382,0.04561196267604828,-0.305449515581131
1772882742268326100,0.548326171875,0.14303815364837646,0.019218511879444122,-0.2892337143421173
1772882742278259000,0.558259033203125,0.09149453788995743,0.008862810209393501,-0.2495286613702774
1772882742288190700,0.568190673828125,0.0595279224216938,-0.0013227900490164757,-0.21055841445922852
1772882742298123800,0.578123779296875,0.07967500388622284,-0.026638798415660858,-0.24783840775489807
1772882742308055800,0.588055908203125,0.1403384506702423,-0.05727769806981087,-0.34820613265037537
1772882742317988900,0.59798876953125,0.17687542736530304,-0.10500074177980423,-0.4626277685165405
1772882742327922000,0.607921875,0.18235519528388977,-0.15756851434707642,-0.5993351340293884
1772882742337854000,0.61785400390625,0.16456902027130127,-0.22672441601753235,-0.7281631231307983
1772882742347787000,0.627787109375,0.13285066187381744,-0.27576860785484314,-0.82659912109375
1772882742357719000,0.637718994140625,0.09402710199356079,-0.2689277231693268,-0.8963646292686462
1772882742367651800,0.64765185546875,0.08264746516942978,-0.1810745745897293,-0.9133220911026001
1772882742377583900,0.657583984375,0.11206314712762833,-0.0921950414776802,-0.8440607190132141
1772882742387517000,0.667516845703125,0.11819597333669662,-0.08742298930883408,-0.6843163967132568
1772882742397449000,0.677448974609375,0.050566863268613815,-0.08588075637817383,-0.5046342611312866
1772882742407382000,0.687382080078125,-0.058607932180166245,-0.07815182209014893,-0.38589784502983093
1772882742417314000,0.69731396484375,-0.14976447820663452,-0.09949545562267303,-0.3438883423805237
1772882742427247000,0.7072470703125,-0.22287985682487488,-0.08702069520950317,-0.3720608353614807
1772882742437180200,0.71718017578125,-0.27003243565559387,-0.05138067156076431,-0.4291169345378876
1772882742447112000,0.72711181640625,-0.2716595232486725,0.00029879435896873474,-0.5107550621032715
1772882742457044700,0.737044677734375,-0.254060834646225,0.05907342955470085,-0.5972267985343933
1772882742466976800,0.746976806640625,-0.23438289761543274,0.10975107550621033,-0.6691011786460876
1772882742476909800,0.756909912109375,-0.226235494017601,0.18470200896263123,-0.7590837478637695
1772882742486841900,0.766841796875,-0.19955211877822876,0.27666300535202026,-0.8325503468513489
1772882742496775000,0.77677490234375,-0.1562962532043457,0.2982388734817505,-0.8639135956764221
1772882742506707000,0.78670703125,-0.09454255551099777,0.2652835249900818,-0.8272308707237244
1772882742516640000,0.796639892578125,-0.040210071951150894,0.1949334591627121,-0.7418003678321838
1772882742526572000,0.806572021484375,-0.019887801259756088,0.12716147303581238,-0.6312959790229797
1772882742536505000,0.816505126953125,-0.05397306755185127,0.06030361354351044,-0.4986846446990967
1772882742546438000,0.82643798828125,-0.12256251275539398,0.00396417360752821,-0.3686177134513855
1772882742556370000,0.836369873046875,-0.2126522958278656,-0.10468516498804092,-0.2737398147583008
1772882742566303000,0.846302978515625,-0.3090079724788666,-0.21632511913776398,-0.23796559870243073
1772882742576234800,0.85623486328125,-0.3939199149608612,-0.25778335332870483,-0.22900858521461487
1772882742586168000,0.86616796875,-0.44636914134025574,-0.21485242247581482,-0.2164139747619629
1772882742596099800,0.876099853515625,-0.4394393265247345,-0.1045011505484581,-0.1611190140247345
1772882742606033000,0.886032958984375,-0.3854380249977112,0.029854290187358856,-0.06555628031492233
1772882742615965000,0.89596484375,-0.2934340536594391,0.15054209530353546,0.0327596440911293
1772882742625898000,0.90589794921875,-0.16083699464797974,0.2561808228492737,0.08703048527240753
1772882742635830000,0.915830078125,-0.01967747136950493,0.23687024414539337,0.09398239850997925
1772882742645762800,0.9257626953125,0.10414029657840729,0.13443654775619507,0.02878507226705551
1772882742655696000,0.93569580078125,0.22615966200828552,0.022061007097363472,-0.10969185084104538
1772882742665628000,0.9456279296875,0.3468799591064453,-0.108110211789608,-0.2680284082889557
1772882742675561000,0.95556103515625,0.4488617181777954,-0.23807884752750397,-0.4037180542945862
1772882742685493000,0.965492919921875,0.5105555057525635,-0.35687556862831116,-0.5054075717926025
1772882742695426000,0.975426025390625,0.5322991609573364,-0.44485095143318176,-0.5636500716209412
1772882742705358000,0.985358154296875,0.5037151575088501,-0.46797624230384827,-0.5454521775245667
1772882742715291100,0.995291015625,0.4325166344642639,-0.4115249514579773,-0.42868539690971375
1772882742725223000,1.005222900390625,0.3314955234527588,-0.29508018493652344,-0.23009201884269714
1772882742735155700,1.01515576171875,0.21020105481147766,-0.15170329809188843,-0.0048719472251832485
1772882742745087700,1.025087646484375,0.08786853402853012,0.03391188010573387,0.1823270320892334
1772882742755020800,1.035020751953125,-0.027501465752720833,0.2476271092891693,0.33060091733932495
1772882742764953900,1.044953857421875,-0.14165551960468292,0.45411980152130127,0.4396006762981415
1772882742774886000,1.054885986328125,-0.2467459887266159,0.6405799984931946,0.5133543014526367
1772882742784819000,1.06481884765625,-0.3372909724712372,0.7935779094696045,0.5434626936912537
1772882742794751000,1.0747509765625,-0.3844294548034668,0.9293102025985718,0.5724035501480103
1772882742804684000,1.08468408203125,-0.3851549029350281,1.0144095420837402,0.5877755880355835
1772882742814616000,1.094615966796875,-0.33454206585884094,1.0188744068145752,0.5405470728874207
1772882742824548900,1.104548828125,-0.23158545792102814,0.9573084712028503,0.4104148745536804
1772882742834481000,1.11448095703125,-0.11419837921857834,0.8413975834846497,0.24273531138896942
1772882742844414000,1.1244140625,-0.0284992977976799,0.6721487045288086,0.10679256916046143
1772882742854346000,1.134345947265625,0.04745272547006607,0.5165615081787109,0.04178321361541748
1772882742864279000,1.144279052734375,0.15045005083084106,0.3360362946987152,-0.027743656188249588
1772882742874212000,1.154212158203125,0.22328032553195953,0.12778854370117188,-0.17732036113739014
1772882742884143900,1.164143798828125,0.2391309142112732,-0.06678056716918945,-0.36926549673080444
1772882742894077000,1.174076904296875,0.18642669916152954,-0.2547435462474823,-0.5528441071510315
1772882742904009000,1.184009033203125,0.06858102232217789,-0.4628695845603943,-0.6588640213012695
1772882742913941800,1.193941650390625,-0.06374400109052658,-0.6269112229347229,-0.6565073728561401
1772882742923873800,1.203873779296875,-0.17431296408176422,-0.7461695671081543,-0.586197018623352
1772882742933806800,1.213806884765625,-0.24466489255428314,-0.8068718314170837,-0.4803975522518158
1772882742943739000,1.22373876953125,-0.2872304618358612,-0.7464120984077454,-0.3567507565021515
1772882742953672000,1.233671875,-0.2988479733467102,-0.5955964922904968,-0.23016327619552612
1772882742963604000,1.24360400390625,-0.2582595944404602,-0.3587244749069214,-0.13306641578674316
1772882742973537000,1.253537109375,-0.17186610400676727,-0.06943485140800476,-0.057269394397735596
1772882742983470000,1.263469970703125,-0.03903619945049286,0.21856147050857544,-0.011703833006322384
1772882742993402000,1.273402099609375,0.11070828884840012,0.39756664633750916,0.023522598668932915
1772882743003335000,1.2833349609375,0.20729367434978485,0.45802462100982666,0.012710853479802608
1772882743013266700,1.2932666015625,0.25212374329566956,0.4210790991783142,-0.051967475563287735
1772882743023199700,1.30319970703125,0.25539302825927734,0.27310115098953247,-0.16682204604148865
1772882743033131800,1.3131318359375,0.23869207501411438,0.0357583686709404,-0.326728880405426
1772882743043064800,1.32306494140625,0.2168155014514923,-0.20076777040958405,-0.5178931355476379
1772882743052996900,1.332996826171875,0.20630480349063873,-0.3833988308906555,-0.6862680315971375
1772882743062930000,1.342929931640625,0.22023014724254608,-0.5234418511390686,-0.7953118085861206
1772882743072862000,1.352862060546875,0.2518876791000366,-0.5663037896156311,-0.849000096321106
1772882743082795000,1.362794921875,0.29185885190963745,-0.5174468159675598,-0.8265688419342041
1772882743092727800,1.372727783203125,0.3236977458000183,-0.41072702407836914,-0.7413405179977417
1772882743102659800,1.382659912109375,0.35826098918914795,-0.2808534801006317,-0.5999754667282104
1772882743112593000,1.392593017578125,0.37924909591674805,-0.18665480613708496,-0.41593077778816223
1772882743122525000,1.40252490234375,0.38666531443595886,-0.1290309578180313,-0.24246521294116974
1772882743132458000,1.4124580078125,0.39197325706481934,-0.1300586611032486,-0.11532270908355713
1772882743142390000,1.42239013671875,0.388349324464798,-0.17993883788585663,-0.039841532707214355
1772882743152323000,1.432322998046875,0.40004992485046387,-0.2606281042098999,-0.005063309334218502
1772882743162254800,1.4422548828125,0.4307797849178314,-0.3681083023548126,0.012990140356123447
1772882743172188000,1.45218798828125,0.4637627601623535,-0.4648313820362091,0.029255129396915436
1772882743182120000,1.462119873046875,0.4928057789802551,-0.5233777165412903,0.04858224093914032
1772882743192052700,1.472052734375,0.5118351578712463,-0.5181587338447571,0.08325633406639099
1772882743201985800,1.48198583984375,0.4859316051006317,-0.44387686252593994,0.13712380826473236
1772882743211917800,1.491917724609375,0.4348644018173218,-0.3236237168312073,0.1844598948955536
1772882743221851000,1.501850830078125,0.405147910118103,-0.22543567419052124,0.20950764417648315
1772882743231783000,1.511782958984375,0.38949546217918396,-0.16954630613327026,0.20652331411838531
1772882743241716000,1.521716064453125,0.3866724967956543,-0.15708336234092712,0.16315312683582306
1772882743251648000,1.53164794921875,0.4160727262496948,-0.196882963180542,0.08951378613710403
1772882743261581000,1.5415810546875,0.4649277627468109,-0.27565431594848633,-0.00747759360820055
1772882743271513000,1.55151318359375,0.5133150219917297,-0.3492680788040161,-0.09286413341760635
1772882743281446000,1.56144580078125,0.5463153123855591,-0.4135267734527588,-0.16607877612113953
1772882743291377700,1.571377685546875,0.5781225562095642,-0.4509529769420624,-0.2209920883178711
1772882743301310700,1.581310791015625,0.5924236178398132,-0.43447354435920715,-0.2376597374677658
1772882743311242800,1.59124267578125,0.5954865217208862,-0.3808284401893616,-0.20555292069911957
1772882743321175800,1.60117578125,0.5871188640594482,-0.3073151111602783,-0.11465077102184296
1772882743331108900,1.61110888671875,0.5718464255332947,-0.2649348974227905,0.024309778586030006
1772882743341041000,1.621041015625,0.548093855381012,-0.308631032705307,0.14478126168251038
1772882743350974000,1.630973876953125,0.5201902985572815,-0.4095531105995178,0.19164970517158508
1772882743360906000,1.640906005859375,0.5025463104248047,-0.5409330725669861,0.1350516825914383
1772882743370838800,1.6508388671875,0.518048882484436,-0.6634286642074585,-0.03239084407687187
1772882743380770800,1.660770751953125,0.5842220187187195,-0.7726715803146362,-0.25654715299606323
1772882743390703900,1.670703857421875,0.6976215839385986,-0.8865611553192139,-0.47712984681129456
1772882743400636000,1.680635986328125,0.8245012164115906,-0.9864602088928223,-0.6352483034133911
1772882743410569000,1.69056884765625,0.9291083216667175,-1.0520086288452148,-0.6595835089683533
1772882743420501000,1.7005009765625,0.9582864046096802,-1.0815004110336304,-0.5396453142166138
1772882743430434000,1.71043408203125,0.9004092812538147,-1.1048400402069092,-0.33775344491004944
1772882743440367000,1.7203671875,0.7685924172401428,-1.1157286167144775,-0.1521696001291275
1772882743450299000,1.730298828125,0.5740442276000977,-1.0469378232955933,0.004863958805799484
1772882743460231700,1.740231689453125,0.34212127327919006,-0.8911361694335938,0.18723030388355255
1772882743470163700,1.750163818359375,0.15635938942432404,-0.694304883480072,0.40412506461143494
1772882743480096800,1.7600966796875,0.050808995962142944,-0.48159027099609375,0.6452667117118835
1772882743490028800,1.77002880859375,0.02099517546594143,-0.26610246300697327,0.8630749583244324
1772882743499961900,1.7799619140625,0.05379652976989746,-0.07344604283571243,1.0185960531234741
1772882743509894000,1.789893798828125,0.1313917338848114,0.10921138525009155,1.1207026243209839
1772882743519827000,1.799826904296875,0.22002743184566498,0.29396918416023254,1.191878080368042
1772882743529759000,1.809759033203125,0.28346869349479675,0.41666287183761597,1.252166986465454
1772882743539692000,1.819692138671875,0.3204003572463989,0.4724482595920563,1.2556862831115723
1772882743549624800,1.829624755859375,0.34163960814476013,0.46938401460647583,1.1728403568267822
1772882743559556900,1.839556884765625,0.3471469283103943,0.3923886716365814,1.0074132680892944
1772882743569490000,1.849489990234375,0.33447107672691345,0.26233264803886414,0.7793745398521423
1772882743579422000,1.859421875,0.3180192708969116,0.06646868586540222,0.4802720844745636
1772882743589355000,1.86935498046875,0.315262109041214,-0.18109823763370514,0.11138381063938141
1772882743599286800,1.879286865234375,0.37308159470558167,-0.4703718423843384,-0.29303741455078125
1772882743609219800,1.8892197265625,0.4695916175842285,-0.7445509433746338,-0.6870497465133667
1772882743619152000,1.89915185546875,0.5879405736923218,-0.9700586199760437,-1.0214234590530396
1772882743629085000,1.9090849609375,0.7467560768127441,-1.1374614238739014,-1.2525660991668701
1772882743639017000,1.919016845703125,0.9164345264434814,-1.202581524848938,-1.3503892421722412
1772882743648949800,1.92894970703125,1.0501770973205566,-1.177798867225647,-1.2882637977600098
1772882743658882800,1.9388828125,1.102371335029602,-1.0780576467514038,-1.0821713209152222
1772882743668814800,1.94881494140625,1.0506408214569092,-0.9059500694274902,-0.7825324535369873
1772882743678748000,1.958747802734375,0.9120451807975769,-0.6860108375549316,-0.43114566802978516
1772882743688680000,1.968679931640625,0.7357255220413208,-0.45356082916259766,-0.07000556588172913
1772882743698613000,1.978613037109375,0.5690916180610657,-0.2517658472061157,0.25590837001800537
1772882743708545000,1.988544921875,0.4413403272628784,-0.1614210158586502,0.5058943033218384
1772882743718478000,1.99847802734375,0.369490385055542,-0.13888108730316162,0.6405138969421387
1772882743728410000,2.00841015625,0.34428995847702026,-0.17277753353118896,0.651780903339386
1772882743738343000,2.018343017578125,0.32909077405929565,-0.2624143362045288,0.5820490717887878
1772882743748274700,2.028274658203125,0.29640820622444153,-0.3504568636417389,0.4992274343967438
1772882743758207700,2.038207763671875,0.2427026927471161,-0.36781683564186096,0.41932159662246704
1772882743768139800,2.048139892578125,0.1975083202123642,-0.3339235782623291,0.3668871521949768
1772882743778072800,2.05807275390625,0.15777890384197235,-0.26036810874938965,0.35539528727531433
1772882743788006000,2.068005859375,0.1267959624528885,-0.15224909782409668,0.3719708025455475
1772882743797938000,2.07793798828125,0.10709837079048157,-0.03747083619236946,0.3917067348957062
1772882743807871000,2.08787109375,0.0945194661617279,0.06339772045612335,0.3898177742958069
1772882743817803000,2.097802978515625,0.09223596006631851,0.13695600628852844,0.34283870458602905
1772882743827735800,2.10773583984375,0.12689566612243652,0.13836802542209625,0.263312965631485
1772882743837667800,2.117667724609375,0.15342815220355988,0.05831319838762283,0.15630517899990082
1772882743847601000,2.127600830078125,0.14378511905670166,-0.031577810645103455,0.03161118924617767
1772882743857533000,2.137532958984375,0.110470250248909,-0.09472198784351349,-0.09954087436199188
1772882743867466000,2.147466064453125,0.08788610994815826,-0.1507873833179474,-0.2041783332824707
1772882743877399000,2.15739892578125,0.05078785866498947,-0.180433988571167,-0.240793839097023
1772882743887331000,2.1673310546875,-0.00861288607120514,-0.18087419867515564,-0.22445587813854218
1772882743897264000,2.17726416015625,-0.05626525357365608,-0.14109815657138824,-0.1869339793920517
1772882743907196000,2.18719580078125,-0.0982917994260788,-0.0756874606013298,-0.1516345739364624
1772882743917128700,2.197128662109375,-0.12742683291435242,0.011192157864570618,-0.13426290452480316
1772882743927060700,2.207060791015625,-0.15053614974021912,0.09823571890592575,-0.09914939850568771
1772882743936993800,2.216993896484375,-0.1706213504076004,0.16977325081825256,-0.034361179918050766
1772882743946925800,2.22692578125,-0.19097615778446198,0.23321959376335144,0.027679553255438805
1772882743956859000,2.23685888671875,-0.21621067821979523,0.29351410269737244,0.07090505212545395
1772882743966791000,2.246791015625,-0.27674242854118347,0.347116082906723,0.08494018018245697
1772882743976723200,2.25672314453125,-0.3555004298686981,0.4054305851459503,0.05061565339565277
1772882743986655200,2.2666552734375,-0.42864254117012024,0.4518715739250183,-0.02086332067847252
1772882743996588300,2.27658837890625,-0.4904819130897522,0.4811479449272156,-0.08429610729217529
1772882744006521300,2.286521240234375,-0.53182053565979,0.480184942483902,-0.1275588870048523
1772882744016453400,2.296453369140625,-0.5500755310058594,0.44222861528396606,-0.15096037089824677
1772882744026386200,2.30638623046875,-0.5537704229354858,0.3858353793621063,-0.16009874641895294
1772882744036318200,2.316318115234375,-0.5480003952980042,0.3556295335292816,-0.15860359370708466
1772882744046251300,2.326251220703125,-0.5233867168426514,0.3481215536594391,-0.16122201085090637
1772882744056183300,2.336183349609375,-0.4647710919380188,0.3648483455181122,-0.14376574754714966
1772882744066116400,2.346116455078125,-0.3851338028907776,0.3276972472667694,-0.08665265142917633
1772882744076048400,2.35604833984375,-0.3003157377243042,0.22340036928653717,-0.02767891436815262
1772882744085981400,2.3659814453125,-0.23407146334648132,-0.006729228422045708,0.024652734398841858
1772882744095913200,2.375913330078125,-0.2097124457359314,-0.3331480622291565,0.0227460116147995
1772882744105846300,2.38584619140625,-0.241927370429039,-0.6646655201911926,-0.12416114658117294
1772882744115779000,2.395779052734375,-0.3060016334056854,-0.9638435244560242,-0.35467201471328735
1772882744125711000,2.405711181640625,-0.36252909898757935,-1.0758910179138184,-0.5402191877365112
1772882744135644200,2.41564404296875,-0.34732717275619507,-0.9270418882369995,-0.6388209462165833
1772882744145576200,2.425576171875,-0.25835683941841125,-0.6178270578384399,-0.6362813711166382
1772882744155509200,2.43550927734375,-0.13268300890922546,-0.26222971081733704,-0.5230065584182739
1772882744165441300,2.445441162109375,-0.02278740145266056,0.12364049255847931,-0.29005852341651917
1772882744175374300,2.455374267578125,0.05253520607948303,0.44983938336372375,0.10253666341304779
1772882744185306400,2.465306396484375,0.09951416403055191,0.6417449116706848,0.5274940729141235
1772882744195239400,2.475239501953125,0.13251255452632904,0.7085973620414734,0.8898285627365112
1772882744205171500,2.48517138671875,0.15920141339302063,0.616134524345398,1.1534316539764404
1772882744215104300,2.495104248046875,0.19781926274299622,0.38847821950912476,1.3184666633605957
1772882744225037300,2.505037353515625,0.24283015727996826,0.09274163842201233,1.3679585456848145
1772882744234969300,2.51496923828125,0.24780850112438202,-0.2003660947084427,1.283524513244629
1772882744244902400,2.52490234375,0.19875067472457886,-0.43207603693008423,1.078813076019287
1772882744254834200,2.534834228515625,0.08905396610498428,-0.6033907532691956,0.7858514189720154
1772882744264767200,2.544767333984375,-0.0526278018951416,-0.6899858117103577,0.44390368461608887
1772882744274699300,2.55469921875,-0.20244376361370087,-0.6756458282470703,0.10605145245790482
1772882744284632300,2.56463232421875,-0.3231339752674103,-0.5687057971954346,-0.15612344443798065
1772882744294564400,2.574564453125,-0.39383256435394287,-0.35702836513519287,-0.341465026140213
1772882744304497200,2.5844970703125,-0.4339909255504608,-0.039947327226400375,-0.43819740414619446
1772882744314429200,2.59442919921875,-0.44250696897506714,0.35741400718688965,-0.4634853005409241
1772882744324362200,2.6043623046875,-0.399595707654953,0.7176432609558105,-0.43545234203338623
1772882744334295300,2.61429541015625,-0.2928752899169922,0.949246346950531,-0.4064250588417053
1772882744344227300,2.624227294921875,-0.1315188854932785,0.9842610359191895,-0.3973066508769989
1772882744354160400,2.634160400390625,0.07616681605577469,0.8544914126396179,-0.4248234033584595
1772882744364092400,2.644092529296875,0.32651248574256897,0.5940039157867432,-0.48168936371803284
1772882744374025500,2.654025390625,0.5974162220954895,0.25910934805870056,-0.539639413356781
1772882744383957500,2.66395751953125,0.8421282768249512,-0.05042719095945358,-0.5683261752128601
1772882744393890300,2.673890380859375,0.9899542927742004,-0.3082008957862854,-0.5358728170394897
1772882744403822000,2.683822021484375,1.0107873678207397,-0.4991026818752289,-0.4284222424030304
1772882744413755100,2.693755126953125,0.9325844049453735,-0.6186990737915039,-0.261686235666275
1772882744423687200,2.703687255859375,0.7951522469520569,-0.6634649038314819,-0.09675213694572449
1772882744433620200,2.7136201171875,0.6445222496986389,-0.6455411314964294,0.028092246502637863
1772882744443553300,2.72355322265625,0.506968080997467,-0.5629737973213196,0.0862644761800766
1772882744453485300,2.7334853515625,0.4144909679889679,-0.4498195946216583,0.05496455729007721
1772882744463418400,2.74341845703125,0.3662198483943939,-0.32574400305747986,-0.06154660880565643
1772882744473350400,2.753350341796875,0.3711915910243988,-0.23875053226947784,-0.22311607003211975
1772882744483283200,2.763283203125,0.4236540198326111,-0.20572920143604279,-0.39824819564819336
1772882744493215200,2.77321533203125,0.5006181597709656,-0.20598968863487244,-0.5502231121063232
1772882744503148300,2.783148193359375,0.5879813432693481,-0.215042844414711,-0.6397961378097534
1772882744513080300,2.793080322265625,0.6536263823509216,-0.30936044454574585,-0.6467314958572388
1772882744523013400,2.803013427734375,0.6755735278129578,-0.40547022223472595,-0.5912101864814758
1772882744532945200,2.812945068359375,0.6753572225570679,-0.463008850812912,-0.5005475282669067
1772882744542878200,2.822878173828125,0.6797564625740051,-0.5069280862808228,-0.4002414643764496
1772882744552811300,2.832811279296875,0.699003279209137,-0.508817195892334,-0.3189464509487152
1772882744562743300,2.842743408203125,0.735527753829956,-0.48038873076438904,-0.26231884956359863
1772882744572676000,2.852676025390625,0.7945743203163147,-0.44039657711982727,-0.22225721180438995
1772882744582608100,2.862608154296875,0.8623560070991516,-0.40371179580688477,-0.178824782371521
1772882744592541200,2.872541259765625,0.9175418019294739,-0.4018523395061493,-0.15347355604171753
1772882744602473200,2.88247314453125,0.9519674181938171,-0.3984946310520172,-0.14415276050567627
1772882744612406300,2.89240625,0.9495916962623596,-0.42183610796928406,-0.12694361805915833
1772882744622338300,2.90233837890625,0.9331834316253662,-0.45044031739234924,-0.10588040947914124
1772882744632271400,2.912271240234375,0.9208205342292786,-0.4917186200618744,-0.07596997916698456
1772882744642203400,2.922203369140625,0.9230102300643921,-0.5333930850028992,-0.04524030163884163
1772882744652136400,2.932136474609375,0.9490590691566467,-0.5807369351387024,-0.033626846969127655
1772882744662068500,2.942068359375,0.99148029088974,-0.618483304977417,-0.030249956995248795
1772882744672001300,2.952001220703125,1.0348206758499146,-0.646340012550354,-0.03312624245882034
1772882744681934300,2.961934326171875,1.0874807834625244,-0.652101993560791,-0.04213518276810646
1772882744691866000,2.9718662109375,1.138944387435913,-0.6514654755592346,-0.04718451946973801
1772882744701799200,2.981799072265625,1.190201759338379,-0.6633599400520325,-0.06230195239186287
1772882744711731200,2.991731201171875,1.2373132705688477,-0.6887450218200684,-0.09561605006456375
1772882744721664300,3.001664306640625,1.2549569606781006,-0.730017364025116,-0.13999657332897186
1772882744731596300,3.01159619140625,1.265007734298706,-0.768538236618042,-0.18992669880390167
1772882744741529300,3.021529296875,1.2790777683258057,-0.8139757513999939,-0.23910170793533325
1772882744751461400,3.03146142578125,1.2900513410568237,-0.8551884889602661,-0.26838985085487366
1772882744761394200,3.041394287109375,1.2967747449874878,-0.8627492189407349,-0.2873813807964325
1772882744771326200,3.051326171875,1.301831841468811,-0.8491817116737366,-0.2925814092159271
1772882744781259300,3.06125927734375,1.2995394468307495,-0.8255466818809509,-0.2883453965187073
1772882744791192300,3.0711923828125,1.2995041608810425,-0.7885541319847107,-0.27951982617378235
1772882744801124400,3.081124267578125,1.3004027605056763,-0.7801960706710815,-0.2703670859336853
1772882744811057400,3.091057373046875,1.2814433574676514,-0.7688760757446289,-0.26450115442276
1772882744820989400,3.100989501953125,1.2550921440124512,-0.7517279982566833,-0.2778095006942749
1772882744830922200,3.110922119140625,1.2323589324951172,-0.7424793839454651,-0.2829371988773346
1772882744840854300,3.120854248046875,1.2035866975784302,-0.7412852048873901,-0.2630034387111664
1772882744850787000,3.130787109375,1.1764330863952637,-0.749740481376648,-0.21950258314609528
1772882744860719000,3.140718994140625,1.1591715812683105,-0.7683002948760986,-0.177028626203537
1772882744870652200,3.150652099609375,1.142790675163269,-0.8148812055587769,-0.13582107424736023
1772882744880584200,3.160584228515625,1.11992609500885,-0.879721999168396,-0.11314904689788818
1772882744890517200,3.170517333984375,1.099952220916748,-0.9648361802101135,-0.11242925375699997
1772882744900450300,3.1804501953125,1.0995274782180786,-1.0870757102966309,-0.18278783559799194
1772882744910382300,3.19038232421875,1.1335563659667969,-1.1933720111846924,-0.3688666522502899
1772882744920315400,3.2003154296875,1.2627886533737183,-1.2391778230667114,-0.6346530914306641
1772882744930247400,3.210247314453125,1.4905413389205933,-1.1887035369873047,-0.9321333169937134
1772882744940180200,3.22018017578125,1.7599595785140991,-1.038572072982788,-1.1620054244995117
1772882744950112300,3.2301123046875,1.9368938207626343,-0.8401856422424316,-1.1702871322631836
1772882744960045300,3.24004541015625,1.9299567937850952,-0.6421207785606384,-0.9207909107208252
1772882744969977900,3.249977783203125,1.7014448642730713,-0.5135058164596558,-0.48187127709388733
1772882744979911000,3.259910888671875,1.3006401062011719,-0.4480293095111847,0.044841792434453964
1772882744989842700,3.2698427734375,0.8509979248046875,-0.4154403805732727,0.5155917406082153
1772882744999776000,3.27977587890625,0.5018084645271301,-0.35671180486679077,0.8259235620498657
1772882745009708800,3.289708740234375,0.3346608877182007,-0.2716805934906006,0.9810797572135925
1772882745019640600,3.299640625,0.34588825702667236,-0.15112783014774323,0.9977610111236572
1772882745029573600,3.30957373046875,0.4992804229259491,-0.024849822744727135,0.9211310148239136
1772882745039505700,3.319505615234375,0.7482265830039978,0.05804159492254257,0.7799291610717773
1772882745049438700,3.329438720703125,1.0230927467346191,0.09161626547574997,0.5691669583320618
1772882745059370800,3.339370849609375,1.2282755374908447,-0.0647062286734581,0.20805856585502625
1772882745069303800,3.3493037109375,1.3930660486221313,-0.3718133568763733,-0.2061547487974167
1772882745079235800,3.35923583984375,1.518609881401062,-0.6991150975227356,-0.5750870108604431
1772882745089169000,3.3691689453125,1.619055986404419,-0.9625635147094727,-0.802768886089325
1772882745099101700,3.379101806640625,1.6695858240127563,-1.1029609441757202,-0.8777571320533752
1772882745109033700,3.38903369140625,1.6544708013534546,-1.1737500429153442,-0.9004004597663879
1772882745118966800,3.398966796875,1.5886644124984741,-1.1914057731628418,-0.9308038949966431
1772882745128898800,3.40889892578125,1.448885202407837,-1.1851507425308228,-0.9267855882644653
1772882745138832000,3.418831787109375,1.2736241817474365,-1.1419345140457153,-0.8658652305603027
1772882745148763600,3.428763671875,1.1198803186416626,-1.0706837177276611,-0.7283454537391663
1772882745158696700,3.43869677734375,1.0146352052688599,-0.9815235137939453,-0.532016932964325
1772882745168628700,3.448628662109375,0.9583249688148499,-0.8676714897155762,-0.30239781737327576
1772882745178561800,3.458561767578125,0.9179887175559998,-0.7613551616668701,-0.0863155722618103
1772882745188493800,3.468493896484375,0.8720821738243103,-0.6554712653160095,0.08014319837093353
1772882745198426600,3.478426513671875,0.8261599540710449,-0.5600243806838989,0.1879788488149643
1772882745208359700,3.488359619140625,0.7857663035392761,-0.47278526425361633,0.25901293754577637
1772882745218291700,3.498291748046875,0.7665920853614807,-0.3903026282787323,0.28129827976226807
1772882745228224800,3.508224853515625,0.7676439881324768,-0.3109557330608368,0.261783242225647
1772882745238156800,3.51815673828125,0.7758614420890808,-0.22492337226867676,0.20916052162647247
1772882745248089900,3.52808984375,0.7839683890342712,-0.1476789116859436,0.13647806644439697
1772882745258022000,3.53802197265625,0.7803874611854553,-0.07467102259397507,0.05964213237166405
1772882745267955000,3.547954833984375,0.7621981501579285,-0.05435904860496521,-0.0010885321535170078
1772882745277887000,3.557886962890625,0.7370342016220093,-0.08361732959747314,-0.06305097043514252
1772882745287819800,3.56781982421875,0.7243935465812683,-0.15467415750026703,-0.11680841445922852
1772882745297751600,3.57775146484375,0.7153550386428833,-0.2721392810344696,-0.16094471514225006
1772882745307684600,3.5876845703125,0.7091017961502075,-0.42364418506622314,-0.2022877037525177
1772882745317616600,3.59761669921875,0.7132059931755066,-0.580859899520874,-0.2665228545665741
1772882745327549700,3.6075498046875,0.7240943312644958,-0.7183804512023926,-0.32683536410331726
1772882745337482800,3.617482666015625,0.7269209623336792,-0.7956254482269287,-0.3686427175998688
1772882745347414800,3.627414794921875,0.7185973525047302,-0.8120885491371155,-0.39472711086273193
1772882745357347800,3.637347900390625,0.7001078128814697,-0.7840726375579834,-0.4030399024486542
1772882745367279900,3.64727978515625,0.6708630323410034,-0.7400236129760742,-0.3977004289627075
1772882745377212700,3.657212646484375,0.6520763039588928,-0.7051275968551636,-0.3846357464790344
1772882745387144700,3.667144775390625,0.6513915657997131,-0.6756063103675842,-0.36333754658699036
1772882745397077800,3.677077880859375,0.6488250494003296,-0.6514884233474731,-0.33844712376594543
1772882745407009800,3.687009765625,0.6156046986579895,-0.627808690071106,-0.3191327452659607
1772882745416942800,3.69694287109375,0.5621526837348938,-0.5828617215156555,-0.2880201041698456
1772882745426876000,3.7068759765625,0.5029606819152832,-0.5187700986862183,-0.25065889954566956
1772882745436808000,3.716807861328125,0.4427359104156494,-0.4395735561847687,-0.21311739087104797
1772882745446741000,3.726740966796875,0.35859474539756775,-0.3565995991230011,-0.17331409454345703
1772882745456672800,3.7366728515625,0.2625805735588074,-0.2780536711215973,-0.15433640778064728
1772882745466605600,3.74660546875,0.17530816793441772,-0.22373825311660767,-0.1501922756433487
1772882745476537600,3.75653759765625,0.124735526740551,-0.19383415579795837,-0.14870783686637878
1772882745486470700,3.766470703125,0.10747643560171127,-0.18575647473335266,-0.13335704803466797
1772882745496402700,3.776402587890625,0.11662199348211288,-0.18819034099578857,-0.09806855767965317
1772882745506335700,3.786335693359375,0.12543828785419464,-0.2084919661283493,-0.05756013095378876
1772882745516267800,3.796267822265625,0.11838356405496597,-0.22030147910118103,-0.034206874668598175
1772882745526200800,3.806200927734375,0.0881577581167221,-0.21246162056922913,-0.021653687581419945
1772882745536134000,3.8161337890625,0.0411982387304306,-0.18629978597164154,-0.011660442687571049
1772882745546066000,3.82606591796875,-0.0014634731924161315,-0.15171204507350922,-0.0032164668664336205
1772882745555998700,3.835998779296875,-0.022391658276319504,-0.11367198824882507,0.0066454848274588585
1772882745565930800,3.8459306640625,-0.02523740381002426,-0.08195523917675018,0.011523449793457985
1772882745575863800,3.85586376953125,-0.019655950367450714,-0.06342949718236923,0.003650346538051963
1772882745585795800,3.8657958984375,-0.012788619846105576,-0.06436812877655029,-0.014121372252702713
1772882745595729000,3.87572900390625,0.0005551489302888513,-0.07853614538908005,-0.0223982110619545
1772882745605660700,3.88566064453125,0.018733302131295204,-0.12571322917938232,-0.004769898019731045
1772882745615593700,3.89559375,0.030579574406147003,-0.1951170712709427,0.022465184330940247
1772882745625525800,3.90552587890625,0.019878463819622993,-0.22529718279838562,0.028275858610868454
1772882745635458800,3.915458740234375,0.0025024020578712225,-0.20326511561870575,0.020461611449718475
1772882745645391600,3.9253916015625,-0.019040759652853012,-0.14114399254322052,0.027043020352721214
1772882745655323600,3.93532373046875,-0.00545917171984911,-0.040698882192373276,0.0676271989941597
1772882745665256700,3.945256591796875,0.048008259385824203,0.026098212227225304,0.1552717685699463
1772882745675188700,3.955188720703125,0.10208187997341156,0.06223171949386597,0.2765476107597351
1772882745685121800,3.965121826171875,0.13570882380008698,0.057773321866989136,0.3935181796550751
1772882745695053800,3.9750537109375,0.15101240575313568,0.031094035133719444,0.4870167076587677
1772882745704987000,3.98498681640625,0.16185574233531952,-0.02043520286679268,0.5475130081176758
1772882745714917600,3.994917724609375,0.1901901811361313,-0.06772894412279129,0.5810611248016357
1772882745724850700,4.0048505859375,0.2446439415216446,-0.10540566593408585,0.5867313742637634
1772882745734782700,4.01478271484375,0.3099031150341034,-0.10290176421403885,0.5612542629241943
1772882745744715800,4.0247158203125,0.366595983505249,-0.0407809242606163,0.535793662071228
1772882745754647800,4.034647705078125,0.36813101172447205,0.043015435338020325,0.547905445098877
1772882745764580600,4.04458056640625,0.3158693313598633,0.04843008890748024,0.5658931136131287
1772882745774512600,4.0545126953125,0.17761823534965515,-0.009997001849114895,0.47568652033805847
1772882745784445700,4.06444580078125,-0.01892661675810814,-0.1433379352092743,0.27436864376068115
1772882745794378800,4.074378662109375,-0.21645140647888184,-0.2276456356048584,0.0064996532164514065
1772882745804310800,4.084310791015625,-0.3983665704727173,-0.18015961349010468,-0.2684326171875
1772882745814243800,4.094243896484375,-0.46597012877464294,-0.04949215054512024,-0.47551682591438293
1772882745824175900,4.10417578125,-0.31988754868507385,0.12644235789775848,-0.5395930409431458
1772882745834109000,4.11410888671875,0.00584685243666172,0.2623317539691925,-0.40651488304138184
1772882745844041000,4.124041015625,0.43181201815605164,0.20414535701274872,-0.15604735910892487
1772882745853973800,4.133973876953125,0.8434104323387146,-0.01819370687007904,0.07783491164445877
1772882745863905800,4.14390576171875,1.1414552927017212,-0.27076825499534607,0.31624293327331543
1772882745873838600,4.153838623046875,1.2726753950119019,-0.5215384364128113,0.5055926442146301
1772882745883770600,4.1637705078125,1.2731080055236816,-0.7242811918258667,0.5505080819129944
1772882745893703700,4.17370361328125,1.1435739994049072,-0.8013628721237183,0.42629775404930115
1772882745903636700,4.18363671875,0.9153549671173096,-0.7257220149040222,0.23207120597362518
1772882745913568800,4.19356884765625,0.6626100540161133,-0.5397473573684692,0.05634278059005737
1772882745923501800,4.203501708984375,0.4389750063419342,-0.29607534408569336,-0.043255455791950226
1772882745933433900,4.213433837890625,0.2530837059020996,-0.034096747636795044,-0.043919116258621216
1772882745943366700,4.22336669921875,0.09457895904779434,0.21925537288188934,0.07753093540668488
1772882745953298700,4.233298583984375,-0.05869847163558006,0.4026707410812378,0.2821378707885742
1772882745963231700,4.243231689453125,-0.20350781083106995,0.5249803066253662,0.5104430913925171
1772882745973163300,4.253163330078125,-0.3581511974334717,0.6041707396507263,0.7122992277145386
1772882745983096300,4.263096435546875,-0.524156391620636,0.6474158763885498,0.8511462211608887
1772882745993029400,4.273029296875,-0.6737727522850037,0.638210654258728,0.8946199417114258
1772882746002961200,4.282961181640625,-0.7556638121604919,0.5473888516426086,0.8102725744247437
1772882746012894200,4.292894287109375,-0.7636128067970276,0.3859187364578247,0.5822293162345886
1772882746022826200,4.302826171875,-0.6752347946166992,0.21916404366493225,0.25316953659057617
1772882746032759300,4.31275927734375,-0.4631557762622833,0.10142622888088226,-0.09085412323474884
1772882746042691300,4.32269140625,-0.1819063127040863,0.08527757227420807,-0.3771733045578003
1772882746052624100,4.3326240234375,0.11389843374490738,0.17428787052631378,-0.5443151593208313
1772882746062556200,4.34255615234375,0.3305743634700775,0.27345940470695496,-0.577660083770752
1772882746072489200,4.3524892578125,0.4499201774597168,0.3545348048210144,-0.5409231185913086
1772882746082421200,4.362421142578125,0.4532795250415802,0.3653819262981415,-0.4734651744365692
1772882746092355300,4.372355224609375,0.3583700656890869,0.27499663829803467,-0.3734099268913269
1772882746102287400,4.382287353515625,0.2448945790529251,0.05469908192753792,-0.23376250267028809
1772882746112220200,4.39222021484375,0.12317001074552536,-0.18887417018413544,-0.10712998360395432
1772882746122152400,4.40215234375,0.07846470922231674,-0.41374966502189636,-0.049311887472867966
1772882746132085200,4.412085205078125,0.12975531816482544,-0.5914936065673828,-0.08648775517940521
1772882746142017300,4.422017333984375,0.21473130583763123,-0.6971836090087891,-0.20613034069538116
1772882746151950300,4.431950439453125,0.2901586890220642,-0.7240716814994812,-0.36216628551483154
1772882746161882000,4.441882080078125,0.3256545662879944,-0.677833080291748,-0.5195980072021484
1772882746171815200,4.451815185546875,0.31647732853889465,-0.5862219333648682,-0.6272214651107788
1772882746181748200,4.461748291015625,0.3132161498069763,-0.4531433880329132,-0.6645135283470154
1772882746191680300,4.47168017578125,0.30309560894966125,-0.26550158858299255,-0.6413347125053406
1772882746201613300,4.48161328125,0.23845666646957397,-0.12438901513814926,-0.5652928352355957
1772882746211545300,4.49154541015625,0.16578085720539093,-0.1232566386461258,-0.4565088450908661
1772882746221478100,4.50147802734375,0.10240679234266281,-0.15814001858234406,-0.35247841477394104
1772882746231410200,4.51141015625,0.06176269054412842,-0.17644605040550232,-0.23406974971294403
1772882746241343200,4.52134326171875,0.05862894281744957,-0.17178350687026978,-0.12556879222393036
1772882746251275300,4.531275146484375,0.08741825073957443,-0.13473013043403625,-0.04493626952171326
1772882746261208300,4.541208251953125,0.11340580880641937,-0.0852256789803505,0.010334279388189316
1772882746271140400,4.551140380859375,0.144333615899086,-0.06009262800216675,0.02800009213387966
1772882746281073400,4.561073486328125,0.16075201332569122,-0.033300697803497314,0.007229832466691732
1772882746291006200,4.571006103515625,0.1665494441986084,-0.020228037610650063,-0.05317412316799164
1772882746300938200,4.580938232421875,0.16698578000068665,-0.008759579621255398,-0.12402287870645523
1772882746310871300,4.590871337890625,0.20280583202838898,0.006301395129412413,-0.17418219149112701
1772882746320803000,4.600802978515625,0.2739725410938263,-0.039873525500297546,-0.16397400200366974
1772882746330736000,4.610736083984375,0.34606003761291504,-0.1199052482843399,-0.11580035835504532
1772882746340668200,4.620668212890625,0.3971021771430969,-0.18889139592647552,-0.0758664458990097
1772882746350601200,4.630601318359375,0.4328596591949463,-0.23097068071365356,-0.06748894602060318
1772882746360533200,4.640533203125,0.4531143009662628,-0.261343389749527,-0.08578956872224808
1772882746370466300,4.65046630859375,0.47193753719329834,-0.2988651990890503,-0.1199352890253067
1772882746380399000,4.660399169921875,0.47448238730430603,-0.34498393535614014,-0.18259170651435852
1772882746390331400,4.670331298828125,0.46482524275779724,-0.37832245230674744,-0.2619352340698242
1772882746400264200,4.68026416015625,0.45420828461647034,-0.3840089440345764,-0.3464171886444092
1772882746410196200,4.6901962890625,0.44967958331108093,-0.367153525352478,-0.4113205671310425
1772882746420129300,4.70012939453125,0.44558194279670715,-0.3518137037754059,-0.44388917088508606
1772882746430061300,4.710061279296875,0.44865790009498596,-0.3449808359146118,-0.430144339799881
1772882746439994400,4.719994384765625,0.45521607995033264,-0.3617679178714752,-0.34739363193511963
1772882746449926400,4.729926513671875,0.46327880024909973,-0.39070796966552734,-0.2130584567785263
1772882746459859500,4.739859375,0.4677048623561859,-0.38614919781684875,-0.08212203532457352
1772882746469791200,4.749791259765625,0.45591825246810913,-0.332520067691803,0.02443397045135498
1772882746479724300,4.759724365234375,0.44189122319221497,-0.2599748969078064,0.09526961296796799
1772882746489657000,4.769656982421875,0.4144122004508972,-0.20719876885414124,0.10093895345926285
1772882746499589000,4.779589111328125,0.3863990902900696,-0.18355557322502136,0.056282151490449905
1772882746509522200,4.789522216796875,0.3349481523036957,-0.18925367295742035,-0.025007644668221474
1772882746519454200,4.7994541015625,0.28435641527175903,-0.22188012301921844,-0.11583370715379715
1772882746529387300,4.80938720703125,0.2538946270942688,-0.2824023365974426,-0.18610814213752747
1772882746539319300,4.8193193359375,0.26301664113998413,-0.3323616683483124,-0.22923271358013153
1772882746549252400,4.82925244140625,0.30707916617393494,-0.389808714389801,-0.23895111680030823
1772882746559184400,4.839184326171875,0.35888469219207764,-0.47880396246910095,-0.2161754071712494
1772882746569117200,4.8491171875,0.34870874881744385,-0.5748119950294495,-0.2023426741361618
1772882746579050200,4.85905029296875,0.29874810576438904,-0.6413930654525757,-0.24284929037094116
1772882746588982300,4.868982177734375,0.20587250590324402,-0.5724171996116638,-0.29560038447380066
1772882746598915300,4.878915283203125,0.14705541729927063,-0.3805461823940277,-0.3619540333747864
1772882746608847400,4.888847412109375,0.15197961032390594,-0.1602116823196411,-0.5238401293754578
1772882746618780400,4.898780517578125,0.1602984219789505,-0.0008058100938796997,-0.6274389624595642
1772882746628712200,4.908712158203125,0.11108187586069107,0.07196693122386932,-0.6172579526901245
1772882746638645200,4.918645263671875,0.000031998439226299524,0.07162190228700638,-0.42363274097442627
1772882746648577300,4.928577392578125,-0.12373813986778259,0.07482968270778656,-0.03645038977265358
1772882746658510300,4.93851025390625,-0.2748822271823883,0.15704014897346497,0.38928717374801636
1772882746668442400,4.9484423828125,-0.4378674328327179,0.2873510420322418,0.7501566410064697
1772882746678375200,4.958375244140625,-0.5495814085006714,0.4608380198478699,1.0020103454589844
1772882746688308200,4.96830810546875,-0.5964658260345459,0.6309476494789124,1.1108087301254272
1772882746698240300,4.978240234375,-0.5716049671173096,0.769734263420105,1.0765734910964966
1772882746708173300,4.98817333984375,-0.43574702739715576,0.8208432793617249,0.8946835398674011
1772882746718105300,4.998105224609375,-0.204379141330719,0.8225324749946594,0.5929991006851196
1772882746728038400,5.008038330078125,0.060035206377506256,0.7573223114013672,0.22721363604068756
1772882746737970400,5.017970458984375,0.3406204283237457,0.5884264707565308,-0.14633503556251526
1772882746747903200,5.0279033203125,0.5948971509933472,0.3112874925136566,-0.47834813594818115
1772882746757835300,5.037835205078125,0.7300742268562317,0.01848134957253933,-0.7219209671020508
1772882746767768300,5.047768310546875,0.7251343727111816,-0.2684425711631775,-0.8894028663635254
1772882746777701400,5.057701416015625,0.6023373007774353,-0.5897958278656006,-1.0168827772140503
1772882746787633200,5.067633056640625,0.5106268525123596,-0.8238738179206848,-1.081072211265564
1772882746797566200,5.077566162109375,0.38404545187950134,-0.9066872000694275,-1.0794974565505981
1772882746807498200,5.087498291015625,0.24778348207473755,-0.8492580056190491,-1.0113567113876343
1772882746817431300,5.097431396484375,0.14503733813762665,-0.687798023223877,-0.8768121004104614
1772882746827363300,5.10736328125,0.09376136213541031,-0.4893249273300171,-0.6867057681083679
1772882746837296000,5.117296142578125,0.07483012974262238,-0.2743094563484192,-0.4344528913497925
1772882746847228400,5.127228515625,0.09387652575969696,-0.07146287709474564,-0.15200017392635345
1772882746857161200,5.1371611328125,0.15994203090667725,0.11286590993404388,0.1629856675863266
1772882746867094300,5.14709423828125,0.21156342327594757,0.261110782623291,0.4785686731338501
1772882746877026300,5.1570263671875,0.2254854291677475,0.37623023986816406,0.7488933801651001
1772882746886959400,5.16695947265625,0.21569325029850006,0.44212162494659424,0.908037006855011
1772882746896891400,5.176891357421875,0.17974147200584412,0.4507560431957245,0.9608426094055176
1772882746906824400,5.186824462890625,0.09343694895505905,0.4303157329559326,0.9104635715484619
1772882746916756200,5.196756103515625,-0.006747874431312084,0.37118443846702576,0.7767422199249268
1772882746926689300,5.206689208984375,-0.08814472705125809,0.31430065631866455,0.6043131947517395
1772882746936621300,5.216621337890625,-0.12030575424432755,0.25916004180908203,0.4457465410232544
1772882746946554000,5.22655419921875,-0.11557385325431824,0.16861282289028168,0.32720258831977844
1772882746956487200,5.236487060546875,-0.08308909088373184,0.11016558855772018,0.24518059194087982
1772882746966419200,5.246419189453125,-0.019674962386488914,0.060827866196632385,0.1834847331047058
1772882746976353000,5.25635302734375,0.0628737062215805,0.02766522765159607,0.11153233051300049
1772882746986285000,5.26628515625,0.13986463844776154,-0.033254846930503845,0.01899307407438755
1772882746996217900,5.2762177734375,0.17694242298603058,-0.09544183313846588,-0.07494226843118668
1772882747006150000,5.28614990234375,0.19639095664024353,-0.12887755036354065,-0.1668168008327484
1772882747016083000,5.2960830078125,0.2102956473827362,-0.15377146005630493,-0.2491695135831833
1772882747026015000,5.306014892578125,0.21364882588386536,-0.1775316447019577,-0.30963602662086487
1772882747035948000,5.315947998046875,0.19581274688243866,-0.17864860594272614,-0.3322247266769409
1772882747045880000,5.325880126953125,0.16334481537342072,-0.16620206832885742,-0.30429428815841675
1772882747055813000,5.335813232421875,0.12674471735954285,-0.14473825693130493,-0.24203507602214813
1772882747065746200,5.34574609375,0.10068915784358978,-0.12818245589733124,-0.1743668168783188
1772882747075678200,5.35567822265625,0.05511202663183212,-0.13756391406059265,-0.09417235106229782
1772882747085611000,5.365611083984375,0.014282574877142906,-0.15703348815441132,-0.012597066350281239
1772882747095542800,5.375542724609375,0.009387580677866936,-0.1703781932592392,0.060277052223682404
1772882747105475800,5.385475830078125,0.0052192010916769505,-0.15269453823566437,0.11957686394453049
1772882747115408000,5.395407958984375,0.004681295249611139,-0.1260766237974167,0.15843650698661804
1772882747125341000,5.4053408203125,0.00807176623493433,-0.08972500264644623,0.17115896940231323
1772882747135273000,5.41527294921875,0.012321689166128635,-0.05298804119229317,0.1736990362405777
1772882747145206000,5.4252060546875,0.004275480750948191,-0.005734242033213377,0.16942626237869263
1772882747155139000,5.43513916015625,-0.0199216790497303,0.046693481504917145,0.17313788831233978
1772882747165071000,5.445071044921875,-0.048592738807201385,0.10298045724630356,0.1853886991739273
1772882747175004000,5.45500390625,-0.07211478799581528,0.14705581963062286,0.2381473183631897
1772882747184936000,5.46493603515625,-0.12368583679199219,0.14696207642555237,0.314342200756073
1772882747194869000,5.474868896484375,-0.2194449007511139,0.15697424113750458,0.37536299228668213
1772882747204801000,5.484801025390625,-0.3398546576499939,0.17855489253997803,0.40066224336624146
1772882747214734000,5.494734130859375,-0.45389899611473083,0.20170581340789795,0.3859967887401581
1772882747224666000,5.504666015625,-0.5279676914215088,0.21231132745742798,0.3445438742637634
1772882747234599200,5.51459912109375,-0.5527439117431641,0.21829555928707123,0.2874745726585388
1772882747244532200,5.5245322265625,-0.515918493270874,0.18064938485622406,0.20710571110248566
1772882747254464000,5.534464111328125,-0.41502341628074646,0.11449547857046127,0.12785036861896515
1772882747264396800,5.544396728515625,-0.2804720103740692,0.024968259036540985,0.07352188229560852
1772882747274328800,5.554328857421875,-0.14953170716762543,-0.13231289386749268,0.0962400883436203
1772882747284262000,5.564261962890625,-0.05833948031067848,-0.3304714858531952,0.07720940560102463
1772882747294194000,5.57419384765625,-0.0608658604323864,-0.47207877039909363,-0.03863661736249924
1772882747304127000,5.584126953125,-0.16232776641845703,-0.5540306568145752,-0.22559824585914612
1772882747314059000,5.59405908203125,-0.30560365319252014,-0.5497176647186279,-0.4763634204864502
1772882747323992000,5.603991943359375,-0.42648935317993164,-0.4844302833080292,-0.6918834447860718
1772882747333925000,5.613925048828125,-0.4857946038246155,-0.37405210733413696,-0.7907676696777344
1772882747343857200,5.623857177734375,-0.47072699666023254,-0.22279469668865204,-0.7194210290908813
1772882747353790000,5.6337900390625,-0.39487117528915405,-0.05673009157180786,-0.4447772800922394
1772882747363722000,5.643721923828125,-0.2924012541770935,0.08315404504537582,-0.015141509473323822
1772882747373655000,5.653655029296875,-0.16672618687152863,0.12549330294132233,0.4424171447753906
1772882747383587000,5.663587158203125,-0.047894347459077835,0.055339258164167404,0.8002272248268127
1772882747393520000,5.67352001953125,0.04115872085094452,-0.05634528398513794,0.997936487197876
1772882747403452000,5.683451904296875,0.06893229484558105,-0.18580633401870728,1.0429571866989136
1772882747413385000,5.693385009765625,0.011303937062621117,-0.30099987983703613,0.9011315107345581
1772882747423317000,5.70331689453125,-0.11147737503051758,-0.35670122504234314,0.6241880655288696
1772882747433250000,5.71325,-0.2819046676158905,-0.334212988615036,0.3268605172634125
1772882747443182800,5.723182861328125,-0.4394455552101135,-0.24599285423755646,0.08307022601366043
1772882747453115000,5.733114990234375,-0.5204739570617676,-0.12274891138076782,-0.07268580794334412
1772882747463048000,5.7430478515625,-0.5196758508682251,0.026893841102719307,-0.13552948832511902
1772882747472980000,5.75297998046875,-0.4627818763256073,0.2114899903535843,-0.10119602829217911
1772882747482913000,5.7629130859375,-0.390628844499588,0.3495863676071167,-0.01524596568197012
1772882747492845000,5.772844970703125,-0.34473103284835815,0.43198126554489136,0.05982886999845505
1772882747502778000,5.782778076171875,-0.344928115606308,0.4924294054508209,0.050057731568813324
1772882747512710100,5.792710205078125,-0.38169533014297485,0.5040563344955444,-0.041712284088134766
1772882747522643200,5.802643310546875,-0.4171936810016632,0.4868704676628113,-0.17962034046649933
1772882747532576000,5.812575927734375,-0.42763710021972656,0.4469490349292755,-0.3253463804721832
1772882747542508000,5.822508056640625,-0.39592844247817993,0.4012622535228729,-0.43040966987609863
1772882747552441000,5.832441162109375,-0.3403644561767578,0.3586176633834839,-0.48382386565208435
1772882747562372900,5.842372802734375,-0.26236045360565186,0.3139077126979828,-0.4915401041507721
1772882747572306000,5.852305908203125,-0.18788015842437744,0.25627782940864563,-0.44282278418540955
1772882747582238000,5.862238037109375,-0.12035944312810898,0.1685090959072113,-0.38417649269104004
1772882747592171000,5.8721708984375,-0.05149499699473381,0.059203192591667175,-0.3327755630016327
1772882747602103000,5.88210302734375,-0.0008485972648486495,-0.0406954362988472,-0.2933461368083954
1772882747612036000,5.8920361328125,0.053448569029569626,-0.14409492909908295,-0.2866167724132538
1772882747621969000,5.901968994140625,0.11578970402479172,-0.2507726550102234,-0.3057180345058441
1772882747631901000,5.91190087890625,0.18187843263149261,-0.3452823758125305,-0.3265516757965088
1772882747641834000,5.921833984375,0.22954817116260529,-0.44165289402008057,-0.3476775288581848
1772882747651766000,5.93176611328125,0.2615656554698944,-0.4972878694534302,-0.3675597608089447
1772882747661699000,5.941698974609375,0.2835463285446167,-0.5231189727783203,-0.37932029366493225
1772882747671631000,5.951631103515625,0.28740158677101135,-0.5322154760360718,-0.3714810609817505
1772882747681564200,5.961564208984375,0.28141558170318604,-0.5378882884979248,-0.35278353095054626
1772882747691496200,5.97149609375,0.28788143396377563,-0.5237950086593628,-0.3376516103744507
1772882747701429200,5.98142919921875,0.293274849653244,-0.48216184973716736,-0.3396979868412018
1772882747711362000,5.991362060546875,0.2891286611557007,-0.40636059641838074,-0.3211909532546997
1772882747721293800,6.0012939453125,0.27795645594596863,-0.29924213886260986,-0.268873929977417
1772882747731227000,6.011226806640625,0.2675747573375702,-0.18693305552005768,-0.15899956226348877
1772882747741159000,6.021158935546875,0.25958579778671265,-0.09263478219509125,-0.009787164628505707
1772882747751092000,6.031092041015625,0.25063908100128174,-0.050129909068346024,0.17370793223381042
1772882747761024000,6.04102392578125,0.24337399005889893,-0.05936282128095627,0.3382265567779541
1772882747770957000,6.05095703125,0.24396273493766785,-0.08873428404331207,0.43626463413238525
1772882747780889000,6.06088916015625,0.2740652561187744,-0.136241614818573,0.47031527757644653
1772882747790822100,6.070822265625,0.3188692629337311,-0.16269613802433014,0.4557534456253052
1772882747800755000,6.0807548828125,0.3631637692451477,-0.16531668603420258,0.4168316125869751
1772882747810687000,6.09068701171875,0.39853623509407043,-0.15187221765518188,0.3649846911430359
1772882747820620000,6.1006201171875,0.41373568773269653,-0.1342168003320694,0.306692898273468
1772882747830552000,6.110552001953125,0.41719838976860046,-0.1296573132276535,0.24335132539272308
1772882747840485000,6.120485107421875,0.41757285594940186,-0.11028361320495605,0.1842762976884842
1772882747850417200,6.130417236328125,0.41309642791748047,-0.08767196536064148,0.1364590972661972
1772882747860350200,6.14035009765625,0.4166533350944519,-0.07423871010541916,0.09895139932632446
1772882747870282000,6.150281982421875,0.4287455976009369,-0.08087203651666641,0.09533648937940598
1772882747880215000,6.160215087890625,0.43823763728141785,-0.1446709930896759,0.12505283951759338
1772882747890147800,6.17014794921875,0.46156296133995056,-0.24868272244930267,0.1500994861125946
1772882747900079900,6.180079833984375,0.4947962760925293,-0.33814868330955505,0.15260258316993713
1772882747910013000,6.190012939453125,0.5247223377227783,-0.3756749927997589,0.139627143740654
1772882747919945000,6.199945068359375,0.5632684230804443,-0.36489662528038025,0.1313769370317459
1772882747929878000,6.2098779296875,0.6005266904830933,-0.31941330432891846,0.12624117732048035
1772882747939810000,6.21981005859375,0.6300725936889648,-0.26448771357536316,0.1295192688703537
1772882747949743000,6.2297431640625,0.6425690650939941,-0.21117530763149261,0.14572705328464508
1772882747959675100,6.239675048828125,0.6250438690185547,-0.17194588482379913,0.1711921989917755
1772882747969608200,6.249608154296875,0.5918965935707092,-0.13794578611850739,0.2118625044822693
1772882747979540200,6.259540283203125,0.5562229752540588,-0.14045634865760803,0.2620643973350525
1772882747989473000,6.26947314453125,0.5142411589622498,-0.156380295753479,0.2981046438217163
1772882747999406000,6.279406005859375,0.47576168179512024,-0.1794707030057907,0.2942630350589752
1772882748009338000,6.289338134765625,0.44154292345046997,-0.20126354694366455,0.2556634545326233
1772882748019271200,6.299271240234375,0.4249008297920227,-0.2204470932483673,0.18198391795158386
1772882748029203200,6.309203125,0.4386437237262726,-0.22497615218162537,0.06556716561317444
1772882748039136300,6.31913623046875,0.46945515275001526,-0.1876431554555893,-0.0557510070502758
1772882748049068300,6.329068359375,0.49594709277153015,-0.10546081513166428,-0.1675117164850235
1772882748059001000,6.3390009765625,0.49827417731285095,0.017555126920342445,-0.2399776577949524
1772882748068933400,6.348933349609375,0.4629632830619812,0.15741722285747528,-0.25676459074020386
1772882748078866200,6.3588662109375,0.39778003096580505,0.3040388822555542,-0.2096434384584427
1772882748088799200,6.36879931640625,0.31881770491600037,0.4330231845378876,-0.11669699847698212
1772882748098731000,6.37873095703125,0.23544132709503174,0.5176297426223755,-0.007471704389899969
1772882748108664000,6.3886640625,0.16356085240840912,0.5667539834976196,0.056506942957639694
1772882748118596000,6.39859619140625,0.11002705246210098,0.5933355689048767,0.06283994019031525
1772882748128529200,6.408529052734375,0.09757602959871292,0.5891361236572266,0.017309531569480896
1772882748138461200,6.418461181640625,0.12187337875366211,0.5433499813079834,-0.08139840513467789
1772882748148394000,6.42839404296875,0.1984724998474121,0.4696296751499176,-0.22562050819396973
1772882748158326300,6.438326171875,0.31044748425483704,0.3662202060222626,-0.3771764934062958
1772882748168259000,6.448259033203125,0.4340091645717621,0.25390926003456116,-0.48635342717170715
1772882748178192100,6.458192138671875,0.5351241230964661,0.13936454057693481,-0.5156356692314148
1772882748188124200,6.468124267578125,0.5755426287651062,0.004488593433052301,-0.48993876576423645
1772882748198057200,6.47805712890625,0.5694810152053833,-0.10255983471870422,-0.4640142321586609
1772882748207989200,6.4879892578125,0.5016894340515137,-0.14543257653713226,-0.49668222665786743
1772882748217922300,6.49792236328125,0.423586368560791,-0.184345081448555,-0.6102191805839539
1772882748227854300,6.507854248046875,0.36638596653938293,-0.23138487339019775,-0.7806296944618225
1772882748237787100,6.517787109375,0.3686227798461914,-0.2610516846179962,-0.9122729301452637
1772882748247719200,6.52771923828125,0.43492749333381653,-0.2599470615386963,-0.9687831401824951
1772882748257652000,6.53765185546875,0.5197731256484985,-0.20328325033187866,-0.8874779343605042
1772882748267585000,6.5475849609375,0.5619839429855347,-0.16508612036705017,-0.7156135439872742
1772882748277517000,6.55751708984375,0.5401047468185425,-0.18291997909545898,-0.4850868582725525
1772882748287450000,6.5674501953125,0.4426531195640564,-0.2847731113433838,-0.21986153721809387
1772882748297382100,6.577382080078125,0.2873346209526062,-0.40880531072616577,0.030986392870545387
1772882748307315200,6.587315185546875,0.09233945608139038,-0.5023720860481262,0.23332419991493225
1772882748317247200,6.597247314453125,-0.09774845838546753,-0.5017728805541992,0.38513556122779846
1772882748327180000,6.607179931640625,-0.2561537027359009,-0.38801199197769165,0.5082732439041138
1772882748337112000,6.617112060546875,-0.3639794886112213,-0.20162667334079742,0.6049371957778931
1772882748347045000,6.627045166015625,-0.4145837426185608,0.02800283394753933,0.6907786726951599
1772882748356978200,6.636978271484375,-0.39636239409446716,0.19694578647613525,0.7599835395812988
1772882748366910200,6.64691015625,-0.29700517654418945,0.27312514185905457,0.79472416639328
1772882748376843300,6.65684326171875,-0.15500593185424805,0.25787481665611267,0.7382805943489075
1772882748386775300,6.666775390625,0.006012822967022657,0.15899944305419922,0.5976927876472473
1772882748396708400,6.676708251953125,0.15542282164096832,0.023571046069264412,0.424504816532135
1772882748406640000,6.68664013671875,0.27132323384284973,-0.09203755110502243,0.2438214123249054
1772882748416573000,6.696572998046875,0.3458608388900757,-0.1740165799856186,0.05921268090605736
1772882748426505200,6.706505126953125,0.3714154064655304,-0.21396009624004364,-0.10276679694652557
1772882748436438000,6.71643798828125,0.3698295056819916,-0.18527838587760925,-0.21211034059524536
1772882748446371000,6.72637109375,0.34610673785209656,-0.1039322093129158,-0.2783243656158447
1772882748456303000,6.73630322265625,0.2861238121986389,-0.02774956077337265,-0.29290783405303955
1772882748466236200,6.746236083984375,0.189523845911026,0.025116095319390297,-0.25911223888397217
1772882748476168200,6.756168212890625,0.05317479372024536,0.034909602254629135,-0.166245698928833
1772882748486101200,6.766101318359375,-0.10344773530960083,0.010946511290967464,-0.04799361526966095
1772882748496033300,6.776033203125,-0.2470911741256714,-0.02580937370657921,0.0649622306227684
1772882748505966000,6.785966064453125,-0.37408173084259033,-0.04946679621934891,0.15669719874858856
1772882748515898000,6.795898193359375,-0.46197137236595154,-0.00879952684044838,0.2185685634613037
1772882748525831200,6.8058310546875,-0.5119062066078186,0.06302566826343536,0.2620939612388611
1772882748535764200,6.81576416015625,-0.5290444493293762,0.1593838930130005,0.2746553122997284
1772882748545696300,6.8256962890625,-0.5322611927986145,0.2508045732975006,0.2649352252483368
1772882748555629300,6.83562939453125,-0.5222970247268677,0.3207623362541199,0.240523099899292
1772882748565561000,6.84556103515625,-0.5187768936157227,0.3624788224697113,0.20792217552661896
1772882748575494100,6.855494140625,-0.5222829580307007,0.37364357709884644,0.16172698140144348
1772882748585426200,6.86542626953125,-0.5367279052734375,0.35487475991249084,0.10594377666711807
1772882748595359000,6.87535888671875,-0.5497837662696838,0.3144112229347229,0.04870365187525749
1772882748605291000,6.885291015625,-0.554962694644928,0.23874424397945404,-0.014240888878703117
1772882748615224000,6.89522412109375,-0.5321303009986877,0.16384923458099365,-0.0724693089723587
1772882748625157000,6.9051572265625,-0.49943026900291443,0.12705928087234497,-0.11544224619865417
1772882748635089200,6.915089111328125,-0.47798967361450195,0.12744277715682983,-0.1509544402360916
1772882748645022200,6.925022216796875,-0.4462551176548004,0.14493131637573242,-0.18115118145942688
1772882748654954200,6.934954345703125,-0.4359138011932373,0.19846005737781525,-0.22133642435073853
1772882748664887300,6.94488720703125,-0.4789638817310333,0.2552888095378876,-0.2554706633090973
1772882748674819300,6.9548193359375,-0.5604733824729919,0.2662743330001831,-0.3114950656890869
1772882748684752100,6.964752197265625,-0.6634918451309204,0.2070658951997757,-0.43763941526412964
1772882748694684000,6.974683837890625,-0.7179334759712219,0.1026846244931221,-0.623956024646759
1772882748704617200,6.9846171875,-0.7363704442977905,-0.030737731605768204,-0.8061802983283997
1772882748714550300,6.99455029296875,-0.7135440111160278,-0.1492401510477066,-0.9663800597190857
1772882748724482000,7.00448193359375,-0.6545001268386841,-0.20197856426239014,-1.0649034976959229
1772882748734415000,7.0144150390625,-0.5946348905563354,-0.2064811736345291,-1.0704913139343262
1772882748744347100,7.02434716796875,-0.5323820114135742,-0.18006540834903717,-0.9894493222236633
1772882748754280200,7.0342802734375,-0.4880313277244568,-0.10378529131412506,-0.8279291391372681
1772882748764212200,7.044212158203125,-0.4323796033859253,-0.04054846242070198,-0.5725112557411194
1772882748774145000,7.05414501953125,-0.32459667325019836,0.01185588724911213,-0.29888978600502014
1772882748784077000,7.0640771484375,-0.1978013962507248,0.013120398856699467,-0.10176094621419907
1772882748794010000,7.074010009765625,-0.050451088696718216,-0.06547986716032028,-0.04305502027273178
1772882748803943200,7.083943115234375,0.12040667235851288,-0.187382772564888,-0.09197241812944412
1772882748813875200,7.093875244140625,0.28326085209846497,-0.3041277527809143,-0.16573265194892883
1772882748823808300,7.103808349609375,0.4184402525424957,-0.36650949716567993,-0.25110408663749695
1772882748833740300,7.113740234375,0.5219804644584656,-0.3758329451084137,-0.329330176115036
1772882748843673300,7.12367333984375,0.5743035078048706,-0.3746730089187622,-0.38818565011024475
1772882748853605000,7.133605224609375,0.5558694005012512,-0.41868922114372253,-0.4359856843948364
1772882748863538000,7.143537841796875,0.4865090548992157,-0.44113412499427795,-0.4630761444568634
1772882748873470000,7.153469970703125,0.37461259961128235,-0.40586748719215393,-0.4279448091983795
1772882748883403000,7.163403076171875,0.26684486865997314,-0.3231939673423767,-0.3541737496852875
1772882748893336000,7.173336181640625,0.18903100490570068,-0.2728082835674286,-0.3240853548049927
1772882748903268000,7.18326806640625,0.13420690596103668,-0.2487998902797699,-0.3623022437095642
1772882748913201200,7.193201171875,0.0886404886841774,-0.22862592339515686,-0.45113253593444824
1772882748923133200,7.20313330078125,0.03477129340171814,-0.18660898506641388,-0.5566179752349854
1772882748933066200,7.213066162109375,-0.026761574670672417,-0.09023585170507431,-0.6054033637046814
1772882748942998300,7.222998291015625,-0.07728643715381622,0.014922027476131916,-0.5458095073699951
1772882748952931000,7.23293115234375,-0.09175539016723633,0.0753060057759285,-0.4244321882724762
1772882748962863000,7.242863037109375,-0.09688064455986023,0.11072312295436859,-0.305528461933136
1772882748972795600,7.252795654296875,-0.11228782683610916,0.12283463776111603,-0.21459828317165375
1772882748982728700,7.262728759765625,-0.10572157800197601,0.11687759310007095,-0.1695445477962494
1772882748992660700,7.27266064453125,-0.07931101322174072,0.09509266912937164,-0.14054033160209656
1772882749002593800,7.28259375,-0.06537022441625595,0.06003285571932793,-0.08163323998451233
1772882749012525800,7.29252587890625,-0.06947974860668182,0.049424152821302414,0.022805022075772285
1772882749022459000,7.302458984375,-0.0780516043305397,0.08645746856927872,0.1614462435245514
1772882749032391000,7.312390869140625,-0.09789934754371643,0.16207633912563324,0.3033445179462433
1772882749042323700,7.32232373046875,-0.10375223308801651,0.22394722700119019,0.3986697196960449
1772882749052255700,7.332255859375,-0.07810386270284653,0.22660985589027405,0.40710368752479553
1772882749062188800,7.342188720703125,-0.04628009349107742,0.18125614523887634,0.36844149231910706
1772882749072121900,7.352121826171875,-0.020910022780299187,0.12280802428722382,0.31003278493881226
1772882749082053600,7.3620537109375,-0.007604718208312988,0.07428935170173645,0.22995316982269287
1772882749091986700,7.371986572265625,-0.008118175901472569,-0.0057825809344649315,0.11956781148910522
1772882749101918700,7.381918701171875,-0.03713591769337654,-0.11577050387859344,0.01307162269949913
1772882749111851800,7.391851806640625,-0.04754674807190895,-0.19430020451545715,-0.06388707458972931
1772882749121783800,7.40178369140625,-0.038533229380846024,-0.22182931005954742,-0.09775693714618683
1772882749131716600,7.411716552734375,-0.005880478769540787,-0.21125203371047974,-0.1016978845000267
1772882749141649000,7.42164892578125,0.04091349616646767,-0.19857561588287354,-0.11012757569551468
1772882749151581700,7.431581787109375,0.1075093001127243,-0.18916001915931702,-0.11490422487258911
1772882749161514800,7.4415146484375,0.1801442950963974,-0.17656633257865906,-0.0981469601392746
1772882749171446800,7.45144677734375,0.25316792726516724,-0.18055495619773865,-0.050045471638441086
1772882749181379800,7.4613798828125,0.29559463262557983,-0.1877848356962204,0.037688713520765305
1772882749191312000,7.471311767578125,0.29932889342308044,-0.1864311397075653,0.14735981822013855
1772882749201245000,7.481244873046875,0.284111887216568,-0.18389177322387695,0.2719809412956238
1772882749211177000,7.491177001953125,0.26460209488868713,-0.18790355324745178,0.3886234164237976
1772882749221109800,7.50110986328125,0.25104060769081116,-0.17292377352714539,0.4628683626651764
1772882749231041800,7.511041748046875,0.24451076984405518,-0.1477252095937729,0.4763053357601166
1772882749240974600,7.520974609375,0.24895159900188446,-0.11257505416870117,0.4415496587753296
1772882749250907600,7.53090771484375,0.23541608452796936,-0.06866511702537537,0.3666203022003174
1772882749260839700,7.540839599609375,0.20841413736343384,-0.010569985024631023,0.29313844442367554
1772882749270772700,7.550772705078125,0.18098144233226776,0.03448830544948578,0.23663575947284698
1772882749280704800,7.560704833984375,0.15227492153644562,0.08819202333688736,0.18948747217655182
1772882749290637800,7.570637939453125,0.12150688469409943,0.14790968596935272,0.15434706211090088
1772882749300569900,7.58056982421875,0.09415515512228012,0.21426744759082794,0.1466250717639923
1772882749310502700,7.590502685546875,0.08361835777759552,0.25348249077796936,0.16112437844276428
1772882749320435700,7.600435791015625,0.08710608631372452,0.26198554039001465,0.16615457832813263
1772882749330367700,7.61036767578125,0.08568262308835983,0.26398852467536926,0.1696329414844513
1772882749340300800,7.62030078125,0.0790257379412651,0.24397550523281097,0.1713244467973709
1772882749350232800,7.63023291015625,0.07932960242033005,0.1965709626674652,0.15963955223560333
1772882749360166000,7.640165771484375,0.08447493612766266,0.15945349633693695,0.14721496403217316
1772882749370098000,7.650097900390625,0.1037016287446022,0.12390244007110596,0.1495196670293808
1772882749380031000,7.660031005859375,0.13599544763565063,0.10010777413845062,0.1568956971168518
1772882749389962800,7.669962646484375,0.16875845193862915,0.10149288177490234,0.1458936482667923
1772882749399895600,7.6798955078125,0.199751079082489,0.10921122878789902,0.11081385612487793
1772882749409828600,7.68982861328125,0.22203028202056885,0.11885480582714081,0.07729397714138031
1772882749419760600,7.6997607421875,0.24160470068454742,0.11942820250988007,0.03888649865984917
1772882749429693700,7.709693603515625,0.26163777709007263,0.13012798130512238,0.0036510154604911804
1772882749439625700,7.719625732421875,0.2839924693107605,0.13658784329891205,-0.03629761189222336
1772882749449558800,7.729558837890625,0.3127119839191437,0.13775882124900818,-0.06112413853406906
1772882749459490800,7.73949072265625,0.3372293710708618,0.15688905119895935,-0.0750877782702446
1772882749469423900,7.749423828125,0.36091044545173645,0.16476720571517944,-0.07249359041452408
1772882749479356000,7.75935595703125,0.37690025568008423,0.15087123215198517,-0.06607146561145782
1772882749489288700,7.769288818359375,0.3718295991420746,0.11181651055812836,-0.05905457213521004
1772882749499221800,7.7792216796875,0.3647940754890442,0.0741264820098877,-0.06873805820941925
1772882749509153800,7.78915380859375,0.34228265285491943,0.03865370899438858,-0.10494932532310486
1772882749519086800,7.7990869140625,0.3168567717075348,0.013049152679741383,-0.14565499126911163
1772882749529019000,7.809018798828125,0.3022778332233429,-0.017273597419261932,-0.17661024630069733
1772882749538952000,7.818951904296875,0.30316105484962463,-0.06597202271223068,-0.19622619450092316
1772882749548883700,7.8288837890625,0.3196939527988434,-0.11531001329421997,-0.2261531949043274
1772882749558816800,7.838816650390625,0.3385164141654968,-0.15897750854492188,-0.26431265473365784
1772882749568748800,7.848748779296875,0.37052229046821594,-0.21067611873149872,-0.3215991258621216
1772882749578681600,7.858681640625,0.41892102360725403,-0.24959689378738403,-0.41455602645874023
1772882749588614700,7.86861474609375,0.492253839969635,-0.2981196939945221,-0.5502645969390869
1772882749598546700,7.878546630859375,0.5904175043106079,-0.3481127917766571,-0.7333254218101501
1772882749608479700,7.888479736328125,0.7097513675689697,-0.3821045756340027,-0.8827836513519287
1772882749618411800,7.898411865234375,0.83803790807724,-0.35423195362091064,-0.9048373103141785
1772882749628344800,7.9083447265625,0.9345484375953674,-0.29602697491645813,-0.8050116300582886
1772882749638276900,7.91827685546875,0.9250003695487976,-0.28003159165382385,-0.6475034356117249
1772882749648210000,7.9282099609375,0.7881205677986145,-0.318545937538147,-0.43855711817741394
1772882749658142700,7.938142822265625,0.5303469896316528,-0.38724324107170105,-0.2002491056919098
1772882749668074800,7.94807470703125,0.2084541916847229,-0.4553019106388092,-0.011013947427272797
1772882749678007800,7.9580078125,-0.11361918598413467,-0.4858265221118927,0.0909462422132492
1772882749687939800,7.96793994140625,-0.35339421033859253,-0.44808873534202576,0.12794049084186554
1772882749697873000,7.977872802734375,-0.4611143469810486,-0.3514147102832794,0.15949514508247375
1772882749707804700,7.9878046875,-0.4466400742530823,-0.20547188818454742,0.2085612267255783
1772882749717736700,7.99773681640625,-0.3300752341747284,-0.045323003083467484,0.28452202677726746
1772882749727669800,8.007669677734375,-0.1504058539867401,0.1162341982126236,0.3881070017814636
1772882749737601800,8.017601806640625,0.040448982268571854,0.24052777886390686,0.4727934002876282
1772882749747534800,8.027534912109376,0.17650562524795532,0.29678812623023987,0.5219212174415588
1772882749757467600,8.037467529296874,0.26221656799316406,0.27865079045295715,0.5266594886779785
1772882749767399700,8.047399658203124,0.30186089873313904,0.20696859061717987,0.5063190460205078
1772882749777332700,8.057332763671875,0.3028753995895386,0.09357724338769913,0.4770412743091583
1772882749787264800,8.0672646484375,0.2698274254798889,-0.009903342463076115,0.4448457956314087
1772882749797197800,8.07719775390625,0.1955508589744568,-0.06892667710781097,0.42812493443489075
1772882749807129900,8.0871298828125,0.0930740162730217,-0.07245296239852905,0.43295857310295105
1772882749817063000,8.09706298828125,-0.019748087972402573,-0.008497427217662334,0.47491925954818726
1772882749826994700,8.10699462890625,-0.11576170474290848,0.10333456099033356,0.5441486835479736
1772882749836927700,8.116927734375,-0.18343640863895416,0.24538011848926544,0.6184725165367126
1772882749846860800,8.12686083984375,-0.21518181264400482,0.3814045488834381,0.6682611107826233
1772882749856792600,8.13679248046875,-0.20865413546562195,0.4707244634628296,0.6645421981811523
1772882749866725600,8.1467255859375,-0.18940800428390503,0.4702192544937134,0.5630158185958862
1772882749876657700,8.15665771484375,-0.14594095945358276,0.3421160876750946,0.3678763210773468
1772882749886590700,8.1665908203125,-0.08767366409301758,0.17302028834819794,0.17329883575439453
1772882749896522800,8.176522705078124,-0.028427116572856903,0.050911955535411835,0.02281373366713524
1772882749906455800,8.186455810546875,0.0015534190461039543,0.003981197252869606,-0.0733783096075058
1772882749916387800,8.196387939453125,0.010743935592472553,0.03343614190816879,-0.1395108699798584
1772882749926321000,8.20632080078125,-0.009470256045460701,0.09088824689388275,-0.1814042627811432
1772882749936253700,8.216253662109375,-0.058214783668518066,0.1275537759065628,-0.2274349182844162
1772882749946185700,8.226185791015626,-0.11211956292390823,0.11008157581090927,-0.28779786825180054
1772882749956118800,8.236118896484374,-0.1465754359960556,0.03927459940314293,-0.3691446781158447
1772882749966050800,8.24605078125,-0.1317530870437622,-0.05764342471957207,-0.42443111538887024
1772882749975983400,8.2559833984375,-0.06546849757432938,-0.1494244933128357,-0.45409923791885376
1772882749985915400,8.265915283203125,0.03001195564866066,-0.23045437037944794,-0.46721529960632324
1772882749995848400,8.275848388671875,0.1170167326927185,-0.2624802887439728,-0.4420849680900574
1772882750005781500,8.285781494140625,0.1652204841375351,-0.2579156160354614,-0.35705024003982544
1772882750015713500,8.295713623046876,0.15846261382102966,-0.22866190969944,-0.2568349540233612
1772882750025646300,8.305646240234376,0.10270347446203232,-0.17893455922603607,-0.16754503548145294
1772882750035578400,8.315578369140624,0.032345157116651535,-0.12403557449579239,-0.09577219933271408
1772882750045511400,8.325511474609375,-0.0385172963142395,-0.0805022120475769,-0.04318728297948837
1772882750055443200,8.335443115234375,-0.08188784122467041,-0.040874019265174866,-0.021387195214629173
1772882750065376300,8.345376220703125,-0.09680233895778656,-0.00422306451946497,0.0006813558284193277
1772882750075308300,8.355308349609375,-0.11155246943235397,0.0269401166588068,0.03189225122332573
1772882750085243400,8.365243408203124,-0.12065035849809647,0.03621723875403404,0.07427166402339935
1772882750095175400,8.375175537109374,-0.12488659471273422,0.008479392156004906,0.1347518414258957
1772882750105108500,8.3851083984375,-0.14710243046283722,-0.011960901319980621,0.1926068812608719
1772882750115040300,8.395040283203125,-0.18109725415706635,-0.030651047825813293,0.22934721410274506
1772882750124973300,8.404973388671875,-0.23406939208507538,-0.045954372733831406,0.23334115743637085
1772882750134906400,8.41490625,-0.2905538082122803,-0.04805297404527664,0.19664517045021057
1772882750144838400,8.42483837890625,-0.32884207367897034,-0.024300774559378624,0.12342183291912079
1772882750154771200,8.434771240234374,-0.3327362835407257,0.02623353898525238,0.03242349252104759
1772882750164703500,8.444703369140624,-0.3156734108924866,0.08103819191455841,-0.05587707459926605
1772882750174636300,8.45463623046875,-0.2941897511482239,0.09991405159235,-0.13718688488006592
1772882750184568300,8.464568359375,-0.2620813548564911,0.05883985012769699,-0.21461616456508636
1772882750194501400,8.47450146484375,-0.3111133873462677,-0.037721455097198486,-0.26319077610969543
1772882750204433400,8.484433349609375,-0.41326001286506653,-0.18347252905368805,-0.35379764437675476
1772882750214366500,8.494366455078126,-0.4746705889701843,-0.3296951651573181,-0.4637262225151062
1772882750224299500,8.504299560546874,-0.48256686329841614,-0.3924182057380676,-0.5379045605659485
1772882750234231600,8.5142314453125,-0.4565451145172119,-0.36317238211631775,-0.5696520209312439
1772882750244164400,8.524164306640625,-0.39190351963043213,-0.30040937662124634,-0.5699281692504883
1772882750254096400,8.534096435546875,-0.3134554326534271,-0.24234840273857117,-0.5280110239982605
1772882750264029400,8.544029541015625,-0.2123626470565796,-0.21741163730621338,-0.44629326462745667
1772882750273961200,8.553961181640625,-0.08418860286474228,-0.23375174403190613,-0.3262963593006134
1772882750283894300,8.563894287109376,0.060434095561504364,-0.23289048671722412,-0.19474419951438904
1772882750293827300,8.573827392578124,0.19664056599140167,-0.24490754306316376,-0.0649997740983963
1772882750303759400,8.58375927734375,0.30231931805610657,-0.2575564980506897,0.04128432273864746
1772882750313692400,8.5936923828125,0.38676917552948,-0.27168169617652893,0.08910264819860458
1772882750323624400,8.60362451171875,0.4398800730705261,-0.26420140266418457,0.10606245696544647
1772882750333557200,8.61355712890625,0.4556780457496643,-0.2718479335308075,0.09969716519117355
1772882750343489500,8.623489501953125,0.44923827052116394,-0.31088003516197205,0.033769816160202026
1772882750353422300,8.63342236328125,0.42439085245132446,-0.3658710718154907,-0.0832657665014267
1772882750363354400,8.643354248046874,0.37952136993408203,-0.47402018308639526,-0.19030912220478058
1772882750373287400,8.653287353515625,0.3374404013156891,-0.6337606310844421,-0.25439968705177307
1772882750383220500,8.663220458984375,0.31400540471076965,-0.7809876203536987,-0.2969951033592224
1772882750393152500,8.673152587890625,0.2838168740272522,-0.8355910181999207,-0.30600491166114807
1772882750403085600,8.68308544921875,0.45333558320999146,-0.8114596009254456,-0.25304290652275085
1772882750413017600,8.693017578125,0.46755552291870117,-0.6787581443786621,-0.15274737775325775
1772882750422950400,8.702950439453126,0.6775521636009216,-0.5587678551673889,-0.04709498584270477
1772882750432882400,8.71288232421875,0.731178879737854,-0.4347357749938965,0.03311353549361229
1772882750442815200,8.722815185546875,0.9195650219917297,-0.4161170721054077,0.08683987706899643
1772882750452748300,8.732748291015625,0.9458677768707275,-0.4070242643356323,0.1167583167552948
1772882750462680300,8.742680419921875,1.0503060817718506,-0.412728488445282,0.17129692435264587
1772882750472613400,8.75261328125,1.0030326843261719,-0.41962170600891113,0.22107018530368805
1772882750482545400,8.76254541015625,0.9563993811607361,-0.45245903730392456,0.2628021836280823
1772882750492478500,8.772478515625,0.8043152689933777,-0.4921829104423523,0.22937187552452087
1772882750502410500,8.782410400390624,0.6587679386138916,-0.5408353805541992,0.13796447217464447
1772882750512343300,8.79234326171875,0.48443466424942017,-0.5867643356323242,0.03202443942427635
1772882750522275300,8.802275390625,0.3238180875778198,-0.6303141713142395,-0.05428967624902725
1772882750532208400,8.81220849609375,0.21842443943023682,-0.6283561587333679,-0.12422765046358109
1772882750542141400,8.822141357421875,0.13585606217384338,-0.5757734179496765,-0.13697807490825653
1772882750552073500,8.832073486328126,0.13430029153823853,-0.4685130715370178,-0.113057442009449
1772882750562006500,8.842006591796874,0.08397799730300903,-0.3461248278617859,-0.062082674354314804
1772882750571938300,8.851938232421874,0.11810091137886047,-0.26569947600364685,-0.01992136240005493
1772882750581871600,8.86187158203125,0.06268799304962158,-0.2582319676876068,0.02763283997774124
1772882750591803400,8.871803466796875,0.13224171102046967,-0.3064271807670593,0.05384344980120659
1772882750601736200,8.881736083984375,0.08288136124610901,-0.3338526785373688,0.07184722274541855
1772882750611669200,8.891669189453125,0.19208812713623047,-0.36581388115882874,0.07154887914657593
1772882750621601300,8.901601318359376,0.14029842615127563,-0.3432678282260895,0.0604884997010231
1772882750631534300,8.911534423828124,0.28510552644729614,-0.30096572637557983,0.03186344727873802
1772882750641466400,8.92146630859375,0.22904890775680542,-0.20690633356571198,0.0034464518539607525
1772882750651399400,8.9313994140625,0.4027073085308075,-0.13815641403198242,-0.04874683916568756
1772882750661331500,8.94133154296875,0.34737586975097656,-0.05413448065519333,-0.0750061422586441
1772882750671264500,8.951264404296875,0.5007597804069519,-0.05729127302765846,-0.06976331770420074
1772882750681196500,8.961196533203125,0.37190645933151245,-0.05121473968029022,-0.010850728489458561
1772882750691129300,8.97112939453125,0.48661887645721436,-0.11306147277355194,0.0881769135594368
1772882750701062400,8.9810625,0.2985301911830902,-0.16042286157608032,0.1828586757183075
1772882750710994400,8.990994384765624,0.40673378109931946,-0.24347272515296936,0.23880314826965332
1772882750720927500,9.000927490234375,0.2670091688632965,-0.2524172067642212,0.2515133321285248
1772882750730859300,9.010859375,0.44757080078125,-0.2654310464859009,0.2400822788476944
1772882750740792600,9.02079248046875,0.3456239402294159,-0.20477275550365448,0.20766735076904297
1772882750750724400,9.030724365234375,0.5442434549331665,-0.19121922552585602,0.15852521359920502
1772882750760657400,9.040657470703126,0.4294854700565338,-0.16745077073574066,0.09552068263292313
1772882750770590200,9.050590087890624,0.5542595386505127,-0.19841039180755615,0.031027989462018013
1772882750780522200,9.060522216796874,0.5341952443122864,-0.20164427161216736,-0.02844599075615406
1772882750790455300,9.070455322265625,0.5207061767578125,-0.21062231063842773,-0.06445091217756271
1772882750800387300,9.08038720703125,0.4887237250804901,-0.20207835733890533,-0.06492388993501663
1772882750810320400,9.0903203125,0.47748497128486633,-0.18435955047607422,-0.046209633350372314
1772882750820252400,9.10025244140625,0.47202548384666443,-0.17616021633148193,-0.01628209464251995
1772882750830185500,9.110185546875,0.4703017473220825,-0.16567090153694153,-0.00877524632960558
1772882750840118500,9.120118408203124,0.47569382190704346,-0.1724845916032791,-0.02409401535987854
1772882750850050600,9.130050537109375,0.4873318374156952,-0.1741437464952469,-0.048306409269571304
1772882750859983400,9.1399833984375,0.514641523361206,-0.14949379861354828,-0.07072010636329651
1772882750869915400,9.149915283203125,0.5467669367790222,-0.1073385700583458,-0.07622555643320084
1772882750879848400,9.159848388671875,0.580697238445282,-0.03360442817211151,-0.05248533561825752
1772882750889780200,9.1697802734375,0.6049391627311707,0.06555379927158356,0.008847157470881939
1772882750899713300,9.17971337890625,0.6356776356697083,0.19643138349056244,0.11747563630342484
1772882750909645300,9.189645263671874,0.6523098945617676,0.3132682740688324,0.24721850454807281
1772882750919578400,9.199578369140625,0.6746882200241089,0.39451679587364197,0.32950514554977417
1772882750929511400,9.209511474609375,0.7111973166465759,0.47883737087249756,0.2856634855270386
1772882750939443500,9.219443359375,0.7879821062088013,0.5307887196540833,0.1202809140086174
1772882750949376300,9.229376220703125,0.8747767210006714,0.5448733568191528,-0.09053736180067062
1772882750959308300,9.239308349609376,0.8818793892860413,0.5222050547599792,-0.2334284633398056
1772882750969241300,9.249241455078124,0.8251800537109375,0.45889610052108765,-0.2651662230491638
1772882750979173400,9.25917333984375,0.6856203079223633,0.3402389585971832,-0.19782951474189758
1772882750989106400,9.2691064453125,0.4757789373397827,0.1498233675956726,-0.15210552513599396
1772882750999039500,9.27903955078125,0.3072458505630493,-0.07633466273546219,-0.17638875544071198
1772882751008971300,9.28897119140625,0.2939758002758026,-0.28005677461624146,-0.25215768814086914
1772882751018904300,9.298904296875,0.41686415672302246,-0.4299871623516083,-0.3951411843299866
1772882751028836400,9.30883642578125,0.606633722782135,-0.5069478750228882,-0.5840862989425659
1772882751038769200,9.31876904296875,0.7812492251396179,-0.5079641342163086,-0.7599936723709106
1772882751048701200,9.328701171875,0.9212782979011536,-0.4819064140319824,-0.8725561499595642
1772882751058634200,9.33863427734375,1.020915150642395,-0.42015305161476135,-0.8961418867111206
1772882751068566300,9.348566162109375,1.0676913261413574,-0.3690332770347595,-0.8156924247741699
1772882751078499300,9.358499267578125,1.0604544878005981,-0.32738518714904785,-0.6663104295730591
1772882751088432400,9.368432373046875,1.0063425302505493,-0.3306097388267517,-0.4957016706466675
1772882751098364400,9.378364501953126,0.9042931199073792,-0.4317834973335266,-0.3341521918773651
1772882751108297500,9.38829736328125,0.7760618329048157,-0.5564677715301514,-0.21384184062480927
1772882751118229500,9.3982294921875,0.6670975089073181,-0.6465412378311157,-0.15391965210437775
1772882751128162300,9.408162353515625,0.6098644733428955,-0.6620534658432007,-0.12944674491882324
1772882751138094300,9.41809423828125,0.6034749746322632,-0.5997394919395447,-0.10783226042985916
1772882751148027400,9.42802734375,0.6289399862289429,-0.4932262599468231,-0.0850684642791748
1772882751157960400,9.43796044921875,0.6705675721168518,-0.3937028646469116,-0.08152300119400024
1772882751167892200,9.447892333984376,0.7186568379402161,-0.3051193058490753,-0.0898958370089531
1772882751177825300,9.4578251953125,0.7644051313400269,-0.2511005699634552,-0.0823574885725975
1772882751187757300,9.46775732421875,0.7900868058204651,-0.21233509480953217,-0.05620051547884941
1772882751197690400,9.4776904296875,0.8053147196769714,-0.20580342411994934,-0.01214517466723919
1772882751207622400,9.487622314453125,0.8053839802742004,-0.24754567444324493,0.026015711948275566
1772882751217555200,9.49755517578125,0.7640419006347656,-0.3110774755477905,0.06903694570064545
1772882751227487200,9.5074873046875,0.700051486492157,-0.3653610050678253,0.09780436754226685
1772882751237420300,9.517420166015626,0.6590084433555603,-0.40170809626579285,0.09318351745605469
1772882751247353300,9.527353271484374,0.6348812580108643,-0.394716739654541,0.06785312294960022
1772882751257285400,9.537285400390624,0.630336582660675,-0.36019366979599,0.03217901661992073
1772882751267218400,9.547218505859375,0.6431065201759338,-0.3280048966407776,-0.00818445160984993
1772882751277150500,9.557150390625,0.6713964939117432,-0.2921946942806244,-0.05032231658697128
1772882751287083300,9.567083251953125,0.7099444270133972,-0.2955586612224579,-0.08017408847808838
1772882751297015600,9.577015625,0.7468047142028809,-0.32942792773246765,-0.10540274530649185
1772882751306948400,9.5869482421875,0.7524029612541199,-0.3906031548976898,-0.14302681386470795
1772882751316881400,9.59688134765625,0.7241777181625366,-0.4435505270957947,-0.17641672492027283
1772882751326813200,9.606813232421874,0.6774628758430481,-0.4348866045475006,-0.20866796374320984
1772882751336746200,9.616746337890625,0.6135699152946472,-0.38839420676231384,-0.20236772298812866
1772882751346678300,9.62667822265625,0.5985949635505676,-0.34634000062942505,-0.19686366617679596
1772882751356611300,9.636611328125,0.6205386519432068,-0.34046828746795654,-0.22544576227664948
1772882751366543400,9.64654345703125,0.6500038504600525,-0.3480759859085083,-0.27022823691368103
1772882751376476200,9.65647607421875,0.7022071480751038,-0.3726774752140045,-0.31607240438461304
1772882751386409200,9.6664091796875,0.7570621967315674,-0.42485958337783813,-0.33886784315109253
1772882751396341200,9.67634130859375,0.7751356959342957,-0.4561120569705963,-0.3445979058742523
1772882751406274300,9.6862744140625,0.7833696603775024,-0.4742636978626251,-0.3265739381313324
1772882751416206300,9.696206298828125,0.7823147773742676,-0.4919359087944031,-0.3002755045890808
1772882751426139400,9.706139404296875,0.7724542617797852,-0.5132136940956116,-0.26630261540412903
1772882751436071400,9.716071533203126,0.7563115358352661,-0.5051233172416687,-0.24634835124015808
1772882751446004500,9.72600439453125,0.7299379706382751,-0.48137348890304565,-0.2364419847726822
1772882751455937300,9.735937255859374,0.6892635226249695,-0.4502755105495453,-0.23521266877651215
1772882751465869300,9.745869384765625,0.6458951234817505,-0.4297121465206146,-0.23301710188388824
1772882751475802400,9.75580224609375,0.6118183732032776,-0.4294450283050537,-0.22446168959140778
1772882751485734100,9.765734130859375,0.5912310481071472,-0.4107248783111572,-0.21388068795204163
1772882751495667200,9.775667236328125,0.5826205015182495,-0.409882515668869,-0.2015680968761444
1772882751505599200,9.78559912109375,0.5729197859764099,-0.41028016805648804,-0.18116194009780884
1772882751515532300,9.7955322265625,0.5553886890411377,-0.3994424343109131,-0.15104399621486664
1772882751525464300,9.80546435546875,0.5259938836097717,-0.38151827454566956,-0.11340494453907013
1772882751535397400,9.8153974609375,0.4866025149822235,-0.36835721135139465,-0.09683848917484283
1772882751545330200,9.825330078125,0.4274253249168396,-0.3598134219646454,-0.09757740050554276
1772882751555262200,9.83526220703125,0.35151511430740356,-0.3538157343864441,-0.1096298024058342
1772882751565195300,9.8451953125,0.277904212474823,-0.34106630086898804,-0.11016880720853806
1772882751575127300,9.855127197265626,0.21137607097625732,-0.33407604694366455,-0.09058152139186859
1772882751585060400,9.865060302734374,0.14634913206100464,-0.30739131569862366,-0.06614134460687637
1772882751594992400,9.874992431640624,0.08300530165433884,-0.27994903922080994,-0.03283745050430298
1772882751604925400,9.884925537109375,0.033374056220054626,-0.26035597920417786,-0.0042013125494122505
1772882751614858500,9.8948583984375,-0.01613331027328968,-0.243229478597641,0.011111064814031124
1772882751624790300,9.904790283203125,-0.055978886783123016,-0.2434878796339035,0.010358918458223343
1772882751634723300,9.914723388671876,-0.11876211315393448,-0.2591044008731842,-0.007552171126008034
1772882751644655000,9.924655029296876,-0.2016889452934265,-0.2728140950202942,-0.04217220097780228
1772882751654588200,9.934588134765624,-0.2630665600299835,-0.2746378183364868,-0.0712648332118988
1772882751664520200,9.944520263671874,-0.30238163471221924,-0.2754709720611572,-0.08918702602386475
1772882751674453200,9.954453369140625,-0.33030328154563904,-0.26347821950912476,-0.09036014974117279
1772882751684385300,9.96438525390625,-0.36666354537010193,-0.22661839425563812,-0.0876774713397026
1772882751694318300,9.974318359375,-0.3363455832004547,-0.1694137006998062,-0.08437301963567734
1772882751704251400,9.98425146484375,-0.43735867738723755,-0.08739633113145828,-0.04420913755893707
1772882751714183400,9.994183349609376,-0.4863983988761902,-0.08570309728384018,-0.0009578034514561296
1772882751724116200,10.0041162109375,-0.5063642263412476,-0.10807111859321594,-0.0017839613137766719
1772882751734048300,10.01404833984375,-0.5531208515167236,-0.20279976725578308,-0.05831301584839821
1772882751743981300,10.023981201171875,-0.596217691898346,-0.3981403410434723,-0.2026258111000061
1772882751753913300,10.033913330078125,-0.4664144814014435,-0.5327116847038269,-0.43396925926208496
1772882751763846400,10.043846435546875,-0.4410964250564575,-0.5422519445419312,-0.600195586681366
1772882751773779500,10.053779541015626,-0.4148499071598053,-0.3578709065914154,-0.6622605323791504
1772882751783711200,10.063711181640626,-0.4337370991706848,-0.14546164870262146,-0.6455007195472717
1772882751793644500,10.07364453125,-0.548336923122406,0.06370595097541809,-0.512999415397644
1772882751803576300,10.083576416015624,-0.7827805280685425,0.20794960856437683,-0.2625671923160553
1772882751813509000,10.093509033203125,-0.9628501534461975,0.3008910119533539,0.10223233699798584
1772882751823441200,10.103441162109375,-0.9153886437416077,0.3316570222377777,0.4866965413093567
1772882751833374200,10.113374267578125,-0.7283875942230225,0.20075786113739014,0.6414978504180908
1772882751843306200,10.12330615234375,-0.5553533434867859,-0.11182671040296555,0.529344916343689
1772882751853239300,10.1332392578125,-0.4473726153373718,-0.3836970925331116,0.3495365083217621
1772882751863172400,10.14317236328125,-0.33137330412864685,-0.5337930917739868,0.1544899046421051
1772882751873104400,10.1531044921875,-0.21347565948963165,-0.5337981581687927,-0.011859661899507046
1772882751883037400,10.163037353515625,-0.11479874700307846,-0.3903093934059143,-0.14797838032245636
1772882751892969500,10.172969482421875,-0.006639780476689339,-0.1659194380044937,-0.2466578185558319
1772882751902902300,10.18290234375,0.09734079986810684,0.04953479394316673,-0.3192448914051056
1772882751912834300,10.192834228515625,0.1864781230688095,0.2999635338783264,-0.36439239978790283
1772882751922767400,10.202767333984376,0.21447566151618958,0.5137931704521179,-0.38121846318244934
1772882751932700400,10.212700439453124,0.19930869340896606,0.5692092776298523,-0.34910207986831665
1772882751942632200,10.222632080078125,0.15017437934875488,0.4369545876979828,-0.27736952900886536
1772882751952565200,10.232565185546875,0.1301700472831726,0.2303319126367569,-0.1186608374118805
1772882751962497300,10.242497314453125,0.19837093353271484,0.052307967096567154,0.10116800665855408
1772882751972430300,10.252430419921875,0.30259987711906433,-0.050999779254198074,0.27638909220695496
1772882751982362600,10.262362548828126,0.4338223934173584,-0.09698650985956192,0.3574402332305908
1772882751992295700,10.272295654296874,0.5380606651306152,-0.12619073688983917,0.3422756791114807
1772882752002228700,10.282228759765625,0.6027651429176331,-0.12616464495658875,0.2765839695930481
1772882752012160800,10.292160888671875,0.633781909942627,-0.13485267758369446,0.19381585717201233
1772882752022093800,10.30209375,0.6394069790840149,-0.14139796793460846,0.08575031161308289
1772882752032025900,10.31202587890625,0.6200042366981506,-0.1379270702600479,-0.019623251631855965
1772882752041959000,10.321958984375,0.5905826687812805,-0.15909995138645172,-0.109919972717762
1772882752051891000,10.331890869140626,0.5893663763999939,-0.18076156079769135,-0.14626838266849518
1772882752061823700,10.34182373046875,0.6184528470039368,-0.25988268852233887,-0.15089188516139984
1772882752071755800,10.351755859375,0.6017758846282959,-0.40192610025405884,-0.19558745622634888
1772882752081688800,10.361688720703125,0.551632285118103,-0.527064323425293,-0.2553229331970215
1772882752091622000,10.371621826171875,0.4627476930618286,-0.6287808418273926,-0.3107166886329651
1772882752101553700,10.3815537109375,0.3302935063838959,-0.6830912828445435,-0.33557766675949097
1772882752111486700,10.39148681640625,0.1910804957151413,-0.6668633222579956,-0.31165260076522827
1772882752121418800,10.401418701171876,0.05843126028776169,-0.6067333221435547,-0.2464999109506607
1772882752131351800,10.411351806640624,-0.06950486451387405,-0.48940566182136536,-0.16692066192626953
1772882752141283800,10.421283935546874,-0.16489417850971222,-0.3520555794239044,-0.09652268886566162
1772882752151216600,10.431216552734375,-0.18852867186069489,-0.2323765903711319,-0.010028807446360588
1772882752161148700,10.441148681640625,-0.1751207709312439,-0.16258226335048676,0.07973811775445938
1772882752171081700,10.451081787109375,-0.13444603979587555,-0.16447123885154724,0.1345217376947403
1772882752181014800,10.461014892578126,-0.08707316219806671,-0.2691481113433838,0.1399681270122528
1772882752190946800,10.47094677734375,-0.0008056487422436476,-0.3712947368621826,0.16544657945632935
1772882752200879900,10.4808798828125,0.10103815793991089,-0.431647390127182,0.1938355416059494
1772882752210812000,10.49081201171875,0.17633584141731262,-0.4318988025188446,0.22212256491184235
1772882752220745000,10.500744873046875,0.20113083720207214,-0.3937035799026489,0.2517368197441101
1772882752230676700,10.5106767578125,0.22651554644107819,-0.3272952437400818,0.256380558013916
1772882752240609800,10.52060986328125,0.21991604566574097,-0.24857622385025024,0.214665949344635
1772882752250542800,10.53054296875,0.1963614523410797,-0.16766992211341858,0.14085058867931366
1772882752260474600,10.540474609375,0.1769489049911499,-0.11863180994987488,0.05520514026284218
1772882752270407700,10.55040771484375,0.18915870785713196,-0.11108680814504623,-0.0189290102571249
1772882752280339700,10.560339599609375,0.24262209236621857,-0.15319781005382538,-0.05017802119255066
1772882752290272800,10.570272705078125,0.3069917559623718,-0.23491691052913666,-0.06653115898370743
1772882752300204800,10.580204833984375,0.36889684200286865,-0.3124076724052429,-0.09818340092897415
1772882752310137900,10.590137939453125,0.4167785942554474,-0.3794786036014557,-0.18531803786754608
1772882752320070000,10.60006982421875,0.446620911359787,-0.44347551465034485,-0.34305819869041443
1772882752330002700,10.610002685546876,0.4477650225162506,-0.535552978515625,-0.5166321396827698
1772882752339935700,10.619935791015624,0.43161049485206604,-0.6136266589164734,-0.6822047233581543
1772882752349867800,10.62986767578125,0.4174046516418457,-0.6642999649047852,-0.8276175856590271
1772882752359800800,10.63980078125,0.3978843688964844,-0.6616119146347046,-0.9316040873527527
1772882752369732900,10.64973291015625,0.3714863061904907,-0.6108307242393494,-0.9667799472808838
1772882752379666000,10.659666015625,0.34906381368637085,-0.5377646684646606,-0.9476142525672913
1772882752389597700,10.66959765625,0.3393142521381378,-0.46140143275260925,-0.8868193626403809
1772882752399531000,10.679531005859374,0.3545334041118622,-0.4111676514148712,-0.7720916271209717
1772882752409463800,10.6894638671875,0.40301811695098877,-0.421044260263443,-0.6345111131668091
1772882752419395600,10.6993955078125,0.48370105028152466,-0.4479151964187622,-0.49952232837677
1772882752429328600,10.70932861328125,0.5824894309043884,-0.4888956546783447,-0.3883582651615143
1772882752439260700,10.7192607421875,0.6610747575759888,-0.5165213942527771,-0.30181846022605896
1772882752449193700,10.72919384765625,0.7101869583129883,-0.503826916217804,-0.21528702974319458
1772882752459125800,10.739125732421876,0.736120343208313,-0.47604453563690186,-0.14342060685157776
1772882752469058800,10.749058837890624,0.7366074323654175,-0.44614285230636597,-0.08916402608156204
1772882752478992000,10.758991943359375,0.730684220790863,-0.40926966071128845,-0.04816213622689247
1772882752488924000,10.768923828125,0.713566243648529,-0.36543190479278564,-0.02034994587302208
1772882752498856700,10.778856689453125,0.7077198028564453,-0.30792874097824097,-0.005857904441654682
1772882752508788700,10.788788818359375,0.7081924676895142,-0.26986899971961975,0.004393401555716991
1772882752518721800,10.7987216796875,0.7029523253440857,-0.269906222820282,-0.0025770864449441433
1772882752528653800,10.80865380859375,0.6852497458457947,-0.26658499240875244,-0.006318294908851385
1772882752538587000,10.8185869140625,0.6301596164703369,-0.25531330704689026,-0.0036915375385433435
1772882752548518700,10.8285185546875,0.5345121622085571,-0.2598089873790741,0.01535246055573225
1772882752558451700,10.83845166015625,0.42091119289398193,-0.27313151955604553,0.032979585230350494
1772882752568384800,10.848384765625,0.3237300217151642,-0.28156471252441406,0.040019385516643524
1772882752578316800,10.85831689453125,0.27603650093078613,-0.3013012707233429,0.04024641588330269
1772882752588249600,10.86824951171875,0.2946740984916687,-0.31605732440948486,0.03422900289297104
1772882752598181600,10.878181640625,0.3572409152984619,-0.3067489564418793,0.026679590344429016
1772882752608114700,10.88811474609375,0.45212721824645996,-0.3248789608478546,0.008842269890010357
1772882752618046700,10.898046630859374,0.5722858905792236,-0.38029778003692627,-0.018546313047409058
1772882752627979800,10.907979736328125,0.6978845596313477,-0.442373126745224,-0.040620457381010056
1772882752637912800,10.917912841796875,0.8000523447990417,-0.45923709869384766,-0.03720816224813461
1772882752647844900,10.927844970703125,0.8793314695358276,-0.44736847281455994,-0.013200030662119389
1772882752657777700,10.937777587890626,0.9350811243057251,-0.4266810715198517,-0.00032376180752180517
1772882752667710000,10.9477099609375,0.9765319228172302,-0.42295345664024353,-0.01689794473350048
1772882752677642800,10.957642822265624,0.9933124780654907,-0.47344309091567993,-0.0500931590795517
1772882752687574800,10.96757470703125,0.9606325626373291,-0.5693812966346741,-0.10450820624828339
1772882752697507800,10.9775078125,0.9225322008132935,-0.674747109413147,-0.17494484782218933
1772882752707439600,10.987439697265625,0.972252607345581,-0.705224335193634,-0.20916087925434113
1772882752717372700,10.99737255859375,1.0556628704071045,-0.7145713567733765,-0.3008483052253723
1772882752727305700,11.0073056640625,1.1036916971206665,-0.7080138921737671,-0.3974909782409668
1772882752737237800,11.01723779296875,1.0803651809692383,-0.6887089014053345,-0.3346632719039917
1772882752747170600,11.027170654296874,1.0160893201828003,-0.5600971579551697,-0.023076895624399185
1772882752757102800,11.037102783203125,0.8521215319633484,-0.3036348819732666,0.4651496708393097
1772882752767035600,11.04703564453125,0.6245728135108948,0.028154520317912102,0.9829177260398865
1772882752776967700,11.0569677734375,0.41324687004089355,0.3840828239917755,1.3969472646713257
1772882752786900700,11.066900634765625,0.2495594173669815,0.6281977891921997,1.6262577772140503
1772882752796833800,11.076833740234376,0.19491730630397797,0.687413215637207,1.6740232706069946
1772882752806765800,11.086765869140624,0.28733140230178833,0.6099234819412231,1.5430654287338257
1772882752816699000,11.096698974609374,0.4539084732532501,0.43290242552757263,1.268247365951538
1772882752826631000,11.106630859375,0.6274791359901428,0.19377052783966064,0.8532400131225586
1772882752836563700,11.116563720703125,0.7478539943695068,-0.08621463179588318,0.35139000415802
1772882752846495700,11.126495849609375,0.752335786819458,-0.34493008255958557,-0.10786838829517365
1772882752856428800,11.1364287109375,0.697516679763794,-0.5353671312332153,-0.49948346614837646
1772882752866361900,11.14636181640625,0.6224943399429321,-0.621330201625824,-0.7869847416877747
1772882752876293600,11.156293701171874,0.5554142594337463,-0.6268447041511536,-0.9385493993759155
1772882752886226700,11.166226806640625,0.51508629322052,-0.5890586972236633,-0.95174241065979
1772882752896158700,11.17615869140625,0.470891535282135,-0.5149392485618591,-0.8506389856338501
1772882752906091800,11.186091796875,0.4293653964996338,-0.45205768942832947,-0.6573877334594727
1772882752916023800,11.19602392578125,0.37618330121040344,-0.43496254086494446,-0.4222364127635956
1772882752925956600,11.20595654296875,0.3145172894001007,-0.43472418189048767,-0.18821939826011658
1772882752935888600,11.215888671875,0.2611476182937622,-0.43331894278526306,0.01926652155816555
1772882752945821700,11.22582177734375,0.2168901562690735,-0.3834877610206604,0.1787043809890747
1772882752955754800,11.235754638671875,0.17921249568462372,-0.3059012293815613,0.2903311848640442
1772882752965686800,11.245686767578125,0.17823617160320282,-0.21695351600646973,0.3903810977935791
1772882752975620000,11.2556201171875,0.17896471917629242,-0.07302071899175644,0.5315735340118408
1772882752985552100,11.26555224609375,0.17490153014659882,0.12634164094924927,0.6081799268722534
1772882752995485200,11.275485107421876,0.14109601080417633,0.1979513168334961,0.5548121929168701
1772882753005417200,11.285417236328126,0.09183365106582642,0.17234236001968384,0.5038819313049316
1772882753015350000,11.29535009765625,0.1005525141954422,0.17239490151405334,0.49655237793922424
1772882753025283000,11.305282958984375,0.09896926581859589,0.214150071144104,0.5236468315124512
1772882753035215000,11.315215087890625,0.09611628204584122,0.2388414889574051,0.5025569796562195
1772882753045148200,11.325148193359375,0.08386094123125076,0.1890273243188858,0.4047712981700897
1772882753055080200,11.335080078125,0.051416076719760895,0.06747940182685852,0.22958171367645264
1772882753065013200,11.34501318359375,0.0030402904376387596,-0.09095950424671173,0.06990575790405273
1772882753074945000,11.354945068359376,-0.033515430986881256,-0.15851770341396332,0.026411086320877075
