time,seconds_elapsed,z,y,x
1772806410129642800,0.073642822265625,0.018022417294234035,0.08459493048489093,0.22424743906408548
1772806410139573800,0.08357373046875,-0.2416203064084053,-0.1528267551898956,0.602376403068006
1772806410149504800,0.0935048828125,-0.6729169431068003,-0.2963414921551943,0.8830952325470744
1772806410159436800,0.103436767578125,-1.154451774919033,-0.3582704173237085,0.9993082672193646
1772806410169367800,0.113367919921875,-1.5640258246310055,-0.28032150072455403,1.054166523349285
1772806410179299800,0.1232998046875,-1.7643254018746315,-0.10678630402684211,1.0823336102999745
1772806410189230600,0.133230712890625,-1.5128643771924077,-0.1563654507100582,0.7493575009696185
1772806410199162600,0.14316259765625,-1.1956349953092633,-0.07122223869264126,0.5218281906906515
1772806410209094000,0.153093994140625,-0.9113502900421618,-0.04832008653283119,0.48295273578613995
1772806410219026000,0.16302587890625,-0.8052332635790109,-0.188425307315588,0.5218620929602533
1772806410228957000,0.17295703125,-0.7181907938115298,-0.2798661581724882,0.5660224294651299
1772806410238889000,0.182888916015625,-0.4646230061084032,-0.487303624472022,0.6496450808517634
1772806410248819700,0.19281982421875,-0.2970259672880173,-0.6802782656550407,0.7976103674851357
1772806410258751700,0.202751708984375,-0.2213677919745445,-0.8004460293024778,0.8014396434497087
1772806410268683000,0.21268310546875,-0.3337733971878886,-0.6799608702689409,0.6747420396421104
1772806410278614800,0.22261474609375,-0.4933265380233526,-0.37770167850255965,0.45713564602769907
1772806410288545800,0.2325458984375,-0.7392102009646594,-0.03414309262037277,0.34035913225375114
1772806410298477000,0.24247705078125,-0.8378414017170667,0.21033435678482054,0.42739444162808354
1772806410308409000,0.2524091796875,-0.7447834710523485,0.2741846054047346,0.6501199318218975
1772806410318339800,0.26233984375,-0.5807552306294441,0.36179917597174643,0.9348459511157124
1772806410328272000,0.27227197265625,-0.45167526172995565,0.33753625685274596,1.1394437370099126
1772806410338203000,0.282202880859375,-0.5574108876600862,0.19389526315927505,1.191955722274631
1772806410348134700,0.292134765625,-0.5531780723959208,-0.02705634922981262,1.057867569824308
1772806410358066000,0.30206591796875,-0.4316030722990632,-0.3180903826266527,0.9052896017637103
1772806410367998000,0.311998046875,-0.40018005229234693,-0.44726738215982914,0.7222698798187077
1772806410377929000,0.321928955078125,-0.560816604450345,-0.41531507758200165,0.5498711398050189
1772806410387860700,0.33186083984375,-0.7346788411453365,-0.32483868784308434,0.37201544955968857
1772806410397791700,0.341791748046875,-0.9165203861564397,-0.2859223894715309,0.23472207132726908
1772806410407723800,0.351723876953125,-1.1306582268774508,-0.2785837171465158,0.20591456758119164
1772806410417655000,0.361655029296875,-1.2163640412136911,-0.2798872009605169,0.4710006513815373
1772806410427586800,0.3715869140625,-0.7906573334768414,-0.5415162761747837,0.852692787759751
1772806410437517800,0.381517822265625,-0.47137306489050385,-0.699627109247446,0.9358812855128198
1772806410447449900,0.391449951171875,-0.3139297558158636,-0.6658177786260843,0.8566282275125384
1772806410457380900,0.401380859375,-0.29641835678368805,-0.6447171229302883,0.747973791526258
1772806410467311900,0.411311767578125,-0.2314145542144775,-0.6796820533275604,0.40613355386927724
1772806410477244000,0.421243896484375,-0.20113310545831917,-0.8046487416893243,0.23978622284904122
1772806410487175000,0.4311748046875,0.21118015995919703,-0.8283920208483934,0.38716976407170295
1772806410497106700,0.441106689453125,-0.018688041596114636,-0.737328186610341,0.10272270784974098
1772806410507038000,0.451037841796875,-0.751052760580182,-0.8961515518665313,-0.12926613912135362
1772806410516970000,0.460969970703125,-1.2012065118312836,-1.0615513729035855,-0.16345336314439773
1772806410526900700,0.470900634765625,-1.3439832899108528,-1.2430167780786752,-0.19660306081324816
1772806410536832800,0.480832763671875,-0.8853808592662215,-1.1779010395675897,-0.14699030412137506
1772806410546763800,0.490763671875,0.1612280883103609,-0.9635638768821955,-0.220604114125669
1772806410556696000,0.500696044921875,-0.031028175470232962,-1.097576626008749,-0.4010366691216826
1772806410566626800,0.510626708984375,-0.7045344627723097,-1.1491431471168994,-0.5613384363673627
1772806410576558800,0.520558837890625,-0.7637061981871723,-1.2950643607020378,-0.6702282885447144
1772806410586489900,0.53048974609375,-0.89842943367064,-1.4824924736738203,-0.7520059696517885
1772806410596420900,0.5404208984375,-0.8815320748835802,-1.5064561175853013,-0.6254634102754294
1772806410606353000,0.550352783203125,-0.7085819845974445,-1.3833856182336806,-0.29061244698390365
1772806410616284000,0.560283935546875,-0.7380892341107129,-1.216627368324995,-0.12214783154875039
1772806410626216000,0.5702158203125,-0.8469324706673622,-0.9397013552576303,-0.10742913197502493
1772806410636146700,0.580146728515625,-0.9059846713557839,-0.5391857874006033,-0.2048671774201095
1772806410646078700,0.59007861328125,-1.0742053950324655,-0.24015374098718165,-0.2852466821670532
1772806410656010000,0.600010009765625,-1.3198840369209646,-0.20034370864629744,-0.17973259003311395
1772806410665942000,0.60994189453125,-1.6364616768971085,-0.3955991542428732,0.0738202923618257
1772806410675872800,0.619872802734375,-1.918681120197475,-0.7131307339429855,0.17768194111362098
1772806410685804800,0.6298046875,-2.073000452032685,-0.9480641099333763,0.1327360071890056
1772806410695735800,0.63973583984375,-2.140470936976373,-1.043295585244894,0.009323124140501023
1772806410705668000,0.649668212890625,-2.1958891650766135,-1.0880547644257546,-0.08750482658222317
1772806410715598800,0.659598876953125,-2.12304780074954,-1.0529910498291253,-0.15412439378499984
1772806410725531000,0.66953076171875,-1.9800296151295302,-0.9657862291067838,-0.2864811923980713
1772806410735462000,0.6794619140625,-1.948404935070872,-0.9635393269628286,-0.48872839657813305
1772806410745394000,0.689393798828125,-2.023180774591863,-0.8896575136721133,-0.7350299926705658
1772806410755325000,0.699324951171875,-2.0723376042097805,-0.8119242856502532,-1.0322283939160406
1772806410765256000,0.709255859375,-2.127124840930104,-0.8449263915419578,-1.2593475890241563
1772806410775188000,0.71918798828125,-2.2312410489648578,-0.9604068741559981,-1.239574236409366
1772806410785118700,0.72911865234375,-2.3052692849889396,-1.0917489427685736,-0.9076466132186353
1772806410795050800,0.73905078125,-2.364346620118618,-1.0919435885578392,-0.4101587177321315
1772806410804982000,0.74898193359375,-2.305566514369845,-1.0537789853364228,-0.20292510344162581
1772806410814914000,0.7589140625,-2.036732037821412,-1.0551017583727835,-0.3548525717042386
1772806410824844800,0.7688447265625,-1.790892652413249,-1.0763222410559654,-0.7681431577213108
1772806410834776800,0.77877685546875,-1.66205584461987,-1.129867368760705,-1.2104309979029
1772806410844707800,0.788707763671875,-1.5491139405727385,-1.2529291002839802,-1.3787443682990967
1772806410854639900,0.798639892578125,-1.6555419326812029,-1.3853373368233441,-1.187102583155036
1772806410864571000,0.80857080078125,-2.034109288102388,-1.3342647367119789,-0.8145175170138478
1772806410874503000,0.8185029296875,-2.325276007968187,-1.088242395952344,-0.2941806608594954
1772806410884434000,0.828433837890625,-2.533563953617215,-0.666805036097765,0.3627979777507484
1772806410894365700,0.83836572265625,-2.7215350874245163,-0.022937807995080946,1.1072032631404698
1772806410904297000,0.848296875,-2.8208263595208525,1.176458439543843,1.7660400968380272
1772806410914228000,0.85822802734375,-2.7052523534044624,3.214772193598747,2.0151400914773343
1772806410924159700,0.86815966796875,-2.1029443393975495,5.633188257557153,2.2135060703098772
1772806410934090800,0.8780908203125,-0.5462763301834463,7.207647651788592,2.7320348541289565
1772806410944022800,0.888022705078125,1.2069006318196653,7.007012851241231,2.2902131701543924
1772806410953954000,0.8979541015625,0.7404322901055216,3.8806162757098672,0.9281460881508886
1772806410963885800,0.9078857421875,-0.286369840978086,-1.1473831517070532,0.6017385435558855
1772806410973816800,0.91781689453125,-0.23912410567849873,-5.513763421231508,2.090416281735897
1772806410983748900,0.927748779296875,-1.042868592004478,-7.822555327388644,3.536668982771039
1772806410993680000,0.937679931640625,-1.786222614775598,-6.737842859128117,2.4502841973841187
1772806411003612000,0.94761181640625,-0.9227797388121485,-4.095793396350741,1.2680632487908006
1772806411013543000,0.95754296875,1.4611466110453009,-0.687567838141322,0.23786533778905866
1772806411023475000,0.967474853515625,4.101948704110086,3.0294460213422774,-0.6279926364921034
1772806411033405700,0.97740576171875,5.096676657801866,5.041831553414464,-1.5846479030296206
1772806411043337700,0.987337646484375,4.672461357666552,5.248665208601952,-1.9016244791954755
1772806411053269000,0.99726904296875,3.6197815657436845,3.805686414670944,-2.261176168501377
1772806411063201000,1.007200927734375,3.001683861930668,1.8345774803608654,-2.3816641040138897
1772806411073131800,1.0171318359375,3.0420480210229752,-0.1488975990474224,-2.234481930582225
1772806411083062800,1.027062744140625,3.6792046455711125,-1.1238742658257483,-1.2664170890189705
1772806411092994800,1.036994873046875,4.01622506185621,-1.1892092000454664,-0.4552126420758664
1772806411102925800,1.04692578125,3.598239596021175,-1.0275748690217732,-0.1884739687629044
1772806411112857900,1.05685791015625,2.9131331795573234,-0.6210036543875932,0.08744856635034083
1772806411122788900,1.066788818359375,1.816955898952484,-0.3160287739217281,0.4005309115566313
1772806411132721000,1.076720947265625,0.9472218138903379,-0.24265081849992273,0.6179210320718586
1772806411142652000,1.08665185546875,0.8755781349152326,0.14064707257449627,0.8359161327429115
1772806411152584000,1.096583984375,0.765223324751854,0.6807979056149721,0.8708277255177498
1772806411162515000,1.106514892578125,0.8197752183463424,0.7583908483833074,0.5272469278037548
1772806411172447000,1.116447021484375,1.2805191179990767,0.3875672389566898,0.2843137852311134
1772806411182377700,1.126377685546875,1.7891531152695417,-0.0283861365288496,0.14960384762063622
1772806411192309800,1.136309814453125,1.7738363036721945,-0.28622224920094014,-0.15092793583124875
1772806411202240300,1.146240234375,1.7227181108534335,-0.36722120102047917,-0.6094042558781803
1772806411212172300,1.15617236328125,1.706221149560809,-0.3154758162140846,-1.0717708613619208
1772806411222103300,1.166103271484375,1.2769038501113652,-0.3364665817946195,-1.2966580596342683
1772806411232034300,1.176034423828125,1.011601639342308,-0.31461656903624535,-1.4322399577736853
1772806411241966300,1.18596630859375,0.9141133250147103,-0.12883446970582008,-1.3945305509738624
1772806411251897300,1.1958974609375,0.5046955253103748,-0.270772751134634,-0.8907092146821319
1772806411261829400,1.205829345703125,0.48683312088344244,-0.5531015000283718,-0.512855268227309
1772806411271760100,1.215760009765625,0.6390139428526163,-0.7152426115304231,-0.1749965014219284
1772806411281692200,1.225692138671875,0.2973469063380733,-0.71564008641541,0.14302856088355181
1772806411291623400,1.23562353515625,-0.016989128723740577,-0.756675861158967,0.14019041484817862
1772806411301555500,1.245555419921875,0.0730675742983818,-0.7646715360879898,-0.0848491975069046
1772806411311486200,1.255486328125,0.02145257440600544,-0.5871972463756799,-0.03876826820299029
1772806411321418200,1.265418212890625,-0.15311139908386392,-0.3255284236729145,-0.18430837351605295
1772806411331349200,1.275349365234375,-0.31911271141171454,0.003991699984669685,-0.3347603623986244
1772806411341281300,1.28528125,-0.4399655347138643,0.1939274118632078,-0.4833678924582898
1772806411351212300,1.29521240234375,-0.3999117567449808,0.2797393169224262,-0.6567423456363379
1772806411361144300,1.305144287109375,-0.24247663097679614,0.31411388021111486,-0.638668344285339
1772806411371075300,1.315075439453125,-0.2805009489446878,0.33912323378324505,-0.5866730763711034
1772806411381006300,1.32500634765625,-0.3638619537204504,0.20609774212837217,-0.6268332373239099
1772806411390938400,1.3349384765625,-0.48476270781755443,-0.09064180943369865,-0.7070614970318972
1772806411400869400,1.344869384765625,-0.6028583413660525,-0.31944822697639463,-0.9273302417233585
1772806411410801200,1.35480126953125,-0.7418693371713161,-0.30331834543049335,-1.0976493989840148
1772806411420732200,1.364732177734375,-0.8322305760979652,-0.11354045446217059,-1.2758946730688214
1772806411430664200,1.374664306640625,-0.8647568811714649,0.1411860017567873,-1.313949824566394
1772806411440595500,1.384595458984375,-0.7975029615879058,0.2952320696085691,-1.206542173770815
1772806411450527200,1.39452734375,-0.6701192752122879,0.24676819069087505,-1.1682961758762598
1772806411460458200,1.404458251953125,-0.49074934447910634,0.08119476665258407,-1.0749592821396887
1772806411470390300,1.414390380859375,-0.4008616048157215,-0.0633294396162033,-1.0464669087573886
1772806411480321300,1.4243212890625,-0.28135844255685805,-0.10158172112107276,-1.0380258281484245
1772806411490253300,1.43425341796875,-0.16556933238506316,-0.06280044730603694,-1.015021969179809
1772806411500184300,1.444184326171875,-0.20961192426178604,0.008369184416532517,-0.8534750241786241
1772806411510116400,1.454116455078125,-0.11865217145271599,0.07725976529121399,-0.7922107003986835
1772806411520047000,1.464047119140625,0.145115669355914,0.1065992570221424,-0.7609720970481634
1772806411529978400,1.473978271484375,0.3744015409786254,0.16281974141597746,-0.7820574090443551
1772806411539910400,1.483910400390625,0.44991343968920405,0.4042530008196831,-0.9155606012135744
1772806411549841400,1.49384130859375,0.24198862826414405,0.8471522508978844,-1.0780503800228238
1772806411559773200,1.503773193359375,-0.17970431378670035,1.256842474335432,-1.3047742922030388
1772806411569704200,1.5137041015625,-0.5189257472474128,1.4936018967092037,-1.583131507117301
1772806411579636200,1.52363623046875,-0.7930057962991297,1.5532354044169188,-1.8080280577398835
1772806411589567200,1.533567138671875,-1.1574258953589944,1.380622583261132,-1.8092111300446092
1772806411599499300,1.543499267578125,-1.6532593747019766,1.2270102306514978,-1.6198511722274123
1772806411609430300,1.55343017578125,-2.0963434798277913,1.2055460023403166,-1.6071172167301178
1772806411619362300,1.5633623046875,-2.0214684177160263,0.9070113840550184,-1.8793742150731383
1772806411629293300,1.573293212890625,-2.0461551152050492,0.8701794907420873,-2.532959850244224
1772806411639225300,1.583225341796875,-1.88729258698225,1.2900672830671072,-3.4273908619284628
1772806411649156400,1.59315625,-1.6727449964165686,2.137649742075801,-4.201153759227693
1772806411659088400,1.60308837890625,-1.3951825851418078,2.973683217588067,-4.9110839435637
1772806411669019100,1.61301904296875,-1.0476899477463215,3.3799645093649624,-5.101956059509515
1772806411678950400,1.622950439453125,-0.30825930896401404,3.5446833624005314,-4.800688509128988
1772806411688882400,1.63288232421875,0.7028571041446179,3.7787604138225315,-4.186398088644444
1772806411698813200,1.642813232421875,1.2852888166189194,3.8284675707995888,-2.8129762305423616
1772806411708745200,1.6527451171875,0.9663175595045089,3.3492350245803593,-1.1059934489592909
1772806411718676200,1.66267626953125,0.8095359292089939,2.3664666810125112,-0.4567597253873944
1772806411728608300,1.672608154296875,1.0333826785176992,1.2908727542310952,-0.6042202773690223
1772806411738539300,1.682539306640625,1.1972545593351125,0.16666764901578426,-0.8573214704737067
1772806411748471300,1.69247119140625,0.4653297296056524,-1.306612175154686,-0.4536211351007223
1772806411758402300,1.70240234375,-0.32116379872262474,-2.250053301462531,0.3045864656701684
1772806411768334300,1.712334228515625,-1.179661692564562,-2.427574352926016,1.1285910652145743
1772806411778265300,1.722265380859375,-2.19451495411396,-1.8171885386645792,2.156861661415547
1772806411788197400,1.732197265625,-1.744603194925189,-0.5736556277573108,1.7873339370183645
1772806411798128400,1.74212841796875,-1.4261270278513432,0.5997703122228384,1.6673204871498046
1772806411808060400,1.752060302734375,-1.0817096331827343,1.732890545299649,1.3611692563809454
1772806411817991200,1.7619912109375,-0.32574688872918484,2.23662741817832,0.18156331259161232
1772806411827922400,1.77192236328125,0.4889519762009382,2.105997881749272,-0.9839680747464299
1772806411837854500,1.7818544921875,1.1988175708681343,1.6884417472422122,-1.4632355461485682
1772806411847785200,1.79178515625,1.4989654695689678,1.1810469363778828,-1.8271205884836612
1772806411857717200,1.80171728515625,1.8025737378567457,1.079739356023073,-1.903204734124243
1772806411867648300,1.811648193359375,1.817985242000222,1.2050795538723469,-1.7789876950860022
1772806411877580300,1.821580322265625,1.750707357019186,1.416608088877797,-1.8111570034153759
1772806411887511300,1.83151123046875,1.6598735321447253,1.2159773799836635,-1.5793489198386668
1772806411897443300,1.841443359375,1.5670356739714741,1.0661012912929058,-1.2198835936419665
1772806411907374300,1.851374267578125,1.4461863578006624,0.6766787798583507,-1.0105874938637018
1772806411917306000,1.86130615234375,1.2998527640223503,0.052797524207830425,-0.586656271366775
1772806411927237400,1.8712373046875,1.109842817863822,-0.4372515995800495,0.21258330475538967
1772806411937169400,1.88116943359375,0.7227443654626607,-0.6977917105138302,0.7917599609564989
1772806411947100400,1.891100341796875,0.7244549687728286,-0.8818278429597616,1.2763514769256115
1772806411957032200,1.9010322265625,1.0668173306077717,-0.9936170698404312,1.4491738491788506
1772806411966963200,1.910963134765625,1.389688810031116,-1.2908791839718818,1.2022702686052769
1772806411976894500,1.92089453125,1.4367814005956052,-1.3960615599334238,0.9623715983577072
1772806411986826200,1.930826171875,1.371262341980636,-1.3266957627624272,0.6878850873969495
1772806411996757200,1.94075732421875,1.3966718007862566,-1.4515502229213715,0.45041532479673624
1772806412006689300,1.950689208984375,1.597746746316552,-1.560286491972208,0.11900303071700036
1772806412016620300,1.960620361328125,2.049272078181803,-1.5892039588987827,-0.27879520447272804
1772806412026552300,1.97055224609375,2.2744486147895455,-1.5580191315621137,-0.6712056091442704
1772806412036483300,1.9804833984375,2.1565745150372386,-1.295552436479926,-0.7587398079514504
1772806412046415400,1.990415283203125,1.8392232603400944,-0.7809042934864759,-0.5667009863138198
1772806412056346000,2.00034619140625,1.36865332852602,-0.34695874971449375,-0.5030780436437576
1772806412066278100,2.010278076171875,1.4141945979952812,-0.1482353357464075,-0.2082953252378851
1772806412076209400,2.02020947265625,1.4816601145029067,-0.15674831254780291,-0.007998086081817745
1772806412086141400,2.030141357421875,1.5488395075455308,-0.23520693223476408,0.15872180457785726
1772806412096072200,2.040072265625,1.6166341098770498,-0.2811509372860193,0.3628311493679881
1772806412106004200,2.050004150390625,1.647716061361134,-0.40002632303535934,0.45464222177676855
1772806412115935200,2.059935302734375,1.5637641049548983,-0.573162875804305,0.4767310117270797
1772806412125866200,2.0698662109375,1.5534008241116999,-0.7615817533791065,0.5455058572676033
1772806412135798300,2.07979833984375,1.4916463787272571,-0.8531909465402364,0.7210627690512686
1772806412145729300,2.089729248046875,1.2559233136638999,-0.79742054400146,1.0796558424580842
1772806412155661300,2.099661376953125,0.9085866705477237,-0.863079887869954,1.5592872518017886
1772806412165592300,2.10959228515625,0.5823840008750557,-1.1764555169343949,1.7480352152004837
1772806412175524400,2.1195244140625,0.21291414414495227,-1.578123177435994,1.6589746836088597
1772806412185455400,2.129455322265625,0.138653852930665,-1.8950322413235903,1.0058625111684203
1772806412195387400,2.139387451171875,0.09862316357642412,-1.9878309365302322,0.5322488277442753
1772806412205319400,2.1493193359375,-0.18031769644469023,-2.0200170498639345,0.25302498606331647
1772806412215251500,2.15925146484375,-0.38445670572072266,-1.8779186094373463,-0.055566185203567146
1772806412225182200,2.16918212890625,-0.4678682716399431,-1.6720722117215394,-0.27991175087988374
1772806412235114200,2.1791142578125,-0.6338496919572353,-1.5594208150535822,-0.4528223859384656
1772806412245045500,2.18904541015625,-0.7937535459265113,-1.426367850869894,-0.6258057939723134
1772806412254977500,2.1989775390625,-1.039726202325523,-1.0569681367665529,-0.8879732138469815
1772806412264908300,2.208908203125,-1.448061504022777,-0.4485755421489477,-1.2017881111115216
1772806412274839300,2.21883935546875,-2.0512869251355528,0.41939854750335215,-1.4526131759777665
1772806412284771300,2.228771240234375,-2.5103639875546095,1.3888678490370512,-1.6268939303457737
1772806412294702300,2.238702392578125,-2.645205296459794,2.21952430768609,-1.691077356442809
1772806412304634400,2.24863427734375,-2.605124045962095,2.9680495956152675,-1.477964036463946
1772806412314565400,2.2585654296875,-2.348290972852707,3.3245606020510197,-1.0379660607852041
1772806412324497400,2.268497314453125,-2.0543129949584604,2.8614292958050966,-0.6395742070838809
1772806412334428400,2.278428466796875,-1.907600923256576,1.8503309298098087,-0.4554911667563021
1772806412344360400,2.2883603515625,-1.88889651504755,0.9997089569747447,-0.5658624896630644
1772806412354291500,2.29829150390625,-2.0631772694155575,0.39033728819191454,-0.6442895451679825
1772806412364223500,2.308223388671875,-2.4691391199797392,-0.1954834091335535,-0.785461372268945
1772806412374154200,2.318154296875,-2.996954203060269,-0.905036869111657,-0.9128750153914094
1772806412384086300,2.328086181640625,-3.2036858591780066,-1.2114338913351297,-1.0202192455619572
1772806412394017500,2.338017578125,-3.076683281074464,-1.064161263141036,-1.0143062221258878
1772806412403949300,2.34794921875,-2.8083456481322644,-0.7891402069121599,-0.8008024415247141
1772806412413880300,2.35788037109375,-2.6184023374691603,-0.11024901170134543,-0.559656620760262
1772806412423812400,2.367812255859375,-2.1453072710916397,0.6116536422401666,-0.6016977731540799
1772806412433743400,2.377743408203125,-1.5250933057770133,1.2758885355889797,-0.4851039955358952
1772806412443674400,2.38767431640625,-0.08380261106342077,2.6527608264058826,0.37488990901745856
1772806412453606400,2.3976064453125,2.2717186053037643,4.972299752026796,1.4358860591910778
1772806412463537400,2.407537353515625,2.93414820279628,7.136696046730876,1.6350766522794962
1772806412473469200,2.41746923828125,2.028622673384845,7.362236155954003,0.3551365762773901
1772806412483400400,2.427400390625,3.283732917100191,2.848264693805575,0.5400540216024965
1772806412493332500,2.43733251953125,3.0032874977350232,-3.168024470949173,1.803380670325458
1772806412503263500,2.447263427734375,2.52620599206984,-6.83395930058062,2.406433949741721
1772806412513195300,2.4571953125,3.8184067800343033,-7.7187039077699175,1.9489099619835615
1772806412523126300,2.467126220703125,4.287271076974273,-5.903730122545361,0.8673248319633304
1772806412533058300,2.477058349609375,5.7084916280835865,-2.368040798461437,0.26195699199438094
1772806412542989600,2.486989501953125,7.094919682753086,0.9304723391413688,-0.11436886811032891
1772806412552921300,2.49692138671875,7.020978832751512,3.037598932659626,-0.9165525348603725
1772806412562852400,2.506852294921875,5.573271256732941,4.03803561938703,-1.4508758307911456
1772806412572783400,2.516783447265625,3.8196342760026454,3.330380101984739,-1.3728059181608259
1772806412582715400,2.52671533203125,2.7227678440898657,1.7139286551982162,-0.8049835266016423
1772806412592646400,2.536646484375,2.438721331492811,0.3163619513988495,0.21490838670209048
1772806412602578400,2.546578369140625,2.6934721915006636,-0.6240484289109707,0.8719630131579935
1772806412612509400,2.556509521484375,2.318596530204266,-1.1448083327829837,1.3168243570894003
1772806412622441200,2.566441162109375,1.7772912664316594,-1.1637345670491457,2.0676924087524413
1772806412632372500,2.57637255859375,1.5895862362146376,-0.8119798152297735,1.9267391928382216
1772806412642304500,2.586304443359375,1.3250596859931945,-0.28742461072802544,1.0584395244933664
1772806412652235300,2.5962353515625,1.0417845961600543,0.13857318890988826,0.24645225660949943
1772806412662167300,2.606167236328125,1.0712380696594714,0.30085049401223657,-0.28538243737593294
1772806412672098300,2.616098388671875,1.20830026948452,-0.09369710535109042,-0.17584690770618616
1772806412682030300,2.6260302734375,1.0154302577197551,-0.36115853998064995,0.07003361342996359
1772806412691961300,2.63596142578125,1.0786159049510955,-1.163812308460474,0.12521174916401503
1772806412701893400,2.645893310546875,1.5896353360533713,-2.0232821891397235,0.28126418840214606
1772806412711824400,2.655824462890625,2.030907277190685,-2.222638055792451,0.009784165780991316
1772806412721755400,2.66575537109375,1.9670996986687181,-1.988251207768917,-0.16619097141474484
1772806412731687400,2.6756875,1.5306033013701439,-2.0073130511134862,-0.33132425047010183
1772806412741618400,2.685618408203125,1.0123638558864594,-2.330905538287759,-0.45047246181145306
1772806412751550500,2.695550537109375,0.588536386024952,-2.284468781283498,-0.6084440325438976
1772806412761481200,2.705481201171875,0.10060202590133994,-1.86564014262259,-0.858360604263097
1772806412771413200,2.715413330078125,-0.29732410998437553,-1.3734107521861791,-0.6992940779007971
1772806412781344500,2.725344482421875,-0.622169775557518,-0.7100023727893829,-0.45439065816849467
1772806412791276500,2.735276611328125,-0.861704653993994,-0.22462883959710597,-0.41064723190143704
1772806412801207300,2.745207275390625,-0.8018425251621752,-0.2028285111993551,-0.3365373089432716
1772806412811139300,2.755139404296875,-0.6084122491661459,-0.0861784002840519,-0.24496844779253005
1772806412821070300,2.7650703125,-0.5587187553882599,0.49939329071640964,-0.3014944910041988
1772806412831002400,2.77500244140625,-0.6213982066631317,1.0095680876880884,-0.6729369629815221
1772806412840933400,2.784933349609375,-0.7465991421721875,1.2908236543923615,-0.8128754488952458
1772806412850865400,2.794865478515625,-0.8945362256243824,1.354355923104286,-0.7067607605196535
1772806412860796400,2.80479638671875,-0.9889387027658522,1.1088158129036425,-0.5893164304867387
1772806412870727400,2.8147275390625,-0.9416261858403682,0.730996645501256,-0.746698072502017
1772806412880659500,2.824659423828125,-1.1049112066805362,0.6573223374813795,-0.944199397329241
1772806412890590500,2.834590576171875,-1.4859749089621006,1.0972083772182464,-1.1709335386425257
1772806412900522500,2.8445224609375,-1.7685918271474539,1.7308417960762976,-1.4307492808245121
1772806412910453200,2.854453369140625,-1.6550455274663864,2.070191824352741,-1.7012223183602093
1772806412920385300,2.86438525390625,-1.41971716080904,2.032488993424177,-2.029330383262783
1772806412930316500,2.874316650390625,-1.0204711744964121,1.920323918968439,-2.360121988160908
1772806412940248600,2.88424853515625,-0.6748784524381161,1.795521481257677,-2.3617649330623447
1772806412950179300,2.894179443359375,-0.5427287207044661,1.8756500799834728,-2.0892630200475453
1772806412960111400,2.904111328125,-0.4366881204783916,2.030668792259693,-1.9101890400536357
1772806412970042400,2.91404248046875,-0.3436637998223305,2.0654916838377715,-1.8182107213191687
1772806412979974100,2.92397412109375,-0.4834321898661554,1.9102970304727553,-1.5401317388243971
1772806412989905400,2.933905517578125,-0.7047590653084218,1.4352075754076241,-1.018553212045878
1772806412999837400,2.94383740234375,-1.0776314239583908,1.0183265636831522,-0.6073471772179008
1772806413009768400,2.9537685546875,-1.5574423545874654,0.7003343807339668,-0.329376915794611
1772806413019699500,2.963699462890625,-2.004317522559315,0.6908399916797876,-0.17243907202407716
1772806413029631500,2.973631591796875,-2.4284895680747924,1.0778887597203255,-0.22270970810279248
1772806413039562500,2.9835625,-2.6683079396277662,1.6359727243363855,-0.5734780792333185
1772806413049494300,2.993494384765625,-2.378321515587717,1.9546148956269025,-1.0473185571506618
1772806413059425300,3.00342529296875,-1.793243161062151,2.074717192822695,-1.4651239902436732
1772806413069357300,3.013357421875,-1.2823087778948246,2.118205036893487,-1.7081117856130004
1772806413079288600,3.02328857421875,-0.7008510980844497,2.07142516553998,-1.9677146156966685
1772806413089220400,3.033220458984375,0.1854557899855077,2.2363988701194524,-2.222705129679292
1772806413099151400,3.0431513671875,1.0609304645262658,2.687029591232538,-2.3623398103408513
1772806413109083400,3.05308349609375,1.5507248829007148,3.2755145393311977,-2.7345655416503547
1772806413119014100,3.06301416015625,1.9226877254903316,3.419484618848562,-3.056255994595587
1772806413128946400,3.072946533203125,1.7842893086254596,3.0158909587204454,-2.4081115275651217
1772806413138877400,3.08287744140625,1.544459977287054,2.197366836413741,-1.51321450580433
1772806413148809500,3.0928095703125,1.1829741050481795,0.6152934600472449,-0.5530941935047506
1772806413158740200,3.102740234375,0.6338263110816479,-0.6221300280690193,0.2436240474462509
1772806413168671500,3.11267138671875,0.39144612621665,-2.0182973864644764,0.35243601208180186
1772806413178603500,3.122603515625,0.48755555340647694,-2.7549522038578984,1.0076584546744822
1772806413188534300,3.1325341796875,0.4076256921231746,-2.5360709680020808,1.5086391607128082
1772806413198466300,3.14246630859375,-0.26440555419027806,-1.2442922048419713,2.4252817119441925
1772806413208397000,3.15239697265625,-0.305985445747897,0.2848544679790735,3.3242323930099604
1772806413218328800,3.162328857421875,-1.0466409501500427,0.9711509710103273,3.867949978621304
1772806413228260000,3.172260009765625,-0.9085808253288269,1.6980647311121224,3.303865312285721
1772806413238192000,3.182192138671875,0.31152620180547236,1.6595879932016133,1.4782435840576886
1772806413248123000,3.192122802734375,0.4797878420144319,1.2938888871818781,0.841787216733396
1772806413258055000,3.202054931640625,1.2772124776691198,1.6475696386277674,0.7288989425696433
1772806413267986200,3.211986083984375,2.258005429510772,2.2419150031924246,0.3964575977031141
1772806413277918200,3.221918212890625,2.5926480107486247,2.272690665206313,-0.5842571743357926
1772806413287849000,3.231848876953125,2.448765171123296,1.190392272350192,-1.575036901858449
1772806413297780000,3.241780029296875,2.466476330511272,0.23501404001116752,-1.5679764619529246
1772806413307712000,3.2517119140625,2.2361513250991703,-0.8208639634311199,-1.2601352322705088
1772806413317643000,3.26164306640625,1.9998028216138481,-1.7678823637038468,-0.8405175621237605
1772806413327575000,3.271574951171875,2.351468726105988,-2.155199427291751,-0.6145085202146321
1772806413337506000,3.281506103515625,2.2468615196838972,-2.4305939930081366,0.3058116235509515
1772806413347438000,3.29143798828125,2.2104899373590943,-2.2714736906319857,1.170215599631518
1772806413357368800,3.301368896484375,2.782506273476779,-2.0804653810858724,1.5259128054663538
1772806413367300900,3.31130078125,3.1461820569753645,-1.546197760865092,1.6364190067991613
1772806413377232100,3.321232177734375,2.7238056627050042,-1.1184259372919798,1.690256687709689
1772806413387164200,3.3311640625,2.4326050405696034,-0.9498433945655822,1.529291926510632
1772806413397095000,3.341094970703125,1.9675167550370096,-0.6642173576921224,1.5315481810048222
1772806413407027000,3.35102685546875,1.5433958551868796,-0.14141864146888256,1.7691233036756515
1772806413416958200,3.360958251953125,1.2020198740407824,0.3346101402729749,2.0095159679852426
1772806413426890200,3.37089013671875,0.9780506673961877,0.4595242216646671,2.160918973982334
1772806413436821000,3.380821044921875,0.5414402883291244,0.2128986543148756,2.2178020139381287
1772806413446752000,3.390751953125,-0.0475944026067853,-0.23380174161195755,1.9916887810021637
1772806413456684000,3.40068408203125,-0.3469429676234722,-0.90575875364542,1.657081855599582
1772806413466615000,3.410614990234375,-0.4789245031833648,-1.6760399463087319,1.4161639983721077
1772806413476547000,3.420547119140625,-0.21816168940961359,-2.1267641909241677,0.9869935600474476
1772806413486478000,3.43047802734375,0.4500283713057637,-2.5311574769973753,0.5450378013644367
1772806413496410000,3.44041015625,0.9099725719481706,-2.667680163118243,0.2857111944062635
1772806413506340900,3.4503408203125,0.9076485129147768,-2.6200433826744556,0.04097597084771842
1772806413516273000,3.46027294921875,0.5445540364354848,-2.4781232214242217,-0.06638126493487506
1772806413526204200,3.4702041015625,0.08547054427564144,-2.369008766710758,-0.11534337569829076
1772806413536136200,3.48013623046875,-0.39745881063491106,-2.408836334708333,-0.12035247256457805
1772806413546067000,3.49006689453125,-0.6576087532073259,-2.4794921716898677,-0.18122366884108632
1772806413555999000,3.4999990234375,-0.7049369060933589,-2.5044261219382284,-0.2075182399181649
1772806413565930200,3.50993017578125,-0.5957964401558041,-2.3827894547820088,-0.07014094626195728
1772806413575862000,3.519862060546875,-0.25264292794317006,-2.3850188212692736,-0.16800642333887517
1772806413585793000,3.52979296875,0.12485153754949568,-2.3249428304910658,-0.26170937390886245
1772806413595724000,3.53972412109375,0.476277788066864,-1.7546230691581963,-0.4201830489445477
1772806413605656000,3.549656005859375,0.5639595786511897,-0.9400316101253032,-0.6544767387919127
1772806413615587000,3.559587158203125,0.3837561562359333,-0.07990355779826641,-0.7566482424996793
1772806413625519000,3.56951904296875,-0.003604454232752323,0.8665537014603615,-0.9336563760049641
1772806413635450000,3.5794501953125,-0.4181742664054036,1.9189561377465725,-1.2062259474284946
1772806413645382000,3.5893818359375,-0.8016711871832609,3.019783874505758,-1.2069501700498162
1772806413655313000,3.59931298828125,-1.1687085560694337,3.730418699979782,-0.8646360312707722
1772806413665245200,3.6092451171875,-1.6232298548802733,3.491201363059878,-0.7317316817775368
1772806413675176200,3.61917626953125,-2.099901318439841,2.8957974293529984,-0.660708180527389
1772806413685108000,3.62910791015625,-2.4444553451001645,2.1307290029019117,-0.4493072904895991
1772806413695039000,3.6390390625,-2.812110553623736,1.4522247611820698,-0.3351962695978582
1772806413704971000,3.648970947265625,-3.202547210536897,1.002082700368762,-0.5909176551382989
1772806413714902000,3.658902099609375,-3.5049902344375847,0.6602654051959514,-0.9738543116848916
1772806413724834000,3.668833984375,-3.1406928119093176,0.28345921422839165,-1.367260412862897
1772806413734765000,3.67876513671875,-2.497372111773491,-0.01508709449470043,-1.2540166032597422
1772806413744697000,3.688697021484375,-1.872499799259007,0.3425894485890865,-0.4125312190171331
1772806413754627800,3.6986279296875,-1.6207175797984004,0.8648486511081457,0.5655911984410137
1772806413764559000,3.70855908203125,-1.2371817883148788,0.961515127658844,1.2554773234620689
1772806413774491100,3.7184912109375,-0.923713220269978,0.9622253217548131,1.550218979205191
1772806413784422000,3.728421875,-0.1435804956778884,1.1912778230130672,1.7146945250041783
1772806413794354000,3.73835400390625,0.29852848080545663,1.8773826028645038,1.7538104376010595
1772806413804285000,3.748284912109375,-0.33011399789750573,2.876328174251318,1.682494529275596
1772806413814217200,3.75821728515625,-1.2613348173186183,3.501516420847177,1.5570174071736633
1772806413824148000,3.76814794921875,-0.9860796600729227,3.5533413006305694,1.3639065723903476
1772806413834080000,3.778080078125,0.5972235503494739,2.194891970732808,1.5313760393083096
1772806413844011000,3.788010986328125,2.295494617688656,-0.565288781428337,2.0358931027792395
1772806413853943000,3.797943115234375,2.808891299316287,-2.7893039707928895,1.5574004151418803
1772806413863874000,3.8078740234375,3.0826880744472143,-3.8458243637919423,0.4316133014321327
1772806413873806000,3.81780615234375,3.0809938377499577,-3.6735569950729605,-0.17678104675114154
1772806413883737000,3.827737060546875,3.1722005875900385,-2.8236294342428443,-0.6970267174907028
1772806413893667800,3.837667724609375,3.314327961850166,-1.0025988331973552,-1.1154294588897378
1772806413903599900,3.847599853515625,3.6889652843460436,1.3709370555490255,-1.5169607065953314
1772806413913531100,3.85753125,4.089801754720509,3.108935737642646,-1.205626812491566
1772806413923463200,3.867463134765625,4.033694959834218,3.5056618500888344,-0.7415617325268685
1772806413933394000,3.877393798828125,3.5915047348082063,2.341481877359748,-0.053315702863037585
1772806413943326000,3.887325927734375,2.7848355932071804,0.01681201859116554,1.1424077013820408
1772806413953257000,3.897257080078125,1.6422545810848475,-2.0434324122428893,2.4818974792659283
1772806413963189200,3.907189208984375,1.3668845652878283,-3.0960417692780493,3.1433827816456557
1772806413973120000,3.9171201171875,0.73249039119035,-2.9225270308464766,3.0302813031226394
1772806413983052000,3.927052001953125,0.3945563671916723,-1.3702058186650274,2.2803936407990752
1772806413992983000,3.936983154296875,0.41808395777344703,0.2502069329679012,1.5198212105929851
1772806414002915000,3.9469150390625,0.38031361456662416,1.1718997533261775,0.71460036810413
1772806414012846000,3.95684619140625,0.5242620667740703,1.5681524030417202,-0.0650664925418794
1772806414022778000,3.966778076171875,0.6968412779211998,1.5725351481705903,-0.7834059741090983
1772806414032709000,3.976709228515625,0.7607138845033943,1.3082576042741536,-1.040958374468982
1772806414042641000,3.986640869140625,0.5352246286846697,0.5508119277864695,-1.157834330029413
1772806414052572000,3.996572021484375,0.6277823547422886,-0.25048048921227456,-1.335946698449552
1772806414062503200,4.006503173828125,0.8811953902751207,-0.9686299281001091,-1.2664794867306948
1772806414072435200,4.016435302734375,0.6862387814946472,-1.4294365907907485,-0.9523203791383653
1772806414082366000,4.026365966796875,0.37161505206525325,-1.5507447566449641,-0.7003425640404224
1772806414092298000,4.036298095703125,0.07092588609457015,-1.5726158121913671,-0.5094057853605598
1772806414102229000,4.04622900390625,-0.21957579399123786,-1.1813006188780069,-0.28988932034112513
1772806414112161000,4.0561611328125,-0.3020762364149093,-0.7010995198875666,-0.24248057649955151
1772806414122092000,4.066092041015625,-0.15090820821747183,-0.552823267608881,-0.18823044233061373
1772806414132024000,4.076024169921875,-0.05991700082421302,-0.5670528684914111,0.003707330085337162
1772806414141955000,4.085955078125,-0.07864858930110931,-0.7112018117070198,0.03822948515117168
1772806414151886800,4.095886962890625,-0.04339914287403226,-0.9478934295415877,-0.29692952117621896
1772806414161818000,4.105818115234375,0.08608297708556055,-0.8983511077374219,-0.7736783608209341
1772806414171750100,4.115750244140625,0.21088614544868467,-0.7324298931747675,-1.0708827534157783
1772806414181681200,4.12568115234375,0.20030206146165727,-0.6884247472316026,-0.9977652024958282
1772806414191612000,4.13561181640625,0.14689619609713553,-0.30293022289574145,-0.8273978221792727
1772806414201544000,4.1455439453125,0.5054547827124596,-0.0994230817824602,-0.7100465772572905
1772806414211475200,4.15547509765625,0.43237727154195305,-0.11700959187746048,-0.5361638092309237
1772806414221407200,4.1654072265625,0.15132643362954257,-0.3680786946326494,-0.5425750645127148
1772806414231338200,4.175338134765625,0.042137671570852395,-0.37492870665788647,-0.7326017426103353
1772806414241270300,4.185270263671875,-0.22501981167607008,-0.427836120980978,-0.8054460295468568
1772806414251201300,4.195201171875,-0.5500683428775519,-0.4140887506574392,-0.7270907971691339
1772806414261133300,4.20513330078125,-0.7138764377437532,-0.3164513832479715,-0.6743942491177469
1772806414271064300,4.215064208984375,-0.7275093879073857,-0.28878362412154673,-0.7619434262983501
1772806414280996400,4.224996337890625,-0.685863372310996,-0.3233013952732086,-0.6717915192734449
1772806414290927000,4.234927001953125,-0.6576338876485824,-0.19682371782660482,-0.48115145851783453
1772806414300859100,4.244859130859375,-0.3628143443636596,-0.1043903488010168,-0.5413109628610313
1772806414310790400,4.254790283203125,0.20843816777467727,-0.13753741612136364,-0.8225557159103453
1772806414320722400,4.264722412109375,0.4593055374126881,-0.18447335481941698,-0.8584117499284446
1772806414330653200,4.274653076171875,0.4933639474242925,-0.045914194434881206,-0.6489381016261875
1772806414340584200,4.284584228515625,0.4158971883188933,0.4020078522413969,-0.5159773457705974
1772806414350516200,4.29451611328125,0.13226444415450095,0.9382862277626991,-0.5315463785633444
1772806414360447200,4.304447265625,-0.10176000029742717,1.3479127383142708,-0.552117311296612
1772806414370379300,4.314379150390625,-0.20868658957779407,1.353473879572749,-0.5193950452595949
1772806414380310300,4.324310302734375,-0.3306470087956637,1.1383452742487192,-0.7023555112980305
1772806414390242300,4.3342421875,-0.2886724188320339,0.7523895621418952,-0.9127285926580428
1772806414400173300,4.34417333984375,-0.17575988700985906,0.2724491599142551,-0.8672637494258582
1772806414410105300,4.354105224609375,-0.19613281295299528,0.1918716483771801,-0.6922830300949514
1772806414420036400,4.364036376953125,-0.14370119944810866,0.49181204180717464,-0.7293021165430545
1772806414429968400,4.373968505859375,0.06213350782990455,0.9676946930766105,-0.9314673415280877
1772806414439899100,4.383899169921875,0.006682692634314299,1.6948901927292346,-1.0491016411751508
1772806414449831200,4.3938310546875,-0.11121508025452494,2.3860715451925993,-1.2092556705132127
1772806414459762400,4.403762451171875,-0.22765900107324122,2.5632991666674614,-1.118721997629106
1772806414469694200,4.413694091796875,-0.8588041102468967,2.5804437782138585,-0.6299585297375917
1772806414479625200,4.423625244140625,-1.051875635933131,2.5970032833486796,-0.1277794076949358
1772806414489556200,4.43355615234375,-0.754311908506602,2.040478238612413,0.18402064261585474
1772806414499488300,4.44348828125,-0.5646439076535403,1.373946174237132,0.15498597905039788
1772806414509419300,4.453419189453125,-0.0756517455726862,0.9536837033808231,0.037454920582100745
1772806414519351300,4.463351318359375,0.3648031800933182,0.7200152327597141,0.17155819753631948
1772806414529282300,4.4732822265625,0.35029724648743865,0.753311353161931,0.07346906777136028
1772806414539214000,4.483214111328125,0.24973200893253086,0.9668594112962484,0.08680931859873235
1772806414549145300,4.493145263671875,-0.3237307266011834,1.3697335249781608,0.029139146853238342
1772806414559077400,4.503077392578125,-0.24664251848459243,1.9140186813443898,-0.20701697586514053
1772806414569008400,4.51300830078125,0.05031038356721401,1.8001356970548628,-0.0865605314694345
1772806414578940200,4.522940185546875,0.19367869779914618,1.333115566676855,0.2628512374203652
1772806414588871200,4.53287109375,0.4182829874768853,0.6366881302535533,0.33401531618498265
1772806414598803200,4.54280322265625,0.6121969553366303,-0.1747743831038475,0.14981650399062782
1772806414608734200,4.552734130859375,0.7103036938235163,-0.7115741521507501,-0.196805414984934
1772806414618666200,4.562666259765625,0.5733689197704196,-0.8445990592837334,-0.17511749745309352
1772806414628597200,4.57259716796875,0.6280363295033574,-0.3548585630536079,0.4704592379812151
1772806414638528300,4.5825283203125,0.658278030771017,0.35636019978821276,0.6988590474843979
1772806414648460000,4.5924599609375,0.6835749691128731,0.9541875612497329,0.8386727379746735
1772806414658391300,4.602391357421875,0.6780082748964429,1.0539397288560868,0.9499414481125772
1772806414668323300,4.6123232421875,0.6498173686787486,0.5878998416870832,1.0930447547327726
1772806414678254300,4.62225439453125,0.6013374154090881,-0.016058569875359533,1.2774943633504212
1772806414688186000,4.63218603515625,0.5488982031196356,-0.608885346570611,1.4111132908537982
1772806414698117400,4.642117431640625,0.49859191120564933,-1.1676982099831104,1.5723938400037585
1772806414708049400,4.65204931640625,0.5010065711319446,-1.3133341768860816,1.7560656691819427
1772806414717980200,4.661980224609375,0.5796116135522723,-1.1400491555571555,1.6762129647880792
1772806414727912200,4.671912109375,0.6794862384945154,-0.9699842653185129,1.6002454312644898
1772806414737843200,4.68184326171875,0.8098793358191847,-0.925470000809431,1.4969998685844241
1772806414747775200,4.691775146484375,0.8385863748654723,-1.0949982999533414,1.3777467355638742
1772806414757706200,4.701706298828125,0.9189189717307686,-1.3879787912428379,1.3279489776939153
1772806414767638300,4.71163818359375,1.1567033532381057,-1.6558002913564442,1.1592724730737507
1772806414777569300,4.7215693359375,1.323620885361731,-1.9258254389941691,0.8937899373017251
1772806414787500000,4.7315,1.3795371261119842,-2.185294705826044,0.8548895671516656
1772806414797432000,4.74143212890625,1.1034537013486028,-2.151355611345172,0.8480105482276529
1772806414807363300,4.75136328125,0.7428115864574909,-1.8518623771607874,0.822368157448992
1772806414817295400,4.76129541015625,0.5660492444068194,-1.560204658907652,0.7986056621327996
1772806414827226000,4.77122607421875,0.46714638710618017,-1.409964997601509,0.7303662386432289
1772806414837158100,4.781158203125,0.48722880567014215,-1.3708885402321815,0.5814356141090393
1772806414847089400,4.79108935546875,0.4851256959110498,-1.3637714017033575,0.4469251080607995
1772806414857021400,4.801021484375,0.4058972608953714,-1.3376619779348373,0.3708937155207619
1772806414866952200,4.8109521484375,0.31493396442234517,-1.3473486746907233,0.3557159470679238
1772806414876884200,4.82088427734375,0.2069341929525137,-1.3544763346135615,0.4055854915324598
1772806414886815200,4.830815185546875,0.16545447383373973,-1.416841313111782,0.3590774959228933
1772806414896747300,4.840747314453125,0.1125622570797801,-1.3190508009672164,0.24184878140203653
1772806414906678300,4.85067822265625,0.05035305366516113,-1.066774075987935,0.11421477352716028
1772806414916610300,4.8606103515625,0.004050152173638344,-0.9105600164473057,-0.04692030273750424
1772806414926541300,4.870541259765625,0.018194705121219158,-0.9324205505996942,-0.1435488584306091
1772806414936472000,4.88047216796875,-0.0004261164575815201,-0.9960434202045202,-0.18360818935744463
1772806414946404000,4.890404052734375,-0.06096884796470403,-0.9076268856048584,-0.19576606199983507
1772806414956335400,4.90033544921875,-0.1833332448735833,-0.9965005163222551,-0.24759755418710408
1772806414966267400,4.910267333984375,-0.4067077004954219,-1.181084345778823,-0.047558746771514414
1772806414976198100,4.9201982421875,-0.7008771093085407,-1.0315005180329084,0.056595016794651745
1772806414986130200,4.930130126953125,-1.0833423489511012,-0.6619611031979322,-0.11105506738722323
1772806414996061400,4.9400615234375,-1.3035381745368242,-0.25686872894465923,-0.30423491228614
1772806415005993500,4.949993408203125,-1.3301079092934727,0.12408055317699908,-0.6102978071844205
1772806415015924200,4.95992431640625,-1.2492553802073,0.4092845652461052,-0.9601417934790253
1772806415025856300,4.969856201171875,-1.012330830399692,0.7001169385910033,-1.097569757876545
1772806415035787300,4.979787353515625,-0.8480190968602895,0.9721049107342958,-1.1298568473666906
1772806415045719000,4.989718994140625,-0.9134902246803045,1.1984487375557422,-0.8854211182113736
1772806415055650300,4.999650390625,-1.0985028009429574,1.241587037536502,-0.48927846820894627
1772806415065582300,5.009582275390625,-1.2182599379628896,1.2628618807554244,-0.2942753534056246
1772806415075513300,5.019513427734375,-1.298933603350818,1.1429729340493677,-0.2763102923218161
1772806415085444000,5.029444091796875,-1.4166691714152693,0.9482277760624885,-0.337490152688697
1772806415095376100,5.039376220703125,-1.636106287588179,0.714916448315978,-0.31186562636028975
1772806415105307400,5.049307373046875,-1.8498519141212104,0.546620321315527,-0.15710308080222457
1772806415115239200,5.0592392578125,-1.981546157172322,0.6736860277831554,0.013239055475220083
1772806415125170200,5.069170166015625,-1.9582588050872087,0.832820358684659,0.12465462673790752
1772806415135102200,5.079102294921875,-1.7861100943118333,0.9518196630746125,0.32650508668534456
1772806415145033500,5.089033447265625,-1.5447472697958349,1.186932487285137,0.5498471378749236
1772806415154965200,5.09896533203125,-1.4748486809223889,1.3202999242454767,0.8282353689819574
1772806415164896300,5.108896240234375,-1.5013517801836131,0.9914625221550464,1.0211003392454236
1772806415174828300,5.118828369140625,-1.483578807605803,0.6402338400363922,1.1663552709415554
1772806415184759000,5.128759033203125,-1.3022712233409284,0.695283527085185,1.0045796317510307
1772806415194691000,5.138691162109375,-1.0470210355088114,0.7588081970125437,0.672358870832622
1772806415204622300,5.148622314453125,-1.0390838127687574,0.8949246404200791,0.32978052815943953
1772806415214553900,5.158553955078125,-1.7488766344606876,1.1215922923684118,-0.09383063207026571
1772806415224484900,5.16848486328125,-2.4438188007622954,0.8362637771368027,-0.5508896691977977
1772806415234417000,5.1784169921875,-2.192819548372924,-0.14009177677929402,-0.5697432035539299
1772806415244348000,5.188347900390625,-1.1909279866620897,-1.188534661784768,0.28551640248652543
1772806415254279000,5.19827880859375,-0.6684452045202255,-1.904736473736167,1.4089303938567637
1772806415264211000,5.2082109375,0.1684840507879853,-1.70289989618361,1.9864707540929316
1772806415274141700,5.2181416015625,0.5946361642047763,-0.7389566645950079,1.669208054462075
1772806415284073700,5.22807373046875,1.0179551000222564,0.3480576508671045,0.9546230300575494
1772806415294005000,5.2380048828125,1.7897540037721393,1.120777468854189,0.3808020556706935
1772806415303937000,5.24793701171875,2.716081498193741,0.9452905535668135,-0.0066793316334486
1772806415313867800,5.25786767578125,3.035079058793187,0.061496378970146176,-0.07600231257602572
1772806415323799800,5.2677998046875,2.7276950713589785,-0.5724515126645565,0.24321451679728923
1772806415333730800,5.277730712890625,2.246187565945089,-0.5693196443796158,0.6078387601271271
1772806415343663000,5.2876630859375,1.919057552294433,-0.18197335469722747,0.7104442713379859
1772806415353593900,5.29759375,1.8100065182060001,-0.04497662132382393,0.7832720455311238
1772806415363526000,5.30752587890625,1.5792223708495496,-0.1770271304666996,1.1056699891585855
1772806415373457000,5.317456787109375,1.0874585520982742,-0.3223725899904966,1.7503347243145106
1772806415383388700,5.327388671875,0.8893325195014476,-0.4826987610250711,1.8213894974857567
1772806415393320000,5.33731982421875,0.5521539900451898,-0.5958510929524898,1.7077458749100565
1772806415403251000,5.3472509765625,0.7617876512147486,-0.6374059231340885,1.2692530430972575
1772806415413183000,5.357182861328125,1.2374720034331081,-0.4003834659099579,0.4072392500888556
1772806415423113700,5.36711376953125,1.6940265616372228,0.09911854587793349,-0.38745734884142874
1772806415433045800,5.377045654296875,1.7601592221058904,0.7006348249852656,-0.9068001524571329
1772806415442977000,5.38697705078125,1.6277292121261357,1.1325655218034982,-1.4382225393146275
1772806415452908800,5.39690869140625,1.485107186216861,1.1756155589789152,-1.8640210169881581
1772806415462839800,5.40683984375,1.3762196721270679,0.8182482279747724,-2.1012103552117942
1772806415472771800,5.416771728515625,1.2158921859182417,0.4542798912703991,-1.9785522360533474
1772806415482702800,5.426702880859375,0.9610346506655215,0.020906594428420064,-1.7688624607823789
1772806415492635000,5.436634765625,0.7845382660746574,-0.37169746965169903,-1.2659244831964374
1772806415502566000,5.44656591796875,0.6161977154105901,-0.6394125867813826,-0.7966076201833784
1772806415512498000,5.456497802734375,0.4572888638280332,-0.6562205137193202,-0.23523126295842228
1772806415522429000,5.466428955078125,0.28990239901840686,-0.6225187351256608,0.08376914718523622
1772806415532360700,5.476360595703125,0.36889877884387967,-0.681422759515047,0.12072342476882039
1772806415542292000,5.4862919921875,0.5746843862831592,-0.8176403252094984,0.03520838376432657
1772806415552223000,5.496222900390625,0.6504886920690536,-0.8305389697492123,-0.1208227204248309
1772806415562154800,5.50615478515625,0.5819318731933831,-0.6925164004594088,-0.2706882146563381
1772806415572085800,5.516085693359375,0.4530703693501651,-0.7253834817945957,-0.2205421548053622
1772806415582017800,5.526017822265625,0.32290282440967855,-0.7853472443699836,-0.2868986140925437
1772806415591949000,5.535948974609375,0.1920511696625501,-0.6918839477747678,-0.2742321708735078
1772806415601880800,5.545880859375,0.10262976886928081,-0.6319412279874086,-0.16824680796600877
1772806415611811800,5.555811767578125,0.058644935061782595,-0.6003723697692156,-0.09777999075055122
1772806415621743900,5.565743896484375,-0.02418181670680642,-0.6223404559493064,-0.1665215185433626
1772806415631675000,5.5756748046875,-0.12156418644189834,-0.6449409948140382,-0.18020137658864258
1772806415641607000,5.58560693359375,-0.07736030305624007,-0.5862701946586371,-0.404714261655882
1772806415651538000,5.595537841796875,-0.04634849419891834,-0.4307727589547634,-0.5793740784693509
1772806415661470000,5.605469970703125,-0.00338138606660068,-0.24213936184644697,-0.7528583486974239
1772806415671400700,5.615400634765625,-0.07399930219054221,-0.027423428976535796,-0.787591443100199
1772806415681332700,5.625332763671875,-0.25540384402386845,0.13132044130265713,-0.8840457382049411
1772806415691264000,5.635263916015625,-0.5294523288935422,0.03464110527038574,-1.0356151868101209
1772806415701194800,5.64519482421875,-0.6938736602872609,-0.162913849440217,-1.1042930747821926
1772806415711126800,5.655126708984375,-0.8507610890448093,-0.17816753267347812,-1.1590326729685068
1772806415721057800,5.665057861328125,-1.030076038187742,-0.04777005143463611,-1.2017214756160974
1772806415730989800,5.67498974609375,-1.028250576326251,0.1691051052957773,-1.2147381935775279
1772806415740920800,5.6849208984375,-0.6588607990950346,0.3985825539678335,-1.1940030101932584
1772806415750852900,5.694852783203125,-0.1043768682649359,0.36814123847484587,-1.2464772937960922
1772806415760784000,5.704783935546875,0.4395294813841581,0.1813876637637615,-1.3226337740205227
1772806415770716000,5.7147158203125,0.8608359083354472,0.07294365565776824,-1.3632291115202009
1772806415780647000,5.72464697265625,1.0808259822160005,0.17087211496829985,-1.4458876671150327
1772806415790579000,5.734578857421875,1.1285744063407182,0.26996552640497684,-1.3748013297617434
1772806415800510000,5.744510009765625,0.8621031517922878,0.3582417757511139,-1.3528661229379475
1772806415810442000,5.75444189453125,0.3443254786014557,0.3421060489863157,-1.1337446485854685
1772806415820372700,5.764372802734375,-0.35344168199300763,0.5018126268178225,-0.846486042074114
1772806415830304800,5.7743046875,-0.9998030649989843,1.0705816515773534,-0.8866054326251148
1772806415840236000,5.784236083984375,-1.2485755812495947,1.7614128754287957,-1.2473198821000755
1772806415850168000,5.79416796875,-1.1768769572168587,2.4243700039267537,-1.299506142541766
1772806415860098800,5.804098876953125,-1.2155746444016695,2.755512760350108,-1.173578354062885
1772806415870029800,5.81402978515625,-1.0317178871106356,2.2854718208461997,-1.1275669828638433
1772806415879961900,5.8239619140625,-0.39712471984233705,1.4176853627204895,-0.9131003485798835
1772806415889892900,5.833892822265625,0.33568281100578606,1.0682003093987702,-0.3342547509640455
1772806415899825000,5.843824951171875,0.7425041279435157,1.1292623886048794,-0.03292158800140023
1772806415909756000,5.853755859375,1.015176502154395,1.4669693258494139,0.2641312672935426
1772806415919688000,5.86368798828125,1.1175958431433886,1.8573083676069975,0.493101058704406
1772806415929619000,5.873618896484375,0.7307388713479042,2.3689707727879283,0.6307778832964599
1772806415939551000,5.883551025390625,0.09210136059224605,2.584047355663776,0.4501704101249575
1772806415949482000,5.89348193359375,-0.7897621382027864,2.0658511647999287,0.3497087790749967
1772806415959413800,5.903413818359375,-1.553573111938685,1.2555880903601646,0.47407896284833545
1772806415969344800,5.9133447265625,-2.5124673895746468,0.3349444867938757,0.9864791807845235
1772806415979276800,5.92327685546875,-2.8299627289175984,0.34719723464548585,0.7921005180224776
1772806415989208000,5.9332080078125,-2.371161560830474,1.2355033337086438,0.43538931283950805
1772806415999139800,5.943139892578125,-1.5236030672192573,1.7115613415449857,0.30500469108223915
1772806416009070800,5.95307080078125,-0.21746201670765875,1.4383184009045362,0.13459756327718495
1772806416019001900,5.963001953125,0.3328115664184093,0.7686345945000648,-0.2581133221782744
1772806416028934000,5.972933837890625,0.604474544391036,0.03618482758104801,-0.3073063190881163
1772806416038865000,5.982864990234375,0.8988681173488497,-0.5286480267733336,-0.2040332838792354
1772806416048797000,5.992796875,1.1261883879870176,-0.600179477545619,0.1615731023557484
1772806416058728000,6.00272802734375,1.301638186134398,-0.2630868728071451,0.565042697712779
1772806416068659700,6.01265966796875,1.4412228901743889,0.31128654783070087,0.8539281017083674
1772806416078591000,6.022591064453125,1.4803016856312752,0.7881640553563832,1.1288201977953314
1772806416088523000,6.03252294921875,1.1573700004532932,0.8206272320657968,1.2430768377028405
1772806416098453800,6.042453857421875,0.6918535526365042,0.47924189856946464,1.363239194522798
1772806416108385800,6.0523857421875,0.3779115218609571,0.004226677784323692,1.5768769767671822
1772806416118316800,6.06231689453125,0.31474487159103154,-0.5579600459754467,1.827644173966348
1772806416128248800,6.072248779296875,0.4189478811264038,-1.1895312716066837,2.1604360127709805
1772806416138179800,6.082179931640625,0.5233274162724614,-1.6043039128750562,2.3007509307816623
1772806416148112000,6.09211181640625,0.7298448451176285,-1.847989335119724,2.2461451881080863
1772806416158043000,6.10204296875,0.9482847669467329,-2.082429959157109,2.0252599189534783
1772806416167973600,6.1119736328125,1.1645891380518674,-2.3285429008096457,1.7085633287727833
1772806416177906000,6.121906005859375,1.2822878812372684,-2.488605452471971,1.367338738796115
1772806416187837000,6.1318369140625,1.2997031264185905,-2.490034608492255,1.1407830958548932
1772806416197769000,6.14176904296875,1.2542571340173483,-2.4752520499020814,0.9039328533925115
1772806416207699700,6.15169970703125,1.2580515578642486,-2.3478011435091495,0.5436870078099891
1772806416217631700,6.1616318359375,1.1914134320914744,-2.088501388025284,0.5194015845982357
1772806416227563000,6.17156298828125,1.0012418656304478,-1.9291700732469557,0.5382558130741119
1772806416237495000,6.1814951171875,0.8423252691328525,-1.941012486732006,0.5024908548729494
1772806416247425800,6.19142578125,0.6386074078783393,-1.970259624004364,0.6667414693422615
1772806416257357800,6.20135791015625,0.5344257333919405,-1.951665398171544,0.8311078556783497
1772806416267288800,6.211288818359375,0.5823907228767872,-1.8121026137024163,0.8446455287739634
1772806416277220900,6.221220947265625,0.513083670155704,-1.613103305402398,0.7292077162578702
1772806416287151900,6.23115185546875,0.4525163887292146,-1.3869260673195123,0.6051002385413273
1772806416297084000,6.241083984375,0.3571595334723592,-1.2274164733648298,0.5180651118300855
1772806416307015000,6.251014892578125,0.14685060338974,-1.2555366524338722,0.4932969831353053
1772806416316945700,6.260945556640625,-0.11653554462492466,-1.4455547818988561,0.5388082227924839
1772806416326878000,6.2708779296875,-0.3208420194223523,-1.6706792960584163,0.5811805799020454
1772806416336809000,6.28080908203125,-0.507581857869029,-1.678807657456398,0.5702312793318182
1772806416346741000,6.290740966796875,-0.7416691384240984,-1.4792846175432204,0.4336143025236204
1772806416356671700,6.300671630859375,-0.9594412439942359,-1.2910346667945385,0.12191625128258018
1772806416366603800,6.310603759765625,-1.2233452784031629,-1.230372400560975,-0.09845730549022555
1772806416376535000,6.32053515625,-1.2023258712500333,-1.0405547621041535,-0.39366964748501776
1772806416386467000,6.330467041015625,-1.1586322754740714,-0.7212123335897922,-0.7143005083747208
1772806416396397800,6.340397705078125,-1.013307858738303,-0.31983576498925687,-0.9336476081766187
1772806416406329900,6.350329833984375,-1.0091700282812117,-0.05724222865700721,-1.033907359978929
1772806416416260900,6.3602607421875,-1.2131854111775755,0.18672668670415876,-1.0063596470355987
1772806416426192600,6.370192626953125,-1.3968436502218247,0.493808768582344,-0.9605285277742892
1772806416436124000,6.3801240234375,-1.5377487892106174,0.8263736667633056,-0.986786127841845
1772806416446056000,6.390055908203125,-1.811873773382604,1.4378174656450748,-1.022217141380906
1772806416455987000,6.399987060546875,-2.102945800702274,1.8055752577602862,-1.0720026242911815
1772806416465918700,6.409918701171875,-2.4070278239816427,1.815870441803336,-1.1319162641145288
1772806416475850000,6.41985009765625,-2.7184070185318587,1.6434370688676834,-1.2268132467746733
1772806416485781000,6.429781005859375,-2.8567522439047695,1.318579676324129,-1.2601257337898015
1772806416495712800,6.439712646484375,-2.488166184271872,0.7379372584193945,-1.1871439380787312
1772806416505643800,6.449643798828125,-1.942286159929633,0.00864040257334709,-1.2004073973428457
1772806416515575800,6.459575927734375,-1.7474743664473293,-0.49745443160831926,-1.2258015855140982
1772806416525507000,6.469507080078125,-2.2140122662663457,-0.5697919380664825,-1.244184652814269
1772806416535438800,6.47943896484375,-2.9795731524094937,-0.23432371965944765,-1.3846435093402862
1772806416545369900,6.489369873046875,-3.6776807970046996,0.3320458427429199,-1.1989982611972838
1772806416555302000,6.499302001953125,-4.002069402992725,1.015225090536475,-0.6043050330430269
1772806416565233000,6.50923291015625,-3.711757254129648,1.4018623551666736,0.041312180532142515
1772806416575164700,6.51916455078125,-2.7611072193562984,1.5036246935516595,0.5092388678284362
1772806416585096000,6.529095947265625,-1.3153542845368384,1.7448317429840563,0.9132755590163171
1772806416595028000,6.539028076171875,-0.0650765755444765,2.223532958805561,1.1635024387937039
1772806416604958700,6.548958740234375,0.6701335959985851,3.15754866964221,1.361273739668727
1772806416614890000,6.558889892578125,0.2523001058548689,4.0292309661626815,0.9761012868940829
1772806416624822000,6.568822021484375,0.142458505910635,3.8144898988515137,0.4177671469092369
1772806416634753000,6.5787529296875,0.5696878931701183,1.9508347925662992,0.7543268868800252
1772806416644684800,6.588684814453125,-0.036895898459851736,-1.4227999292552471,2.1521828559495506
1772806416654615800,6.59861572265625,0.45838352719694375,-4.290533293640613,2.5744047903105614
1772806416664547800,6.6085478515625,2.529572253632545,-4.866913377925753,1.0326903854046017
1772806416674478800,6.618478759765625,3.4765868545129894,-3.4029935027748346,0.048402979043312366
1772806416684411000,6.628410888671875,3.8996985773205757,-1.1082792218089104,-0.027173436270840463
1772806416694342000,6.638341796875,4.40568410590887,1.5527221941977738,0.48135739288609475
1772806416704274000,6.64827392578125,4.261133303894102,3.124318015691638,1.4387860184162855
1772806416714204700,6.65820458984375,3.3991567010909316,3.0369770013689994,2.2693485151715573
1772806416724136700,6.66813671875,2.3704811773508787,1.9699971736758946,2.67382173461318
1772806416734068000,6.67806787109375,1.5630284841567277,0.5680290200471878,2.8313188197016714
1772806416744000000,6.688,1.1196996104896069,-0.4857487962454557,2.7187919261962175
1772806416753930800,6.6979306640625,0.8806327879562973,-1.1320745234161615,2.6061840764090416
1772806416763862800,6.70786279296875,0.8438955871894955,-1.3493600145131348,2.4911715035676956
1772806416773794000,6.7177939453125,0.8729163683600724,-1.1183353363990782,1.9705505697749555
1772806416783724800,6.727724853515625,1.0319126059651373,-0.3370639631658792,1.095159627994895
1772806416793656800,6.73765673828125,1.4190338547199963,0.608124299070239,0.06986866865921765
1772806416803587800,6.747587890625,1.300261637084186,1.2997978189647197,-0.9209307499445974
1772806416813520000,6.757519775390625,1.1694742797449231,1.438430629107356,-1.7293958350516854
1772806416823451000,6.767450927734375,1.0107458992958067,1.013110290339589,-2.019619428848475
1772806416833383000,6.7773828125,1.1268097347557544,0.26614275324642656,-1.9371407598651944
1772806416843314000,6.78731396484375,1.225717268231511,-0.4094067303210497,-1.5309519686773418
1772806416853246000,6.797245849609375,0.9989755281336605,-0.9869909296989441,-1.1897817392364143
1772806416863176700,6.8071767578125,0.5764509575642645,-1.5058727647393941,-0.6907528248529881
1772806416873108700,6.817108642578125,0.10346052060499787,-1.783365179517865,0.09647478990349918
1772806416883040000,6.8270400390625,-0.2809282344460487,-1.78676885048151,0.8089088102865963
1772806416892972000,6.836971923828125,-0.3093903588205576,-1.682481377533078,0.6615007191445678
1772806416902902800,6.84690283203125,-0.15274075740687548,-1.2818868992209433,0.5043794816311449
1772806416912834800,6.856834716796875,-0.2817987336702645,-0.8943541470557451,0.3038969673023559
1772806416922766000,6.86676611328125,-0.45252742157988246,-0.6494605180650949,0.14074530878458172
1772806416932696800,6.87669677734375,-0.4638034333538264,-0.6590414163589478,0.15630866075521335
1772806416942628900,6.88662890625,-0.4555716846466064,-0.5120996275544166,-0.04467075197873637
1772806416952559900,6.896559814453125,-0.3750882811337709,-0.5300432805240154,-0.08127893780469894
1772806416962492000,6.906491943359375,-0.3810259275544435,-0.4976859022766351,-0.28821455552931874
1772806416972423000,6.9164228515625,-0.3151263451892882,-0.5502408499002457,-0.45032644093688573
1772806416982355000,6.92635498046875,-0.2889881337177008,-0.6595470277935266,-0.3361488576149568
1772806416992286000,6.936285888671875,-0.3436585025927052,-0.7260545129239558,-0.20456669663619248
1772806417002217700,6.9462177734375,-0.5676601136695594,-0.6976818203985691,-0.1615117640899494
1772806417012148700,6.956148681640625,-0.6713958710193634,-0.6561316663920879,-0.32260285508241504
1772806417022081000,6.9660810546875,-0.6222095961112528,-0.5869494090944528,-0.6110238929692655
1772806417032012000,6.976011962890625,-0.5225777669489383,-0.4795885200500488,-0.9759573483787476
1772806417041943800,6.98594384765625,-0.720130968093872,-0.3675701605886221,-1.1775339598208665
1772806417051874800,6.995874755859375,-1.106692829400301,-0.17625380800664422,-1.2500772179841995
1772806417061806800,7.005806884765625,-1.2992951301395892,0.045832361370325085,-1.158175033225864
1772806417071737900,7.01573779296875,-1.0108598810642957,0.28236148211956025,-0.9427715564832091
1772806417081668900,7.0256689453125,-0.6342682096302509,0.44967385877966876,-0.6018865737244486
1772806417091601000,7.035600830078125,-0.20948329291343687,0.3976560867726803,-0.4773714285224676
1772806417101532000,7.045531982421875,0.3659913669645786,0.16784019992649554,-0.4449095669873058
1772806417111463700,7.055463623046875,0.8659551510453224,0.05526128397285938,-0.4382487939238548
1772806417121395000,7.06539501953125,1.2158300804674624,0.07325579034686087,-0.3585794832728803
1772806417131327000,7.075326904296875,1.1488427028656005,0.01827566140294075,-0.2511350075982511
1772806417141257700,7.0852578125,0.7569464947938919,-0.0332137028157711,-0.15754435829631983
1772806417151189800,7.095189697265625,0.1653589410373941,0.32220600125193594,0.3620681291062385
1772806417161120800,7.105120849609375,-0.055266508137248455,1.0655313824504613,0.6452518873941153
1772806417171053000,7.115052978515625,-0.03793665795074776,1.7813339659512042,0.46962665961459277
1772806417180983800,7.12498388671875,-0.13779402123093604,2.232987600371241,0.07953640498630703
1772806417190915800,7.134915771484375,-0.1427192026734352,2.655271932443976,-0.22519721406958995
1772806417200846800,7.144846923828125,-0.05650571280969306,2.9254654223859307,-0.43464141708165405
1772806417210779400,7.154779296875,0.1442822050733026,2.7613082948863505,-0.5671976107243448
1772806417220710400,7.16471044921875,0.4316869511902332,2.548121471279859,-0.26333902093730865
1772806417230641400,7.174641357421875,0.530814264896512,2.304638293609023,0.030628216367214918
1772806417240573400,7.184573486328125,0.42488779256939885,1.8638304628521203,0.41539997938647866
1772806417250504400,7.19450439453125,0.04473466579411178,1.3246253862291573,0.8701542101703583
1772806417260436200,7.204436279296875,-0.4145972481688484,0.808237706092,1.1243377186190335
1772806417270367500,7.214367431640625,-0.7705197506595403,0.3645885144293308,1.2025776540540158
1772806417280299500,7.224299560546875,-1.072963139886409,0.2017576670974493,1.2678403998203576
1772806417290230500,7.23423046875,-1.2497745817758141,0.4104652994632721,1.4269798452883957
1772806417300162300,7.244162353515625,-1.1901176931925117,0.9740379246234894,1.4080413360625506
1772806417310093300,7.25409326171875,-1.0555869115412235,1.542964185771346,0.8092519246358424
1772806417320025300,7.264025390625,-0.7655839747577905,1.9837129798173903,-0.34062779312729835
1772806417329956600,7.27395654296875,-0.24424437130168078,2.1161638864547014,-1.042894237902388
1772806417339888400,7.283888427734375,0.5705903949677944,2.0831939292669297,-1.4025097131595015
1772806417349819400,7.2938193359375,1.5985821742273867,1.7143138551235197,-1.3443492006137967
1772806417359751400,7.30375146484375,2.276657523010671,0.5440712213546037,-0.6902874723635614
1772806417369682400,7.313682373046875,2.2627304122060536,-1.1093676015675067,0.7905530693847685
1772806417379614500,7.323614501953125,1.7668299320414662,-0.6867302182734012,2.0423064769528807
1772806417389545500,7.33354541015625,1.7280039423018694,-0.2248410210430622,2.718537074652314
1772806417399476500,7.3434765625,1.3056670032590627,-0.03194353674948215,3.0152158359378576
1772806417409408300,7.353408203125,0.7586512528851628,0.1181371346026659,2.1780251532144845
1772806417419339500,7.363339599609375,0.3296069251582026,-0.46073359745442866,0.9198406166203319
1772806417429271600,7.373271484375,0.02041618056297302,-0.9581517887055874,1.063870171239972
1772806417439202300,7.383202392578125,0.11336743598282337,-1.1521826609432697,1.041017265049368
1772806417449134300,7.39313427734375,0.3866320039331913,-1.2795868055850266,1.1689599735472351
1772806417459065300,7.4030654296875,0.7625172806635498,-1.2440069581598043,1.2502242252394555
1772806417468997400,7.412997314453125,1.1665975552648304,-1.346623867547512,1.19430301605314
1772806417478928400,7.422928466796875,1.3857707598045468,-1.6138783814281223,1.1054782659787683
1772806417488860400,7.4328603515625,1.537261005693674,-1.813261136087775,0.9625103492412715
1772806417498791400,7.44279150390625,1.6022198000773786,-1.9504653747320173,0.9214039204142987
1772806417508723500,7.452723388671875,1.5649962770983576,-1.969955088099837,0.9708342332113533
1772806417518654500,7.462654541015625,1.5331380805447696,-1.8653624947249887,1.0754979190610348
1772806417528586500,7.47258642578125,1.4408826984345913,-1.7324737811923026,1.1223178301639853
1772806417538517500,7.482517578125,1.2990423244222997,-1.576038187855482,1.2290037425562739
1772806417548449500,7.492449462890625,1.0917778766021131,-1.4860843606859444,1.244385289952904
1772806417558380300,7.50238037109375,0.7734308888658881,-1.401785198277235,1.344268244332075
1772806417568311600,7.5123115234375,0.3925646088525653,-1.5238772079855203,1.3842312752775847
1772806417578243600,7.52224365234375,0.17674948256909845,-1.554939285725355,1.2382545321129261
1772806417588174300,7.53217431640625,0.0625078941002488,-1.5190695154428482,1.1640092923372982
1772806417598106400,7.5421064453125,-0.044485330675542355,-1.4185785121679306,1.1044181624665856
1772806417608037400,7.552037353515625,-0.1012795233041048,-1.2872855433940886,0.9932241980653256
1772806417617969400,7.561969482421875,-0.05292553450167179,-1.1468430534809828,0.9653913845703005
1772806417627900400,7.571900390625,0.042586803577840324,-1.1289151826024055,1.0803554420948027
1772806417637832400,7.58183251953125,-0.08890636394321919,-1.1499474492371082,1.068281631006673
1772806417647763500,7.591763427734375,-0.29217005168944593,-1.0181611439883709,0.891284895678237
1772806417657695500,7.601695556640625,-0.44517128666341305,-0.9803992763489484,0.6119194535695016
1772806417667626500,7.61162646484375,-0.46354397870004177,-0.8778460798472165,0.18370032462030647
1772806417677558500,7.62155859375,-0.4917231944799423,-0.6438695661902427,-0.10135989506393671
1772806417687489500,7.631489501953125,-0.41276451631635425,-0.3142027275383472,-0.13749335778392852
1772806417697421300,7.64142138671875,-0.4809507483139634,0.054552843442559236,-0.08393032909631729
1772806417707352300,7.651352294921875,-0.7257245503172278,0.38075989702939983,-0.013125731293857096
1772806417717284400,7.661284423828125,-1.0698311254709958,0.46789691321253774,0.05338350740224123
1772806417727215600,7.671215576171875,-1.2234727041751146,0.6106085171014071,0.08814005574584007
1772806417737146400,7.681146484375,-1.2057491236969828,0.8288046933025122,0.03369228011295199
1772806417747078400,7.691078369140625,-1.3108575576394796,1.0184078122258187,0.03149067841544747
1772806417757009400,7.701009521484375,-1.507607333447039,1.1159066479474304,-0.007986541774496436
1772806417766941200,7.710941162109375,-1.6419059137776493,1.0008557889223098,-0.08613507259897887
1772806417776872400,7.72087255859375,-1.654207761467993,0.8078297098129987,-0.18525756399966775
1772806417786804500,7.730804443359375,-1.6536846143767236,0.5475327599853277,-0.19634261977877468
1772806417796735500,7.740735595703125,-1.3008601874992252,0.06614917321205138,0.013241685823723674
1772806417806667300,7.750667236328125,-1.6064628444746136,-0.30514263824820514,0.1384013394743204
1772806417816598500,7.7605986328125,-1.5161445679068564,-0.5171557419002056,0.056893890143372115
1772806417826530600,7.770530517578125,-1.0900988374739884,-0.7225064650535583,0.14948208440449087
1772806417836461300,7.78046142578125,-0.8895736347809433,-0.7183464227646589,0.15652345428336412
1772806417846393300,7.790393310546875,-0.7462970904856919,-0.4160410537689924,0.16845241354070603
1772806417856324400,7.800324462890625,-0.5638555337548256,0.10954992352128028,0.10906367437429726
1772806417866256400,7.81025634765625,-0.31903233965188266,0.4995704008489847,0.17213592435903846
1772806417876187400,7.8201875,-0.29932109248787164,0.4350286628335714,0.28851156571451575
1772806417886118400,7.830118408203125,-0.5415346886143088,0.03985620957016945,0.5943253446899354
1772806417896050400,7.840050537109375,-0.5709802710682154,-0.2218172893077135,0.8870916817720979
1772806417905981200,7.849981201171875,-0.5013476396545767,-0.05102583836019039,1.1133436655916273
1772806417915913200,7.859913330078125,-0.8221639401137828,0.35439153006374835,1.0966172794573008
1772806417925844500,7.869844482421875,-1.3211036418437958,0.6829489461690187,0.9459893494859337
1772806417935776500,7.879776611328125,-1.2466674095407129,0.678175740417838,1.0346925920724868
