time,seconds_elapsed,z,y,x
1772806410115987700,0.05998779296875,-0.0890350341796875,1.02801513671875,0.100311279296875
1772806410125919700,0.069919677734375,-0.1202850341796875,0.9984130859375,0.12054443359375
1772806410135850800,0.079850830078125,-0.1490020751953125,0.9742584228515625,0.1554107666015625
1772806410145781800,0.08978173828125,-0.1955108642578125,0.9579315185546875,0.1841583251953125
1772806410155713800,0.0997138671875,-0.2501220703125,0.9493560791015625,0.196502685546875
1772806410165644500,0.10964453125,-0.29931640625,0.9540557861328125,0.2011566162109375
1772806410175576600,0.11957666015625,-0.3326416015625,0.9724578857421875,0.2059173583984375
1772806410185507800,0.1295078125,-0.318511962890625,0.9671783447265625,0.1734161376953125
1772806410195439900,0.13943994140625,-0.2922515869140625,0.972503662109375,0.1463623046875
1772806410205371000,0.149370849609375,-0.2696685791015625,0.977386474609375,0.139862060546875
1772806410215303000,0.159302978515625,-0.263946533203125,0.9615478515625,0.14056396484375
1772806410225234000,0.16923388671875,-0.2654266357421875,0.9509429931640625,0.1443328857421875
1772806410235166000,0.179166015625,-0.24688720703125,0.9300689697265625,0.1509246826171875
1772806410245097000,0.189096923828125,-0.2352752685546875,0.907470703125,0.1652984619140625
1772806410255029000,0.199029052734375,-0.232635498046875,0.893096923828125,0.1673583984375
1772806410264959700,0.208959716796875,-0.2466583251953125,0.9009857177734375,0.1557464599609375
1772806410274891800,0.218891845703125,-0.2674407958984375,0.9291534423828125,0.13525390625
1772806410284823000,0.228822998046875,-0.295806884765625,0.9631195068359375,0.1202545166015625
1772806410294753800,0.23875390625,-0.3125,0.9890899658203125,0.1288909912109375
1772806410304685800,0.248685791015625,-0.3085174560546875,0.99609375,0.15093994140625
1772806410314616800,0.258616943359375,-0.2968292236328125,1.0038299560546875,0.1817169189453125
1772806410324548900,0.268548828125,-0.28607177734375,1.0021820068359375,0.2043304443359375
1772806410334480000,0.27847998046875,-0.298828125,0.9870452880859375,0.2133941650390625
1772806410344412000,0.288411865234375,-0.306610107421875,0.96478271484375,0.203155517578125
1772806410354343000,0.298343017578125,-0.3001556396484375,0.932769775390625,0.189544677734375
1772806410364275000,0.30827490234375,-0.2987823486328125,0.9161834716796875,0.1734771728515625
1772806410374206000,0.3182060546875,-0.3204345703125,0.91558837890625,0.157989501953125
1772806410384138000,0.328137939453125,-0.3439178466796875,0.9228515625,0.1434478759765625
1772806410394069000,0.338069091796875,-0.368621826171875,0.9248504638671875,0.132476806640625
1772806410404000800,0.348000732421875,-0.3930206298828125,0.924957275390625,0.128509521484375
1772806410413931800,0.357931884765625,-0.4116058349609375,0.92376708984375,0.155487060546875
1772806410423863800,0.36786376953125,-0.3749237060546875,0.8991241455078125,0.195831298828125
1772806410433795000,0.377795166015625,-0.341705322265625,0.8783721923828125,0.214111328125
1772806410443726800,0.387726806640625,-0.3274078369140625,0.878997802734375,0.2068023681640625
1772806410453657900,0.397657958984375,-0.3296051025390625,0.88104248046875,0.2005767822265625
1772806410463588900,0.4075888671875,-0.327301025390625,0.8768310546875,0.171417236328125
1772806410473520600,0.417520751953125,-0.3309326171875,0.8632049560546875,0.15179443359375
1772806410483452000,0.427451904296875,-0.2991790771484375,0.8531951904296875,0.1704254150390625
1772806410493384000,0.437384033203125,-0.3173675537109375,0.8620758056640625,0.1499176025390625
1772806410503315000,0.44731494140625,-0.399078369140625,0.8436279296875,0.1256866455078125
1772806410513246700,0.457246826171875,-0.4550628662109375,0.8253021240234375,0.1275177001953125
1772806410523178000,0.467177978515625,-0.4796142578125,0.802703857421875,0.1290283203125
1772806410533110000,0.477110107421875,-0.4485321044921875,0.80145263671875,0.1407012939453125
1772806410543041000,0.487041015625,-0.3475799560546875,0.82257080078125,0.141754150390625
1772806410552972800,0.496972900390625,-0.35260009765625,0.808197021484375,0.128509521484375
1772806410562903800,0.50690380859375,-0.4278717041015625,0.7995452880859375,0.1165924072265625
1772806410572835800,0.5168359375,-0.4387054443359375,0.786346435546875,0.1089324951171875
1772806410582766800,0.526766845703125,-0.445159912109375,0.76788330078125,0.1032257080078125
1772806410592697900,0.53669775390625,-0.4426116943359375,0.7640533447265625,0.1138458251953125
1772806410602630000,0.5466298828125,-0.4183349609375,0.77783203125,0.1494598388671875
1772806410612561000,0.556560791015625,-0.413604736328125,0.795623779296875,0.1728057861328125
1772806410622492700,0.56649267578125,-0.4200592041015625,0.8226165771484375,0.1777801513671875
1772806410632424000,0.576423828125,-0.422119140625,0.86376953125,0.1721649169921875
1772806410642356000,0.58635595703125,-0.4354095458984375,0.8968658447265625,0.1645355224609375
1772806410652286700,0.59628662109375,-0.4580078125,0.90570068359375,0.1746673583984375
1772806410662218800,0.60621875,-0.489837646484375,0.88751220703125,0.2025909423828125
1772806410672150000,0.61614990234375,-0.5193939208984375,0.855926513671875,0.2185821533203125
1772806410682082000,0.62608203125,-0.535430908203125,0.828460693359375,0.21661376953125
1772806410692012800,0.6360126953125,-0.5430450439453125,0.8181915283203125,0.205474853515625
1772806410701944800,0.64594482421875,-0.5491790771484375,0.81231689453125,0.19659423828125
1772806410711875800,0.655875732421875,-0.5443267822265625,0.8133087158203125,0.1909332275390625
1772806410721808000,0.665807861328125,-0.529388427734375,0.82391357421875,0.1790771484375
1772806410731739000,0.67573876953125,-0.525054931640625,0.82373046875,0.1610260009765625
1772806410741671000,0.6856708984375,-0.5313568115234375,0.82965087890625,0.1373138427734375
1772806410751602000,0.695601806640625,-0.537353515625,0.838714599609375,0.1075897216796875
1772806410761532700,0.70553271484375,-0.541778564453125,0.8372955322265625,0.0823211669921875
1772806410771464700,0.715464599609375,-0.55181884765625,0.825897216796875,0.0802764892578125
1772806410781396000,0.72539599609375,-0.559539794921875,0.811614990234375,0.1082305908203125
1772806410791328000,0.735327880859375,-0.5646514892578125,0.811004638671875,0.159271240234375
1772806410801258800,0.7452587890625,-0.5601959228515625,0.8163909912109375,0.1847686767578125
1772806410811190800,0.755190673828125,-0.531036376953125,0.81781005859375,0.1714630126953125
1772806410821122000,0.7651220703125,-0.5027313232421875,0.81744384765625,0.130157470703125
1772806410831054000,0.77505419921875,-0.4849090576171875,0.8137664794921875,0.0820159912109375
1772806410840984800,0.78498486328125,-0.4696807861328125,0.8034515380859375,0.05743408203125
1772806410850916900,0.794916748046875,-0.47210693359375,0.791778564453125,0.0701141357421875
1772806410860847900,0.804847900390625,-0.504913330078125,0.7962646484375,0.103057861328125
1772806410870780000,0.81477978515625,-0.5311279296875,0.8214111328125,0.1506500244140625
1772806410880711000,0.8247109375,-0.5481414794921875,0.8644866943359375,0.2138824462890625
1772806410890643000,0.834642822265625,-0.5607452392578125,0.928131103515625,0.2846527099609375
1772806410900574000,0.844573974609375,-0.5688323974609375,1.0419921875,0.352447509765625
1772806410910504700,0.854504638671875,-0.557342529296875,1.2432708740234375,0.3816070556640625
1772806410920436700,0.864436767578125,-0.5013275146484375,1.4916229248046875,0.3932952880859375
1772806410930368000,0.874367919921875,-0.35491943359375,1.66937255859375,0.44256591796875
1772806410940300000,0.884300048828125,-0.1629638671875,1.6806488037109375,0.4105224609375
1772806410950230800,0.894230712890625,-0.18359375,1.399444580078125,0.2648773193359375
1772806410960162800,0.904162841796875,-0.30438232421875,0.895965576171875,0.202972412109375
1772806410970094000,0.914093994140625,-0.3097076416015625,0.432159423828125,0.3327484130859375
1772806410980025900,0.92402587890625,-0.3748626708984375,0.1600799560546875,0.5106964111328125
1772806410989956900,0.933956787109375,-0.4648284912109375,0.229248046875,0.43133544921875
1772806410999889000,0.943888916015625,-0.3945159912109375,0.4901580810546875,0.316986083984375
1772806411009820000,0.95381982421875,-0.1634368896484375,0.8246002197265625,0.2184600830078125
1772806411019751700,0.963751708984375,0.1257476806640625,1.21319580078125,0.1359405517578125
1772806411029683000,0.973682861328125,0.26361083984375,1.4489288330078125,0.03875732421875
1772806411039615000,0.983614990234375,0.2484893798828125,1.4937744140625,-0.0016937255859375
1772806411049545700,0.993545654296875,0.1543121337890625,1.3673095703125,-0.0377960205078125
1772806411059477800,1.003477783203125,0.0908203125,1.1702117919921875,-0.05841064453125
1772806411069408800,1.01340869140625,0.096832275390625,0.969329833984375,-0.0522308349609375
1772806411079340000,1.023340087890625,0.1649627685546875,0.852569580078125,0.0333709716796875
1772806411089271800,1.033271728515625,0.2213134765625,0.8442535400390625,0.123809814453125
1772806411099202800,1.043202880859375,0.1963348388671875,0.8592987060546875,0.151763916015625
1772806411109134800,1.053134765625,0.143280029296875,0.9021148681640625,0.17852783203125
1772806411119065900,1.06306591796875,0.048736572265625,0.938720703125,0.208892822265625
1772806411128998000,1.072997802734375,-0.0391387939453125,0.9491119384765625,0.2299041748046875
1772806411138929000,1.082928955078125,-0.0414581298828125,0.9849090576171875,0.248321533203125
1772806411148861000,1.09286083984375,-0.039459228515625,1.043701171875,0.253814697265625
1772806411158791700,1.102791748046875,-0.030181884765625,1.060150146484375,0.217193603515625
1772806411168723700,1.1127236328125,0.02276611328125,1.0286102294921875,0.1854095458984375
1772806411178655000,1.122655029296875,0.0864410400390625,0.98614501953125,0.1649322509765625
1772806411188587000,1.1325869140625,0.09893798828125,0.9595947265625,0.1326904296875
1772806411198517800,1.142517822265625,0.0981597900390625,0.949859619140625,0.0800628662109375
1772806411208449300,1.15244921875,0.1070556640625,0.956207275390625,0.0269622802734375
1772806411218380300,1.16238037109375,0.070709228515625,0.9568023681640625,-0.0045318603515625
1772806411228311300,1.172311279296875,0.0438385009765625,0.95672607421875,-0.02081298828125
1772806411238243300,1.182243408203125,0.040679931640625,0.975250244140625,-0.022308349609375
1772806411248174000,1.192174072265625,0.00262451171875,0.96710205078125,0.0284423828125
1772806411258106000,1.202106201171875,-0.0015411376953125,0.93719482421875,0.0721893310546875
1772806411268037400,1.212037353515625,0.0198516845703125,0.91851806640625,0.1089019775390625
1772806411277969400,1.221969482421875,-0.0067138671875,0.9168243408203125,0.1447296142578125
1772806411287900200,1.231900146484375,-0.0419464111328125,0.913848876953125,0.15264892578125
1772806411297832200,1.241832275390625,-0.0310821533203125,0.9109039306640625,0.128326416015625
1772806411307763500,1.251763427734375,-0.0299835205078125,0.9269866943359375,0.1343994140625
1772806411317695500,1.261695556640625,-0.04248046875,0.9521026611328125,0.1220703125
1772806411327626200,1.271626220703125,-0.0549774169921875,0.98699951171875,0.10919189453125
1772806411337558300,1.281558349609375,-0.0625457763671875,1.0077972412109375,0.0953216552734375
1772806411347489300,1.2914892578125,-0.0589141845703125,1.01715087890625,0.07977294921875
1772806411357421300,1.30142138671875,-0.035400390625,1.0206756591796875,0.079833984375
1772806411367352300,1.311352294921875,-0.0341796875,1.024261474609375,0.08953857421875
1772806411377283300,1.321283447265625,-0.0385589599609375,1.0122833251953125,0.08697509765625
1772806411387215400,1.33121533203125,-0.04864501953125,0.9834747314453125,0.083251953125
1772806411397146000,1.34114599609375,-0.056854248046875,0.95648193359375,0.0639495849609375
1772806411407078100,1.351078125,-0.06689453125,0.955535888671875,0.049102783203125
1772806411417009400,1.361009521484375,-0.0726776123046875,0.9711761474609375,0.0345611572265625
1772806411426941400,1.37094140625,-0.072418212890625,0.9983062744140625,0.031494140625
1772806411436872200,1.3808720703125,-0.061370849609375,1.0144500732421875,0.0474700927734375
1772806411446804200,1.39080419921875,-0.0437164306640625,1.0115966796875,0.0558624267578125
1772806411456735500,1.400735595703125,-0.0181427001953125,0.993377685546875,0.0688323974609375
1772806411466667300,1.410667236328125,-0.00201416015625,0.976226806640625,0.0783538818359375
1772806411476598300,1.420598388671875,0.0156402587890625,0.970062255859375,0.0845489501953125
1772806411486530300,1.4305302734375,0.034912109375,0.9727935791015625,0.0906524658203125
1772806411496461300,1.44046142578125,0.0375823974609375,0.9780731201171875,0.10986328125
1772806411506393000,1.45039306640625,0.0487518310546875,0.9844970703125,0.1228790283203125
1772806411516324400,1.460324462890625,0.0812225341796875,0.986083984375,0.1299896240234375
1772806411526255400,1.47025537109375,0.1116943359375,0.9889068603515625,0.1333465576171875
1772806411536187100,1.480187255859375,0.128387451171875,1.009765625,0.1238250732421875
1772806411546118100,1.4901181640625,0.118316650390625,1.0512542724609375,0.111297607421875
1772806411556050200,1.50005029296875,0.080718994140625,1.0947418212890625,0.092132568359375
1772806411565981400,1.5099814453125,0.0486297607421875,1.1197662353515625,0.0660552978515625
1772806411575913200,1.519913330078125,0.0241241455078125,1.1278228759765625,0.0439453125
1772806411585844200,1.52984423828125,-0.0099334716796875,1.1125946044921875,0.0408172607421875
1772806411595776300,1.5397763671875,-0.059661865234375,1.0928192138671875,0.062896728515625
1772806411605707500,1.54970751953125,-0.1108856201171875,1.092681884765625,0.070465087890625
1772806411615639300,1.559639404296875,-0.110809326171875,1.062530517578125,0.0505828857421875
1772806411625570300,1.5695703125,-0.1157684326171875,1.0523681640625,-0.00714111328125
1772806411635502300,1.57950244140625,-0.1063079833984375,1.089935302734375,-0.094635009765625
1772806411645433000,1.58943310546875,-0.08807373046875,1.1703338623046875,-0.1715240478515625
1772806411655365000,1.599365234375,-0.0658721923828125,1.2601470947265625,-0.2434234619140625
1772806411665296400,1.60929638671875,-0.037445068359375,1.3067779541015625,-0.2709197998046875
1772806411675227400,1.619227294921875,0.0259857177734375,1.3239593505859375,-0.240020751953125
1772806411685159200,1.6291591796875,0.1209564208984375,1.3470916748046875,-0.182830810546875
1772806411695090200,1.639090087890625,0.1817779541015625,1.35595703125,-0.04803466796875
1772806411705022200,1.649022216796875,0.14190673828125,1.3150177001953125,0.1320953369140625
1772806411714953200,1.658953125,0.101531982421875,1.2197418212890625,0.2178192138671875
1772806411724885200,1.66888525390625,0.1010589599609375,1.108306884765625,0.207855224609375
1772806411734816300,1.678816162109375,0.103118896484375,0.9967803955078125,0.182037353515625
1772806411744748300,1.688748291015625,0.01593017578125,0.8491973876953125,0.208099365234375
1772806411754679300,1.69867919921875,-0.090118408203125,0.7410736083984375,0.2823333740234375
1772806411764611300,1.708611328125,-0.1880645751953125,0.7158050537109375,0.3512115478515625
1772806411774542300,1.718542236328125,-0.3188323974609375,0.766448974609375,0.457427978515625
1772806411784474400,1.728474365234375,-0.30322265625,0.8914947509765625,0.420318603515625
1772806411794405000,1.738405029296875,-0.2819976806640625,1.0123138427734375,0.3910064697265625
1772806411804337200,1.748337158203125,-0.27001953125,1.129852294921875,0.3577728271484375
1772806411814268400,1.758268310546875,-0.2140350341796875,1.1910247802734375,0.2360076904296875
1772806411824199200,1.76819921875,-0.14453125,1.1820526123046875,0.0987548828125
1772806411834131200,1.778131103515625,-0.0830078125,1.1431732177734375,0.0323333740234375
1772806411844062200,1.788062255859375,-0.0629730224609375,1.0882568359375,-0.0133209228515625
1772806411853994500,1.797994384765625,-0.0430450439453125,1.0708160400390625,-0.0360565185546875
1772806411863925200,1.80792529296875,-0.0478668212890625,1.0799713134765625,-0.0247955322265625
1772806411873857300,1.817857177734375,-0.06549072265625,1.1015777587890625,-0.031768798828125
1772806411883788300,1.827788330078125,-0.081787109375,1.082183837890625,-0.0150909423828125
1772806411893720300,1.83772021484375,-0.09881591796875,1.065185546875,0.0185394287109375
1772806411903651300,1.8476513671875,-0.1181793212890625,1.0291900634765625,0.035736083984375
1772806411913583400,1.857583251953125,-0.139190673828125,0.96636962890625,0.0682220458984375
1772806411923514400,1.867514404296875,-0.1610565185546875,0.9116363525390625,0.139007568359375
1772806411933446400,1.8774462890625,-0.20452880859375,0.88372802734375,0.194610595703125
1772806411943377200,1.887377197265625,-0.2149810791015625,0.8638916015625,0.235931396484375
1772806411953309200,1.89730908203125,-0.1851654052734375,0.8516845703125,0.2515106201171875
1772806411963240400,1.907240478515625,-0.15142822265625,0.825164794921875,0.2209320068359375
1772806411973171200,1.917171142578125,-0.1459197998046875,0.808837890625,0.18621826171875
1772806411983103200,1.927103271484375,-0.154541015625,0.8167724609375,0.150970458984375
1772806411993034200,1.9370341796875,-0.1571502685546875,0.8058013916015625,0.12066650390625
1772806412002966500,1.946966552734375,-0.1433258056640625,0.7920989990234375,0.0832672119140625
1772806412012897300,1.956897216796875,-0.1036224365234375,0.787994384765625,0.0396270751953125
1772806412022829300,1.966829345703125,-0.079376220703125,0.787750244140625,-0.0031890869140625
1772806412032760300,1.97676025390625,-0.09368896484375,0.8094635009765625,-0.015167236328125
1772806412042692000,1.986692138671875,-0.12567138671875,0.8586883544921875,0.0057220458984375
1772806412052623400,1.996623291015625,-0.17950439453125,0.9047698974609375,0.0154266357421875
1772806412062555400,2.006555419921875,-0.1820526123046875,0.9266357421875,0.0436553955078125
1772806412072486400,2.016486328125,-0.1757049560546875,0.9268951416015625,0.067169189453125
1772806412082418200,2.026418212890625,-0.17022705078125,0.9190216064453125,0.0844879150390625
1772806412092349200,2.03634912109375,-0.1636505126953125,0.9140625,0.10638427734375
1772806412102281200,2.04628125,-0.159576416015625,0.9032745361328125,0.118499755859375
1772806412112212200,2.056212158203125,-0.1682891845703125,0.88592529296875,0.12225341796875
1772806412122143200,2.066143310546875,-0.1695404052734375,0.86676025390625,0.1292266845703125
1772806412132075300,2.0760751953125,-0.1727142333984375,0.8549346923828125,0.147705078125
1772806412142006300,2.08600634765625,-0.1958160400390625,0.86004638671875,0.182830810546875
1772806412151938300,2.095938232421875,-0.2269439697265625,0.8568878173828125,0.2362060546875
1772806412161869300,2.105869384765625,-0.2610015869140625,0.8264007568359375,0.2618865966796875
1772806412171801300,2.11580126953125,-0.294830322265625,0.78680419921875,0.262451171875
1772806412181732000,2.125732177734375,-0.3031158447265625,0.75372314453125,0.2051544189453125
1772806412191664000,2.1356640625,-0.30029296875,0.74285888671875,0.1546630859375
1772806412201596200,2.14559619140625,-0.3223724365234375,0.7391204833984375,0.132781982421875
1772806412211528200,2.155528076171875,-0.3380889892578125,0.753265380859375,0.1045074462890625
1772806412221459500,2.16545947265625,-0.34112548828125,0.7762451171875,0.0872650146484375
1772806412231391500,2.1753916015625,-0.35101318359375,0.7896575927734375,0.0753173828125
1772806412241322200,2.185322265625,-0.361785888671875,0.802947998046875,0.0666351318359375
1772806412251254300,2.195254150390625,-0.3779296875,0.8370819091796875,0.0475616455078125
1772806412261185300,2.205185302734375,-0.4113922119140625,0.8972625732421875,0.0223846435546875
1772806412271116300,2.2151162109375,-0.4666748046875,0.9824981689453125,0.0023956298828125
1772806412281048300,2.22504833984375,-0.5144805908203125,1.0834197998046875,-0.011138916015625
1772806412290979300,2.234979248046875,-0.5293426513671875,1.1695404052734375,-0.0163726806640625
1772806412300911400,2.244911376953125,-0.526336669921875,1.2463226318359375,0.0039520263671875
1772806412310842400,2.25484228515625,-0.503326416015625,1.2911529541015625,0.047119140625
1772806412320774400,2.2647744140625,-0.4731903076171875,1.2554779052734375,0.0872650146484375
1772806412330705400,2.274705322265625,-0.45849609375,1.154541015625,0.1077117919921875
1772806412340637400,2.284637451171875,-0.455596923828125,1.063751220703125,0.0944671630859375
1772806412350568200,2.294568115234375,-0.472686767578125,1.000640869140625,0.081817626953125
1772806412360500200,2.304500244140625,-0.5120849609375,0.9415130615234375,0.0651092529296875
1772806412370431500,2.314431396484375,-0.567779541015625,0.8689727783203125,0.0480804443359375
1772806412380363500,2.324363525390625,-0.59710693359375,0.8292388916015625,0.0343017578125
1772806412390294300,2.334294189453125,-0.587371826171875,0.841796875,0.0309600830078125
1772806412400226300,2.344226318359375,-0.5613861083984375,0.8673858642578125,0.0481719970703125
1772806412410157600,2.354157470703125,-0.541229248046875,0.9318695068359375,0.0716552734375
1772806412420089600,2.364089599609375,-0.4983367919921875,1.00823974609375,0.068145751953125
1772806412430020400,2.374020263671875,-0.4378662109375,1.0736083984375,0.0670013427734375
1772806412439951400,2.383951416015625,-0.3046112060546875,1.2025299072265625,0.1429595947265625
1772806412449883400,2.39388330078125,-0.063568115234375,1.432830810546875,0.250396728515625
1772806412459814400,2.403814453125,0.0514068603515625,1.663330078125,0.2916717529296875
1772806412469746400,2.413746337890625,-0.0494384765625,1.731414794921875,0.1659393310546875
1772806412479677400,2.423677490234375,0.070159912109375,1.330718994140625,0.154571533203125
1772806412489609500,2.433609375,0.0734100341796875,0.7055511474609375,0.2811737060546875
1772806412499540200,2.443540283203125,0.007232666015625,0.298431396484375,0.3577117919921875
1772806412509472300,2.45347216796875,0.1356201171875,0.17034912109375,0.32928466796875
1772806412519403500,2.463403564453125,0.1949615478515625,0.32635498046875,0.22882080078125
1772806412529335300,2.473335205078125,0.3293609619140625,0.6728515625,0.167266845703125
1772806412539266300,2.483266357421875,0.497406005859375,1.0250244140625,0.14385986328125
1772806412549198300,2.4931982421875,0.524688720703125,1.2552642822265625,0.072998046875
1772806412559129600,2.503129638671875,0.4068603515625,1.3772430419921875,0.0170745849609375
1772806412569060400,2.513060302734375,0.2411346435546875,1.3286590576171875,0.018707275390625
1772806412578992400,2.522992431640625,0.1331939697265625,1.1704559326171875,0.068023681640625
1772806412588923400,2.53292333984375,0.106842041015625,1.025177001953125,0.1634368896484375
1772806412598855200,2.542855224609375,0.1453704833984375,0.92633056640625,0.2360382080078125
1772806412608786400,2.552786376953125,0.1306915283203125,0.869354248046875,0.2713623046875
1772806412618718500,2.562718505859375,0.0821685791015625,0.8637542724609375,0.3492584228515625
1772806412628649500,2.5726494140625,0.074432373046875,0.8975372314453125,0.34478759765625
1772806412638581200,2.582581298828125,0.0617523193359375,0.9514312744140625,0.258697509765625
1772806412648512300,2.59251220703125,0.0431060791015625,0.9983978271484375,0.1668243408203125
1772806412658444300,2.6024443359375,0.051788330078125,1.0233917236328125,0.104095458984375
1772806412668375600,2.61237548828125,0.082305908203125,0.986175537109375,0.0985870361328125
1772806412678307300,2.622307373046875,0.0765228271484375,0.9610595703125,0.1296844482421875
1772806412688238300,2.63223828125,0.087554931640625,0.8866424560546875,0.130218505859375
1772806412698170400,2.64217041015625,0.146820068359375,0.7936248779296875,0.1551666259765625
1772806412708101400,2.652101318359375,0.205780029296875,0.7653656005859375,0.131591796875
1772806412718032400,2.662032470703125,0.215484619140625,0.78466796875,0.1156768798828125
1772806412727964400,2.67196435546875,0.1828765869140625,0.7899017333984375,0.100738525390625
1772806412737895400,2.6818955078125,0.1353302001953125,0.75543212890625,0.0902099609375
1772806412747827200,2.6918271484375,0.0984344482421875,0.7547454833984375,0.077728271484375
1772806412757758500,2.701758544921875,0.0558013916015625,0.79425048828125,0.051544189453125
1772806412767690500,2.7116904296875,0.02099609375,0.842010498046875,0.0657806396484375
1772806412777621200,2.721621337890625,-0.0030364990234375,0.9065093994140625,0.0938720703125
1772806412787553300,2.73155322265625,-0.0191802978515625,0.9615325927734375,0.1023101806640625
1772806412797484300,2.741484375,-0.005157470703125,0.9658966064453125,0.111297607421875
1772806412807416300,2.751416259765625,0.0283660888671875,0.9709320068359375,0.122406005859375
1772806412817347300,2.761347412109375,0.0498504638671875,1.0258331298828125,0.122650146484375
1772806412827279400,2.771279296875,0.057037353515625,1.0791473388671875,0.0863189697265625
1772806412837210400,2.78121044921875,0.0560302734375,1.1082763671875,0.0701141357421875
1772806412847142400,2.791142333984375,0.0514984130859375,1.1169586181640625,0.0806732177734375
1772806412857073400,2.801073486328125,0.0481109619140625,1.0929718017578125,0.098236083984375
1772806412867004400,2.81100439453125,0.0588531494140625,1.053253173828125,0.087982177734375
1772806412876936400,2.8209365234375,0.05194091796875,1.038604736328125,0.0716705322265625
1772806412886867200,2.8308671875,0.018890380859375,1.0754241943359375,0.0539703369140625
1772806412896799200,2.84079931640625,-0.0088958740234375,1.1389923095703125,0.0326690673828125
1772806412906730500,2.85073046875,0.00225830078125,1.177581787109375,0.0107269287109375
1772806412916662500,2.86066259765625,0.029998779296875,1.17413330078125,-0.0173492431640625
1772806412926593300,2.87059326171875,0.0719757080078125,1.1629638671875,-0.0513458251953125
1772806412936525300,2.880525390625,0.1133270263671875,1.1485137939453125,-0.0527496337890625
1772806412946456300,2.890456298828125,0.1323089599609375,1.1522979736328125,-0.0249176025390625
1772806412956388400,2.900388427734375,0.141326904296875,1.167694091796875,-0.00054931640625
1772806412966319400,2.9103193359375,0.1516265869140625,1.172698974609375,0.011077880859375
1772806412976251400,2.92025146484375,0.1366424560546875,1.1616668701171875,0.0377197265625
1772806412986182400,2.930182373046875,0.110870361328125,1.1150970458984375,0.0938873291015625
1772806412996114400,2.940114501953125,0.06988525390625,1.0717315673828125,0.140411376953125
1772806413006045400,2.95004541015625,0.01861572265625,1.036651611328125,0.173675537109375
1772806413015976400,2.9599765625,-0.032867431640625,1.031524658203125,0.1927642822265625
1772806413025908500,2.969908447265625,-0.079345703125,1.0664215087890625,0.1927642822265625
1772806413035839200,2.979839111328125,-0.1113128662109375,1.1227264404296875,0.1628875732421875
1772806413045771300,2.989771240234375,-0.0908660888671875,1.1612091064453125,0.1150360107421875
1772806413055702500,2.99970263671875,-0.03533935546875,1.17376708984375,0.071502685546875
1772806413065634600,3.009634521484375,0.0156402587890625,1.1807403564453125,0.0446014404296875
1772806413075565300,3.0195654296875,0.0672149658203125,1.1765899658203125,0.019500732421875
1772806413085497300,3.029497314453125,0.148895263671875,1.1902923583984375,-0.00927734375
1772806413095428400,3.039428466796875,0.233367919921875,1.2346038818359375,-0.026458740234375
1772806413105360400,3.0493603515625,0.27618408203125,1.2970123291015625,-0.0611572265625
1772806413115291400,3.05929150390625,0.3059539794921875,1.322357177734375,-0.10760498046875
1772806413125223400,3.069223388671875,0.2820587158203125,1.2890777587890625,-0.0538787841796875
1772806413135154400,3.079154541015625,0.2392578125,1.2149810791015625,0.03472900390625
1772806413145086200,3.089086181640625,0.1884002685546875,1.0615997314453125,0.128509521484375
1772806413155017500,3.099017578125,0.1063385009765625,0.930206298828125,0.2186737060546875
1772806413164948500,3.108948486328125,0.058135986328125,0.7913818359375,0.2303314208984375
1772806413174880300,3.11888037109375,0.0382232666015625,0.70294189453125,0.29290771484375
1772806413184811300,3.128811279296875,0.0172119140625,0.7117462158203125,0.34320068359375
1772806413194743300,3.138743408203125,-0.07958984375,0.8325347900390625,0.426116943359375
1772806413204674000,3.148674072265625,-0.1158447265625,0.9918365478515625,0.517730712890625
1772806413214606000,3.158606201171875,-0.1950531005859375,1.07098388671875,0.5674285888671875
1772806413224537000,3.168537109375,-0.23040771484375,1.143310546875,0.5234375
1772806413234468900,3.17846875,-0.114166259765625,1.1536865234375,0.3234100341796875
1772806413244400000,3.188400146484375,-0.1104888916015625,1.111297607421875,0.228912353515625
1772806413254332200,3.198332275390625,-0.054901123046875,1.1380157470703125,0.2039947509765625
1772806413264263200,3.20826318359375,0.03485107421875,1.1974029541015625,0.1618804931640625
1772806413274195000,3.21819482421875,0.0604248046875,1.211883544921875,0.060333251953125
1772806413284126000,3.2281259765625,0.0335845947265625,1.108856201171875,-0.0586395263671875
1772806413294057200,3.23805712890625,0.0172882080078125,1.0026397705078125,-0.0749969482421875
1772806413303989000,3.247989013671875,-0.014984130859375,0.897369384765625,-0.0506591796875
1772806413313920000,3.257919921875,-0.05499267578125,0.789031982421875,-0.01123046875
1772806413323852000,3.26785205078125,-0.0362396240234375,0.7443084716796875,0.0130767822265625
1772806413333783000,3.277782958984375,-0.0510711669921875,0.708160400390625,0.0964813232421875
1772806413343715000,3.287715087890625,-0.0730438232421875,0.7184906005859375,0.1928558349609375
1772806413353646000,3.29764599609375,-0.0329437255859375,0.730682373046875,0.2401580810546875
1772806413363578000,3.307578125,0.0023345947265625,0.7778472900390625,0.2558746337890625
1772806413373508900,3.3175087890625,-0.04736328125,0.8207550048828125,0.26800537109375
1772806413383441000,3.32744091796875,-0.088653564453125,0.837249755859375,0.2554931640625
1772806413393372200,3.3373720703125,-0.1405792236328125,0.8591156005859375,0.252960205078125
1772806413403304200,3.34730419921875,-0.1910552978515625,0.908599853515625,0.274688720703125
1772806413413235000,3.35723486328125,-0.2312469482421875,0.958282470703125,0.2974853515625
1772806413423167000,3.3671669921875,-0.256805419921875,0.9764404296875,0.310882568359375
1772806413433098000,3.377097900390625,-0.2961578369140625,0.9555816650390625,0.3126678466796875
1772806413443029000,3.387029052734375,-0.3575592041015625,0.9128570556640625,0.2875823974609375
1772806413452961000,3.3969609375,-0.388153076171875,0.849334716796875,0.24493408203125
1772806413462892000,3.40689208984375,-0.4044189453125,0.76947021484375,0.212860107421875
1772806413472824000,3.416823974609375,-0.3813323974609375,0.721710205078125,0.1639251708984375
1772806413482755000,3.426755126953125,-0.313873291015625,0.6801910400390625,0.1128082275390625
1772806413492687000,3.43668701171875,-0.257171630859375,0.6653289794921875,0.0796966552734375
1772806413502618000,3.4466181640625,-0.2474212646484375,0.669708251953125,0.0532379150390625
1772806413512550100,3.456550048828125,-0.2781219482421875,0.685089111328125,0.0397491455078125
1772806413522481000,3.46648095703125,-0.3180694580078125,0.6994171142578125,0.03662109375
1772806413532413000,3.476412841796875,-0.3629150390625,0.698333740234375,0.0394439697265625
1772806413542344200,3.48634423828125,-0.3883056640625,0.692413330078125,0.03924560546875
1772806413552276200,3.496276123046875,-0.3903350830078125,0.6905975341796875,0.0390167236328125
1772806413562207000,3.50620703125,-0.3774566650390625,0.7020416259765625,0.0612640380859375
1772806413572139000,3.516138916015625,-0.34112548828125,0.70428466796875,0.063568115234375
1772806413582070000,3.526070068359375,-0.2974395751953125,0.7080230712890625,0.0631256103515625
1772806413592001000,3.5360009765625,-0.2575531005859375,0.758453369140625,0.0605010986328125
1772806413601933000,3.54593310546875,-0.23858642578125,0.842620849609375,0.0479583740234375
1772806413611864000,3.555864013671875,-0.2518463134765625,0.927642822265625,0.0469207763671875
1772806413621796000,3.565796142578125,-0.283843994140625,1.0248870849609375,0.0394287109375
1772806413631727000,3.57572705078125,-0.3240966796875,1.1302032470703125,0.0145263671875
1772806413641659100,3.5856591796875,-0.3614501953125,1.244354248046875,0.0068511962890625
1772806413651590100,3.595590087890625,-0.3965301513671875,1.3275299072265625,0.03656005859375
1772806413661522200,3.605522216796875,-0.4411163330078125,1.31512451171875,0.0441436767578125
1772806413671453000,3.615452880859375,-0.4896240234375,1.257537841796875,0.0423126220703125
1772806413681385000,3.625385009765625,-0.5281982421875,1.1815948486328125,0.052093505859375
1772806413691316200,3.635316162109375,-0.5633087158203125,1.1111602783203125,0.057220458984375
1772806413701248000,3.645248046875,-0.6059417724609375,1.0612640380859375,0.027557373046875
1772806413711179000,3.655178955078125,-0.64178466796875,1.027191162109375,-0.014007568359375
1772806413721111000,3.665111083984375,-0.6172027587890625,0.9876708984375,-0.0579986572265625
1772806413731042000,3.6750419921875,-0.556549072265625,0.9526824951171875,-0.05450439453125
1772806413740973800,3.684973876953125,-0.494598388671875,0.97747802734375,0.0283660888671875
1772806413750905000,3.694905029296875,-0.469512939453125,1.03375244140625,0.136016845703125
1772806413760836000,3.704836181640625,-0.4356842041015625,1.045745849609375,0.2163543701171875
1772806413770768000,3.714767822265625,-0.4036102294921875,1.0440521240234375,0.2532501220703125
1772806413780699100,3.72469921875,-0.334503173828125,1.063385009765625,0.2762298583984375
1772806413790631200,3.734631103515625,-0.274444580078125,1.1260223388671875,0.2831268310546875
1772806413800562200,3.744562255859375,-0.3244781494140625,1.2289581298828125,0.2751007080078125
1772806413810494000,3.754493896484375,-0.4268035888671875,1.299560546875,0.261138916015625
1772806413820425000,3.764425048828125,-0.4199066162109375,1.3138275146484375,0.234344482421875
1772806413830357000,3.77435693359375,-0.2755126953125,1.1978912353515625,0.2372589111328125
1772806413840288000,3.7842880859375,-0.09124755859375,0.92535400390625,0.2859649658203125
1772806413850220000,3.794219970703125,-0.0272674560546875,0.6839599609375,0.254302978515625
1772806413860151000,3.804151123046875,0.0049896240234375,0.5628509521484375,0.1396636962890625
1772806413870083000,3.8140830078125,0.0117950439453125,0.566986083984375,0.07659912109375
1772806413880013800,3.824013916015625,0.0216217041015625,0.6472320556640625,0.0289306640625
1772806413889945000,3.833945068359375,0.0394287109375,0.8184356689453125,-0.007080078125
1772806413899877000,3.843877197265625,0.0778961181640625,1.061676025390625,-0.042816162109375
1772806413909808000,3.85380810546875,0.125518798828125,1.25091552734375,-0.011749267578125
1772806413919740000,3.863739990234375,0.1296234130859375,1.31146240234375,0.04425048828125
1772806413929671200,3.873671142578125,0.0916900634765625,1.2123260498046875,0.1107177734375
1772806413939603200,3.883603271484375,0.0186920166015625,0.9859771728515625,0.2277374267578125
1772806413949534000,3.893533935546875,-0.0941619873046875,0.765350341796875,0.363433837890625
1772806413959466000,3.903466064453125,-0.12255859375,0.648193359375,0.44256591796875
1772806413969397000,3.91339697265625,-0.1716461181640625,0.648956298828125,0.4373016357421875
1772806413979329000,3.9233291015625,-0.2039337158203125,0.7988739013671875,0.3668670654296875
1772806413989260000,3.933260009765625,-0.1903839111328125,0.97247314453125,0.2868499755859375
1772806413999192000,3.943192138671875,-0.1859283447265625,1.07769775390625,0.2051849365234375
1772806414009123000,3.953123046875,-0.1647186279296875,1.1272430419921875,0.122833251953125
1772806414019055000,3.96305517578125,-0.140869140625,1.1326751708984375,0.041778564453125
1772806414028985900,3.97298583984375,-0.125091552734375,1.112152099609375,0.0055694580078125
1772806414038918100,3.982918212890625,-0.1415863037109375,1.0417327880859375,-0.01007080078125
1772806414048848100,3.99284814453125,-0.1324462890625,0.9595947265625,-0.0329132080078125
1772806414058779000,4.00277880859375,-0.0945587158203125,0.8870391845703125,-0.0309906005859375
1772806414068711200,4.012711181640625,-0.10247802734375,0.837799072265625,-0.00238037109375
1772806414078642200,4.02264208984375,-0.1251678466796875,0.8241119384765625,0.0250396728515625
1772806414088573000,4.032572998046875,-0.146514892578125,0.8206024169921875,0.043426513671875
1772806414098505000,4.0425048828125,-0.1710968017578125,0.856292724609375,0.069122314453125
1772806414108436200,4.052436279296875,-0.1756134033203125,0.908050537109375,0.0756072998046875
1772806414118368300,4.0623681640625,-0.1580963134765625,0.928802490234375,0.0829315185546875
1772806414128299000,4.072299072265625,-0.142822265625,0.9281768798828125,0.099761962890625
1772806414138231000,4.08223095703125,-0.141998291015625,0.9162445068359375,0.109893798828125
1772806414148162000,4.092162109375,-0.1380615234375,0.8906402587890625,0.0805511474609375
1772806414158093800,4.10209375,-0.122528076171875,0.8924407958984375,0.03302001953125
1772806414168025000,4.112025146484375,-0.1102752685546875,0.9105377197265625,-0.0003662109375
1772806414177957000,4.12195703125,-0.1035003662109375,0.9136505126953125,0.0041961669921875
1772806414187888000,4.13188818359375,-0.11114501953125,0.95098876953125,0.02362060546875
1772806414197820000,4.14181982421875,-0.073028564453125,0.974853515625,0.03759765625
1772806414207751200,4.151751220703125,-0.0676727294921875,0.9765167236328125,0.0576324462890625
1772806414217683200,4.16168310546875,-0.0941162109375,0.9507904052734375,0.063446044921875
1772806414227614200,4.1716142578125,-0.1001739501953125,0.9488983154296875,0.043975830078125
1772806414237545200,4.181545166015625,-0.1202850341796875,0.945068359375,0.036285400390625
1772806414247477200,4.191477294921875,-0.1521759033203125,0.9449005126953125,0.0410003662109375
1772806414257408300,4.201408203125,-0.1676483154296875,0.9556427001953125,0.050079345703125
1772806414267340300,4.21134033203125,-0.170166015625,0.9588775634765625,0.0409393310546875
1772806414277271300,4.221271240234375,-0.165283203125,0.95513916015625,0.0487060546875
1772806414287203300,4.231203369140625,-0.1625823974609375,0.965911865234375,0.07073974609375
1772806414297134000,4.241134033203125,-0.13720703125,0.976654052734375,0.0717010498046875
1772806414307066000,4.251066162109375,-0.0777130126953125,0.97467041015625,0.0438995361328125
1772806414316997400,4.260997314453125,-0.0464324951171875,0.9693603515625,0.03912353515625
1772806414326929400,4.270929443359375,-0.04156494140625,0.9794921875,0.061553955078125
1772806414336860200,4.280860107421875,-0.0478973388671875,1.0210723876953125,0.07928466796875
1772806414346792200,4.290792236328125,-0.0761260986328125,1.075225830078125,0.0803375244140625
1772806414356723200,4.30072314453125,-0.103515625,1.12005615234375,0.077606201171875
1772806414366655200,4.3106552734375,-0.118072509765625,1.1251220703125,0.0839691162109375
1772806414376586200,4.320586181640625,-0.1349639892578125,1.105072021484375,0.068359375
1772806414386517200,4.330517333984375,-0.135467529296875,1.0679931640625,0.04486083984375
1772806414396449300,4.34044921875,-0.127105712890625,1.0170135498046875,0.04888916015625
1772806414406380300,4.35038037109375,-0.1289825439453125,1.00164794921875,0.067352294921875
1772806414416312300,4.360312255859375,-0.131744384765625,1.0281219482421875,0.0713958740234375
1772806414426245000,4.3702451171875,-0.1132659912109375,1.073822021484375,0.052215576171875
1772806414436176400,4.38017626953125,-0.1227264404296875,1.1443328857421875,0.0423431396484375
1772806414446108400,4.3901083984375,-0.1444549560546875,1.216766357421875,0.026092529296875
1772806414456039200,4.4000390625,-0.160980224609375,1.2386932373046875,0.0325164794921875
1772806414465971200,4.40997119140625,-0.2315826416015625,1.2399444580078125,0.075592041015625
1772806414475902200,4.419902099609375,-0.2738189697265625,1.241943359375,0.1261444091796875
1772806414485833200,4.429833251953125,-0.2572021484375,1.1927337646484375,0.1547698974609375
1772806414495765200,4.43976513671875,-0.255401611328125,1.11810302734375,0.152862548828125
1772806414505696300,4.4496962890625,-0.226898193359375,1.0712127685546875,0.128265380859375
1772806414515628300,4.459628173828125,-0.1958160400390625,1.0411224365234375,0.1351776123046875
1772806414525559300,4.469559326171875,-0.209991455078125,1.037200927734375,0.1187744140625
1772806414535491300,4.4794912109375,-0.2351837158203125,1.0548858642578125,0.110015869140625
1772806414545422300,4.48942236328125,-0.3017425537109375,1.08837890625,0.101226806640625
1772806414555354400,4.499354248046875,-0.31890869140625,1.14434814453125,0.069122314453125
1772806414565285000,4.50928515625,-0.29693603515625,1.1381988525390625,0.0675811767578125
1772806414575217200,4.519217041015625,-0.293304443359375,1.090728759765625,0.096405029296875
1772806414585148400,4.5291484375,-0.281036376953125,1.0200958251953125,0.1022796630859375
1772806414595080200,4.539080078125,-0.268341064453125,0.9350128173828125,0.080322265625
1772806414605011200,4.54901123046875,-0.2626800537109375,0.87176513671875,0.0430908203125
1772806414614943200,4.558943115234375,-0.2823028564453125,0.8513336181640625,0.0296173095703125
1772806414624874200,4.568874267578125,-0.28326416015625,0.8913116455078125,0.0916748046875
1772806414634805200,4.57880517578125,-0.2848968505859375,0.96295166015625,0.1176910400390625
1772806414644737300,4.5887373046875,-0.28668212890625,1.02459716796875,0.12896728515625
1772806414654668300,4.598668212890625,-0.290283203125,1.0413665771484375,0.1388092041015625
1772806414664600000,4.60860009765625,-0.296844482421875,0.998016357421875,0.149169921875
1772806414674531300,4.61853125,-0.305908203125,0.9345550537109375,0.167205810546875
1772806414684463400,4.62846337890625,-0.314422607421875,0.873870849609375,0.1791534423828125
1772806414694394400,4.638394287109375,-0.3241424560546875,0.8119354248046875,0.1920928955078125
1772806414704326100,4.648326171875,-0.3290557861328125,0.789154052734375,0.2112274169921875
1772806414714257200,4.658257080078125,-0.3249664306640625,0.8047943115234375,0.203155517578125
1772806414724189200,4.668189208984375,-0.3183746337890625,0.8205108642578125,0.1930999755859375
1772806414734120200,4.6781201171875,-0.308197021484375,0.827484130859375,0.181396484375
1772806414744052200,4.68805224609375,-0.3052215576171875,0.81146240234375,0.1673431396484375
1772806414753983200,4.697983154296875,-0.301727294921875,0.78082275390625,0.15948486328125
1772806414763915300,4.707915283203125,-0.27825927734375,0.7532196044921875,0.142608642578125
1772806414773846300,4.71784619140625,-0.26171875,0.72650146484375,0.1163787841796875
1772806414783777300,4.72777734375,-0.251861572265625,0.698150634765625,0.10943603515625
1772806414793709300,4.737709228515625,-0.2757415771484375,0.6973419189453125,0.1112823486328125
1772806414803640300,4.747640380859375,-0.3123931884765625,0.7265625,0.1095733642578125
1772806414813572000,4.757572021484375,-0.3311767578125,0.7576751708984375,0.1085968017578125
1772806414823503400,4.76750341796875,-0.340911865234375,0.775238037109375,0.1045074462890625
1772806414833435400,4.777435302734375,-0.3383941650390625,0.7808074951171875,0.091217041015625
1772806414843366100,4.7873662109375,-0.3358306884765625,0.78326416015625,0.078521728515625
1772806414853298200,4.797298095703125,-0.3411102294921875,0.78631591796875,0.0721588134765625
1772806414863229200,4.807229248046875,-0.346282958984375,0.7873992919921875,0.0711822509765625
1772806414873161200,4.8171611328125,-0.354522705078125,0.7878875732421875,0.078887939453125
1772806414883092200,4.82709228515625,-0.356048583984375,0.7823486328125,0.0776519775390625
1772806414893024300,4.837024169921875,-0.3553924560546875,0.791168212890625,0.0683746337890625
1772806414902955300,4.846955322265625,-0.3574676513671875,0.8187103271484375,0.0582275390625
1772806414912887300,4.85688720703125,-0.357269287109375,0.8383331298828125,0.0442962646484375
1772806414922818300,4.866818359375,-0.3499298095703125,0.840301513671875,0.035430908203125
1772806414932749300,4.876749267578125,-0.346099853515625,0.8352203369140625,0.0320587158203125
1772806414942681300,4.886681396484375,-0.345947265625,0.8452606201171875,0.0319061279296875
1772806414952612000,4.896612060546875,-0.3519439697265625,0.8420562744140625,0.0262603759765625
1772806414962544000,4.906544189453125,-0.3663177490234375,0.8232574462890625,0.0446014404296875
1772806414972475400,4.916475341796875,-0.3892364501953125,0.8365631103515625,0.059783935546875
1772806414982407400,4.926407470703125,-0.421173095703125,0.874176025390625,0.0462188720703125
1772806414992338200,4.936338134765625,-0.441192626953125,0.9173583984375,0.0281219482421875
1772806415002270200,4.946270263671875,-0.439361572265625,0.9598541259765625,-0.000274658203125
1772806415012201200,4.956201171875,-0.4278106689453125,0.991729736328125,-0.037139892578125
1772806415022133200,4.96613330078125,-0.40032958984375,1.0214080810546875,-0.0537261962890625
1772806415032064300,4.976064208984375,-0.377105712890625,1.050628662109375,-0.0606689453125
1772806415041996300,4.985996337890625,-0.3798828125,1.076995849609375,-0.04058837890625
1772806415051927300,4.99592724609375,-0.396484375,1.0821075439453125,-0.000244140625
1772806415061859000,5.005859130859375,-0.40875244140625,1.0868072509765625,0.0204925537109375
1772806415071790300,5.015790283203125,-0.4149017333984375,1.076385498046875,0.0244140625
1772806415081721300,5.025721435546875,-0.424041748046875,1.0567626953125,0.017303466796875
1772806415091653400,5.0356533203125,-0.4451904296875,1.03387451171875,0.017822265625
1772806415101584100,5.045584228515625,-0.4683837890625,1.014678955078125,0.0319976806640625
1772806415111516200,5.05551611328125,-0.4837188720703125,1.023895263671875,0.0496368408203125
1772806415121447400,5.065447509765625,-0.4846038818359375,1.0408782958984375,0.06085205078125
1772806415131379500,5.07537939453125,-0.4702911376953125,1.0524749755859375,0.0812225341796875
1772806415141310200,5.085310302734375,-0.4472503662109375,1.073944091796875,0.1046142578125
1772806415151242200,5.0952421875,-0.43939208984375,1.090667724609375,0.1339111328125
1772806415161173200,5.10517333984375,-0.4437255859375,1.062713623046875,0.1560821533203125
1772806415171105000,5.11510498046875,-0.4454803466796875,1.0221099853515625,0.1727294921875
1772806415181036300,5.125036376953125,-0.4322357177734375,1.022918701171875,0.1620635986328125
1772806415190968300,5.13496826171875,-0.407867431640625,1.0301361083984375,0.1283111572265625
1772806415200899300,5.1448994140625,-0.4013824462890625,1.0405426025390625,0.09454345703125
1772806415210830800,5.154830810546875,-0.467987060546875,1.0651092529296875,0.0533447265625
1772806415220761900,5.164761962890625,-0.548187255859375,1.044525146484375,0.0036163330078125
1772806415230694000,5.17469384765625,-0.54071044921875,0.9500732421875,-0.0113525390625
1772806415240625000,5.184625,-0.4420623779296875,0.840484619140625,0.0636138916015625
1772806415250556000,5.194555908203125,-0.3838653564453125,0.7616424560546875,0.18157958984375
1772806415260487700,5.20448779296875,-0.300811767578125,0.768402099609375,0.2543487548828125
1772806415270419000,5.2144189453125,-0.2501220703125,0.860107421875,0.238494873046875
1772806415280351000,5.22435107421875,-0.2076416015625,0.9734649658203125,0.1711273193359375
1772806415290281700,5.23428173828125,-0.129425048828125,1.0598602294921875,0.1143951416015625
1772806415300213800,5.2442138671875,-0.0287017822265625,1.0583038330078125,0.0730743408203125
1772806415310145000,5.25414501953125,0.0218048095703125,0.9716949462890625,0.0619354248046875
1772806415320077000,5.2640771484375,0.00164794921875,0.90325927734375,0.091400146484375
1772806415330007800,5.2740078125,-0.0410308837890625,0.8961944580078125,0.13427734375
1772806415339939800,5.28393994140625,-0.0726318359375,0.9360504150390625,0.1513824462890625
1772806415349870800,5.293870849609375,-0.0808563232421875,0.9554290771484375,0.16046142578125
1772806415359803000,5.303802978515625,-0.0973968505859375,0.9451141357421875,0.19085693359375
1772806415369734000,5.31373388671875,-0.145294189453125,0.9300384521484375,0.2604827880859375
1772806415379666000,5.323666015625,-0.160675048828125,0.914947509765625,0.2751007080078125
1772806415389597000,5.333596923828125,-0.1953125,0.9045562744140625,0.2654266357421875
1772806415399527700,5.343527587890625,-0.1739959716796875,0.9002227783203125,0.225250244140625
1772806415409459700,5.353459716796875,-0.123321533203125,0.920562744140625,0.139617919921875
1772806415419391000,5.363390869140625,-0.0666961669921875,0.9712066650390625,0.052581787109375
1772806415429323000,5.373322998046875,-0.0483551025390625,1.03466796875,-0.0040740966796875
1772806415439253800,5.383253662109375,-0.0546722412109375,1.0841217041015625,-0.0612030029296875
1772806415449185800,5.393185791015625,-0.0614471435546875,1.0967559814453125,-0.1068572998046875
1772806415459117000,5.403116943359375,-0.066070556640625,1.06365966796875,-0.1395111083984375
1772806415469049000,5.413049072265625,-0.0750579833984375,1.028472900390625,-0.1285858154296875
1772806415478979800,5.422979736328125,-0.09332275390625,0.9852294921875,-0.1117706298828125
1772806415488912000,5.432911865234375,-0.10546875,0.9461517333984375,-0.0617828369140625
1772806415498843000,5.4428427734375,-0.115692138671875,0.9173736572265625,-0.013519287109375
1772806415508774700,5.452774658203125,-0.1240234375,0.9142913818359375,0.0434417724609375
1772806415518706000,5.462705810546875,-0.134368896484375,0.9201812744140625,0.0820159912109375
1772806415528638000,5.472637939453125,-0.12152099609375,0.9167633056640625,0.0895233154296875
1772806415538569000,5.48256884765625,-0.092132568359375,0.904266357421875,0.082489013671875
1772806415548499700,5.492499755859375,-0.0734710693359375,0.902069091796875,0.068939208984375
1772806415558431700,5.502431640625,-0.0729217529296875,0.9153289794921875,0.0529937744140625
1772806415568363000,5.512363037109375,-0.0783843994140625,0.916229248046875,0.0597381591796875
1772806415578295000,5.522294921875,-0.086151123046875,0.90875244140625,0.05645751953125
1772806415588225800,5.532225830078125,-0.094024658203125,0.9173736572265625,0.0589447021484375
1772806415598157800,5.54215771484375,-0.1004791259765625,0.9249114990234375,0.0718536376953125
1772806415608089000,5.552089111328125,-0.1002655029296875,0.928558349609375,0.08392333984375
1772806415618020900,5.562020751953125,-0.1029205322265625,0.9270172119140625,0.0802154541015625
1772806415627951900,5.571951904296875,-0.1099395751953125,0.923492431640625,0.0836944580078125
1772806415637884000,5.5818837890625,-0.0999908447265625,0.9290771484375,0.06561279296875
1772806415647815000,5.59181494140625,-0.09210205078125,0.943511962890625,0.050872802734375
1772806415657746700,5.60174658203125,-0.0810089111328125,0.9638671875,0.0355682373046875
1772806415667678000,5.611677978515625,-0.0819244384765625,0.9843292236328125,0.03533935546875
1772806415677610000,5.62160986328125,-0.093048095703125,1.003326416015625,0.0313262939453125
1772806415687540700,5.631540771484375,-0.115264892578125,0.9965972900390625,0.0194854736328125
1772806415697471700,5.6414716796875,-0.1282501220703125,0.97576904296875,0.0153350830078125
1772806415707403800,5.65140380859375,-0.1361083984375,0.9711456298828125,0.014251708984375
1772806415717335000,5.6613349609375,-0.1493682861328125,0.983489990234375,0.0133056640625
1772806415727266800,5.671266845703125,-0.1475067138671875,1.004180908203125,0.013824462890625
1772806415737197800,5.68119775390625,-0.107757568359375,1.027435302734375,0.0199737548828125
1772806415747129900,5.6911298828125,-0.046356201171875,1.0286712646484375,0.017669677734375
1772806415757060900,5.701060791015625,0.0155181884765625,1.0093231201171875,0.0129547119140625
1772806415766993000,5.710992919921875,0.066619873046875,0.9967193603515625,0.0120849609375
1772806415776924000,5.720923828125,0.096282958984375,1.0035858154296875,0.0062408447265625
1772806415786856000,5.73085595703125,0.107025146484375,1.01409912109375,0.0148468017578125
1772806415796786700,5.74078662109375,0.0864410400390625,1.0230560302734375,0.0228424072265625
1772806415806718700,5.75071875,0.0380401611328125,1.021392822265625,0.0428009033203125
1772806415816650000,5.76064990234375,-0.032318115234375,1.03265380859375,0.077545166015625
1772806415826582000,5.77058203125,-0.1025238037109375,1.0855712890625,0.080169677734375
1772806415836512800,5.7805126953125,-0.1370697021484375,1.1559295654296875,0.0470123291015625
1772806415846444800,5.79044482421875,-0.1348114013671875,1.225341796875,0.0363922119140625
1772806415856375800,5.800375732421875,-0.1435699462890625,1.26483154296875,0.052642822265625
1772806415866306800,5.810306884765625,-0.13812255859375,1.228363037109375,0.0576019287109375
1772806415876238800,5.82023876953125,-0.086761474609375,1.13720703125,0.0764007568359375
1772806415886169900,5.830169921875,-0.0203857421875,1.094635009765625,0.1349639892578125
1772806415896102000,5.840101806640625,0.0130462646484375,1.095062255859375,0.16973876953125
1772806415906033000,5.850032958984375,0.027923583984375,1.1266326904296875,0.1976318359375
1772806415915965000,5.85996484375,0.0255889892578125,1.1652069091796875,0.2223663330078125
1772806415925896000,5.86989599609375,-0.026824951171875,1.2145538330078125,0.235626220703125
1772806415935828000,5.879827880859375,-0.1115875244140625,1.2410430908203125,0.2179107666015625
1772806415945758700,5.8897587890625,-0.2246246337890625,1.1946258544921875,0.197998046875
1772806415955690800,5.899690673828125,-0.3318023681640625,1.109375,0.2028045654296875
1772806415965622000,5.9096220703125,-0.437286376953125,1.0141143798828125,0.24432373046875
1772806415975554000,5.919553955078125,-0.5062255859375,0.99261474609375,0.2303924560546875
1772806415985484800,5.92948486328125,-0.470947265625,1.0814361572265625,0.180084228515625
1772806415995416800,5.939416748046875,-0.4113006591796875,1.1355743408203125,0.157562255859375
1772806416005347800,5.949347900390625,-0.287017822265625,1.1147613525390625,0.13677978515625
1772806416015278800,5.95927880859375,-0.236053466796875,1.044891357421875,0.0905914306640625
1772806416025211000,5.9692109375,-0.2205810546875,0.967132568359375,0.0796356201171875
1772806416035142000,5.979141845703125,-0.2016143798828125,0.902069091796875,0.086151123046875
1772806416045074000,5.989073974609375,-0.1874542236328125,0.884002685546875,0.1197967529296875
1772806416055005000,5.9990048828125,-0.1756591796875,0.9139862060546875,0.1606903076171875
1772806416064937000,6.00893701171875,-0.1671142578125,0.9666290283203125,0.1900177001953125
1772806416074868000,6.018867919921875,-0.1664886474609375,1.0191497802734375,0.2157135009765625
1772806416084799700,6.0287998046875,-0.1994171142578125,1.02716064453125,0.2257843017578125
1772806416094730800,6.038730712890625,-0.2523345947265625,0.993896484375,0.2303009033203125
1772806416104662800,6.048662841796875,-0.28887939453125,0.945831298828125,0.2464141845703125
1772806416114594000,6.058593994140625,-0.3047332763671875,0.8896636962890625,0.2618865966796875
1772806416124525800,6.06852587890625,-0.2960052490234375,0.82373046875,0.2886505126953125
1772806416134456800,6.078456787109375,-0.2906646728515625,0.7784271240234375,0.2974395751953125
1772806416144388900,6.088388916015625,-0.2730560302734375,0.7510833740234375,0.2867584228515625
1772806416154320000,6.09831982421875,-0.2564849853515625,0.72576904296875,0.2593536376953125
1772806416164251000,6.1082509765625,-0.2364959716796875,0.7001953125,0.2208404541015625
1772806416174183000,6.118182861328125,-0.227020263671875,0.6803436279296875,0.1819000244140625
1772806416184114000,6.128114013671875,-0.2264862060546875,0.6776275634765625,0.156097412109375
1772806416194045700,6.138045654296875,-0.2350006103515625,0.6789703369140625,0.131439208984375
1772806416203977000,6.14797705078125,-0.2369842529296875,0.688140869140625,0.09716796875
1772806416213909000,6.157908935546875,-0.2430572509765625,0.713592529296875,0.090118408203125
1772806416223839700,6.16783984375,-0.2630462646484375,0.7308349609375,0.0947418212890625
1772806416233771800,6.177771728515625,-0.2796173095703125,0.732147216796875,0.0915985107421875
1772806416243702800,6.187702880859375,-0.2987823486328125,0.7283477783203125,0.10675048828125
1772806416253634800,6.197634765625,-0.3111419677734375,0.7300567626953125,0.12542724609375
1772806416263565800,6.20756591796875,-0.3043365478515625,0.7434234619140625,0.1300506591796875
1772806416273497900,6.217497802734375,-0.30621337890625,0.764678955078125,0.119903564453125
1772806416283428900,6.227428955078125,-0.3100128173828125,0.7890625,0.108489990234375
1772806416293361000,6.23736083984375,-0.315155029296875,0.8075714111328125,0.1005096435546875
1772806416303292000,6.2472919921875,-0.3306427001953125,0.8094024658203125,0.0974273681640625
1772806416313223000,6.257222900390625,-0.3524017333984375,0.7933502197265625,0.1027374267578125
1772806416323155000,6.267155029296875,-0.367523193359375,0.771453857421875,0.1094970703125
1772806416333085700,6.277085693359375,-0.3794097900390625,0.76971435546875,0.1109619140625
1772806416343017700,6.287017822265625,-0.395294189453125,0.7913970947265625,0.1016082763671875
1772806416352949000,6.296948974609375,-0.4097747802734375,0.8140869140625,0.07281494140625
1772806416362881000,6.306881103515625,-0.4300994873046875,0.8231964111328125,0.0527801513671875
1772806416372811800,6.316811767578125,-0.42364501953125,0.8422698974609375,0.02630615234375
1772806416382743800,6.326743896484375,-0.4120025634765625,0.8755950927734375,-0.005523681640625
1772806416392674800,6.3366748046875,-0.3916778564453125,0.918914794921875,-0.027557373046875
1772806416402606800,6.34660693359375,-0.3790130615234375,0.9493408203125,-0.0380706787109375
1772806416412537900,6.356537841796875,-0.3926544189453125,0.9759063720703125,-0.0369873046875
1772806416422470000,6.366469970703125,-0.4053955078125,1.00927734375,-0.03125
1772806416432401000,6.37640087890625,-0.4129638671875,1.04205322265625,-0.034454345703125
1772806416442333000,6.3863330078125,-0.43536376953125,1.103271484375,-0.0394744873046875
1772806416452264000,6.396263916015625,-0.4634552001953125,1.14715576171875,-0.0499420166015625
1772806416462196000,6.406196044921875,-0.493316650390625,1.152374267578125,-0.059417724609375
1772806416472127000,6.416126953125,-0.5264129638671875,1.135986328125,-0.0764923095703125
1772806416482057700,6.4260576171875,-0.54833984375,1.10577392578125,-0.086456298828125
1772806416491989800,6.43598974609375,-0.5204925537109375,1.049713134765625,-0.0850372314453125
1772806416501921000,6.445921142578125,-0.4658660888671875,0.974151611328125,-0.089630126953125
1772806416511853000,6.45585302734375,-0.4421234130859375,0.9176483154296875,-0.09576416015625
1772806416521783800,6.46578369140625,-0.4846038818359375,0.90362548828125,-0.095489501953125
1772806416531715800,6.4757158203125,-0.5655517578125,0.9323577880859375,-0.1103515625
1772806416541646800,6.485646728515625,-0.6424713134765625,0.9857177734375,-0.09716796875
1772806416551579000,6.495578857421875,-0.687347412109375,1.05560302734375,-0.0386962890625
1772806416561510000,6.505510009765625,-0.6684722900390625,1.099212646484375,0.0289154052734375
1772806416571442000,6.51544189453125,-0.5843658447265625,1.109466552734375,0.077117919921875
1772806416581373000,6.525373046875,-0.43829345703125,1.1320037841796875,0.1203765869140625
1772806416591304700,6.5353046875,-0.305877685546875,1.176422119140625,0.145172119140625
1772806416601236000,6.545236083984375,-0.2192230224609375,1.26715087890625,0.1672210693359375
1772806416611167000,6.5551669921875,-0.248565673828125,1.3619537353515625,0.132720947265625
1772806416621098800,6.5650986328125,-0.2779388427734375,1.358306884765625,0.066619873046875
1772806416631029800,6.57502978515625,-0.2318115234375,1.1898040771484375,0.0780792236328125
1772806416640961800,6.5849619140625,-0.2904205322265625,0.856475830078125,0.2102508544921875
1772806416650893000,6.59489306640625,-0.27276611328125,0.5425262451171875,0.2841644287109375
1772806416660824800,6.604824951171875,-0.0685272216796875,0.4485931396484375,0.1451568603515625
1772806416670755800,6.614755859375,0.0454559326171875,0.58074951171875,0.03363037109375
1772806416680687900,6.62468798828125,0.0904388427734375,0.8070831298828125,0.0244598388671875
1772806416690619000,6.634618896484375,0.1493377685546875,1.08233642578125,0.0717926025390625
1772806416700551000,6.644551025390625,0.15167236328125,1.265472412109375,0.16876220703125
1772806416710482000,6.65448193359375,0.0752105712890625,1.2755126953125,0.260650634765625
1772806416720414000,6.6644140625,-0.02484130859375,1.1773529052734375,0.305908203125
1772806416730344700,6.6743447265625,-0.1092376708984375,1.0352935791015625,0.322235107421875
1772806416740276700,6.68427685546875,-0.152313232421875,0.9240875244140625,0.312286376953125
1772806416750208000,6.6942080078125,-0.1719818115234375,0.8549652099609375,0.297210693359375
1772806416760140000,6.70414013671875,-0.17022705078125,0.82965087890625,0.287353515625
1772806416770070800,6.71407080078125,-0.15618896484375,0.8490142822265625,0.23992919921875
1772806416780001800,6.724001708984375,-0.13226318359375,0.92547607421875,0.152252197265625
1772806416789933800,6.733933837890625,-0.07989501953125,1.0259857177734375,0.046600341796875
1772806416799864800,6.74386474609375,-0.073394775390625,1.1042633056640625,-0.0594024658203125
1772806416809796900,6.753796875,-0.075286865234375,1.129180908203125,-0.1524810791015625
1772806416819728000,6.763727783203125,-0.079315185546875,1.0941009521484375,-0.19390869140625
1772806416829660000,6.773659912109375,-0.059234619140625,1.022979736328125,-0.1942596435546875
1772806416839591000,6.7835908203125,-0.03350830078125,0.9532470703125,-0.15789794921875
1772806416849523000,6.79352294921875,-0.041534423828125,0.89495849609375,-0.1221771240234375
1772806416859454000,6.803453857421875,-0.0740203857421875,0.8422088623046875,-0.0732879638671875
1772806416869386000,6.813385986328125,-0.1139373779296875,0.8109130859375,0.0059051513671875
1772806416879316700,6.823316650390625,-0.148223876953125,0.80950927734375,0.092071533203125
1772806416889248800,6.833248779296875,-0.1512451171875,0.8193817138671875,0.0909423828125
1772806416899180000,6.843179931640625,-0.1272125244140625,0.856475830078125,0.076751708984375
1772806416909112000,6.853112060546875,-0.1303558349609375,0.898468017578125,0.06207275390625
1772806416919042800,6.863042724609375,-0.144317626953125,0.9282684326171875,0.0428314208984375
1772806416928973800,6.872973876953125,-0.139190673828125,0.9278106689453125,0.04681396484375
1772806416938905900,6.88290576171875,-0.1324310302734375,0.941986083984375,0.027313232421875
1772806416948836900,6.8928369140625,-0.1173553466796875,0.9426116943359375,0.02294921875
1772806416958769000,6.902768798828125,-0.1112823486328125,0.94573974609375,0.0066375732421875
1772806416968700000,6.912699951171875,-0.1004638671875,0.9421844482421875,-0.0113677978515625
1772806416978632000,6.9226318359375,-0.0941314697265625,0.9310760498046875,0.0008697509765625
1772806416988563000,6.93256298828125,-0.0948486328125,0.923492431640625,0.017913818359375
1772806416998495000,6.942494873046875,-0.1142120361328125,0.9260101318359375,0.0274505615234375
1772806417008426000,6.952426025390625,-0.125030517578125,0.9289093017578125,0.017181396484375
1772806417018358000,6.96235791015625,-0.1174163818359375,0.9368743896484375,-0.009033203125
1772806417028288800,6.972288818359375,-0.099822998046875,0.9473419189453125,-0.0428466796875
1772806417038220800,6.982220703125,-0.10955810546875,0.958465576171875,-0.063140869140625
1772806417048152000,6.992152099609375,-0.138641357421875,0.976409912109375,-0.0697021484375
1772806417058083800,7.002083740234375,-0.1548919677734375,0.99957275390625,-0.0592498779296875
1772806417068014800,7.012014892578125,-0.121673583984375,1.0244140625,-0.037200927734375
1772806417077945900,7.02194580078125,-0.074371337890625,1.0428009033203125,-0.000762939453125
1772806417087878000,7.0318779296875,-0.024871826171875,1.0400238037109375,0.0184326171875
1772806417097809000,7.041808837890625,0.03900146484375,1.0187225341796875,0.023468017578125
1772806417107741000,7.051740966796875,0.0985260009765625,1.0032196044921875,0.027008056640625
1772806417117672000,7.061671875,0.1409759521484375,1.004302978515625,0.0371856689453125
1772806417127603700,7.071603759765625,0.1439361572265625,0.9991302490234375,0.05224609375
1772806417137535000,7.081534912109375,0.1085205078125,0.99261474609375,0.0618438720703125
1772806417147467000,7.091467041015625,0.049041748046875,1.020660400390625,0.116668701171875
1772806417157398000,7.10139794921875,0.0181427001953125,1.0943603515625,0.157196044921875
1772806417167329800,7.111329833984375,0.0201568603515625,1.1693267822265625,0.1478729248046875
1772806417177260800,7.1212607421875,0.008392333984375,1.2175140380859375,0.1114349365234375
1772806417187192800,7.13119287109375,0.003662109375,1.2601165771484375,0.0789947509765625
1772806417197123800,7.141123779296875,0.0078277587890625,1.292266845703125,0.0563812255859375
1772806417207056600,7.151056640625,0.0223236083984375,1.280303955078125,0.0376739501953125
1772806417216987400,7.1609873046875,0.0459442138671875,1.25677490234375,0.0646209716796875
1772806417226918400,7.17091845703125,0.0500946044921875,1.234344482421875,0.09552001953125
1772806417236850400,7.180850341796875,0.030181884765625,1.1919097900390625,0.1315460205078125
1772806417246781400,7.190781494140625,-0.0231170654296875,1.13690185546875,0.1790771484375
1772806417256713500,7.20071337890625,-0.0898895263671875,1.083099365234375,0.20587158203125
1772806417266644500,7.21064453125,-0.15325927734375,1.0345458984375,0.2147064208984375
1772806417276576500,7.220576416015625,-0.2094573974609375,1.0110015869140625,0.2174835205078125
1772806417286507300,7.23050732421875,-0.2585906982421875,1.024505615234375,0.2304229736328125
1772806417296439300,7.240439208984375,-0.2766571044921875,1.076385498046875,0.2281341552734375
1772806417306370600,7.25037060546875,-0.28619384765625,1.1317138671875,0.1720123291015625
1772806417316302300,7.26030224609375,-0.2767791748046875,1.1768341064453125,0.05218505859375
1772806417326233300,7.2702333984375,-0.2407073974609375,1.1905059814453125,-0.0332183837890625
1772806417336165400,7.280165283203125,-0.1753997802734375,1.1874237060546875,-0.0753631591796875
1772806417346096600,7.2900966796875,-0.085479736328125,1.1507720947265625,-0.0795440673828125
1772806417356028400,7.3000283203125,-0.02325439453125,1.0485076904296875,-0.0235595703125
1772806417365959400,7.30995947265625,-0.024169921875,0.857666015625,0.116241455078125
1772806417375891500,7.319891357421875,-0.08905029296875,0.88153076171875,0.25079345703125
1772806417385822200,7.329822265625,-0.1031646728515625,0.9317169189453125,0.325042724609375
1772806417395753500,7.33975341796875,-0.14886474609375,0.949371337890625,0.359527587890625
1772806417405685500,7.349685546875,-0.2134552001953125,0.96661376953125,0.293121337890625
1772806417415616500,7.359616455078125,-0.265594482421875,0.913665771484375,0.149200439453125
1772806417425548300,7.36954833984375,-0.307159423828125,0.8551788330078125,0.1521759033203125
1772806417435479300,7.379479248046875,-0.3083953857421875,0.832855224609375,0.1512603759765625
1772806417445411300,7.389411376953125,-0.288421630859375,0.8147735595703125,0.1571197509765625
1772806417455342600,7.399342529296875,-0.2569122314453125,0.81683349609375,0.1669158935546875
1772806417465274400,7.4092744140625,-0.2214508056640625,0.80712890625,0.1576995849609375
1772806417475205400,7.419205322265625,-0.2021026611328125,0.77783203125,0.14697265625
1772806417485137400,7.429137451171875,-0.1914825439453125,0.755828857421875,0.13037109375
1772806417495068400,7.439068359375,-0.1868438720703125,0.7385101318359375,0.1224365234375
1772806417505000400,7.44900048828125,-0.1923980712890625,0.73321533203125,0.124786376953125
1772806417514931500,7.458931396484375,-0.197418212890625,0.742919921875,0.1348876953125
1772806417524863500,7.468863525390625,-0.205902099609375,0.7564239501953125,0.1389312744140625
1772806417534794200,7.478794189453125,-0.2184906005859375,0.77374267578125,0.1484222412109375
1772806417544726300,7.488726318359375,-0.2364349365234375,0.782745361328125,0.15069580078125
1772806417554657500,7.498657470703125,-0.265838623046875,0.7937469482421875,0.16143798828125
1772806417564588300,7.50858837890625,-0.3029327392578125,0.783233642578125,0.17041015625
1772806417574520300,7.518520263671875,-0.325103759765625,0.780029296875,0.1595001220703125
1772806417584451300,7.528451416015625,-0.3338623046875,0.783355712890625,0.1527557373046875
1772806417594383400,7.53838330078125,-0.3426361083984375,0.79425048828125,0.15252685546875
1772806417604314400,7.548314453125,-0.34637451171875,0.807647705078125,0.1444549560546875
1772806417614246400,7.558246337890625,-0.3380889892578125,0.8243865966796875,0.144927978515625
1772806417624177400,7.568177490234375,-0.323455810546875,0.8288116455078125,0.1603546142578125
1772806417634109400,7.578109375,-0.3289337158203125,0.8268280029296875,0.1673736572265625
1772806417644040400,7.58804052734375,-0.3455657958984375,0.840850830078125,0.1564178466796875
1772806417653972500,7.597972412109375,-0.358154296875,0.846832275390625,0.1348876953125
1772806417663903500,7.607903564453125,-0.35662841796875,0.8569488525390625,0.0978546142578125
1772806417673835500,7.61783544921875,-0.35760498046875,0.879302978515625,0.068145751953125
1772806417683766300,7.627766357421875,-0.3463134765625,0.91400146484375,0.0660858154296875
1772806417693698300,7.6376982421875,-0.347930908203125,0.9495697021484375,0.072723388671875
1772806417703629600,7.647629638671875,-0.36773681640625,0.9864501953125,0.0832366943359375
1772806417713561300,7.657561279296875,-0.4004364013671875,0.9990081787109375,0.0893096923828125
1772806417723492400,7.667492431640625,-0.4189910888671875,1.0108642578125,0.09490966796875
1772806417733423400,7.67742333984375,-0.4157867431640625,1.034698486328125,0.0863189697265625
1772806417743355400,7.68735546875,-0.4236907958984375,1.054443359375,0.08416748046875
1772806417753286400,7.697286376953125,-0.443634033203125,1.06732177734375,0.0772857666015625
1772806417763218400,7.707218505859375,-0.4586181640625,1.0583648681640625,0.0654754638671875
1772806417773149400,7.7171494140625,-0.4618072509765625,1.0391998291015625,0.0496368408203125
1772806417783081500,7.72708154296875,-0.4643707275390625,1.0132598876953125,0.04296875
1772806417793012500,7.737012451171875,-0.434295654296875,0.966094970703125,0.054840087890625
1772806417802944500,7.746944580078125,-0.46026611328125,0.924072265625,0.06683349609375
1772806417812875500,7.75687548828125,-0.4637603759765625,0.9016571044921875,0.05487060546875
1772806417822807300,7.766807373046875,-0.423095703125,0.8779754638671875,0.05853271484375
1772806417832738300,7.77673828125,-0.40283203125,0.8755340576171875,0.059295654296875
1772806417842670300,7.78667041015625,-0.3892059326171875,0.90081787109375,0.05877685546875
1772806417852601600,7.7966015625,-0.373992919921875,0.9529571533203125,0.0530242919921875
1772806417862533400,7.806533447265625,-0.348236083984375,0.99676513671875,0.0567474365234375
1772806417872464400,7.81646435546875,-0.3433837890625,0.9954071044921875,0.0668182373046875
1772806417882395400,7.8263955078125,-0.3664398193359375,0.9583740234375,0.09417724609375
1772806417892327400,7.836327392578125,-0.37152099609375,0.92694091796875,0.12493896484375
1772806417902258400,7.846258544921875,-0.3614501953125,0.940093994140625,0.14630126953125
1772806417912190500,7.8561904296875,-0.38531494140625,0.9812164306640625,0.1475372314453125
1772806417922121500,7.86612158203125,-0.4363250732421875,1.018402099609375,0.1316680908203125
1772806417932053200,7.87605322265625,-0.4373321533203125,1.0219879150390625,0.133941650390625
