time,seconds_elapsed,z,y,x
1772806410115987700,0.05998779296875,-0.0878739282488823,-0.4693533778190613,0.25644564628601074
1772806410125919700,0.069919677734375,-0.10591764748096466,-0.5715646743774414,0.3257101774215698
1772806410135850800,0.079850830078125,-0.11757349967956543,-0.5909591913223267,0.39502906799316406
1772806410145781800,0.08978173828125,-0.10185205936431885,-0.55933678150177,0.4581763446331024
1772806410155713800,0.0997138671875,-0.0590478740632534,-0.5744068026542664,0.5255681872367859
1772806410165644500,0.10964453125,-0.013272395357489586,-0.5811102390289307,0.6176831722259521
1772806410175576600,0.11957666015625,-0.007231547497212887,-0.5962370038032532,0.6868401765823364
1772806410185507800,0.1295078125,-0.012029232457280159,-0.5854997038841248,0.7139716744422913
1772806410195439900,0.13943994140625,-0.023213177919387817,-0.5456761121749878,0.7217352986335754
1772806410205371000,0.149370849609375,-0.04721518233418465,-0.5567327737808228,0.7185160517692566
1772806410215303000,0.159302978515625,-0.04737124219536781,-0.5849747657775879,0.6941531896591187
1772806410225234000,0.16923388671875,-0.02315698377788067,-0.6188051700592041,0.6760959029197693
1772806410235166000,0.179166015625,0.005035771057009697,-0.654833197593689,0.6806224584579468
1772806410245097000,0.189096923828125,0.042814843356609344,-0.6464762091636658,0.6569291353225708
1772806410255029000,0.199029052734375,0.09736862778663635,-0.5978738069534302,0.5950279235839844
1772806410264959700,0.208959716796875,0.14468501508235931,-0.5100046396255493,0.49409201741218567
1772806410274891800,0.218891845703125,0.17402425408363342,-0.43382254242897034,0.39928561449050903
1772806410284823000,0.228822998046875,0.1787063628435135,-0.40129417181015015,0.3536728620529175
1772806410294753800,0.23875390625,0.17631112039089203,-0.3909168839454651,0.3591768145561218
1772806410304685800,0.248685791015625,0.18891958892345428,-0.3710063099861145,0.37710893154144287
1772806410314616800,0.258616943359375,0.2080879509449005,-0.3369183838367462,0.38655731081962585
1772806410324548900,0.268548828125,0.22433669865131378,-0.3405834138393402,0.4075709581375122
1772806410334480000,0.27847998046875,0.24297483265399933,-0.34611400961875916,0.4481807053089142
1772806410344412000,0.288411865234375,0.27202990651130676,-0.359916627407074,0.49150049686431885
1772806410354343000,0.298343017578125,0.3019598424434662,-0.3581339120864868,0.5227864980697632
1772806410364275000,0.30827490234375,0.3342727720737457,-0.34535154700279236,0.5526612997055054
1772806410374206000,0.3182060546875,0.36407116055488586,-0.3276790678501129,0.5753783583641052
1772806410384138000,0.328137939453125,0.3842075765132904,-0.30114972591400146,0.5903282761573792
1772806410394069000,0.338069091796875,0.39433398842811584,-0.3332834243774414,0.547151505947113
1772806410404000800,0.348000732421875,0.3894612193107605,-0.2814282178878784,0.4348475933074951
1772806410413931800,0.357931884765625,0.3610175848007202,-0.1696111410856247,0.3486133813858032
1772806410423863800,0.36786376953125,0.30288371443748474,-0.0951014831662178,0.29160335659980774
1772806410433795000,0.377795166015625,0.2629120647907257,-0.04186782240867615,0.2995885908603668
1772806410443726800,0.387726806640625,0.25251293182373047,0.03111823834478855,0.36533164978027344
1772806410453657900,0.397657958984375,0.2786950170993805,0.07638771831989288,0.45292142033576965
1772806410463588900,0.4075888671875,0.3005369305610657,0.10875550657510757,0.5209547877311707
1772806410473520600,0.417520751953125,0.2536378502845764,0.3149432837963104,0.712135374546051
1772806410483452000,0.427451904296875,0.2494247406721115,0.2252485603094101,0.8333054780960083
1772806410493384000,0.437384033203125,0.29833900928497314,0.14862142503261566,0.8328114748001099
1772806410503315000,0.44731494140625,0.38676875829696655,0.1803218424320221,0.7710586190223694
1772806410513246700,0.457246826171875,0.4606432318687439,0.26801228523254395,0.6807636022567749
1772806410523178000,0.467177978515625,0.5083860158920288,0.46607983112335205,0.6381546258926392
1772806410533110000,0.477110107421875,0.5266896486282349,0.6453550457954407,0.7534372806549072
1772806410543041000,0.487041015625,0.5025161504745483,0.4149998426437378,0.7123066186904907
1772806410552972800,0.496972900390625,0.4487610161304474,0.26576748490333557,0.5282790064811707
1772806410562903800,0.50690380859375,0.3917911946773529,0.23476776480674744,0.2118174433708191
1772806410572835800,0.5168359375,0.3546733856201172,0.02221023105084896,-0.19383391737937927
1772806410582766800,0.526766845703125,0.3313449025154114,-0.13695065677165985,-0.5102155804634094
1772806410592697900,0.53669775390625,0.3195657432079315,-0.21063446998596191,-0.6688664555549622
1772806410602630000,0.5466298828125,0.31346869468688965,-0.19710028171539307,-0.6998260021209717
1772806410612561000,0.556560791015625,0.30408158898353577,-0.0898209661245346,-0.6249405741691589
1772806410622492700,0.56649267578125,0.28638169169425964,0.019224295392632484,-0.5011935830116272
1772806410632424000,0.576423828125,0.26427507400512695,0.0574001744389534,-0.3538331687450409
1772806410642356000,0.58635595703125,0.24705106019973755,0.041918154805898666,-0.2151740938425064
1772806410652286700,0.59628662109375,0.23747007548809052,0.03983582928776741,-0.10922342538833618
1772806410662218800,0.60621875,0.2184513807296753,0.06221836805343628,-0.04435494914650917
1772806410672150000,0.61614990234375,0.18672247231006622,0.07502763718366623,-0.019573168829083443
1772806410682082000,0.62608203125,0.16306322813034058,0.06344714760780334,-0.018012555316090584
1772806410692012800,0.6360126953125,0.14814472198486328,0.04027019068598747,-0.008354602381587029
1772806410701944800,0.64594482421875,0.14020264148712158,0.01630706712603569,0.014740862883627415
1772806410711875800,0.655875732421875,0.12070244550704956,0.020178237929940224,0.02304113656282425
1772806410721808000,0.665807861328125,0.10286326706409454,0.029706763103604317,0.02069063112139702
1772806410731739000,0.67573876953125,0.08450689166784286,0.056903496384620667,0.02443769946694374
1772806410741671000,0.6856708984375,0.0588553287088871,0.10390376299619675,0.029918484389781952
1772806410751602000,0.695601806640625,0.025901904329657555,0.11988139897584915,0.0022280006669461727
1772806410761532700,0.70553271484375,-0.015451926738023758,0.03508315235376358,-0.03844645991921425
1772806410771464700,0.715464599609375,-0.0704914778470993,-0.056534383445978165,-0.05367973819375038
1772806410781396000,0.72539599609375,-0.1075349822640419,-0.057979147881269455,-0.06096295267343521
1772806410791328000,0.735327880859375,-0.13010208308696747,0.0060267336666584015,-0.10556025058031082
1772806410801258800,0.7452587890625,-0.1577313095331192,0.10028186440467834,-0.1774032860994339
1772806410811190800,0.755190673828125,-0.20162126421928406,0.18929828703403473,-0.24140356481075287
1772806410821122000,0.7651220703125,-0.25791144371032715,0.26714569330215454,-0.2655680179595947
1772806410831054000,0.77505419921875,-0.3312940299510956,0.33707788586616516,-0.2757253348827362
1772806410840984800,0.78498486328125,-0.41165891289711,0.37435734272003174,-0.30607762932777405
1772806410850916900,0.794916748046875,-0.46942049264907837,0.3996581733226776,-0.3605555295944214
1772806410860847900,0.804847900390625,-0.5028151869773865,0.40009281039237976,-0.43098360300064087
1772806410870780000,0.81477978515625,-0.5105793476104736,0.3849380910396576,-0.4914669394493103
1772806410880711000,0.8247109375,-0.4857669770717621,0.3474911153316498,-0.514660120010376
1772806410890643000,0.834642822265625,-0.4217323362827301,0.34039992094039917,-0.4994979500770569
1772806410900574000,0.844573974609375,-0.36163410544395447,0.3837175667285919,-0.4468643069267273
1772806410910504700,0.854504638671875,-0.3648730516433716,0.2971174418926239,-0.3349708020687103
1772806410920436700,0.864436767578125,-0.38671308755874634,0.04571795463562012,-0.22895674407482147
1772806410930368000,0.874367919921875,-0.44748589396476746,-0.22725525498390198,-0.14743472635746002
1772806410940300000,0.884300048828125,-0.6326115131378174,-0.24432452023029327,-0.01782400533556938
1772806410950230800,0.894230712890625,-0.8257988691329956,-0.23209021985530853,0.2948657274246216
1772806410960162800,0.904162841796875,-0.6877632141113281,-0.13634160161018372,0.5833108425140381
1772806410970094000,0.914093994140625,-0.035304728895425797,0.7038100957870483,0.4070700407028198
1772806410980025900,0.92402587890625,0.5625970363616943,1.1263980865478516,0.12701760232448578
1772806410989956900,0.933956787109375,0.8234238624572754,1.089834213256836,-0.03443360701203346
1772806410999889000,0.943888916015625,0.837952733039856,0.7093494534492493,-0.17107561230659485
1772806411009820000,0.95381982421875,0.7245696783065796,0.314936101436615,-0.5699622631072998
1772806411019751700,0.963751708984375,0.5177329182624817,0.09715957194566727,-1.1363444328308105
1772806411029683000,0.973682861328125,0.2301889955997467,-0.06832552701234818,-1.4929797649383545
1772806411039615000,0.983614990234375,-0.028261998668313026,-0.2997044324874878,-1.4916753768920898
1772806411049545700,0.993545654296875,-0.19528374075889587,-0.4725545048713684,-1.26847243309021
1772806411059477800,1.003477783203125,-0.23999661207199097,-0.5390704274177551,-1.0575056076049805
1772806411069408800,1.01340869140625,-0.24003151059150696,-0.5552744269371033,-0.9768046140670776
1772806411079340000,1.023340087890625,-0.17255473136901855,-0.4672505557537079,-1.0736429691314697
1772806411089271800,1.033271728515625,-0.12894360721111298,-0.3140554130077362,-1.2169476747512817
1772806411099202800,1.043202880859375,-0.12828366458415985,-0.15348435938358307,-1.3252811431884766
1772806411109134800,1.053134765625,-0.14157897233963013,-0.05590427666902542,-1.3488152027130127
1772806411119065900,1.06306591796875,-0.17997215688228607,-0.037454165518283844,-1.2631721496582031
1772806411128998000,1.072997802734375,-0.2443237155675888,-0.10454105585813522,-1.1680324077606201
1772806411138929000,1.082928955078125,-0.2772473096847534,-0.2539646327495575,-1.1391900777816772
1772806411148861000,1.09286083984375,-0.31148970127105713,-0.4133843779563904,-1.1205116510391235
1772806411158791700,1.102791748046875,-0.37014156579971313,-0.580783486366272,-1.0983490943908691
1772806411168723700,1.1127236328125,-0.4530305862426758,-0.748595118522644,-1.0650348663330078
1772806411178655000,1.122655029296875,-0.5190844535827637,-0.7589878439903259,-1.00772225856781
1772806411188587000,1.1325869140625,-0.56284499168396,-0.7076711654663086,-0.9074854254722595
1772806411198517800,1.142517822265625,-0.5677603483200073,-0.6775939464569092,-0.8120630383491516
1772806411208449300,1.15244921875,-0.5003150105476379,-0.6350685954093933,-0.7157317399978638
1772806411218380300,1.16238037109375,-0.36041438579559326,-0.5702256560325623,-0.6036462187767029
1772806411228311300,1.172311279296875,-0.17249959707260132,-0.3626519739627838,-0.5164953470230103
1772806411238243300,1.182243408203125,0.054056841880083084,-0.15099377930164337,-0.42823338508605957
1772806411248174000,1.192174072265625,0.2351699024438858,-0.1136794239282608,-0.3607043921947479
1772806411258106000,1.202106201171875,0.2997449040412903,-0.055028364062309265,-0.3350951671600342
1772806411268037400,1.212037353515625,0.28960996866226196,0.015245265327394009,-0.3322860598564148
1772806411277969400,1.221969482421875,0.24766838550567627,-0.04051520302891731,-0.29432857036590576
1772806411287900200,1.231900146484375,0.1768980771303177,-0.08468452841043472,-0.28769728541374207
1772806411297832200,1.241832275390625,0.14013393223285675,-0.13138066232204437,-0.33944064378738403
1772806411307763500,1.251763427734375,0.1312834471464157,-0.16932325065135956,-0.40725353360176086
1772806411317695500,1.261695556640625,0.14224448800086975,-0.17613188922405243,-0.46982768177986145
1772806411327626200,1.271626220703125,0.1653820425271988,-0.1689533293247223,-0.5156007409095764
1772806411337558300,1.281558349609375,0.18430618941783905,-0.1909925937652588,-0.5185656547546387
1772806411347489300,1.2914892578125,0.18167072534561157,-0.25277286767959595,-0.5112249255180359
1772806411357421300,1.30142138671875,0.1852359026670456,-0.2947932779788971,-0.47815006971359253
1772806411367352300,1.311352294921875,0.19354736804962158,-0.2892725467681885,-0.43654483556747437
1772806411377283300,1.321283447265625,0.21993716061115265,-0.2918933629989624,-0.39085617661476135
1772806411387215400,1.33121533203125,0.25871172547340393,-0.33168846368789673,-0.3724558651447296
1772806411397146000,1.34114599609375,0.3061031997203827,-0.32808172702789307,-0.3883991241455078
1772806411407078100,1.351078125,0.3613579273223877,-0.31059277057647705,-0.4331144094467163
1772806411417009400,1.361009521484375,0.3889133930206299,-0.3342592120170593,-0.4958164095878601
1772806411426941400,1.37094140625,0.40321165323257446,-0.4085765779018402,-0.5722965598106384
1772806411436872200,1.3808720703125,0.41357558965682983,-0.4792315661907196,-0.6430551409721375
1772806411446804200,1.39080419921875,0.43400683999061584,-0.5085932016372681,-0.7077448964118958
1772806411456735500,1.400735595703125,0.4656481146812439,-0.5097362399101257,-0.7487309575080872
1772806411466667300,1.410667236328125,0.48897022008895874,-0.49206721782684326,-0.7592480182647705
1772806411476598300,1.420598388671875,0.4914594888687134,-0.4790478050708771,-0.7478981614112854
1772806411486530300,1.4305302734375,0.4698580503463745,-0.5116505026817322,-0.7239550352096558
1772806411496461300,1.44046142578125,0.44612714648246765,-0.5831246972084045,-0.7054985165596008
1772806411506393000,1.45039306640625,0.41625314950942993,-0.663636326789856,-0.7322683334350586
1772806411516324400,1.460324462890625,0.3811577260494232,-0.7198191285133362,-0.7831690907478333
1772806411526255400,1.47025537109375,0.3450327515602112,-0.7429364323616028,-0.8359835743904114
1772806411536187100,1.480187255859375,0.30211591720581055,-0.7571367025375366,-0.8548898696899414
1772806411546118100,1.4901181640625,0.2576770782470703,-0.7909860014915466,-0.8179515600204468
1772806411556050200,1.50005029296875,0.19989128410816193,-0.8327108025550842,-0.7178478837013245
1772806411565981400,1.5099814453125,0.1318536400794983,-0.853486955165863,-0.5854285955429077
1772806411575913200,1.519913330078125,0.06604240089654922,-0.872995913028717,-0.4442046284675598
1772806411585844200,1.52984423828125,0.07576480507850647,-0.9037541151046753,-0.29424574971199036
1772806411595776300,1.5397763671875,0.15625165402889252,-0.9065530896186829,-0.12590733170509338
1772806411605707500,1.54970751953125,0.2587900161743164,-0.8725951313972473,0.01992390677332878
1772806411615639300,1.559639404296875,0.339297890663147,-0.8402653932571411,0.138824462890625
1772806411625570300,1.5695703125,0.3476197421550751,-0.735298752784729,0.22490741312503815
1772806411635502300,1.57950244140625,0.3045750856399536,-0.5348250865936279,0.2829691171646118
1772806411645433000,1.58943310546875,0.24241264164447784,-0.32171785831451416,0.34380051493644714
1772806411655365000,1.599365234375,0.20062683522701263,-0.15090376138687134,0.42817506194114685
1772806411665296400,1.60929638671875,0.23302260041236877,-0.02574983797967434,0.5538333654403687
1772806411675227400,1.619227294921875,0.28947362303733826,0.21375729143619537,0.7248530387878418
1772806411685159200,1.6291591796875,0.3202823996543884,0.4210833013057709,0.9398788213729858
1772806411695090200,1.639090087890625,0.34100472927093506,0.47656628489494324,1.2399160861968994
1772806411705022200,1.649022216796875,0.3548795282840729,0.28022873401641846,1.6133685111999512
1772806411714953200,1.658953125,0.2768004536628723,-0.08785608410835266,1.9247863292694092
1772806411724885200,1.66888525390625,0.12815824151039124,-0.32196712493896484,2.090851068496704
1772806411734816300,1.678816162109375,-0.08803824335336685,-0.3988504409790039,2.156644105911255
1772806411744748300,1.688748291015625,-0.29636135697364807,-0.5709782838821411,2.1978771686553955
1772806411754679300,1.69867919921875,-0.5639291405677795,-0.6686004400253296,2.1012775897979736
1772806411764611300,1.708611328125,-0.8917589783668518,-0.1168011873960495,1.678220272064209
1772806411774542300,1.718542236328125,-0.9881768226623535,-0.23447908461093903,1.5988197326660156
1772806411784474400,1.728474365234375,-1.0194013118743896,-0.5037387609481812,1.7212779521942139
1772806411794405000,1.738405029296875,-1.0479000806808472,-0.5502687096595764,1.794411540031433
1772806411804337200,1.748337158203125,-1.0609616041183472,-0.42684534192085266,1.753530740737915
1772806411814268400,1.758268310546875,-1.1028043031692505,-0.27404725551605225,1.6462697982788086
1772806411824199200,1.76819921875,-1.1338112354278564,-0.1475638896226883,1.5309420824050903
1772806411834131200,1.778131103515625,-1.1145944595336914,0.06502240896224976,1.4379018545150757
1772806411844062200,1.788062255859375,-1.0317810773849487,0.3703239858150482,1.3772116899490356
1772806411853994500,1.797994384765625,-0.8561388850212097,0.6984416842460632,1.3288772106170654
1772806411863925200,1.80792529296875,-0.6590396761894226,1.0256121158599854,1.2736793756484985
1772806411873857300,1.817857177734375,-0.5794417858123779,1.2372902631759644,1.1897109746932983
1772806411883788300,1.827788330078125,-0.6262924075126648,1.2839317321777344,1.078321099281311
1772806411893720300,1.83772021484375,-0.7249915599822998,1.208487868309021,0.9850667715072632
1772806411903651300,1.8476513671875,-0.8687875866889954,1.125169277191162,0.8891837000846863
1772806411913583400,1.857583251953125,-1.0033637285232544,1.062692642211914,0.7498308420181274
1772806411923514400,1.867514404296875,-1.0998554229736328,1.0321693420410156,0.6235640048980713
1772806411933446400,1.8774462890625,-1.1682534217834473,1.0099215507507324,0.5350335836410522
1772806411943377200,1.887377197265625,-1.2019938230514526,0.9618157744407654,0.4508715569972992
1772806411953309200,1.89730908203125,-1.244788408279419,1.013474941253662,0.3727858364582062
1772806411963240400,1.907240478515625,-1.297746181488037,1.2499299049377441,0.3464500904083252
1772806411973171200,1.917171142578125,-1.3355885744094849,1.5283892154693604,0.3848869502544403
1772806411983103200,1.927103271484375,-1.3483635187149048,1.7419449090957642,0.44884970784187317
1772806411993034200,1.9370341796875,-1.3064898252487183,1.9533085823059082,0.5128049850463867
1772806412002966500,1.946966552734375,-1.2057522535324097,2.1556994915008545,0.5625802874565125
1772806412012897300,1.956897216796875,-1.0518391132354736,2.4251251220703125,0.6050776243209839
1772806412022829300,1.966829345703125,-0.8653928637504578,2.5998244285583496,0.6457870006561279
1772806412032760300,1.97676025390625,-0.7017543911933899,2.716395854949951,0.6271105408668518
1772806412042692000,1.986692138671875,-0.6495236754417419,2.7125747203826904,0.569420576095581
1772806412052623400,1.996623291015625,-0.6710532307624817,2.6357970237731934,0.49084988236427307
1772806412062555400,2.006555419921875,-0.6965777277946472,2.4988229274749756,0.4122014045715332
1772806412072486400,2.016486328125,-0.7356199622154236,2.389986991882324,0.3421885073184967
1772806412082418200,2.026418212890625,-0.7559340000152588,2.3653554916381836,0.2844144105911255
1772806412092349200,2.03634912109375,-0.7491357326507568,2.364382266998291,0.2424776256084442
1772806412102281200,2.04628125,-0.7215027809143066,2.348655939102173,0.2072485238313675
1772806412112212200,2.056212158203125,-0.6804909110069275,2.3291332721710205,0.1739257276058197
1772806412122143200,2.066143310546875,-0.6227368116378784,2.2858686447143555,0.12661918997764587
1772806412132075300,2.0760751953125,-0.5655656456947327,2.219036102294922,0.10078652948141098
1772806412142006300,2.08600634765625,-0.49510428309440613,2.1605141162872314,0.0884648859500885
1772806412151938300,2.095938232421875,-0.4428615868091583,2.127195119857788,0.05999622493982315
1772806412161869300,2.105869384765625,-0.36956125497817993,2.1048057079315186,-0.02365046739578247
1772806412171801300,2.11580126953125,-0.27025413513183594,2.007415771484375,-0.11642754077911377
1772806412181732000,2.125732177734375,-0.21217083930969238,1.9161430597305298,-0.2321903556585312
1772806412191664000,2.1356640625,-0.14575454592704773,1.8725297451019287,-0.3316945731639862
1772806412201596200,2.14559619140625,-0.06198134645819664,1.8028990030288696,-0.4110136330127716
1772806412211528200,2.155528076171875,0.034871429204940796,1.7448540925979614,-0.45433154702186584
1772806412221459500,2.16545947265625,0.12201911956071854,1.7070939540863037,-0.4561091959476471
1772806412231391500,2.1753916015625,0.1906341314315796,1.6920475959777832,-0.45609191060066223
1772806412241322200,2.185322265625,0.23906105756759644,1.6893175840377808,-0.457943320274353
1772806412251254300,2.195254150390625,0.263677179813385,1.6776602268218994,-0.4247933626174927
1772806412261185300,2.205185302734375,0.2508103847503662,1.679344654083252,-0.3349127471446991
1772806412271116300,2.2151162109375,0.1951465904712677,1.7027069330215454,-0.22481127083301544
1772806412281048300,2.22504833984375,0.08981084823608398,1.6476423740386963,-0.08280353993177414
1772806412290979300,2.234979248046875,-0.055205199867486954,1.5398203134536743,0.07123742997646332
1772806412300911400,2.244911376953125,-0.2229989916086197,1.4134572744369507,0.2068501114845276
1772806412310842400,2.25484228515625,-0.420878529548645,1.3199076652526855,0.2938134968280792
1772806412320774400,2.2647744140625,-0.5749277472496033,1.2372814416885376,0.3470655381679535
1772806412330705400,2.274705322265625,-0.6566332578659058,1.1477267742156982,0.3521987795829773
1772806412340637400,2.284637451171875,-0.7062016129493713,1.124119520187378,0.3294215798377991
1772806412350568200,2.294568115234375,-0.7070655226707458,1.1420588493347168,0.3260617256164551
1772806412360500200,2.304500244140625,-0.6844947338104248,1.1745197772979736,0.3470889925956726
1772806412370431500,2.314431396484375,-0.6580050587654114,1.224225640296936,0.35504916310310364
1772806412380363500,2.324363525390625,-0.6398414969444275,1.330328345298767,0.32695335149765015
1772806412390294300,2.334294189453125,-0.6133571267127991,1.4202579259872437,0.2946676015853882
1772806412400226300,2.344226318359375,-0.6074409484863281,1.427407145500183,0.2605428993701935
1772806412410157600,2.354157470703125,-0.6434157490730286,1.2922197580337524,0.20655770599842072
1772806412420089600,2.364089599609375,-0.7074263691902161,0.9565648436546326,0.13560469448566437
1772806412430020400,2.374020263671875,-0.6967748403549194,0.589291512966156,0.04217168688774109
1772806412439951400,2.383951416015625,-0.5225992798805237,0.35702070593833923,-0.20922060310840607
1772806412449883400,2.39388330078125,-0.19089671969413757,0.38702067732810974,-0.545731246471405
1772806412459814400,2.403814453125,-0.09820060431957245,0.6470802426338196,-0.526836097240448
1772806412469746400,2.413746337890625,-0.3515652120113373,0.8141611218452454,-0.39083993434906006
1772806412479677400,2.423677490234375,-0.5732347965240479,0.8959196209907532,-0.34579041600227356
1772806412489609500,2.433609375,-0.4906810224056244,1.2914376258850098,-0.21147336065769196
1772806412499540200,2.443540283203125,-0.15409556031227112,1.9446892738342285,-0.11909683048725128
1772806412509472300,2.45347216796875,0.1690625250339508,2.072582721710205,-0.10506916046142578
1772806412519403500,2.463403564453125,0.4238138496875763,1.878617763519287,-0.22361844778060913
1772806412529335300,2.473335205078125,0.6520766019821167,1.7560971975326538,-0.613954484462738
1772806412539266300,2.483266357421875,0.6979303359985352,1.855918288230896,-1.086820363998413
1772806412549198300,2.4931982421875,0.48642316460609436,1.8721883296966553,-1.421654224395752
1772806412559129600,2.503129638671875,0.12300501763820648,1.5144203901290894,-1.506840467453003
1772806412569060400,2.513060302734375,-0.23795051872730255,0.9467841386795044,-1.4274884462356567
1772806412578992400,2.522992431640625,-0.4597497582435608,0.6591070890426636,-1.3233990669250488
1772806412588923400,2.53292333984375,-0.5130435824394226,0.4901593327522278,-1.2760725021362305
1772806412598855200,2.542855224609375,-0.5253838896751404,0.3814759850502014,-1.2993117570877075
1772806412608786400,2.552786376953125,-0.4346412122249603,0.36089640855789185,-1.2825860977172852
1772806412618718500,2.562718505859375,-0.2901758849620819,0.15489903092384338,-1.2708826065063477
1772806412628649500,2.5726494140625,-0.23500558733940125,-0.15234452486038208,-1.2689522504806519
1772806412638581200,2.582581298828125,-0.33096835017204285,-0.4520540237426758,-1.262493371963501
1772806412648512300,2.59251220703125,-0.49067172408103943,-0.4932059645652771,-1.2673757076263428
1772806412658444300,2.6024443359375,-0.5665643215179443,-0.31421759724617004,-1.2882461547851562
1772806412668375600,2.61237548828125,-0.4038830101490021,-0.30861401557922363,-1.2968963384628296
1772806412678307300,2.622307373046875,-0.15656830370426178,-0.2493578940629959,-1.2346670627593994
1772806412688238300,2.63223828125,0.14226660132408142,-0.23932310938835144,-1.1487481594085693
1772806412698170400,2.64217041015625,0.3164714276790619,-0.2553803622722626,-1.0821666717529297
1772806412708101400,2.652101318359375,0.3532523512840271,-0.04628414288163185,-1.011668086051941
1772806412718032400,2.662032470703125,0.2924094796180725,0.13050660490989685,-0.9027016162872314
1772806412727964400,2.67196435546875,0.21209867298603058,-0.006298109423369169,-0.770348072052002
1772806412737895400,2.6818955078125,0.17578060925006866,-0.23445618152618408,-0.6896697878837585
1772806412747827200,2.6918271484375,0.16319584846496582,-0.3346104621887207,-0.6846910119056702
1772806412757758500,2.701758544921875,0.1588975042104721,-0.24279826879501343,-0.7450968027114868
1772806412767690500,2.7116904296875,0.18300656974315643,-0.10925804823637009,-0.8529092669487
1772806412777621200,2.721621337890625,0.22686058282852173,-0.025598570704460144,-0.9770767688751221
1772806412787553300,2.73155322265625,0.24154311418533325,-0.008163121528923512,-1.1262500286102295
1772806412797484300,2.741484375,0.2158510684967041,-0.02051512897014618,-1.2764687538146973
1772806412807416300,2.751416259765625,0.18129974603652954,0.019144931808114052,-1.3792133331298828
1772806412817347300,2.761347412109375,0.1474272757768631,0.03786215931177139,-1.3966844081878662
1772806412827279400,2.771279296875,0.11862784624099731,-0.039156723767519,-1.325174331665039
1772806412837210400,2.78121044921875,0.13636450469493866,-0.13402678072452545,-1.1884829998016357
1772806412847142400,2.791142333984375,0.21247923374176025,-0.16040165722370148,-1.0072286128997803
1772806412857073400,2.801073486328125,0.29932519793510437,-0.1503378450870514,-0.8228635191917419
1772806412867004400,2.81100439453125,0.36724191904067993,-0.17033152282238007,-0.6800879836082458
1772806412876936400,2.8209365234375,0.42701178789138794,-0.2247351109981537,-0.5754502415657043
1772806412886867200,2.8308671875,0.45803573727607727,-0.3101320266723633,-0.4977472126483917
1772806412896799200,2.84079931640625,0.448790043592453,-0.37816035747528076,-0.4758498966693878
1772806412906730500,2.85073046875,0.3970986306667328,-0.3879764974117279,-0.49550509452819824
1772806412916662500,2.86066259765625,0.30153214931488037,-0.3845788240432739,-0.5092682838439941
1772806412926593300,2.87059326171875,0.2072722315788269,-0.41420942544937134,-0.4973916709423065
1772806412936525300,2.880525390625,0.17452865839004517,-0.4528210163116455,-0.4253254532814026
1772806412946456300,2.890456298828125,0.2033190280199051,-0.4481793940067291,-0.28281065821647644
1772806412956388400,2.900388427734375,0.23320236802101135,-0.4299210011959076,-0.10308297723531723
1772806412966319400,2.9103193359375,0.22761398553848267,-0.46379563212394714,0.09660377353429794
1772806412976251400,2.92025146484375,0.21102435886859894,-0.5055505037307739,0.2643064856529236
1772806412986182400,2.930182373046875,0.1961205005645752,-0.49383580684661865,0.34812840819358826
1772806412996114400,2.940114501953125,0.18353120982646942,-0.4988316297531128,0.3657929003238678
1772806413006045400,2.95004541015625,0.1656787097454071,-0.5062724947929382,0.344224750995636
1772806413015976400,2.9599765625,0.14149561524391174,-0.5298084616661072,0.2882850468158722
1772806413025908500,2.969908447265625,0.0938870832324028,-0.5931704044342041,0.22083917260169983
1772806413035839200,2.979839111328125,0.026091787964105606,-0.6816973090171814,0.1425853818655014
1772806413045771300,2.989771240234375,-0.042281411588191986,-0.7146129608154297,0.0907573327422142
1772806413055702500,2.99970263671875,-0.08375801146030426,-0.6549866199493408,0.10670460760593414
1772806413065634600,3.009634521484375,-0.09173471480607986,-0.5255863070487976,0.22394227981567383
1772806413075565300,3.0195654296875,-0.11081945896148682,-0.3679223656654358,0.4090069532394409
1772806413085497300,3.029497314453125,-0.15148326754570007,-0.14967045187950134,0.6229277849197388
1772806413095428400,3.039428466796875,-0.2139517068862915,0.11734340339899063,0.8686448335647583
1772806413105360400,3.0493603515625,-0.31513798236846924,0.3620697855949402,1.1337579488754272
1772806413115291400,3.05929150390625,-0.3583586812019348,0.4381730854511261,1.4201769828796387
1772806413125223400,3.069223388671875,-0.30720147490501404,0.27251142263412476,1.7025681734085083
1772806413135154400,3.079154541015625,-0.22463497519493103,-0.09894708544015884,1.8860507011413574
1772806413145086200,3.089086181640625,-0.12341807782649994,-0.5020886659622192,2.0125505924224854
1772806413155017500,3.099017578125,-0.07177139073610306,-0.790295422077179,2.0779268741607666
1772806413164948500,3.108948486328125,-0.02387816831469536,-0.8719708919525146,2.1448819637298584
1772806413174880300,3.11888037109375,-0.03524507209658623,-0.8197752833366394,2.1951546669006348
1772806413184811300,3.128811279296875,-0.18076951801776886,-0.7841065526008606,2.361755609512329
1772806413194743300,3.138743408203125,-0.36573243141174316,-0.8423581123352051,2.6228513717651367
1772806413204674000,3.148674072265625,-0.7021903395652771,-0.3099759817123413,2.5238375663757324
1772806413214606000,3.158606201171875,-1.0860615968704224,0.6673468947410583,1.9386672973632812
1772806413224537000,3.168537109375,-1.1526360511779785,-0.15621383488178253,1.7568351030349731
1772806413234468900,3.17846875,-1.2172355651855469,-0.8819966316223145,1.6615257263183594
1772806413244400000,3.188400146484375,-1.2772142887115479,-0.7736208438873291,1.5929386615753174
1772806413254332200,3.198332275390625,-1.2968244552612305,-0.4314959943294525,1.563619613647461
1772806413264263200,3.20826318359375,-1.231551170349121,-0.11315877735614777,1.5835336446762085
1772806413274195000,3.21819482421875,-1.1521694660186768,0.24038490653038025,1.6350504159927368
1772806413284126000,3.2281259765625,-1.0104341506958008,0.5701894164085388,1.6868829727172852
1772806413294057200,3.23805712890625,-0.8320857882499695,0.7259843945503235,1.646539568901062
1772806413303989000,3.247989013671875,-0.6443734169006348,0.6872140765190125,1.512522578239441
1772806413313920000,3.257919921875,-0.45354512333869934,0.8182333111763,1.3398523330688477
1772806413323852000,3.26785205078125,-0.3177145719528198,1.051336646080017,1.274526834487915
1772806413333783000,3.277782958984375,-0.20800699293613434,1.0619584321975708,1.3422435522079468
1772806413343715000,3.287715087890625,-0.1244063749909401,1.3310433626174927,1.3958724737167358
1772806413353646000,3.29764599609375,-0.06650073081254959,1.652005672454834,1.4132298231124878
1772806413363578000,3.307578125,-0.08335614204406738,1.7782403230667114,1.4091882705688477
1772806413373508900,3.3175087890625,-0.21261799335479736,1.828262448310852,1.3304548263549805
1772806413383441000,3.32744091796875,-0.40114903450012207,1.7836878299713135,1.1735405921936035
1772806413393372200,3.3373720703125,-0.5600308179855347,1.6427078247070312,0.9603095054626465
1772806413403304200,3.34730419921875,-0.6753973364830017,1.4096755981445312,0.7213930487632751
1772806413413235000,3.35723486328125,-0.7629066705703735,1.1819889545440674,0.47468024492263794
1772806413423167000,3.3671669921875,-0.8279927372932434,0.9471785426139832,0.23121431469917297
1772806413433098000,3.377097900390625,-0.8892172574996948,0.708320140838623,0.05980581045150757
1772806413443029000,3.387029052734375,-0.9125683307647705,0.48184332251548767,-0.07710304111242294
1772806413452961000,3.3969609375,-0.8914862275123596,0.22379633784294128,-0.15847831964492798
1772806413462892000,3.40689208984375,-0.830867350101471,0.01139859575778246,-0.19008737802505493
1772806413472824000,3.416823974609375,-0.7073994874954224,-0.10726147890090942,-0.2362799048423767
1772806413482755000,3.426755126953125,-0.5307493805885315,-0.1270519644021988,-0.32211118936538696
1772806413492687000,3.43668701171875,-0.33732104301452637,-0.0702107772231102,-0.41214174032211304
1772806413502618000,3.4466181640625,-0.15624020993709564,0.017738517373800278,-0.464179128408432
1772806413512550100,3.456550048828125,0.0028045750223100185,0.1486472636461258,-0.49647581577301025
1772806413522481000,3.46648095703125,0.14116084575653076,0.2635781168937683,-0.520933210849762
1772806413532413000,3.476412841796875,0.28014057874679565,0.3042443096637726,-0.5317986607551575
1772806413542344200,3.48634423828125,0.41194334626197815,0.29490992426872253,-0.5189832448959351
1772806413552276200,3.496276123046875,0.5692293643951416,0.3276979625225067,-0.4788898825645447
1772806413562207000,3.50620703125,0.7285774946212769,0.3965606689453125,-0.42496779561042786
1772806413572139000,3.516138916015625,0.8516621589660645,0.49213936924934387,-0.3819902539253235
1772806413582070000,3.526070068359375,0.9557312726974487,0.5872113108634949,-0.3474852740764618
1772806413592001000,3.5360009765625,1.0135093927383423,0.7135716676712036,-0.3284825384616852
1772806413601933000,3.54593310546875,0.9671559929847717,0.9110444784164429,-0.3300713896751404
1772806413611864000,3.555864013671875,0.8040770292282104,1.0005933046340942,-0.32638928294181824
1772806413621796000,3.565796142578125,0.4835006296634674,0.9332461953163147,-0.28964248299598694
1772806413631727000,3.57572705078125,0.02304113656282425,0.6674537062644958,-0.2407393753528595
1772806413641659100,3.5856591796875,-0.3869493007659912,0.35769689083099365,-0.19186824560165405
1772806413651590100,3.595590087890625,-0.6608666181564331,0.08544139564037323,-0.14240401983261108
1772806413661522200,3.605522216796875,-0.8509502410888672,-0.08696472644805908,-0.07186300307512283
1772806413671453000,3.615452880859375,-0.9856710433959961,-0.11069934815168381,0.0022778017446398735
1772806413681385000,3.625385009765625,-1.0431958436965942,-0.09253712743520737,0.018512431532144547
1772806413691316200,3.635316162109375,-1.0080504417419434,0.09293659776449203,0.06313822418451309
1772806413701248000,3.645248046875,-0.8680520057678223,0.4481189250946045,0.17859478294849396
1772806413711179000,3.655178955078125,-0.6473449468612671,0.8604910373687744,0.34495607018470764
1772806413721111000,3.665111083984375,-0.3656802475452423,1.0185775756835938,0.4859645664691925
1772806413731042000,3.6750419921875,-0.08267756551504135,1.1311070919036865,0.535641610622406
1772806413740973800,3.684973876953125,0.11788322776556015,1.1873424053192139,0.5206887125968933
1772806413750905000,3.694905029296875,0.23052828013896942,1.1762356758117676,0.47860413789749146
1772806413760836000,3.704836181640625,0.24962873756885529,1.007032036781311,0.41065144538879395
1772806413770768000,3.714767822265625,0.20185215771198273,0.9073078036308289,0.3003081679344177
1772806413780699100,3.72469921875,0.059119511395692825,0.7166398763656616,0.07812649011611938
1772806413790631200,3.734631103515625,-0.13505661487579346,0.629563570022583,-0.10210452973842621
1772806413800562200,3.744562255859375,-0.32429471611976624,0.5823640823364258,-0.042098984122276306
1772806413810494000,3.754493896484375,-0.5119596719741821,0.3299510180950165,0.187054842710495
1772806413820425000,3.764425048828125,-0.6621286869049072,0.05016836151480675,0.3544832468032837
1772806413830357000,3.77435693359375,-0.6715754270553589,0.03971438854932785,0.26525431871414185
1772806413840288000,3.7842880859375,-0.5198943018913269,0.34825465083122253,0.031955536454916
1772806413850220000,3.794219970703125,-0.3157545030117035,0.8302444815635681,-0.1567896157503128
1772806413860151000,3.804151123046875,-0.07177325338125229,1.0994261503219604,-0.23898355662822723
1772806413870083000,3.8140830078125,0.16259823739528656,1.0750720500946045,-0.274997740983963
1772806413880013800,3.824013916015625,0.3831058442592621,0.8841204643249512,-0.2957831919193268
1772806413889945000,3.833945068359375,0.5488964319229126,0.768696129322052,-0.3088603615760803
1772806413899877000,3.843877197265625,0.6384025812149048,0.8521385788917542,-0.3104841113090515
1772806413909808000,3.85380810546875,0.6078755855560303,0.9678118824958801,-0.2949906289577484
1772806413919740000,3.863739990234375,0.36501845717430115,0.8965973854064941,-0.24732165038585663
1772806413929671200,3.873671142578125,0.016982711851596832,0.7778733968734741,-0.24768756330013275
1772806413939603200,3.883603271484375,-0.27854400873184204,0.6347617506980896,-0.32899707555770874
1772806413949534000,3.893533935546875,-0.3655007481575012,0.5301357507705688,-0.5123741030693054
1772806413959466000,3.903466064453125,-0.2995139956474304,0.43997257947921753,-0.8017454147338867
1772806413969397000,3.91339697265625,-0.15557041764259338,0.29362255334854126,-1.027666687965393
1772806413979329000,3.9233291015625,-0.05478175729513168,0.1649753749370575,-1.137061595916748
1772806413989260000,3.933260009765625,-0.04312510043382645,0.030767766758799553,-1.1029335260391235
1772806413999192000,3.943192138671875,-0.12612996995449066,-0.14414812624454498,-0.9759476184844971
1772806414009123000,3.953123046875,-0.25038427114486694,-0.37826022505760193,-0.8311201333999634
1772806414019055000,3.96305517578125,-0.35989800095558167,-0.4253329336643219,-0.7319948673248291
1772806414028985900,3.97298583984375,-0.3858984410762787,-0.45145079493522644,-0.6558236479759216
1772806414038918100,3.982918212890625,-0.34866130352020264,-0.4415973722934723,-0.6364268064498901
1772806414048848100,3.99284814453125,-0.27358412742614746,-0.2538570463657379,-0.714605987071991
1772806414058779000,4.00277880859375,-0.18970336019992828,-0.07781516760587692,-0.8320751190185547
1772806414068711200,4.012711181640625,-0.10727692395448685,0.057196974754333496,-0.902518630027771
1772806414078642200,4.02264208984375,-0.04390567168593407,0.1369442641735077,-0.9028680324554443
1772806414088573000,4.032572998046875,0.035708993673324585,0.19036488234996796,-0.8280830383300781
1772806414098505000,4.0425048828125,0.1074950322508812,0.20086093246936798,-0.6971276998519897
1772806414108436200,4.052436279296875,0.12715847790241241,0.18534216284751892,-0.5493499636650085
1772806414118368300,4.0623681640625,0.08378597348928452,0.07970868051052094,-0.4208393692970276
1772806414128299000,4.072299072265625,0.05510346591472626,-0.007537011988461018,-0.3251575827598572
1772806414138231000,4.08223095703125,0.06163646653294563,-0.01836409419775009,-0.25659051537513733
1772806414148162000,4.092162109375,0.07756403088569641,0.028719795867800713,-0.20091313123703003
1772806414158093800,4.10209375,0.0895695611834526,0.06824403256177902,-0.14616920053958893
1772806414168025000,4.112025146484375,0.10852354764938354,-0.03810290992259979,-0.1682683676481247
1772806414177957000,4.12195703125,0.15257462859153748,-0.036977726966142654,-0.2516873776912689
1772806414187888000,4.13188818359375,0.18669851124286652,0.07829560339450836,-0.3131227493286133
1772806414197820000,4.14181982421875,0.19918687641620636,0.07187152653932571,-0.3948785960674286
1772806414207751200,4.151751220703125,0.21430030465126038,-0.052691973745822906,-0.45236772298812866
1772806414217683200,4.16168310546875,0.18298712372779846,-0.1668475717306137,-0.49345603585243225
1772806414227614200,4.1716142578125,0.12569721043109894,-0.22173772752285004,-0.5113876461982727
1772806414237545200,4.181545166015625,0.07103902101516724,-0.31957560777664185,-0.48026514053344727
1772806414247477200,4.191477294921875,0.07108589261770248,-0.435489684343338,-0.37727004289627075
1772806414257408300,4.201408203125,0.10186697542667389,-0.5439946055412292,-0.25415903329849243
1772806414267340300,4.21134033203125,0.1406034529209137,-0.5976151823997498,-0.15801706910133362
1772806414277271300,4.221271240234375,0.19488054513931274,-0.5987510681152344,-0.11097019165754318
1772806414287203300,4.231203369140625,0.2514588534832001,-0.586897075176239,-0.11136434227228165
1772806414297134000,4.241134033203125,0.26568466424942017,-0.5850139260292053,-0.14890852570533752
1772806414307066000,4.251066162109375,0.2596065402030945,-0.5505592823028564,-0.16498389840126038
1772806414316997400,4.260997314453125,0.2456853985786438,-0.5127043128013611,-0.137216717004776
1772806414326929400,4.270929443359375,0.26096901297569275,-0.4987812936306,-0.09084548056125641
1772806414336860200,4.280860107421875,0.271483451128006,-0.5188745856285095,-0.018736669793725014
1772806414346792200,4.290792236328125,0.2415124922990799,-0.5825425386428833,0.07033567875623703
1772806414356723200,4.30072314453125,0.18902131915092468,-0.6441294550895691,0.14077122509479523
1772806414366655200,4.3106552734375,0.14297473430633545,-0.693373441696167,0.21630114316940308
1772806414376586200,4.320586181640625,0.12954574823379517,-0.7704359889030457,0.24212607741355896
1772806414386517200,4.330517333984375,0.1629985123872757,-0.7850090861320496,0.21441856026649475
1772806414396449300,4.34044921875,0.22958925366401672,-0.6949364542961121,0.1749798059463501
1772806414406380300,4.35038037109375,0.30143892765045166,-0.6281883120536804,0.1970914900302887
1772806414416312300,4.360312255859375,0.32077720761299133,-0.6062052249908447,0.28174060583114624
1772806414426245000,4.3702451171875,0.3026789128780365,-0.5683486461639404,0.4325016140937805
1772806414436176400,4.38017626953125,0.2650851905345917,-0.4631548821926117,0.6385674476623535
1772806414446108400,4.3901083984375,0.19040323793888092,-0.4242841601371765,0.8080765604972839
1772806414456039200,4.4000390625,0.053473345935344696,-0.4966880679130554,0.8721141219139099
1772806414465971200,4.40997119140625,-0.10134659707546234,-0.6192997097969055,0.9788779020309448
1772806414475902200,4.419902099609375,-0.28041326999664307,-0.6372310519218445,1.1456886529922485
1772806414485833200,4.429833251953125,-0.40362921357154846,-0.7651711702346802,1.3734997510910034
1772806414495765200,4.43976513671875,-0.5194897651672363,-0.9018587470054626,1.591108798980713
1772806414505696300,4.4496962890625,-0.6023303270339966,-0.9441720843315125,1.7338815927505493
1772806414515628300,4.459628173828125,-0.6462253332138062,-0.9384889006614685,1.7838371992111206
1772806414525559300,4.469559326171875,-0.6302959322929382,-0.8806743621826172,1.7153124809265137
1772806414535491300,4.4794912109375,-0.5635059475898743,-0.6781747937202454,1.4686810970306396
1772806414545422300,4.48942236328125,-0.5168271660804749,-0.6367378234863281,1.2886713743209839
1772806414555354400,4.499354248046875,-0.542599618434906,-0.7681962847709656,1.2386689186096191
1772806414565285000,4.50928515625,-0.561491847038269,-0.744925856590271,1.1560454368591309
1772806414575217200,4.519217041015625,-0.5294710397720337,-0.6106870770454407,1.0493030548095703
1772806414585148400,4.5291484375,-0.49660390615463257,-0.425667941570282,0.950931191444397
1772806414595080200,4.539080078125,-0.45272088050842285,-0.2352742999792099,0.8530946373939514
1772806414605011200,4.54901123046875,-0.3867911100387573,-0.2081231027841568,0.6988108158111572
1772806414614943200,4.558943115234375,-0.3422553539276123,-0.19182616472244263,0.5921527743339539
1772806414624874200,4.568874267578125,-0.2899141013622284,-0.14134781062602997,0.5288691520690918
1772806414634805200,4.57880517578125,-0.25302746891975403,-0.11958765238523483,0.4931489825248718
1772806414644737300,4.5887373046875,-0.21736080944538116,-0.09988398849964142,0.4535382091999054
1772806414654668300,4.598668212890625,-0.20468735694885254,-0.08315880596637726,0.41408318281173706
1772806414664600000,4.60860009765625,-0.20769593119621277,-0.046781089156866074,0.41534528136253357
1772806414674531300,4.61853125,-0.2045736461877823,0.0011406318517401814,0.41554927825927734
1772806414684463400,4.62846337890625,-0.20684772729873657,-0.0043840957805514336,0.4249821901321411
1772806414694394400,4.638394287109375,-0.19868379831314087,-0.011213239282369614,0.4322185218334198
1772806414704326100,4.648326171875,-0.1966390311717987,-0.025721874088048935,0.4203943610191345
1772806414714257200,4.658257080078125,-0.19702784717082977,-0.04141055792570114,0.3912404775619507
1772806414724189200,4.668189208984375,-0.1959141194820404,-0.04367078095674515,0.34778672456741333
1772806414734120200,4.6781201171875,-0.19644354283809662,-0.04829802364110947,0.2914230525493622
1772806414744052200,4.68805224609375,-0.18766523897647858,-0.05654183775186539,0.22859163582324982
1772806414753983200,4.697983154296875,-0.15460476279258728,-0.03155047073960304,0.15075728297233582
1772806414763915300,4.707915283203125,-0.10851715505123138,0.010402306914329529,0.09038235992193222
1772806414773846300,4.71784619140625,-0.04455069079995155,0.09278106689453125,0.014679343439638615
1772806414783777300,4.72777734375,0.003148122690618038,0.18337221443653107,-0.0540136992931366
1772806414793709300,4.737709228515625,0.025616679340600967,0.25401923060417175,-0.10120198130607605
1772806414803640300,4.747640380859375,0.04761013016104698,0.28660592436790466,-0.12974920868873596
1772806414813572000,4.757572021484375,0.06827972084283829,0.2918403744697571,-0.13795892894268036
1772806414823503400,4.76750341796875,0.07777708768844604,0.27949875593185425,-0.14280880987644196
1772806414833435400,4.777435302734375,0.0884086936712265,0.2503392696380615,-0.17086069285869598
1772806414843366100,4.7873662109375,0.10055616497993469,0.20227853953838348,-0.20818889141082764
1772806414853298200,4.797298095703125,0.1260215789079666,0.1557549685239792,-0.26413312554359436
1772806414863229200,4.807229248046875,0.1480880081653595,0.1384153962135315,-0.3330796957015991
1772806414873161200,4.8171611328125,0.17321279644966125,0.1574103981256485,-0.39810821413993835
1772806414883092200,4.82709228515625,0.1766996681690216,0.19529519975185394,-0.45798459649086
1772806414893024300,4.837024169921875,0.1569853574037552,0.25066524744033813,-0.49864867329597473
1772806414902955300,4.846955322265625,0.13021020591259003,0.2846953868865967,-0.5336048007011414
1772806414912887300,4.85688720703125,0.11296969652175903,0.30586299300193787,-0.5667055249214172
1772806414922818300,4.866818359375,0.09078316390514374,0.28488579392433167,-0.5890832543373108
1772806414932749300,4.876749267578125,0.06022898480296135,0.20888769626617432,-0.6023843884468079
1772806414942681300,4.886681396484375,0.03806908801198006,0.1417238414287567,-0.6193023920059204
1772806414952612000,4.896612060546875,0.02563825249671936,0.11880947649478912,-0.6486120820045471
1772806414962544000,4.906544189453125,0.05252952128648758,0.13175083696842194,-0.6716029047966003
1772806414972475400,4.916475341796875,0.07482949644327164,0.19385655224323273,-0.6875964999198914
1772806414982407400,4.926407470703125,0.0669500082731247,0.28923261165618896,-0.6787872910499573
1772806414992338200,4.936338134765625,0.02689126878976822,0.3591368496417999,-0.6608498096466064
1772806415002270200,4.946270263671875,-0.054852861911058426,0.37834596633911133,-0.6043356657028198
1772806415012201200,4.956201171875,-0.13129091262817383,0.34740936756134033,-0.5143716931343079
1772806415022133200,4.96613330078125,-0.19037207961082458,0.3163212239742279,-0.39371800422668457
1772806415032064300,4.976064208984375,-0.22807098925113678,0.2844013571739197,-0.2685241401195526
1772806415041996300,4.985996337890625,-0.23517043888568878,0.2952340543270111,-0.17795881628990173
1772806415051927300,4.99592724609375,-0.21220839023590088,0.3465912342071533,-0.13938772678375244
1772806415061859000,5.005859130859375,-0.19078832864761353,0.39980465173721313,-0.14805550873279572
1772806415071790300,5.015790283203125,-0.1766783595085144,0.43533414602279663,-0.15613554418087006
1772806415081721300,5.025721435546875,-0.18075352907180786,0.47221413254737854,-0.10706280171871185
1772806415091653400,5.0356533203125,-0.19239741563796997,0.5003483295440674,-0.0070760189555585384
1772806415101584100,5.045584228515625,-0.20456671714782715,0.5616593360900879,0.07578424364328384
1772806415111516200,5.05551611328125,-0.21695227921009064,0.6422295570373535,0.1124945878982544
1772806415121447400,5.065447509765625,-0.20430760085582733,0.6936194896697998,0.15214025974273682
1772806415131379500,5.07537939453125,-0.15652330219745636,0.7226902842521667,0.2039824277162552
1772806415141310200,5.085310302734375,-0.10097800940275192,0.7385702133178711,0.23823413252830505
1772806415151242200,5.0952421875,-0.06903978437185287,0.704286515712738,0.24872992932796478
1772806415161173200,5.10517333984375,-0.06520909816026688,0.6232398748397827,0.26428863406181335
1772806415171105000,5.11510498046875,-0.0622900053858757,0.5400611162185669,0.2795778512954712
1772806415181036300,5.125036376953125,-0.08273296058177948,0.49034440517425537,0.2664109170436859
1772806415190968300,5.13496826171875,-0.11074408888816833,0.5158337950706482,0.20906560122966766
1772806415200899300,5.1448994140625,-0.15600478649139404,0.5790145993232727,0.1940682828426361
1772806415210830800,5.154830810546875,-0.24921755492687225,0.6056678295135498,0.27463048696517944
1772806415220761900,5.164761962890625,-0.37606099247932434,0.4254753887653351,0.3720947206020355
1772806415230694000,5.17469384765625,-0.40987247228622437,0.13710857927799225,0.31346815824508667
1772806415240625000,5.184625,-0.22247780859470367,0.1083296686410904,0.12573476135730743
1772806415250556000,5.194555908203125,0.07927963882684708,0.343097984790802,-0.016292953863739967
1772806415260487700,5.20448779296875,0.33545443415641785,0.6779606342315674,-0.07185234874486923
1772806415270419000,5.2144189453125,0.40002116560935974,0.8508240580558777,-0.11993572860956192
1772806415280351000,5.22435107421875,0.29230350255966187,0.820099413394928,-0.21878480911254883
1772806415290281700,5.23428173828125,0.10216578096151352,0.5852317810058594,-0.391964316368103
1772806415300213800,5.2442138671875,-0.04447106271982193,0.30279314517974854,-0.5831300020217896
1772806415310145000,5.25414501953125,-0.06066654250025749,0.32863035798072815,-0.6958259344100952
1772806415320077000,5.2640771484375,0.03447674959897995,0.5598893761634827,-0.6697219014167786
1772806415330007800,5.2740078125,0.14027908444404602,0.7562376260757446,-0.5463200807571411
1772806415339939800,5.28393994140625,0.19395536184310913,0.8255791068077087,-0.41539135575294495
1772806415349870800,5.293870849609375,0.1638035774230957,0.7166667580604553,-0.33384695649147034
1772806415359803000,5.303802978515625,0.10985326021909714,0.5366905927658081,-0.30093348026275635
1772806415369734000,5.31373388671875,0.045411691069602966,0.3773813843727112,-0.32017216086387634
1772806415379666000,5.323666015625,-0.004791559185832739,0.28815189003944397,-0.356773316860199
1772806415389597000,5.333596923828125,-0.027661722153425217,0.18966127932071686,-0.4165157377719879
1772806415399527700,5.343527587890625,-0.07621407508850098,0.09781178086996078,-0.49625715613365173
1772806415409459700,5.353459716796875,-0.15651504695415497,-0.019412314519286156,-0.6054337024688721
1772806415419391000,5.363390869140625,-0.20368361473083496,-0.17197789251804352,-0.7104264497756958
1772806415429323000,5.373322998046875,-0.186904639005661,-0.34392407536506653,-0.7716842293739319
1772806415439253800,5.383253662109375,-0.14679422974586487,-0.5122132301330566,-0.7865654230117798
1772806415449185800,5.393185791015625,-0.11652740836143494,-0.5711976885795593,-0.7700501084327698
1772806415459117000,5.403116943359375,-0.06911009550094604,-0.46940878033638,-0.7448437809944153
1772806415469049000,5.413049072265625,-0.01871935836970806,-0.29060545563697815,-0.7136850953102112
1772806415478979800,5.422979736328125,0.01455790363252163,-0.15856461226940155,-0.6978909373283386
1772806415488912000,5.432911865234375,0.01667085476219654,-0.044976796954870224,-0.710200846195221
1772806415498843000,5.4428427734375,0.02400280348956585,0.07531872391700745,-0.7483320236206055
1772806415508774700,5.452774658203125,0.053466953337192535,0.0849606990814209,-0.7799962162971497
1772806415518706000,5.462705810546875,0.06478752195835114,0.11908005177974701,-0.8085396885871887
1772806415528638000,5.472637939453125,0.064192034304142,0.13658128678798676,-0.8297578692436218
1772806415538569000,5.48256884765625,0.07950840890407562,0.11944091320037842,-0.8342440128326416
1772806415548499700,5.492499755859375,0.1258319616317749,0.09614118188619614,-0.8036016821861267
1772806415558431700,5.502431640625,0.17347830533981323,0.12154267728328705,-0.7281111478805542
1772806415568363000,5.512363037109375,0.21920664608478546,0.14436542987823486,-0.6296522617340088
1772806415578295000,5.522294921875,0.24269360303878784,0.1446264237165451,-0.5344042778015137
1772806415588225800,5.532225830078125,0.25529035925865173,0.12451503425836563,-0.47302693128585815
1772806415598157800,5.54215771484375,0.2774582505226135,0.08705207705497742,-0.4533246159553528
1772806415608089000,5.552089111328125,0.29566335678100586,0.09561600536108017,-0.46739888191223145
1772806415618020900,5.562020751953125,0.3244132399559021,0.08726725727319717,-0.48388516902923584
1772806415627951900,5.571951904296875,0.35169705748558044,0.031206654384732246,-0.5094307661056519
1772806415637884000,5.5818837890625,0.3810168504714966,-0.01822667382657528,-0.526685893535614
1772806415647815000,5.59181494140625,0.3987143635749817,-0.04566841945052147,-0.5468057990074158
1772806415657746700,5.60174658203125,0.4142536520957947,-0.07430139183998108,-0.5747416019439697
1772806415667678000,5.611677978515625,0.4295990467071533,-0.14281333982944489,-0.5964367389678955
1772806415677610000,5.62160986328125,0.43306806683540344,-0.21483294665813446,-0.6068494319915771
1772806415687540700,5.631540771484375,0.416585236787796,-0.2616419792175293,-0.6122628450393677
1772806415697471700,5.6414716796875,0.40704500675201416,-0.3106769025325775,-0.6305981874465942
1772806415707403800,5.65140380859375,0.40369901061058044,-0.3525327444076538,-0.6527908444404602
1772806415717335000,5.6613349609375,0.3833116888999939,-0.40510115027427673,-0.6676552891731262
1772806415727266800,5.671266845703125,0.34234854578971863,-0.47025537490844727,-0.6747190356254578
1772806415737197800,5.68119775390625,0.3061058521270752,-0.5068634748458862,-0.6803484559059143
1772806415747129900,5.6911298828125,0.2962620258331299,-0.5405974388122559,-0.6722002029418945
1772806415757060900,5.701060791015625,0.3137131929397583,-0.5787988901138306,-0.6528140306472778
1772806415766993000,5.710992919921875,0.34524208307266235,-0.6130695343017578,-0.6179859638214111
1772806415776924000,5.720923828125,0.36036163568496704,-0.5788529515266418,-0.5571210384368896
1772806415786856000,5.73085595703125,0.3586524426937103,-0.5747628808021545,-0.45818647742271423
1772806415796786700,5.74078662109375,0.3185127377510071,-0.6152229905128479,-0.3254806399345398
1772806415806718700,5.75071875,0.28047001361846924,-0.6683253049850464,-0.17723603546619415
1772806415816650000,5.76064990234375,0.24196575582027435,-0.6175612211227417,-0.02515861578285694
1772806415826582000,5.77058203125,0.21282944083213806,-0.5137038230895996,0.10622310638427734
1772806415836512800,5.7805126953125,0.17954818904399872,-0.48653051257133484,0.2241726517677307
1772806415846444800,5.79044482421875,0.1759081780910492,-0.5026689767837524,0.36672818660736084
1772806415856375800,5.800375732421875,0.15908631682395935,-0.5437807440757751,0.5421551465988159
1772806415866306800,5.810306884765625,0.13396738469600677,-0.6188065409660339,0.7105484008789062
1772806415876238800,5.82023876953125,0.11910535395145416,-0.6120631098747253,0.8536549806594849
1772806415886169900,5.830169921875,0.07929668575525284,-0.49739059805870056,1.0101250410079956
1772806415896102000,5.840101806640625,-0.002273274352774024,-0.3134452700614929,1.2012372016906738
1772806415906033000,5.850032958984375,-0.06745067983865738,-0.15512779355049133,1.426268219947815
1772806415915965000,5.85996484375,-0.11563019454479218,-0.12344630062580109,1.7042334079742432
1772806415925896000,5.86989599609375,-0.18376557528972626,-0.3722992539405823,2.0194969177246094
1772806415935828000,5.879827880859375,-0.3100561201572418,-0.7256733179092407,2.330111026763916
1772806415945758700,5.8897587890625,-0.4602794647216797,-0.8540472388267517,2.5375566482543945
1772806415955690800,5.899690673828125,-0.6088244318962097,-0.48213469982147217,2.2302839756011963
1772806415965622000,5.9096220703125,-0.5817550420761108,-0.4176291823387146,1.4830150604248047
1772806415975554000,5.919553955078125,-0.5372493267059326,-1.3991316556930542,1.2106852531433105
1772806415985484800,5.92948486328125,-0.5442222952842712,-1.7460602521896362,1.191223382949829
1772806415995416800,5.939416748046875,-0.5231276750564575,-1.343337059020996,1.2473061084747314
1772806416005347800,5.949347900390625,-0.47243839502334595,-0.7411667704582214,1.3344873189926147
1772806416015278800,5.95927880859375,-0.3866496980190277,-0.2665262222290039,1.3915601968765259
1772806416025211000,5.9692109375,-0.2700927257537842,0.037702638655900955,1.334356665611267
1772806416035142000,5.979141845703125,-0.17910157144069672,0.18503083288669586,1.1835540533065796
1772806416045074000,5.989073974609375,-0.14385783672332764,0.22167913615703583,0.9790025353431702
1772806416055005000,5.9990048828125,-0.1568569839000702,0.15438903868198395,0.7797045707702637
1772806416064937000,6.00893701171875,-0.19496069848537445,0.03517769277095795,0.6311209797859192
1772806416074868000,6.018867919921875,-0.2504037320613861,-0.10910997539758682,0.5399506092071533
1772806416084799700,6.0287998046875,-0.3532555401325226,-0.25013235211372375,0.4811634421348572
1772806416094730800,6.038730712890625,-0.4731054902076721,-0.37121111154556274,0.4153226315975189
1772806416104662800,6.048662841796875,-0.5840783715248108,-0.4632595181465149,0.35961276292800903
1772806416114594000,6.058593994140625,-0.6524973511695862,-0.557009220123291,0.31479522585868835
1772806416124525800,6.06852587890625,-0.6760684847831726,-0.6085613369941711,0.3057575225830078
1772806416134456800,6.078456787109375,-0.6699948906898499,-0.5729420781135559,0.3248459994792938
1772806416144388900,6.088388916015625,-0.6397535800933838,-0.48228809237480164,0.3681607246398926
1772806416154320000,6.09831982421875,-0.5844078063964844,-0.3942394554615021,0.40577706694602966
1772806416164251000,6.1082509765625,-0.46945884823799133,-0.30679774284362793,0.40437543392181396
1772806416174183000,6.118182861328125,-0.3024898171424866,-0.2052578181028366,0.365669846534729
1772806416184114000,6.128114013671875,-0.11798682063817978,-0.12373392283916473,0.3220723271369934
1772806416194045700,6.138045654296875,0.009433449245989323,-0.02720392309129238,0.26588335633277893
1772806416203977000,6.14797705078125,0.06517340987920761,0.05752454698085785,0.20892338454723358
1772806416213909000,6.157908935546875,0.09414087980985641,0.09035972505807877,0.16022029519081116
1772806416223839700,6.16783984375,0.09983871132135391,0.08762465417385101,0.09199544042348862
1772806416233771800,6.177771728515625,0.09767463058233261,0.049848515540361404,0.01136956736445427
1772806416243702800,6.187702880859375,0.10621538758277893,0.004701278172433376,-0.0778692290186882
1772806416253634800,6.197634765625,0.12518161535263062,-0.042992740869522095,-0.1767904907464981
1772806416263565800,6.20756591796875,0.13408483564853668,-0.07541406154632568,-0.2649592161178589
1772806416273497900,6.217497802734375,0.1407930701971054,-0.09851725399494171,-0.322893351316452
1772806416283428900,6.227428955078125,0.14191105961799622,-0.11700651049613953,-0.36915087699890137
1772806416293361000,6.23736083984375,0.1406620442867279,-0.11480966955423355,-0.42817771434783936
1772806416303292000,6.2472919921875,0.1485346108675003,-0.0926753431558609,-0.5090038776397705
1772806416313223000,6.257222900390625,0.16432662308216095,-0.06310519576072693,-0.6049708724021912
1772806416323155000,6.267155029296875,0.18383720517158508,-0.010193515568971634,-0.7074794173240662
1772806416333085700,6.277085693359375,0.21603696048259735,0.014977884478867054,-0.7805916666984558
1772806416343017700,6.287017822265625,0.2370394468307495,0.03846883028745651,-0.8145437836647034
1772806416352949000,6.296948974609375,0.24248960614204407,0.08426321297883987,-0.804341197013855
1772806416362881000,6.306881103515625,0.24443477392196655,0.13625425100326538,-0.7792577147483826
1772806416372811800,6.316811767578125,0.22931255400180817,0.12775610387325287,-0.7530966997146606
1772806416382743800,6.326743896484375,0.18714138865470886,0.04870122671127319,-0.7454220056533813
1772806416392674800,6.3366748046875,0.14872050285339355,-0.012524047866463661,-0.7652667760848999
1772806416402606800,6.34660693359375,0.11043303459882736,-0.04525669291615486,-0.7728163003921509
1772806416412537900,6.356537841796875,0.06361732631921768,-0.06446527689695358,-0.7457383871078491
1772806416422470000,6.366469970703125,-0.02027224749326706,-0.043961066752672195,-0.6906106472015381
1772806416432401000,6.37640087890625,-0.13300199806690216,-0.05023094639182091,-0.5834663510322571
1772806416442333000,6.3863330078125,-0.2668396830558777,-0.08507361263036728,-0.40575656294822693
1772806416452264000,6.396263916015625,-0.402982622385025,-0.12770763039588928,-0.19158461689949036
1772806416462196000,6.406196044921875,-0.5380131602287292,-0.1279555708169937,0.013077186420559883
1772806416472127000,6.416126953125,-0.657890796661377,-0.05269703269004822,0.1918860822916031
1772806416482057700,6.4260576171875,-0.7033400535583496,0.08816447854042053,0.3190573453903198
1772806416491989800,6.43598974609375,-0.6582590937614441,0.32481297850608826,0.3428926467895508
1772806416501921000,6.445921142578125,-0.5398935675621033,0.6244907379150391,0.2951943576335907
1772806416511853000,6.45585302734375,-0.3741514980792999,0.8600255250930786,0.27942365407943726
1772806416521783800,6.46578369140625,-0.23727700114250183,0.8752071261405945,0.3534637987613678
1772806416531715800,6.4757158203125,-0.1682680994272232,0.7604789733886719,0.44769522547721863
1772806416541646800,6.485646728515625,-0.13635677099227905,0.6768943071365356,0.4671544134616852
1772806416551579000,6.495578857421875,-0.13167281448841095,0.6056443452835083,0.41834157705307007
1772806416561510000,6.505510009765625,-0.12166411429643631,0.5085068941116333,0.36796924471855164
1772806416571442000,6.51544189453125,-0.11484669148921967,0.3951609134674072,0.23254403471946716
1772806416581373000,6.525373046875,-0.14166605472564697,0.3049447238445282,0.03302878886461258
1772806416591304700,6.5353046875,-0.23719151318073273,0.4244229197502136,-0.13566462695598602
1772806416601236000,6.545236083984375,-0.36629703640937805,0.5588611364364624,-0.13476979732513428
1772806416611167000,6.5551669921875,-0.5341374278068542,0.4120810329914093,0.11800573021173477
1772806416621098800,6.5650986328125,-0.6933014988899231,0.07181054353713989,0.3214395344257355
1772806416631029800,6.57502978515625,-0.697561502456665,0.1471678763628006,0.4142096936702728
1772806416640961800,6.5849619140625,-0.40720558166503906,0.8283597230911255,0.5188063979148865
1772806416650893000,6.59489306640625,-0.013514210470020771,1.3544842004776,0.49411359429359436
1772806416660824800,6.604824951171875,0.17825601994991302,1.3299142122268677,0.2905285060405731
1772806416670755800,6.614755859375,0.19915197789669037,1.2059557437896729,0.0005677859298884869
1772806416680687900,6.62468798828125,0.18733926117420197,0.9153385758399963,-0.30073854327201843
1772806416690619000,6.634618896484375,0.19473806023597717,0.5732022523880005,-0.543574333190918
1772806416700551000,6.644551025390625,0.17157308757305145,0.3919057250022888,-0.6395067572593689
1772806416710482000,6.65448193359375,0.0548214353621006,0.30793118476867676,-0.5664855241775513
1772806416720414000,6.6644140625,-0.13326378166675568,0.22161734104156494,-0.423310250043869
1772806416730344700,6.6743447265625,-0.2307991236448288,0.0010370349045842886,-0.41051191091537476
1772806416740276700,6.68427685546875,-0.19701026380062103,-0.11944197863340378,-0.5542349815368652
1772806416750208000,6.6942080078125,-0.08564486354589462,-0.09924136847257614,-0.7854964137077332
1772806416760140000,6.70414013671875,-0.008805742487311363,-0.13521480560302734,-0.979097843170166
1772806416770070800,6.71407080078125,-0.02183419279754162,-0.26293522119522095,-1.0926337242126465
1772806416780001800,6.724001708984375,-0.10440816730260849,-0.3162996470928192,-1.204270839691162
1772806416789933800,6.733933837890625,-0.2320082038640976,-0.29395705461502075,-1.3017451763153076
1772806416799864800,6.74386474609375,-0.36628663539886475,-0.4639309048652649,-1.3404608964920044
1772806416809796900,6.753796875,-0.44735461473464966,-0.6055492758750916,-1.3343371152877808
1772806416819728000,6.763727783203125,-0.44434842467308044,-0.618370532989502,-1.2922083139419556
1772806416829660000,6.773659912109375,-0.35172581672668457,-0.459249347448349,-1.2473863363265991
1772806416839591000,6.7835908203125,-0.19198408722877502,-0.23476217687129974,-1.1868044137954712
1772806416849523000,6.79352294921875,0.000964064325671643,-0.003939347807317972,-1.085421085357666
1772806416859454000,6.803453857421875,0.20371903479099274,0.14857988059520721,-0.9482171535491943
1772806416869386000,6.813385986328125,0.42337870597839355,0.20494143664836884,-0.7897415161132812
1772806416879316700,6.823316650390625,0.5470731854438782,0.23460878431797028,-0.6596314311027527
1772806416889248800,6.833248779296875,0.5169571042060852,0.2711779773235321,-0.609919011592865
1772806416899180000,6.843179931640625,0.3930104076862335,0.2612142860889435,-0.6081171035766602
1772806416909112000,6.853112060546875,0.22997593879699707,0.21128800511360168,-0.6223610639572144
1772806416919042800,6.863042724609375,0.13496340811252594,-0.018007230013608932,-0.6595696806907654
1772806416928973800,6.872973876953125,0.0738084465265274,-0.17044763267040253,-0.6982677578926086
1772806416938905900,6.88290576171875,0.0729740783572197,-0.06112939864397049,-0.714601993560791
1772806416948836900,6.8928369140625,0.1178685799241066,-0.022162826731801033,-0.6629028916358948
1772806416958769000,6.902768798828125,0.15293282270431519,-0.016148610040545464,-0.5631693601608276
1772806416968700000,6.912699951171875,0.20820966362953186,-0.03803659975528717,-0.43989428877830505
1772806416978632000,6.9226318359375,0.27338865399360657,-0.10039025545120239,-0.33090201020240784
1772806416988563000,6.93256298828125,0.3295123875141144,-0.10547821968793869,-0.25090891122817993
1772806416998495000,6.942494873046875,0.3484935462474823,-0.07903622835874557,-0.2238730490207672
1772806417008426000,6.952426025390625,0.33908432722091675,-0.06286604702472687,-0.28342610597610474
1772806417018358000,6.96235791015625,0.3227469027042389,-0.0769544392824173,-0.4427632987499237
1772806417028288800,6.972288818359375,0.3017902076244354,-0.09681762009859085,-0.6433243751525879
1772806417038220800,6.982220703125,0.2811480462551117,-0.1562063843011856,-0.8015374541282654
1772806417048152000,6.992152099609375,0.2635831832885742,-0.2550954222679138,-0.875236451625824
1772806417058083800,7.002083740234375,0.23545485734939575,-0.356141060590744,-0.9067016839981079
1772806417068014800,7.012014892578125,0.2144465148448944,-0.4161497950553894,-0.9083224534988403
1772806417077945900,7.02194580078125,0.21334822475910187,-0.41899698972702026,-0.866051971912384
1772806417087878000,7.0318779296875,0.21997949481010437,-0.40671423077583313,-0.7913562059402466
1772806417097809000,7.041808837890625,0.24868518114089966,-0.38173243403434753,-0.7065305113792419
1772806417107741000,7.051740966796875,0.26758936047554016,-0.3021553158760071,-0.6132961511611938
1772806417117672000,7.061671875,0.30106502771377563,-0.4059230089187622,-0.47956979274749756
1772806417127603700,7.071603759765625,0.3382717967033386,-0.5163421630859375,-0.3077636957168579
1772806417137535000,7.081534912109375,0.3919731080532074,-0.5217025876045227,-0.14538756012916565
1772806417147467000,7.091467041015625,0.4749830365180969,-0.5150601267814636,-0.026921894401311874
1772806417157398000,7.10139794921875,0.49738579988479614,-0.5547231435775757,0.028450550511479378
1772806417167329800,7.111329833984375,0.3885658383369446,-0.5578963160514832,0.07947777956724167
1772806417177260800,7.1212607421875,0.18189390003681183,-0.5930918455123901,0.14027215540409088
1772806417187192800,7.13119287109375,-0.01552063599228859,-0.6383887529373169,0.20790793001651764
1772806417197123800,7.141123779296875,-0.12962563335895538,-0.6918636560440063,0.2922912538051605
1772806417207056600,7.151056640625,-0.1410711109638214,-0.7144307494163513,0.40657201409339905
1772806417216987400,7.1609873046875,-0.08869019150733948,-0.6865013837814331,0.6042616367340088
1772806417226918400,7.17091845703125,-0.04999791830778122,-0.674479067325592,0.9007835984230042
1772806417236850400,7.180850341796875,-0.03232811391353607,-0.721462607383728,1.2851957082748413
1772806417246781400,7.190781494140625,-0.0348285548388958,-0.8652514219284058,1.7031666040420532
1772806417256713500,7.20071337890625,-0.05384591966867447,-1.0505036115646362,2.10066819190979
1772806417266644500,7.21064453125,-0.09045905619859695,-1.2321884632110596,2.4378061294555664
1772806417276576500,7.220576416015625,-0.1464855819940567,-1.2229770421981812,2.6234233379364014
1772806417286507300,7.23050732421875,-0.23152324557304382,-1.0370324850082397,2.560000419616699
1772806417296439300,7.240439208984375,-0.31680163741111755,-0.9354270696640015,2.323699712753296
1772806417306370600,7.25037060546875,-0.35848331451416016,-0.9772818684577942,2.0117979049682617
1772806417316302300,7.26030224609375,-0.29130586981773376,-0.8267538547515869,1.5871113538742065
1772806417326233300,7.2702333984375,-0.24436819553375244,-0.747703492641449,1.3831199407577515
1772806417336165400,7.280165283203125,-0.24448271095752716,-0.5977827310562134,1.4011892080307007
1772806417346096600,7.2900966796875,-0.19602437317371368,-0.271898090839386,1.4498677253723145
1772806417356028400,7.3000283203125,-0.26098179817199707,-0.0007629956235177815,1.387715220451355
1772806417365959400,7.30995947265625,-0.27431491017341614,0.1726042628288269,1.239912986755371
1772806417375891500,7.319891357421875,-0.23115812242031097,0.32509392499923706,1.0798945426940918
1772806417385822200,7.329822265625,-0.233995720744133,0.33776766061782837,0.9383666515350342
1772806417395753500,7.33975341796875,-0.21396687626838684,0.09044361114501953,0.858116865158081
1772806417405685500,7.349685546875,-0.09731590002775192,-0.21222437918186188,0.7878767848014832
1772806417415616500,7.359616455078125,-0.061644721776247025,-0.46515756845474243,0.6839413046836853
1772806417425548300,7.36954833984375,-0.0603024885058403,-0.591908872127533,0.6299688816070557
1772806417435479300,7.379479248046875,-0.08237317204475403,-0.6799777150154114,0.6399242877960205
1772806417445411300,7.389411376953125,-0.10036255419254303,-0.6199913620948792,0.6653156876564026
1772806417455342600,7.399342529296875,-0.11857112497091293,-0.5007224678993225,0.6734551191329956
1772806417465274400,7.4092744140625,-0.12878620624542236,-0.42137759923934937,0.643390417098999
1772806417475205400,7.419205322265625,-0.15369369089603424,-0.3529047966003418,0.5800428986549377
1772806417485137400,7.429137451171875,-0.15365692973136902,-0.2694895267486572,0.48830416798591614
1772806417495068400,7.439068359375,-0.13741885125637054,-0.15753209590911865,0.3684781491756439
1772806417505000400,7.44900048828125,-0.1172507256269455,-0.08433139324188232,0.23945839703083038
1772806417514931500,7.458931396484375,-0.09499229490756989,-0.05896984413266182,0.10186431556940079
1772806417524863500,7.468863525390625,-0.06786986440420151,-0.015516375191509724,-0.032350484281778336
1772806417534794200,7.478794189453125,-0.035224299877882004,0.052976664155721664,-0.14275582134723663
1772806417544726300,7.488726318359375,0.008378038182854652,0.14968429505825043,-0.2100919783115387
1772806417554657500,7.498657470703125,0.06567967683076859,0.22753675282001495,-0.2374064326286316
1772806417564588300,7.50858837890625,0.14663684368133545,0.2557401657104492,-0.2522985637187958
1772806417574520300,7.518520263671875,0.21152982115745544,0.24417245388031006,-0.25556519627571106
1772806417584451300,7.528451416015625,0.27722787857055664,0.21193595230579376,-0.26555711030960083
1772806417594383400,7.53838330078125,0.3494834303855896,0.1845352202653885,-0.3081945776939392
1772806417604314400,7.548314453125,0.40383535623550415,0.17314861714839935,-0.36250707507133484
1772806417614246400,7.558246337890625,0.4484177231788635,0.16477563977241516,-0.4186702370643616
1772806417624177400,7.568177490234375,0.4844742715358734,0.17260293662548065,-0.462464839220047
1772806417634109400,7.578109375,0.5006841421127319,0.21755842864513397,-0.47302666306495667
1772806417644040400,7.58804052734375,0.49469441175460815,0.2983155846595764,-0.4611572325229645
1772806417653972500,7.597972412109375,0.47736868262290955,0.3367793560028076,-0.4510856866836548
1772806417663903500,7.607903564453125,0.415652334690094,0.3100646436214447,-0.39370229840278625
1772806417673835500,7.61783544921875,0.33852478861808777,0.21653737127780914,-0.32889294624328613
1772806417683766300,7.627766357421875,0.25214195251464844,0.17670392990112305,-0.2921687364578247
1772806417693698300,7.6376982421875,0.17602349817752838,0.17311638593673706,-0.26849111914634705
1772806417703629600,7.647629638671875,0.1011204943060875,0.17642749845981598,-0.2433580607175827
1772806417713561300,7.657561279296875,0.006472812965512276,0.16619376838207245,-0.20540907979011536
1772806417723492400,7.667492431640625,-0.09991247951984406,0.09710684418678284,-0.16445764899253845
1772806417733423400,7.67742333984375,-0.2033773511648178,0.026281138882040977,-0.1325487196445465
1772806417743355400,7.68735546875,-0.30201151967048645,-0.012469719164073467,-0.07992412894964218
1772806417753286400,7.697286376953125,-0.38558417558670044,-0.035419244319200516,-0.01944560371339321
1772806417763218400,7.707218505859375,-0.46453598141670227,-0.023066436871886253,0.04213307052850723
1772806417773149400,7.7171494140625,-0.5389193892478943,-0.014957377687096596,0.1084580346941948
1772806417783081500,7.72708154296875,-0.6079908609390259,0.18879441916942596,0.27667686343193054
1772806417793012500,7.737012451171875,-0.6405392289161682,0.24657489359378815,0.33902865648269653
1772806417802944500,7.746944580078125,-0.593782365322113,0.33998286724090576,0.3636690378189087
1772806417812875500,7.75687548828125,-0.5251055955886841,0.41326960921287537,0.3665958344936371
1772806417822807300,7.766807373046875,-0.43516531586647034,0.454244464635849,0.326550155878067
1772806417832738300,7.77673828125,-0.3412018120288849,0.5105335712432861,0.2859063148498535
1772806417842670300,7.78667041015625,-0.2691156268119812,0.5444619655609131,0.23611639440059662
1772806417852601600,7.7966015625,-0.2453801929950714,0.5311853289604187,0.15223588049411774
1772806417862533400,7.806533447265625,-0.2550775706768036,0.4878964424133301,0.08132494986057281
1772806417872464400,7.81646435546875,-0.2834053337574005,0.42988505959510803,0.02581082470715046
1772806417882395400,7.8263955078125,-0.28604692220687866,0.3803398907184601,-0.028027640655636787
1772806417892327400,7.836327392578125,-0.25660648941993713,0.32478848099708557,-0.13355432450771332
1772806417902258400,7.846258544921875,-0.21082088351249695,0.29301297664642334,-0.22883450984954834
1772806417912190500,7.8561904296875,-0.18413974344730377,0.2649581730365753,-0.2547891438007355
1772806417922121500,7.86612158203125,-0.17757931351661682,0.2824639081954956,-0.20018954575061798
1772806417932053200,7.87605322265625,-0.1576804369688034,0.3632224202156067,-0.1014387384057045
