time,seconds_elapsed,z,y,x
1772872164935865600,0.071865478515625,0.5178419705986976,-0.426025272166729,0.4041873882375657
1772872164945799700,0.081799560546875,0.6405296081125735,-0.3222252904742956,0.157551007232815
1772872164955732500,0.091732421875,0.6673270141452551,-0.2688596109896898,0.18591094987448303
1772872164965665500,0.10166552734375,0.5941770222604275,-0.19024317039251326,0.33336079779900607
1772872164975599600,0.111599609375,0.2122486659735441,-0.17942133212685585,0.6503676229726523
1772872164985532400,0.121532470703125,-0.3437999934226274,-0.1892699414461851,1.16851946323812
1772872164995465500,0.131465576171875,-0.9979401937365532,-0.3387456326425075,1.0982915693450719
1772872165005399600,0.141399658203125,-1.1347522181928158,-0.433832146525383,0.9564373129379004
1772872165015332400,0.151332275390625,-0.9189894066184758,-0.5292576831042767,0.9390672951377927
1772872165025266700,0.1612666015625,-0.5329173746556043,-0.6884931362926959,1.0672763994868844
1772872165035199700,0.17119970703125,0.2632838566839695,-0.8519839088380337,1.5029820117339492
1772872165045132500,0.181132568359375,0.8016618348330259,-0.91597911888659,2.2685978429347275
1772872165055066600,0.191066650390625,0.8596236099362373,-0.9016565790235995,2.499804307356477
1772872165064999700,0.200999755859375,0.7669301286697388,-0.8188695747435093,2.1398805698677896
1772872165074933500,0.21093359375,0.3008621844500303,-0.568054739010334,1.4638564545258879
1772872165084866600,0.220866455078125,-0.48861412254869935,-0.05066226574480533,0.7812748803645372
1772872165094799600,0.230799560546875,-1.553902343893051,0.4131096764922142,0.2209584805212915
1772872165104733400,0.2407333984375,-2.608962601211667,0.5726590179353952,-0.10183547668643295
1772872165114666500,0.25066650390625,-3.07759542748332,0.48982642094790935,-0.2532800568029284
1772872165124600600,0.2606005859375,-2.620058580243587,0.4542155938625335,-0.5263551665958017
1772872165134533600,0.27053369140625,-1.697256337338686,0.40301965963244435,-0.9146942667078226
1772872165144466700,0.280466796875,-0.7935609459638595,0.1672849041312933,-1.317358317835629
1772872165154400500,0.290400390625,-0.08996668665111064,-0.14183832818567751,-1.5092051240324973
1772872165164333600,0.30033349609375,0.3698486269146204,-0.4433241974920034,-1.3199462885022162
1772872165174267600,0.310267578125,0.9492162025779485,-0.7365688926756382,-1.0838615505196154
1772872165184200400,0.320200439453125,1.2609259442567824,-0.9839601837009191,-0.9330126712739467
1772872165194133500,0.330133544921875,1.2292518720984458,-1.1245990729689597,-0.7383947198633104
1772872165204067600,0.340067626953125,1.103272207301855,-1.1333242312163114,-0.6494177749019115
1772872165214000400,0.35000048828125,0.6594248627185821,-1.0312871675431727,-0.6176495947193354
1772872165223934700,0.359934814453125,0.20454466746747493,-0.9549965395450591,-0.6464066834524274
1772872165233867500,0.369867431640625,0.01594809523820877,-0.8558078510403633,-0.8107518078047782
1772872165243800600,0.379800537109375,0.1193219604730606,-0.6902765125781297,-0.9242194162264465
1772872165253734700,0.389734619140625,0.3967600147157907,-0.5522410838067531,-0.8380069675423204
1772872165263667500,0.39966748046875,0.757998049673438,-0.4754489360272884,-0.5558196729458869
1772872165273600500,0.4096005859375,1.21553606595695,-0.42770635712146754,-0.04242883653715253
1772872165283534600,0.41953466796875,1.6363181767731905,-0.35014147140383717,0.43437151409909125
1772872165293467600,0.429467529296875,1.6544284184813498,-0.2201402960062027,0.5765932886444032
1772872165303401500,0.4394013671875,1.2941595208168029,0.022671266013383862,0.5086680456705391
1772872165313334500,0.44933447265625,0.8270072884917259,0.3252671423882246,0.264318898820132
1772872165323267600,0.459267578125,0.21323943057656286,0.6098036304593086,-0.026236557279527187
1772872165333201700,0.46920166015625,-0.46054713497161864,0.8440846800208092,-0.3446512034244835
1772872165343134700,0.479134765625,-1.111222874045372,0.9962386505156755,-0.5537165631867945
1772872165353068500,0.489068603515625,-1.5245242737174034,1.070039799785614,-0.6528441691540181
1772872165363001600,0.499001708984375,-1.2309124987870455,1.0095300937652587,-0.6716928081393242
1772872165372934700,0.5089345703125,-0.552552633973956,0.853454565912485,-0.4963621063269674
1772872165382868500,0.518868408203125,-0.19012217436134815,0.5724871684998274,-0.16204788026064634
1772872165392801500,0.528801513671875,-0.07039397117495537,0.28481705857813355,0.158199095878005
1772872165402735400,0.5387353515625,-0.2820738973498344,0.007683540239930152,0.5143548591352999
1772872165412668400,0.54866845703125,-0.8753472487688064,-0.296314019626379,0.9636809273906052
1772872165422601500,0.5586015625,-1.8413333843618631,-0.594067716667056,1.3891677087664602
1772872165432535600,0.56853564453125,-2.9520272660970686,-0.9256120396286248,1.7423200524240732
1772872165442468600,0.578468505859375,-3.8300890345215794,-1.1433727470219135,1.9923663880027829
1772872165452402700,0.588402587890625,-4.233233197316527,-1.072156353548169,2.0689942851312457
1772872165462335500,0.59833544921875,-4.102914626532793,-0.6535065785855054,1.8058207569539546
1772872165472268500,0.6082685546875,-3.2330916941434142,-0.12453881833851337,1.2114189860269426
1772872165482202600,0.61820263671875,-1.940760557797551,0.3821113116383552,0.5977350070029497
1772872165492135400,0.628135498046875,-0.7079267355591058,0.6868038680315017,0.04155541470348835
1772872165502069500,0.638069580078125,0.3828828805327415,0.7365788295477629,-0.30724457896351814
1772872165512002600,0.64800244140625,1.6131769551604984,0.8914145864725113,-0.6776655989386141
1772872165521935400,0.657935302734375,2.6917285627037284,1.0088660768985747,-0.7955689247854053
1772872165531869700,0.66786962890625,3.38899537256062,0.9438099596202373,-0.7538245633810758
1772872165541802800,0.677802734375,3.795580031198263,0.8341548221588134,-0.8493800099499523
1772872165551736600,0.687736572265625,4.024790353366733,0.7066103922635316,-1.0216714901968835
1772872165561669600,0.697669677734375,3.9897330685108896,0.5498170715302229,-1.2371969858840106
1772872165571602700,0.707602783203125,3.761818046849966,0.3883312090665102,-1.575010306112468
1772872165581536500,0.71753662109375,3.5055987217247484,0.4115630315721035,-1.9341523917041719
1772872165591469600,0.727469482421875,3.1494419355541465,0.3725321669101715,-1.939796388940513
1772872165601403400,0.7374033203125,2.6337889994323254,0.3571732697367668,-1.8374005749575792
1772872165611336400,0.74733642578125,2.101296572190523,0.3957669120252132,-1.7268391363061963
1772872165621269500,0.75726953125,1.4911726237356662,0.371783394369483,-1.5025808835871517
1772872165631203600,0.76720361328125,0.857080355194211,0.40798868021667,-1.3141443242251871
1772872165641136600,0.77713671875,0.23685645300745964,0.39758828223347664,-1.2181785432897507
1772872165651069700,0.787069580078125,-0.39204467663168907,0.2621557294368744,-1.1099654213301837
1772872165661003500,0.79700341796875,-1.047913308173418,0.0799906515598297,-0.9040937430426478
1772872165670936600,0.8069365234375,-1.660879202055931,-0.15096154583990573,-0.6998422133028507
1772872165680870700,0.81687060546875,-2.0073253260731696,-0.4258838178694248,-0.5162421341866255
1772872165690803500,0.826803466796875,-1.9753502251416444,-0.735897861546278,-0.5270353308796882
1772872165700736500,0.836736572265625,-1.5840999137580394,-1.008492567411065,-0.5876990584179759
1772872165710670600,0.846670654296875,-1.0635913542985915,-1.370730719321966,-0.7173962824329734
1772872165720603400,0.856603271484375,-0.511848867663741,-1.9266776719093321,-0.9785565710917115
1772872165730538200,0.866538330078125,0.027377251747250555,-2.5076117662370203,-1.0777904139123857
1772872165740471000,0.876470947265625,0.5202829340100288,-2.77052211343348,-0.941534269773215
1772872165750404000,0.886404052734375,0.9172674051314592,-2.711832608577609,-0.7812200814373791
1772872165760338200,0.896338134765625,1.326629127267003,-2.343721765241027,-0.5374367517761885
1772872165770271000,0.90627099609375,1.629849273020029,-1.663059468704462,-0.28241949591711163
1772872165780205300,0.916205322265625,1.793065320277214,-1.0421434926003217,0.025804011081159112
1772872165790138400,0.926138427734375,1.3461141644597052,-0.32338147477209567,0.8778177305355668
1772872165800071200,0.9360712890625,0.3076888155996799,0.5080366158992051,1.958270787785947
1772872165810005200,0.946005126953125,-1.5737924547553062,1.5416320603847502,2.710755919256806
1772872165819938300,0.955938232421875,-4.143311518850922,3.079070760732889,2.891855413728952
1772872165829872000,0.9658720703125,-6.622483372545242,5.1554100017994635,2.143720440291613
1772872165839805200,0.97580517578125,-9.079270960474014,6.980743268474936,0.406306426218152
1772872165849738200,0.98573828125,-11.171457174491882,7.8342697305798525,-1.5012985886916517
1772872165859672000,0.995672119140625,-12.571298252964018,8.294741462227702,-3.6918393784776327
1772872165869605000,1.005605224609375,-11.990804888141154,8.25459065362513,-3.171522542198002
1772872165879539200,1.015539306640625,-10.24443935971856,7.0220753958165645,0.06101765554249286
1772872165889472300,1.02547216796875,-8.08502669864595,4.961705292776227,3.318475729179382
1772872165899405300,1.0354052734375,-5.249652466073632,3.425217609542608,4.833063715294003
1772872165909339100,1.045339111328125,-2.5532068117201328,2.348786647415161,5.4598769327431915
1772872165919272200,1.055272216796875,-1.820896745532751,1.3922458010375498,5.366770779022574
1772872165929206000,1.0652060546875,-2.225464219129085,2.022563811737299,4.955595869985222
1772872165939139000,1.07513916015625,-3.5203514696985483,4.028510835194587,4.488519040983915
1772872165949072100,1.085072021484375,-5.433952802413701,5.6868689943403,3.724032213813066
1772872165959006000,1.095005859375,-6.006422435256838,6.374558413034677,3.658994801235199
1772872165968939000,1.10493896484375,-5.075718625447154,6.682324970045685,4.020704253096878
1772872165978873300,1.114873291015625,-3.840485340851545,7.013007707741856,3.4018536850899457
1772872165988806100,1.12480615234375,-3.0459324612408873,7.209248657244443,1.6272722621388733
1772872165998739200,1.1347392578125,-2.443649873936176,7.1837559040695425,-0.5804330129377544
1772872166008673300,1.14467333984375,-2.7709277716249225,6.265688288471102,-2.9457910020560023
1772872166018606000,1.154606201171875,-3.352846200814843,4.301079822096228,-4.748684473386406
1772872166028540200,1.1645400390625,-2.961637390485406,2.284801958760619,-5.26023114323318
1772872166038473200,1.17447314453125,-1.5899392874360083,0.1502794087946415,-4.966332368054986
1772872166048406000,1.184406005859375,0.38936055211424825,-2.096522197395563,-4.605257414704561
1772872166058340000,1.194340087890625,3.420111226314306,-3.968581559410691,-3.5016894393265243
1772872166068273200,1.204273193359375,6.75443685105443,-6.078659403949976,-1.4440695117771625
1772872166078207200,1.214207275390625,10.220932227402924,-7.802972090518474,-0.9153202165864407
1772872166088140300,1.224140380859375,13.56657419592738,-9.179777161318063,-0.7149487431503831
1772872166098073300,1.2340732421875,16.096742661887408,-9.938758961331844,-0.417545028591156
1772872166108007200,1.244007080078125,17.374758857154845,-9.71509692094028,-0.47924905896261333
1772872166117940200,1.253940185546875,17.115648486763238,-8.939144696903229,-0.30866978946104645
1772872166127873300,1.263873291015625,15.212013836789131,-8.0617866928339,-0.05037497323602438
1772872166137807000,1.27380712890625,12.546799771523474,-7.328235102152824,0.010825637657940387
1772872166147740200,1.283740234375,9.704865449783206,-6.893931246462464,0.12258417713940142
1772872166157674000,1.293674072265625,7.303412211063503,-6.4841679577887055,0.134002519993484
1772872166167607000,1.30360693359375,5.201664972496032,-6.061726389327645,-0.35085911815389986
1772872166177540000,1.3135400390625,4.005964656865596,-5.682744607886672,-1.2494167082488536
1772872166187474200,1.32347412109375,3.6997996898323295,-5.161996978974342,-2.3877269111841914
1772872166197407200,1.3334072265625,3.691799923250079,-4.83935433987081,-3.4117718525141476
1772872166207341300,1.34334130859375,3.5205969688922165,-4.916582540979981,-3.608603169125318
1772872166217274000,1.353274169921875,3.194461811497807,-5.119484117415547,-3.534790329417586
1772872166227207200,1.363207275390625,3.060109455153346,-5.394375994306802,-3.0624583563670513
1772872166237141200,1.373141357421875,3.183995947062969,-5.695378464010357,-1.6977248316332696
1772872166247074000,1.383073974609375,3.4950001708209513,-5.976071136134863,-0.5765339596726
1772872166257008000,1.393008056640625,4.106749674651026,-6.233779823035001,-0.6426905855387449
1772872166266941200,1.402941162109375,4.853135027942061,-6.268071384215355,-1.4184654071822762
1772872166276874000,1.4128740234375,5.45900307251811,-5.910809267151356,-2.2396736540064213
1772872166286808300,1.422808349609375,5.760131214427948,-5.39958349982202,-3.1420489026933907
1772872166296741000,1.4327412109375,5.666760856813192,-5.079929521140456,-3.7689451222509143
1772872166306675200,1.44267529296875,4.916674895438551,-4.860851301407814,-3.725892454726994
1772872166316608300,1.452608154296875,3.9103608411103483,-4.868085344314575,-3.1944024825260042
1772872166326541300,1.462541259765625,2.85676071947217,-4.54013232384324,-2.7180823166221377
1772872166336475100,1.47247509765625,2.0576795487821102,-3.189426739940047,-2.58307003506422
1772872166346408200,1.482408203125,1.117274429169297,-2.042493085566163,-1.5338589421652256
1772872166356341200,1.49234130859375,-0.15643267072737216,-0.8742845879733562,-0.20841391011625526
1772872166366275000,1.502275146484375,-1.127092058828473,0.7643658311396837,1.522349121635407
1772872166376208100,1.5122080078125,-2.7943279364347458,2.8616362165540457,2.376492254333943
1772872166386142200,1.52214208984375,-3.9682302617549894,5.452597881650925,2.766226754327118
1772872166396075300,1.5320751953125,-5.408371786433458,8.262401619637012,3.820308229741454
1772872166406008300,1.54200830078125,-7.735225418981909,11.091204657125472,4.7883629883021115
1772872166415942100,1.551942138671875,-10.266025753104687,13.384557586610317,5.038714882698655
1772872166425875200,1.561875244140625,-13.54745682300329,15.06682561365366,4.1924835460379715
1772872166435809000,1.57180908203125,-16.375746650272607,15.535663607108592,3.473521913984418
1772872166445742000,1.5817421875,-17.42534338148832,15.172281545859574,4.160843668410182
1772872166455675100,1.591675048828125,-16.94369383725524,14.64072552268505,5.511919254669547
1772872166465609000,1.60160888671875,-16.254777507114408,14.043613031494617,6.226885971868038
1772872166475542000,1.6115419921875,-15.518796643459796,13.969708421850203,5.391293225860595
1772872166485476400,1.621476318359375,-14.146334570300578,13.858174631035327,3.5293647972375153
1772872166495409200,1.6314091796875,-12.711422178447245,13.083286821359396,1.6362284526631234
1772872166505342200,1.64134228515625,-11.293308945703506,12.132006671988963,0.020283274898305535
1772872166515276300,1.6512763671875,-10.08343514329195,11.444919895362853,-1.1318317276362329
1772872166525209000,1.661208984375,-8.950360502922534,10.859748017334937,-1.9041950603358446
1772872166535143200,1.67114306640625,-7.940966018235683,9.835582664495705,-2.137574631012976
1772872166545076200,1.681076171875,-6.55133712169826,8.321950956192612,-1.6174695377878843
1772872166555009000,1.691009033203125,-4.87794096789658,6.427195193722843,-0.7479000687029213
1772872166564943000,1.700943115234375,-3.3241263022869822,4.430125888726115,0.22635317917168138
1772872166574876200,1.710876220703125,-2.010353149461746,2.3164614178717136,0.6890553732853383
1772872166584810200,1.720810302734375,-0.30387831740081306,0.26233225504755975,0.3301576909087598
1772872166594743300,1.730743408203125,1.6498732393950224,-1.5944541345119476,-0.38330424774996935
1772872166604676400,1.74067626953125,3.655357321515679,-2.9955647945284842,-1.0359359431970865
1772872166614610200,1.750610107421875,6.051539341834187,-4.202260551425814,-1.3023346439659595
1772872166624543200,1.760543212890625,8.746140245103836,-5.395749036225676,-1.0741970655955373
1772872166634476300,1.770476318359375,11.41969426869154,-6.55704380890727,-0.514507711609453
1772872166644410000,1.78041015625,14.186869994306564,-7.496924612385034,0.3255785464249551
1772872166654343200,1.79034326171875,16.294503952825067,-8.118439138904213,1.1490873252764344
1772872166664277000,1.800277099609375,17.78000086901188,-8.791965592211485,1.519261823144555
1772872166674210000,1.8102099609375,18.754270264303685,-9.217894418266415,1.8067076227910817
1772872166684143000,1.82014306640625,18.283664676654336,-9.253286634165049,2.1621587449103594
1772872166694077200,1.8300771484375,15.946734471249579,-8.529402451017498,1.9923611273057757
1772872166704010200,1.84001025390625,12.604071226274966,-7.94781661478281,1.5566653788655995
1772872166713944300,1.8499443359375,9.253109524032473,-7.274646135306358,1.1797750167459249
1772872166723877000,1.859877197265625,6.2160635490804905,-6.503482314589619,0.5954476267181337
1772872166733810200,1.86981005859375,3.6195658771663903,-6.043064943477511,-0.43783261433839793
1772872166743744300,1.879744140625,1.9360884743332862,-5.665625130781531,-1.5320061539053915
1772872166753677000,1.889677001953125,1.263774903947115,-5.143914209794998,-2.5797870678707957
1772872166763611400,1.899611328125,1.4859955133587122,-4.718277060163021,-3.3939737454950807
1772872166773544200,1.909544189453125,2.5629630665808913,-4.415348006311059,-3.92970705435425
1772872166783477200,1.919477294921875,3.955914970061183,-4.395554341560602,-4.129455135194957
1772872166793411300,1.929411376953125,5.074961669600009,-4.734173132953048,-3.8139495083644985
1772872166803344100,1.93934423828125,5.886952006223797,-5.252587350481749,-3.223834913237393
1772872166813278200,1.9492783203125,6.228460089316964,-5.903827153179049,-2.3453318307861686
1772872166823211300,1.959211181640625,6.264080268752575,-6.520577826297282,-1.559874111779034
1772872166833144000,1.96914404296875,6.290813377377391,-6.905017873144149,-0.8631077257249504
1772872166843078100,1.979078125,6.309798063832521,-6.987959191203117,-0.4300105424106121
1772872166853011200,1.98901123046875,6.387843426543474,-6.91620737567842,-0.48135830620154735
1772872166862944000,1.998944091796875,6.611130788403749,-6.815363905704021,-0.7366878428801894
1772872166872878300,2.00887841796875,6.860929725092649,-6.680732732418179,-0.9991693702053278
1772872166882811400,2.018811279296875,7.310116092616319,-6.195338740959763,-1.4188269339710473
1772872166892745200,2.0287451171875,7.696222611370683,-5.613450122386217,-1.9765335897073149
1772872166902678300,2.03867822265625,8.049420547735691,-4.418104027020931,-2.9281472088158127
1772872166912611300,2.048611328125,8.01538266905546,-3.6979607839673756,-2.3513624892525375
1772872166922545200,2.058545166015625,6.27089520946443,-2.966053453361988,-1.2056962244659661
1772872166932478200,2.068478271484375,5.203585126903653,-1.3355004159867763,0.5377743131674826
1772872166942412000,2.078412109375,4.411494838014245,1.0828852528333663,3.1651953850030896
1772872166952345000,2.088344970703125,2.442256958273053,5.749036404439806,4.422387987950444
1772872166962278100,2.098278076171875,-2.9265514640569683,11.708569662749767,4.858877370986342
1772872166972212200,2.108212158203125,-11.998644495725632,16.408230869770048,5.550878807660937
1772872166982145300,2.118145263671875,-21.937522699522972,20.592879192137715,5.574777569642663
1772872166992079400,2.128079345703125,-28.807576811313627,23.394006287193296,3.4103026567444203
1772872167002012200,2.13801220703125,-32.33493260681629,23.863393731224537,1.172217733234167
1772872167011945200,2.1479453125,-32.09891435819864,21.289972983515263,2.3316499269142748
1772872167021879300,2.15787939453125,-24.77554014008045,15.998444784742594,3.7492315369993445
1772872167031812000,2.16781201171875,-14.886861845213174,14.2031395765841,7.453854701465368
1772872167041746200,2.17774609375,-7.741205077913403,10.748838495898246,8.113305867668986
1772872167051679200,2.18767919921875,-2.7033511959582563,8.50170312770903,8.306075341668725
1772872167061612000,2.197612060546875,-0.28743980829715726,7.387655843892693,8.064744373595714
1772872167071546400,2.20754638671875,-0.8275824580311775,6.830660843557119,6.618994945907592
1772872167081479400,2.2174794921875,-2.6867770777761937,7.044173830378055,4.906850251516699
1772872167091412200,2.227412109375,-4.908310387197137,8.6435022929281,3.0057565181970594
1772872167101346300,2.23734619140625,-7.139267358523607,9.63387701984644,0.2291150451004505
1772872167111279400,2.247279296875,-8.509546242424845,8.992396394619345,-2.2348704915083943
1772872167121213200,2.257213134765625,-9.401134431898594,8.100482626453042,-3.9698622468709943
1772872167131146200,2.267146240234375,-9.306859818920493,7.444348621973395,-5.084910232162476
1772872167141079300,2.277079345703125,-8.231351816856861,6.244964064872264,-5.133981429323554
1772872167151013000,2.28701318359375,-6.10677666040957,4.5759874810785055,-4.7279146570801736
1772872167160946200,2.2969462890625,-3.3822809696137903,2.5660546028554436,-3.9366590654492377
1772872167170880300,2.30688037109375,-1.0088923803836107,0.07289981651604176,-2.6457199679836627
1772872167180813300,2.316813232421875,1.163643966156244,-2.43185539124608,-2.0539194655962287
1772872167190746400,2.326746337890625,3.9362323644697663,-4.580791666489839,-2.1403204225897787
1772872167200680200,2.33668017578125,7.091615965032577,-6.359774100878834,-2.241416698281467
1772872167210613200,2.34661328125,9.821910697495937,-7.637173625552654,-2.4446654807195065
1772872167220547000,2.356547119140625,12.126091310465336,-8.465937402322888,-2.557523213614523
1772872167230480100,2.366480224609375,14.003050719481706,-8.784394864696264,-2.0834078642785547
1772872167240413200,2.3764130859375,15.65806482889652,-8.70536282903552,-1.7715749346114693
1772872167250347300,2.38634716796875,17.07869735098481,-8.251769166463612,-1.8373400769419967
1772872167260280000,2.396280029296875,17.753318613791464,-7.852921239557862,-1.2879133199036121
1772872167270213000,2.406213134765625,17.457634708762168,-7.663541407996416,0.03368000515326857
1772872167280147200,2.416147216796875,15.453023902344702,-7.182253682813048,1.0598749641239642
1772872167290080300,2.426080322265625,11.605050836086273,-6.130931442978977,0.7358432087495923
1772872167300014300,2.436014404296875,6.926668563938141,-5.245563150933385,0.24535744711011648
1772872167309947100,2.445947021484375,2.5415093596637246,-5.1067333569139235,-0.6961341525651514
1772872167319880200,2.455880126953125,-0.37571781120896336,-5.148593892043829,-1.8963645128406583
1772872167329814300,2.465814208984375,-1.2729103965610264,-5.4773254956722255,-3.252821646007895
1772872167339747000,2.4757470703125,-0.30677813049554825,-5.825253382679819,-4.4799534572124475
1772872167349681200,2.48568115234375,1.6445675342023371,-5.800125955685973,-5.6792257861107585
1772872167359614200,2.4956142578125,3.3762861131131645,-5.562727066364884,-6.116296768426895
1772872167369547000,2.505547119140625,4.614545467531681,-5.379281301027536,-5.696106778284907
1772872167379481300,2.5154814453125,5.219309350258111,-5.459719696354866,-4.6821746501684185
1772872167389414400,2.525414306640625,5.502185796162486,-5.671463919937611,-3.8446021285206076
1772872167399347200,2.53534716796875,5.621404296261072,-5.972934591674805,-3.2060879518836733
1772872167409281300,2.54528125,5.708063173538446,-6.438360730859637,-2.8355858294963836
1772872167419214300,2.55521435546875,5.896995845854282,-6.697432522806525,-2.6668688467353583
1772872167429148200,2.565148193359375,6.1955345557928085,-6.783851746109128,-2.5178081660807132
1772872167439081200,2.575081298828125,6.64290890545845,-6.85057725790441,-2.378681873332709
1772872167449014300,2.58501416015625,7.146760344627499,-6.8768883417248725,-2.209087084823847
1772872167458948000,2.594947998046875,7.535672568452358,-7.028139225900173,-1.7861909044630824
1772872167468881200,2.604881103515625,7.389841371238231,-7.466670343896746,-0.9858180865272879
1772872167478815200,2.614815185546875,6.6519403531759975,-7.822763417181372,-0.07861702511906624
1772872167488748300,2.624748291015625,5.590947783198953,-6.9054474967330695,-0.020607026959955692
1772872167498681300,2.634681396484375,5.15357226497829,-4.789280687668919,-1.442759013700485
1772872167508615200,2.644615234375,4.043653459268808,-2.5296874044448137,-1.5434969774737952
1772872167518548200,2.65454833984375,2.3834026182442902,0.8639853122770785,-2.593421040947735
1772872167528482300,2.664482421875,2.1472417462855575,4.683507360076904,-1.794990150859952
1772872167538415000,2.6744150390625,1.1806950542002916,9.116774469438194,-0.06513751195147634
1772872167548348200,2.68434814453125,-2.071924347233772,14.290594572675227,1.7537036162257194
1772872167558282200,2.6942822265625,-11.01105267752409,17.69042405846119,4.82570283113718
1772872167568215000,2.704215087890625,-23.648677798354623,20.215221937298775,6.720560300415754
1772872167578148000,2.714148193359375,-35.61327272496223,23.535895468783377,5.790217725133895
1772872167588082400,2.72408251953125,-37.089029168379305,23.026730141115188,1.124760985532403
1772872167598015200,2.73401513671875,-33.83465678579807,24.750040957164764,5.438174219501018
1772872167607949300,2.74394921875,-27.411565520262716,17.61498098720312,7.457737095856666
1772872167617882400,2.75388232421875,-14.767985290420054,11.0697059420228,8.955708878213168
1772872167627815200,2.763815185546875,-6.9361191138505935,7.820316608551144,11.964579729038476
1772872167637749200,2.773749267578125,-1.895152068310976,4.004882706847787,11.956547229230404
1772872167647682300,2.783682373046875,0.7339005502492189,2.798191626125574,11.650088247686623
1772872167657616100,2.7936162109375,2.229284654200077,2.6003379807293414,9.482377713868022
1772872167667549200,2.803549072265625,2.702063494235277,3.8734973836153745,6.171431795671582
1772872167677482200,2.813482177734375,1.0570119759082794,6.153721951457857,3.4128704614058134
1772872167687416300,2.823416259765625,-1.5685452017515897,7.856895403885841,1.17479518250674
1772872167697349400,2.833349365234375,-4.219299364510178,8.267821891120075,-0.1611976931720972
1772872167707283200,2.843283203125,-6.7080182142287486,8.005710585346817,-1.540451910689473
1772872167717216300,2.85321630859375,-7.9338821974545715,7.347932905313372,-2.6277909280613065
1772872167727149300,2.8631494140625,-7.427278829228878,5.990582476568222,-3.0726132551565764
1772872167737082400,2.873082275390625,-5.3717444757819175,3.86874931230545,-2.8287480924308297
1772872167747015700,2.883015625,-2.513168815842271,1.304967330557108,-2.3935677461668847
1772872167756949800,2.89294970703125,0.6606219635486602,-1.2305050870299339,-2.4557176206097004
1772872167766882600,2.902882568359375,4.1631864321440455,-3.833778536689281,-2.7180291251301765
1772872167776815600,2.912815673828125,8.212306924647093,-6.203393452599644,-2.808930754543841
1772872167786749700,2.922749755859375,12.25847967326045,-8.04434982034266,-2.9388924747139216
1772872167796682500,2.9326826171875,15.115768800520897,-9.331161901006102,-3.1225647422835228
1772872167806615600,2.942615478515625,16.361148800599572,-9.826346049594878,-3.2351448272809384
1772872167816549600,2.952549560546875,16.17765802707672,-9.559774257281422,-3.0141409001827237
1772872167826482400,2.962482421875,15.054893183797597,-8.766192853051423,-2.8607182249262926
1772872167836416500,2.97241650390625,13.376243347251414,-7.902392249691486,-2.7850559579595924
1772872167846349800,2.982349853515625,11.507860043400525,-7.177820668801665,-2.6635364874422547
1772872167856282600,2.99228271484375,9.511986670190096,-6.504048131778836,-2.3986482643015683
1772872167866216700,3.002216796875,7.209812136346101,-5.97598287332952,-2.344235413851589
1772872167876149800,3.012149658203125,4.585996249395609,-5.761434698241949,-2.2070948880933225
1772872167886083600,3.02208349609375,2.1566437808811663,-5.590044112357497,-1.920978291223943
1772872167896016600,3.0320166015625,0.37629882596731185,-5.332402645474672,-1.6568734735459087
1772872167905949700,3.04194970703125,-0.3653893094182014,-5.033080091682076,-1.448505448397994
1772872167915883500,3.051883544921875,-0.014724690923094749,-4.8148482596457,-1.7420473729625343
1772872167925816600,3.061816650390625,0.931956440219283,-4.830865912988782,-2.1430865263022483
1772872167935750400,3.07175048828125,2.207377942818403,-5.078990778985619,-2.5191075582414864
1772872167945683500,3.081683349609375,3.5585517287552353,-5.5478515687942505,-2.409665332878381
1772872167955616800,3.09161669921875,4.754987372922897,-6.128603876814246,-2.0267856672160325
1772872167965550600,3.101550537109375,5.939532672810554,-6.561010374450683,-2.00627596315071
1772872167975483600,3.111483642578125,6.996871396455168,-6.63983256675303,-2.2333545339874923
1772872167985416700,3.121416748046875,7.890059422340989,-6.561009205406904,-2.933404983213544
1772872167995350500,3.1313505859375,8.757572908744216,-6.400673682022094,-3.5922014849007127
1772872168005283600,3.14128369140625,9.536144375368952,-6.122417881655693,-3.8892762597665187
1772872168015217700,3.1512177734375,9.84367127840519,-5.989399988785386,-3.865523043735325
1772872168025150500,3.161150390625,9.583524550703167,-6.019980420488118,-3.4198087362363934
1772872168035083500,3.17108349609375,8.661140240949392,-6.16496464548409,-2.5667940230458974
1772872168045017600,3.181017578125,6.91241967383325,-6.278447232279181,-1.5320149217337369
1772872168054950700,3.19095068359375,4.621432888957858,-5.475391312739252,-0.9738463475741446
1772872168064884700,3.200884765625,2.6133997068762778,-3.0840625776708124,-1.2467803683958947
1772872168074817500,3.210817626953125,0.25628771418631074,-0.8881628912001848,-0.5750279390238225
1772872168084750600,3.22075048828125,-2.582839148917794,1.3082359769642353,0.3496216853134334
1772872168094684700,3.2306845703125,-5.592595550405979,4.289657679849863,2.482796473932266
1772872168104617500,3.240617431640625,-8.569395438709854,8.436747548195719,2.8578894312411545
1772872168114550500,3.250550537109375,-8.767024043178559,13.257841424232721,1.4684103184379635
1772872168124484600,3.260484619140625,-8.970439998877048,16.353829417496918,0.18411884229332207
1772872168134417400,3.27041748046875,-11.816820778632163,16.996330033421515,0.5932859186396002
1772872168144351500,3.2803515625,-17.14677310834527,17.437854488015173,3.9044554164588448
1772872168154284800,3.290284912109375,-22.310438312792776,17.257098107892276,8.557071963709593
1772872168164217600,3.300217529296875,-25.36116560709476,14.848763877487182,12.642308310210703
1772872168174151700,3.310151611328125,-24.398892939066886,11.727274363219736,14.58300515512228
1772872168184084700,3.320084716796875,-19.04931937856078,10.048487748551368,14.496203654503821
1772872168194018600,3.3300185546875,-12.386173156237602,8.796893696263432,12.30219489634633
1772872168203951600,3.33995166015625,-6.599951222741604,7.862531948468089,9.443183767598867
1772872168213884700,3.349884765625,-2.5551076769053935,7.531252998444438,6.970577848291397
1772872168223818500,3.359818603515625,-0.8842699754148721,7.499231135761737,4.881508304989338
1772872168233751600,3.36975146484375,-1.1035896026879548,7.397121591374278,3.1540017908155917
1772872168243684600,3.3796845703125,-2.9271745643913745,7.0968141181975595,2.149419382585585
1772872168253618400,3.389618408203125,-5.937138471150398,6.899722104823589,1.5065549017846585
1772872168263551700,3.3995517578125,-8.468743107393383,6.253032805037498,1.02633159096241
1772872168273485600,3.409485595703125,-8.670480900746583,5.236988799333572,0.7715975359588861
1772872168283418600,3.419418701171875,-7.353840083530545,4.233249563929438,-0.23734394426345823
1772872168293351700,3.4293515625,-5.270593547293544,3.3838656084567305,-2.184181483887136
1772872168303285500,3.439285400390625,-2.676560219666362,2.3520289903372524,-4.083092320209741
1772872168313218600,3.449218505859375,0.33261049088835715,0.8972422697126865,-5.750731517919898
1772872168323152600,3.459152587890625,3.2564860137343405,-0.9790946234911679,-7.176273439359664
1772872168333085400,3.46908544921875,6.081812899544834,-3.1874960641384122,-7.288699210578203
1772872168343018500,3.4790185546875,8.660386207711696,-5.324575897371768,-5.9662698730885975
1772872168352952600,3.48895263671875,10.856397537863254,-7.112855736938118,-4.022217580269277
1772872168362885600,3.4988857421875,12.644184625476598,-8.325403142473101,-2.0261454696163534
1772872168372819700,3.50881982421875,13.954522543156147,-9.231358879995346,-0.42700829185470934
1772872168382752800,3.518752685546875,14.867350504535436,-9.690834586343168,0.6686617698803544
1772872168392685600,3.528685546875,15.214274767458438,-9.221519038504361,1.1889511336311698
1772872168402619600,3.53861962890625,14.517314247071742,-8.088948840525745,0.9493420209147035
1772872168412552700,3.548552734375,12.379481549644469,-6.8087512095659966,0.48246948231384157
1772872168422485500,3.558485595703125,9.56007470153272,-5.17735003092885,-0.4432679372601211
1772872168432419600,3.568419677734375,6.5208630729794494,-3.896493643799424,-1.3463811448328196
1772872168442352600,3.5783525390625,3.9688790810525414,-3.486216560384631,-1.787574613906443
1772872168452286500,3.588286376953125,2.312972991234064,-3.8087493093729017,-1.9114881399534642
1772872168462219800,3.5982197265625,1.4609008195906876,-4.726339370587468,-1.483120688574761
1772872168472152800,3.60815283203125,1.1679928090155125,-5.911358717727661,-0.7365582251511513
1772872168482086700,3.618086669921875,1.3776327537953852,-6.957472283002733,-0.07950052995532751
1772872168492019700,3.628019775390625,1.9855974783897399,-7.51267338565886,0.15884119317382572
1772872168501953500,3.63795361328125,2.6800761188328264,-7.616131422045826,-0.2022457428753376
1772872168511886600,3.647886474609375,3.775832543677091,-7.422915957844257,-1.2641266399942337
1772872168521819600,3.657819580078125,5.132912338787317,-6.9930269959867,-2.700330971354246
1772872168531753500,3.66775341796875,6.2381345111131665,-6.395754930320382,-4.258308894123137
1772872168541686500,3.6776865234375,7.371665663078427,-5.955032439759373,-5.496430593636632
1772872168551619600,3.68761962890625,8.8290476608932,-5.71316546511352,-5.848220416769385
1772872168561553400,3.697553466796875,9.896230317682027,-5.453478171616792,-5.850701127669215
1772872168571486700,3.70748681640625,10.162731382846832,-5.259705073532462,-5.889479478874803
1772872168581420500,3.717420654296875,9.707790397319197,-4.989521520462632,-5.69278201777637
1772872168591353600,3.727353515625,8.48031313367784,-4.816204350429773,-4.842526832427084
1772872168601286700,3.73728662109375,6.410213079261779,-4.682772616061568,-3.846624866519868
1772872168611220500,3.747220458984375,4.623558795070648,-4.540685866072773,-2.870650128614902
1772872168621153500,3.757153564453125,3.485861755597591,-4.22130953528881,-1.8127553785227237
1772872168631087600,3.767087646484375,2.9822704286694526,-3.2197114035665986,-1.2823925106555223
1772872168641020400,3.7770205078125,2.9472622436523435,-2.279100532248616,0.18546938011944292
1772872168650953500,3.786953369140625,2.7815175547003745,-1.0121189412146807,2.226501599352807
1772872168660887600,3.796887451171875,1.6055448528468608,0.5618950473368167,4.611551546412706
1772872168670820600,3.806820556640625,-1.4652572612345218,3.3414819262355566,6.736230747756362
1772872168680753700,3.816753662109375,-4.968444830164313,7.592239089804887,7.748150951528549
1772872168690687700,3.826687744140625,-9.252872208145261,12.411143931365013,8.255852051863075
1772872168700620500,3.83662060546875,-13.871053986352681,16.935567813944814,8.317759349721669
1772872168710554600,3.8465546875,-19.43440123044252,20.341665712475777,8.145759692028165
1772872168720487700,3.85648779296875,-23.496003018856047,21.532138064324855,7.6412249467700715
1772872168730420500,3.86642041015625,-23.876924243927,20.43798089137077,6.175005562505126
1772872168740355300,3.876355224609375,-21.84037516145706,17.279547255587577,5.02740379961133
1772872168750288100,3.8862880859375,-17.6656730635643,13.343942667627333,6.266050107520818
1772872168760222200,3.89622216796875,-12.59466510002613,10.46314757709503,8.271544711035489
1772872168770155300,3.9061552734375,-9.302810835790634,7.944463212701677,8.88231630974412
1772872168780088000,3.916088134765625,-8.094578370845317,6.649532707512378,8.090325974097848
1772872168790022100,3.926022216796875,-7.89792767149806,6.974798096334934,6.496601322904229
1772872168799955200,3.935955078125,-8.599466167324781,8.119167453178763,4.210330460634827
1772872168809889300,3.94588916015625,-9.751498606142402,9.248736715775728,0.9966427012719213
1772872168819822300,3.955822265625,-10.206806671416759,9.784321263813972,-2.460426236692071
1772872168829755400,3.96575537109375,-9.380687856197357,9.086987818461656,-4.970542094704508
1772872168839689200,3.975689208984375,-7.717518497377633,7.584612832710146,-6.169854171091318
1772872168849621200,3.985621337890625,-5.608740044999123,6.185365628477931,-6.531946777051687
1772872168859555300,3.995555419921875,-3.3850685545057058,4.363481040951609,-6.606166443994641
1772872168869488000,4.005488037109375,-1.2029220835775136,2.051943050956726,-6.395003819692135
1772872168879422200,4.015422119140625,1.0971709678173065,-0.4145727347820997,-5.805899278390407
1772872168889355300,4.025355224609375,3.7505858742177485,-2.8926678991556165,-4.859687226064503
1772872168899288000,4.0352880859375,7.2166305841892955,-5.454366060367226,-4.16011944578886
1772872168909222100,4.04522216796875,11.262414625746011,-7.291244803407788,-3.089885876996815
1772872168919155200,4.0551552734375,14.906049360764026,-8.589494223886728,-1.7252599042907357
1772872168929088000,4.065087890625,17.284639610290526,-9.717984459075332,-0.21028788729459047
1772872168939022300,4.075022216796875,18.794288970959187,-10.377966371154784,0.8853091092042624
1772872168948955400,4.084955322265625,19.47273417596817,-10.08690486522913,1.587601930529624
1772872168958889200,4.09488916015625,18.76610098735094,-9.059159900337457,1.6461488120444119
1772872168968822300,4.104822265625,16.607739881157872,-7.933598119816184,1.138668514853716
1772872168978755300,4.11475537109375,13.919053754889964,-6.949810954594612,0.5738559726350009
1772872168988689200,4.124689208984375,11.224394983953237,-6.125526953586935,0.18338672862648964
1772872168998622200,4.134622314453125,8.351827039018273,-5.5882280028462405,-0.11739771441221236
1772872169008556000,4.14455615234375,5.377869096142053,-5.3181332971036435,-0.49178003923371433
1772872169018489000,4.154489013671875,2.787616456097364,-5.263741781702637,-0.955659825759381
1772872169028422100,4.164422119140625,1.0273585959225893,-5.241715827855468,-1.55553155253008
1772872169038356200,4.174356201171875,0.4396820415973663,-5.022937467852235,-2.218618591018021
1772872169048289300,4.184289306640625,0.7673083143323659,-4.956212540578842,-3.0541625294476744
1772872169058222300,4.194222412109375,1.3404478092610834,-4.991981188574433,-3.887507788789272
1772872169068156200,4.20415625,1.994924109661579,-4.964510997846722,-4.158986934627593
1772872169078089200,4.214089111328125,2.6988135525286197,-5.069779298526049,-4.0951995221108195
1772872169088023300,4.224023193359375,3.6429859157204625,-5.344176669898629,-4.0833553550601005
1772872169097956000,4.2339560546875,4.705545004361868,-5.745646762001514,-3.953111603078246
1772872169107889200,4.24388916015625,5.575377873623371,-6.068390523391962,-3.859823370788991
1772872169117823200,4.2538232421875,6.192824127790331,-6.214620949056744,-3.9588668056041
1772872169127756000,4.263756103515625,6.541994708335399,-6.296291516527533,-3.8319168344706296
1772872169137690400,4.2736904296875,6.706530606019497,-6.264575358793139,-3.4921333832129835
1772872169147623400,4.28362353515625,6.646072337925434,-6.326191564750671,-3.0531366935312745
1772872169157556200,4.29355615234375,6.157762166759372,-6.376013288018107,-2.306571161367744
1772872169167490300,4.303490234375,4.921792969104647,-6.3724745924979445,-1.4354668108657003
1772872169177423400,4.31342333984375,3.149886756712198,-5.981608896517753,-1.095307658163458
1772872169187356200,4.323356201171875,2.7091397162318227,-4.066685959810019,-1.794914309144765
1772872169197290200,4.333290283203125,3.0005162794560194,-2.5386416952729225,-1.2222070681534707
1772872169207223300,4.343223388671875,2.4984108071714637,-1.5603408525079487,-0.542167579690367
1772872169217157000,4.3531572265625,1.9978028799682854,0.22660510810613632,0.22413550312221048
1772872169227090200,4.363090087890625,1.5590379532158374,2.276378998330235,1.9243463063523172
1772872169237023200,4.373023193359375,0.36820787397027016,4.67626045768857,4.070708639454842
1772872169246957300,4.382957275390625,-2.0370400808572766,7.7607842231303446,5.619163239336014
1772872169256890400,4.392890380859375,-6.193902570676803,10.963273858261108,6.038470016902685
1772872169266824200,4.40282421875,-13.084423131912946,14.257007944893836,6.671433573675155
1772872169276757200,4.41275732421875,-21.791619021594524,18.489788137745855,7.244945409047603
1772872169286690300,4.422690185546875,-28.760291328525543,20.91081701455116,6.63681000406146
1772872169296624000,4.4326240234375,-31.341937468266487,19.971085848677156,6.0764884896516795
1772872169306557200,4.44255712890625,-28.215961163973805,17.97820990371704,6.836434750783443
1772872169316490200,4.452490234375,-22.243980512022972,16.01939288022518,8.400858488690853
1772872169326424000,4.462424072265625,-16.574263143491745,14.231156879800558,8.351396246385574
1772872169336357000,4.472357177734375,-11.401401071631907,12.841970466333628,7.1829293901175255
1772872169346291200,4.482291259765625,-7.94690242254734,11.381323913764954,5.8071285279244185
1772872169356224300,4.492224365234375,-6.36767216065228,9.832055659413337,4.163416149246692
1772872169366157300,4.5021572265625,-6.215418236914276,8.770019133341313,2.946610794006288
1772872169376091100,4.512091064453125,-6.906007468703389,8.135762614148854,2.378210310298204
1772872169386024200,4.522024169921875,-7.493957579272985,7.41901252066493,1.9518544910028575
1772872169395958300,4.531958251953125,-7.961287506252527,6.220408884808421,1.1193138260424136
1772872169405891000,4.54189111328125,-7.544362070864438,4.873673958101868,0.20613544379025697
1772872169415824100,4.55182421875,-5.8555544129192825,3.8883313801318407,-0.7027782667547464
1772872169425758200,4.56175830078125,-3.235779325792193,2.891525743383169,-1.8207146669641137
1772872169435691000,4.57169091796875,-0.271045138335228,1.3183920447975397,-3.0582082977071403
1772872169445624000,4.5816240234375,2.872797077515721,-0.916558964601159,-4.408338127548992
1772872169455558400,4.591558349609375,6.059568334510922,-3.140865830388665,-5.354363132870197
1772872169465491200,4.6014912109375,8.90482507867217,-4.981201435884833,-5.929007771664858
1772872169475425300,4.61142529296875,11.613291425687073,-6.152473412701487,-6.085642686966061
1772872169485358300,4.6213583984375,13.932189130795,-6.99530195518136,-5.611943224954604
1772872169495291100,4.631291015625,15.546522854775189,-7.373471251195669,-4.649529687151313
1772872169505225200,4.64122509765625,16.837079382663966,-7.357115744200349,-3.6309140773937103
1772872169515158300,4.651158203125,17.920819206500052,-6.807715436777472,-2.972216652166843
1772872169525092000,4.661092041015625,17.94416968694925,-6.551682574135064,-2.1498174419924614
1772872169535025200,4.671025146484375,16.53352196778059,-6.558044510382413,-0.9696759300217032
1772872169544958200,4.680958251953125,14.506765965050459,-5.995595920816063,0.19686697244644163
1772872169554892300,4.690892333984375,12.116744805449247,-5.321705894893408,0.8326073004558682
1772872169564825300,4.700825439453125,9.327108241701126,-4.882031452080607,0.8179869466900825
1772872169574758400,4.71075830078125,6.011779578375816,-4.561837959694862,0.5431450464203953
1772872169584692200,4.720692138671875,2.5773405515015124,-4.393470521023869,-0.040209553052484984
1772872169594625300,4.730625244140625,-0.12564005757868288,-4.556274480348825,-0.7715098576754331
1772872169604559000,4.74055908203125,-1.3032014899283646,-4.695709254524111,-1.8676678490579126
1772872169614492200,4.7504921875,-1.1198621075749398,-4.537030266174674,-3.104350455678999
1772872169624425200,4.76042529296875,0.11324001021087168,-4.395457310926914,-4.350675627653301
1772872169634359000,4.770359130859375,1.7396949646174906,-4.474903188085555,-5.412948592829704
1772872169644292000,4.7802919921875,3.4804023211479187,-4.569958137786388,-6.014183132386207
1772872169654226200,4.79022607421875,4.9260699157714845,-4.644083696705103,-6.094993283635378
1772872169664159200,4.8001591796875,5.841631101506948,-4.912242465949058,-5.79091681331396
1772872169674092300,4.81009228515625,6.628089521989226,-5.427386283504963,-5.072646962916851
1772872169684026400,4.8200263671875,7.345076931360364,-6.134740772134065,-4.120305614055693
1772872169693959200,4.829959228515625,7.976113319462537,-6.865103795906901,-3.327086905658245
1772872169703892200,4.839892333984375,8.24017575930357,-7.190838555806875,-2.6749226815924048
1772872169713826300,4.849826416015625,8.084163359814882,-7.288449035209417,-2.514992524138093
1772872169723759000,4.859759033203125,7.716403814134002,-7.268850600770115,-2.4037992173239586
1772872169733693200,4.869693115234375,7.221361119842529,-7.019662489455938,-2.0446815355211494
1772872169743626200,4.879626220703125,6.802092920720577,-6.753680479729175,-1.6399547797098755
1772872169753559000,4.88955908203125,6.349950041478872,-6.333886210906505,-1.247077159385383
1772872169763493400,4.899493408203125,6.134514562162757,-4.716853749361634,-2.0819008207164704
1772872169773426200,4.90942626953125,5.956237139374017,-2.806342783877253,-3.0125246971577404
1772872169783360300,4.9193603515625,4.060740787670016,-2.262045352551341,-2.4733289728850125
1772872169793293300,4.929293212890625,2.244270626407862,-0.9226268863379955,-1.0804704467765986
1772872169803226000,4.93922607421875,1.4772288540571927,2.4105308636665344,1.1919231351792812
1772872169813160200,4.94916015625,-0.4123825312614441,6.63412471050024,3.717050392101705
1772872169823093200,4.95909326171875,-5.054508664157987,10.532298854732513,5.701126652273535
1772872169833026000,4.969026123046875,-13.394800748205185,13.081257361358404,5.984089607417583
1772872169842960100,4.978960205078125,-23.56139932787418,15.861939049756526,6.316919294014573
1772872169852893200,4.98889306640625,-31.85107473888397,19.823103610908984,7.647054383575916
1772872169862827000,4.998826904296875,-32.18581873466968,22.272879274249075,6.972801369559765
1772872169872760300,5.00876025390625,-22.330153067088126,21.39411607955694,4.7783717556416985
1772872169882693400,5.018693359375,-10.4629453325212,18.774935451191663,3.6833015594959257
1772872169892627200,5.028627197265625,-3.0412095243722197,15.666502986896036,4.66948935611844
1772872169902560300,5.038560302734375,-1.2706348528444766,13.339537710666656,6.48537148835957
1772872169912494000,5.048494140625,-2.8250889854013916,12.073964817386864,8.041060715669394
1772872169922427100,5.05842724609375,-7.110673716723919,10.988434018480778,8.155458079221845
1772872169932360200,5.068360107421875,-12.180830616390704,10.47122333152294,7.141672081577777
1772872169942294000,5.0782939453125,-16.20455304826498,10.827321080982685,4.909025257468223
1772872169952227000,5.08822705078125,-17.344917845642566,11.099109731161594,1.728917403884977
1772872169962160000,5.09816015625,-14.928383942168951,10.287351449728012,-0.9527209958285092
1772872169972094200,5.10809423828125,-11.671585793745518,8.524809278008341,-2.749907779949903
1772872169982027300,5.11802734375,-8.773906203907728,6.440953669962287,-3.9113478063210843
1772872169991961300,5.12796142578125,-5.791366895169019,4.320283119738102,-4.510098712368309
1772872170001894100,5.13789404296875,-2.423731706023216,2.00432205260396,-4.596950189608335
1772872170011827200,5.1478271484375,0.9872329217612743,-0.4840723874658346,-3.7633033169716597
1772872170021761300,5.15776123046875,4.034124583423138,-3.149942286291718,-2.6956507045835254
1772872170031694000,5.167694091796875,6.183468270424008,-5.957901273193955,-1.9926593795999883
1772872170041627100,5.177627197265625,7.745102085351943,-7.9742054400146,-1.1852306518033147
1772872170051561200,5.187561279296875,9.005637568986415,-9.398222928366064,-0.618989976477623
1772872170061494000,5.197493896484375,10.135286911082266,-10.461510915803908,-0.5319458992749452
1772872170071428400,5.207428466796875,12.03152735915184,-10.741731878763437,-0.6157867965221404
1772872170081361400,5.217361328125,14.588434194433688,-10.048692331212758,-1.7850515251696109
1772872170091294200,5.227294189453125,16.93278081357479,-8.52651082122922,-3.6657357999280094
1772872170101228300,5.237228271484375,17.596363965016604,-7.234427522164583,-4.677148930960893
1772872170111161300,5.247161376953125,16.021865407818556,-6.683228056365251,-4.443009627957641
1772872170121095200,5.25709521484375,13.626023579239844,-5.9409501383930445,-3.492337089091539
1772872170131028200,5.2670283203125,10.99475036202073,-5.230933152556419,-2.2267437375456094
1772872170140961300,5.276961181640625,7.966828189244866,-4.619958724752069,-1.2562407090499996
1772872170150895000,5.28689501953125,4.999807352155447,-4.126677194914222,-1.192331715980172
1772872170160828200,5.296828125,2.624582195147872,-3.813383398914337,-1.6839143329456447
1772872170170761200,5.30676123046875,0.7142401564896106,-3.5800229713290928,-2.297624323193729
1772872170180695300,5.3166953125,-0.3949532575547695,-3.6995460073322057,-2.6114798447296024
1772872170190628400,5.32662841796875,-0.7184732640147209,-4.1904134617656466,-2.200630806645751
1772872170200562200,5.336562255859375,-0.13917466193437575,-4.727564528468251,-1.9698807076893745
1772872170210495200,5.3464951171875,1.4851123007833957,-4.965978147789835,-2.459616089352965
1772872170220428300,5.35642822265625,3.6732033593297,-5.031892343202233,-3.160888043197989
1772872170230362000,5.366362060546875,5.979975157836079,-5.303562919959425,-3.806266552646458
1772872170240295200,5.376295166015625,7.880662648442387,-5.72668720998764,-3.8838188711434602
1772872170250228200,5.386228271484375,9.174124250122905,-6.172422560274601,-3.603730594652891
1772872170260162000,5.396162109375,10.027769954693317,-6.744007226976752,-3.206405931791663
1772872170270095000,5.40609521484375,10.469207900047302,-7.10630733820796,-2.7740958802670237
1772872170280029200,5.416029296875,10.5241552957654,-7.165299625402689,-2.811395975613594
1772872170289962200,5.425962158203125,10.326039784562587,-6.990801721152663,-2.8664383561387656
1772872170299895300,5.435895263671875,9.85304934760332,-6.532292814010382,-2.8176778323620555
1772872170309829000,5.4458291015625,9.172516814926267,-6.1393842140257355,-2.67497850343287
1772872170319762200,5.45576220703125,8.409395430889726,-5.869809148243069,-2.246037636080384
1772872170329695200,5.4656953125,7.737397502323985,-5.695025997310877,-1.9897531367644667
1772872170339629000,5.475629150390625,7.439493583157658,-4.964857619327306,-2.725786899650097
1772872170349562000,5.48556201171875,7.800241204249859,-3.7379935191482305,-3.0196526493415234
1772872170359496200,5.49549609375,7.176223754999041,-2.642157599326968,-1.3532836176976561
1772872170369429000,5.505428955078125,4.80399544171989,-0.1811865882337093,0.4873249595209956
1772872170379362000,5.515362060546875,-0.08992752368450165,3.3551036243528127,2.44675719230175
1772872170389296400,5.52529638671875,-5.797547629630565,8.056940421846509,3.2245240645453332
1772872170399229200,5.535229248046875,-10.565922891914845,12.49097091679573,3.9261709891825913
1772872170409163300,5.545163330078125,-16.084896741271017,14.96087283784151,5.756909329771995
1772872170419096300,5.555096435546875,-21.828600552511215,16.651300790464877,8.840084603214263
1772872170429029000,5.565029052734375,-25.97944480495453,18.648790951222182,11.6081324354887
1772872170438963200,5.574963134765625,-27.576833239352702,18.971970765942334,12.17084230633974
1772872170448896300,5.584896240234375,-25.37800918986797,17.780587728989122,11.791245607870817
1772872170458829000,5.5948291015625,-20.694417658638955,16.481871275520323,12.038831544685364
1772872170468763100,5.60476318359375,-15.909832435309886,15.89140012204051,11.948451601058244
1772872170478696200,5.6146962890625,-12.165018130230903,15.510690493893623,10.528352162933349
1772872170488630300,5.62463037109375,-10.379642779934406,14.660729030793904,8.124706967127322
1772872170498563300,5.634563232421875,-10.44199840608239,13.832403060919045,5.447899494701623
1772872170508496400,5.644496337890625,-10.624964278948307,13.030461240100859,2.7967364588811994
1772872170518430200,5.65443017578125,-10.457584097748994,11.760939316934346,0.9283595847710967
1772872170528363300,5.66436328125,-10.364660314857959,10.374980633342265,-0.16574118182063102
1772872170538297000,5.674297119140625,-10.155885462474822,8.928030013170838,-1.1283040649667382
1772872170548230100,5.684230224609375,-9.330455214041471,7.565632237908244,-2.179624843496084
1772872170558163200,5.6941630859375,-7.5401085050731895,6.207580382895469,-3.2042657048925753
1772872170568097000,5.704096923828125,-5.229435607475042,4.723746431484818,-3.9273108068674802
1772872170578030000,5.714030029296875,-2.9044179581820964,3.085299425989389,-4.691097376814485
1772872170587963100,5.723963134765625,-0.5825818615347147,1.0486632497578858,-5.122800110095739
1772872170597897200,5.733897216796875,1.7649194222450255,-1.3339631234169005,-4.695297751113772
1772872170607830300,5.743830322265625,4.595457320702076,-3.6268665555685757,-4.0031946076303715
1772872170617764400,5.753764404296875,7.9656147218018765,-5.627722393366694,-2.781426369285583
1772872170627697200,5.763697265625,11.534290954208373,-7.348080204829573,-1.4682070509508252
1772872170637630200,5.773630126953125,14.682909298419952,-8.898700458312033,-0.28248978467434643
1772872170647564300,5.783564208984375,17.25352200297117,-10.14024365670681,0.33231706089973445
1772872170657497000,5.7934970703125,19.388540812021493,-10.925939276123046,0.18593728989213704
1772872170667430100,5.80343017578125,21.118705731749532,-10.74237952901721,-0.32068565981686115
1772872170677364200,5.8133642578125,21.60696855664253,-9.586662848728894,-1.0006173039913178
1772872170687297000,5.823297119140625,19.546092842167614,-8.240129582074283,-1.3933324272304772
1772872170697231400,5.8332314453125,15.949610318946837,-6.931109761255979,-1.6097823442861436
1772872170707164200,5.8431640625,12.188415372431278,-5.658025177171826,-1.3877911597162484
1772872170717097200,5.85309716796875,8.113817908844352,-4.67075835314095,-1.3433558056622743
1772872170727031300,5.86303125,4.172146568191051,-4.308698480406403,-1.6170932518213987
1772872170736963800,5.8729638671875,1.0855962653577327,-4.338475779032707,-2.1487752394631503
1772872170746896600,5.882896728515625,-1.2583622312486171,-4.420826729983091,-2.8538422016769647
1772872170756830700,5.892830810546875,-2.591466692009568,-4.3155555066943165,-3.576928804706037
1772872170766763800,5.902763671875,-2.469884969910979,-4.115269081193208,-4.477027048371732
1772872170776697900,5.91269775390625,-1.4609224469006061,-3.800181387513876,-4.968633630734682
1772872170786631000,5.922630859375,0.15142682526409626,-3.6731636118412014,-5.037415490537882
1772872170796564000,5.93256396484375,1.8086363988965748,-3.8698704252898692,-4.753838787409663
1772872170806497800,5.942497802734375,3.249489286714792,-4.296125414559245,-4.513588015788793
1772872170816430800,5.952430908203125,4.266752020558715,-4.802386837479472,-4.43185139734447
1772872170826364000,5.962364013671875,4.998198163393139,-5.3216784223645925,-4.224014410333335
1772872170836297700,5.972297607421875,5.759440309554338,-5.915274429866671,-3.7319188754096624
1772872170846230800,5.982230712890625,6.489241023269296,-6.484696950098872,-3.2670980086416006
1772872170856164600,5.99216455078125,7.056750403356552,-6.894948899072408,-2.8662936869710682
1772872170866097700,6.00209765625,7.691193385031819,-6.930211351111531,-2.3031325652211905
1772872170876031000,6.012031005859375,8.268295938372612,-6.585230623471737,-2.0989874184653163
1772872170885964800,6.02196484375,8.551049634680151,-6.273423266637325,-2.7225845964774487
1772872170895897900,6.03189794921875,8.630398481205106,-5.928422665253281,-3.3265658043935895
1772872170905832000,6.04183203125,8.426866205650567,-5.845061660477518,-3.3654686587616798
1772872170915764700,6.0517646484375,7.998390617722272,-5.870544476780295,-2.6468366970539092
1772872170925697800,6.06169775390625,7.774251022946834,-4.597648108744621,-3.279243496726453
1772872170935632000,6.0716318359375,7.945239457771182,-3.48062268590033,-3.3625995330661533
1772872170945564700,6.081564697265625,7.473069689545035,-2.7832798881977796,-1.9934069830968975
1772872170955497700,6.091497802734375,6.682083562505245,-1.103771973517537,0.4837538230359554
1772872170965431800,6.101431884765625,4.540271440052986,0.8471189331501722,3.8853134936153886
1772872170975364900,6.11136474609375,0.4728080661296844,4.024716119086742,5.05811925587058
1772872170985299000,6.121298828125,-4.441071061110496,8.038183698928355,5.747088192981481
1772872170995231700,6.131231689453125,-11.108667833101748,12.26177988384962,5.948514436167478
1772872171005164800,6.141164794921875,-17.935633329272267,16.89725123503208,4.0539208785220975
1772872171015099000,6.151098876953125,-22.21000342361927,20.396105743193626,0.9577394085124135
1772872171025031700,6.16103173828125,-22.60194639344215,20.72743379305601,-0.43195027830153704
1772872171034964700,6.17096484375,-20.37440829064846,18.123672852140665,2.88518251183629
1772872171044898800,6.18089892578125,-19.257535428017377,14.34327402346134,9.716768069022894
1772872171054831600,6.19083154296875,-18.672391607040165,11.484513070082663,15.188712456178664
1772872171064765700,6.200765625,-17.348260141807792,9.78026234381199,16.958008778333664
1772872171074698800,6.21069873046875,-15.728405024057626,9.509286179059742,14.25200209943056
1772872171084631800,6.2206318359375,-13.986307674473522,10.689235967850685,9.610913492888212
1772872171094566000,6.23056591796875,-12.262350377213954,12.201489958059787,5.105788185018301
1772872171104499000,6.2404990234375,-10.268633889776467,12.566916676878929,0.19757307488918302
1772872171114432800,6.250432861328125,-7.978697490736842,11.675241393643617,-3.5553795284599063
1772872171124365800,6.26036572265625,-5.242520714497566,9.85808558820486,-5.0385833652734755
1772872171134299000,6.270298828125,-2.899201684838533,7.702498038378358,-4.480696676795184
1772872171144232700,6.280232666015625,-1.646716236668825,5.507749275508522,-2.700129895824194
1772872171154165800,6.290165771484375,-1.3788023820966482,3.6959915297210215,-0.17116145330369473
1772872171164098800,6.300098876953125,-1.4335937104701995,2.1366069550246,2.033240104052424
1772872171174032600,6.31003271484375,-1.4548171157628298,1.117925586554408,2.938319058740139
1772872171183966000,6.319966064453125,-1.4964105243891477,0.4163350682795047,2.8238959762245415
1772872171193899800,6.329899658203125,-0.7305898182660341,-0.14838029717504977,2.338686985944211
1772872171203832800,6.339832763671875,1.14045130661726,-0.5605079768925905,1.0451488118961454
1772872171213766000,6.349765869140625,3.865062148225307,-1.0718483105123042,-1.1743772493556142
1772872171223699700,6.35969970703125,6.372114527013897,-1.80689218557775,-3.4767321082025764
1772872171233632800,6.3696328125,7.843007163786887,-2.8292057730704543,-4.857953826400637
1772872171243565800,6.37956591796875,8.600031984513997,-3.7877754949271676,-5.413093554258346
1772872171253499600,6.389499755859375,9.210794815394282,-4.667901794666052,-5.121463893055916
1772872171263432700,6.3994326171875,9.983877036952972,-5.874564233815669,-3.933625396841764
1772872171273366800,6.40936669921875,10.551869816642999,-7.164995089498162,-1.9896651662200688
1772872171283299800,6.4192998046875,10.528506476712225,-8.382986731913686,0.6153764621555805
1772872171293233000,6.42923291015625,9.462782202038168,-9.359246424239874,3.459591588309407
1772872171303167000,6.4391669921875,7.953353206121921,-9.920850379675626,4.910357382854819
1772872171313099800,6.449099853515625,6.633063218748569,-9.690062432926892,4.647202120986581
1772872171323032800,6.45903271484375,6.128899060368537,-8.669712254461645,3.1536025623649357
1772872171332967000,6.468966796875,6.24883359978199,-7.32717828657627,0.524603719818592
1772872171342899700,6.478899658203125,6.895010273870826,-6.0621267868220805,-2.3779060666546226
1772872171352833800,6.488833740234375,7.660816366946697,-5.242148374053835,-4.410629161095619
1772872171362766800,6.498766845703125,7.73630561543405,-4.710336330291629,-5.812113915121555
1772872171372699600,6.50869970703125,7.416041395899653,-4.540056335997582,-6.628060880416632
1772872171382634000,6.518634033203125,6.775644474256039,-4.563195804044604,-6.766247115835547
1772872171392567000,6.528567138671875,5.870770102229714,-4.826137130901217,-6.215614636269211
1772872171402499800,6.538499755859375,5.281674913278222,-5.412617168918252,-5.182040819093585
1772872171412434000,6.548433837890625,4.4460038413375615,-6.066988255378604,-3.7731001961037514
1772872171422367000,6.558366943359375,3.386148166435957,-6.7575505991607905,-2.8125132892057296
1772872171432300800,6.56830078125,3.1301211490124463,-6.938574105787277,-2.8173972618550063
1772872171442233900,6.57823388671875,3.871470846223831,-6.6517761025249955,-3.448650799839198
1772872171452167000,6.5881669921875,4.488877937424182,-6.067934596318006,-4.206206366442144
1772872171462100700,6.598100830078125,4.864770520678162,-5.357981907889247,-5.046529355841875
1772872171472033800,6.60803369140625,5.267651064100861,-4.6093893999427555,-5.5841544697970145
1772872171481966800,6.617966796875,5.488740623655915,-4.409308726146817,-5.627023889708519
1772872171491901000,6.62790087890625,5.522001672744751,-5.21377334344089,-4.159470918752253
1772872171501834000,6.637833984375,5.515576023611426,-6.8358560741126535,-0.6469634405523538
1772872171511767800,6.647767822265625,5.310522822099924,-7.072468196970224,2.920520951721072
1772872171521700900,6.657700927734375,4.814212884351611,-5.4349879906803364,5.153492770001292
1772872171531634000,6.667634033203125,3.214585146594047,-1.967722799003124,5.320119502484798
1772872171541567700,6.677567626953125,1.2653145346045493,2.714782690554857,2.9247528902024027
1772872171551500800,6.687500732421875,0.01497428176999092,8.05897046636939,-0.26460546067655083
1772872171561433900,6.697433837890625,-2.2375386878043413,12.709551708400248,-3.2543864111065863
1772872171571367700,6.70736767578125,-5.696684870433807,15.388226143741607,-5.279609797441959
1772872171581300700,6.71730078125,-9.634140054696799,16.001777728557585,-4.746531679266691
1772872171591234800,6.72723486328125,-12.956754198855162,15.43930166646242,-1.6045625638112424
1772872171601168000,6.73716796875,-14.417253451907634,13.477837927854061,3.861868028359115
1772872171611101000,6.747100830078125,-17.05635926244855,10.424989988136291,11.17339778716564
1772872171621034800,6.75703466796875,-22.45806282316446,8.10617119348347,16.007957293975352
1772872171630967800,6.7669677734375,-25.972285580849647,7.396368727180361,15.791160463178157
1772872171640900900,6.77690087890625,-23.473837948799133,7.433668238005041,11.931816108077763
1772872171650834700,6.786834716796875,-16.974430336302518,7.259155720707774,7.631079984852671
1772872171660767700,6.796767822265625,-9.384052948716283,6.754101920011639,5.060497090917825
1772872171670701800,6.806701904296875,-3.1296529469788075,5.721814050993323,4.186713145942986
1772872171680634600,6.816634521484375,0.49389644686579703,4.3479298360764975,4.469404882930219
1772872171690567700,6.826567626953125,1.456332781022787,3.202190944445133,4.853607029367983
1772872171700502000,6.836501953125,0.5931774898290634,2.853332498589158,4.302399672523141
1772872171710434800,6.846434814453125,-1.0327829590588808,2.8280788148671387,3.1271108612805603
1772872171720367900,6.856367919921875,-2.761422861176729,2.6861007859498263,2.350713231563568
1772872171730302000,6.866302001953125,-4.111055262890458,2.75720612026453,1.9819468469277024
1772872171740235300,6.8762353515625,-5.138569926157594,3.501658459666371,1.6365397105693815
1772872171750169300,6.88616943359375,-6.035859542143345,4.4525773745089765,0.8064154591009021
1772872171760102400,6.896102294921875,-6.0764732920825475,4.669829547858238,-0.391216701374948
1772872171770035200,6.90603515625,-4.369655345672369,4.178642944473028,-1.7249232196822761
1772872171779969300,6.91596923828125,-1.4281576568961143,2.9337387452125547,-3.027328006274998
1772872171789902300,6.92590234375,2.05969381121397,1.235071956554055,-3.9249364789515733
1772872171799835100,6.935835205078125,5.819568907302617,-0.4466571413069963,-4.790956219665706
1772872171809769500,6.94576953125,9.130728175988793,-2.3488339936882254,-6.02036971206665
1772872171819702300,6.955702392578125,11.363517038917541,-3.9870962902665137,-6.608532004082202
1772872171829636400,6.96563623046875,12.502445081490277,-5.597749864429235,-6.240540403211116
1772872171839569400,6.9755693359375,12.97471421843767,-7.257742931300402,-5.002995334541797
1772872171849502200,6.985502197265625,13.384548234260082,-8.363422784265875,-3.1267779760643837
1772872171859436300,6.995436279296875,14.233403781944512,-8.947584023946524,-1.3807865416511893
1772872171869369300,7.005369384765625,14.761078579771517,-9.154171595418452,0.34128888738453383
1772872171879302100,7.01530224609375,14.08200793634057,-8.936002891746163,1.8200421745300293
1772872171889236200,7.025236328125,12.188745042777061,-8.417124563837051,2.4132366154938936
1772872171899169300,7.035169189453125,9.810886614656448,-7.607486343297362,1.9399615163743495
1772872171909103400,7.045103271484375,7.478047477957606,-6.634506403294205,1.1863456273078918
1772872171919036400,7.055036376953125,5.944193065837025,-5.768979706794023,0.5282862077236176
1772872171928969500,7.064969482421875,5.022103355115652,-5.243934088426828,-0.01848521250039339
1772872171938903300,7.0749033203125,4.643526062822342,-4.949434424746037,-0.42615415924340483
1772872171948836400,7.08483642578125,4.385051067724824,-4.732781970855593,-0.65359133425951
1772872171958769400,7.094769287109375,3.9265152725756165,-4.747350594434142,-1.0092875171810387
1772872171968703200,7.104703125,3.5440719525039195,-5.077790171024203,-1.5384741808757185
1772872171978636300,7.11463623046875,3.0136750362366436,-5.444984484037756,-2.230317212118208
1772872171988570000,7.124570068359375,2.151169148862362,-5.770526351714134,-3.211905990512669
1772872171998503200,7.134503173828125,1.3218442310780285,-6.022444180253148,-4.022533222089708
1772872172008436200,7.144436279296875,0.9515981292784214,-6.226500187420845,-4.356711400686204
1772872172018370300,7.154370361328125,1.12152098069787,-6.842690888568758,-3.994089802415669
1772872172028303400,7.164303466796875,1.2360814258575439,-7.245205521288514,-2.504929103024304
1772872172038236400,7.174236328125,0.7132347788393497,-7.056318441680073,-0.44493572434186934
1772872172048170200,7.184170166015625,-0.7836568070650101,-5.428511488142609,1.6658222114160657
1772872172058103300,7.194103271484375,-3.4526749407887456,-2.3721359588205813,2.7981068704515693
1772872172068036400,7.204036376953125,-6.595042407912016,2.048403186392784,2.7558219724297524
1772872172077970200,7.21397021484375,-9.035662120372056,7.073986784839629,1.5063003425016999
1772872172087903200,7.2239033203125,-11.054102714699505,10.89639052555561,-0.5923562365740538
1772872172097837300,7.23383740234375,-12.542123596405983,12.92337215373516,-2.103417509867251
1772872172107770000,7.24377001953125,-13.434916485494375,13.362808696138858,-1.8857789675489067
1772872172117703200,7.253703125,-13.909589176452158,12.546608048343657,-0.08477700905352831
1772872172127637500,7.263637451171875,-13.777943156456946,10.342434454524517,1.9987261322930454
1772872172137570300,7.2735703125,-13.20765788191557,6.958190660405158,5.082124400836229
1772872172147503400,7.28350341796875,-12.783679605406522,3.984806718024611,8.337251985698938
1772872172157437400,7.2934375,-11.756582290768623,2.9302380436152218,9.708761288177966
1772872172167370200,7.303370361328125,-8.635420693281292,4.154405159795284,8.768124113374949
1772872172177304300,7.31330419921875,-5.120067470261454,6.219186649537086,6.42220396130681
1772872172187237400,7.3232373046875,-3.229296393513679,7.51634710573554,4.846120473004877
1772872172197170200,7.333170166015625,-3.4186797322064635,7.706862663328647,6.539339809912443
1772872172207104300,7.343104248046875,-5.511757342106104,7.135592469403147,10.59181721162796
1772872172217037300,7.353037353515625,-10.176381138014793,7.344779409718513,13.428385037899016
1772872172226970000,7.36297021484375,-16.15026031706333,8.488505207961797,12.082973468750714
1772872172236904400,7.372904541015625,-18.834120630609988,10.07519104655981,7.869515231484174
1772872172246837500,7.38283740234375,-17.47878387977481,10.60121866170168,1.8322087054029106
1772872172256771300,7.392771240234375,-12.721115889465809,9.970915848571062,-4.146118977487087
1772872172266704400,7.402704345703125,-6.383643636766076,8.687506854349374,-7.730277441185712
1772872172276637400,7.412637451171875,-0.7467284676402807,6.358325655636191,-9.62820481942892
1772872172286571300,7.4225712890625,3.3096815973490474,4.09517964836657,-9.731660517728328
1772872172296504300,7.43250439453125,6.101013859099149,1.8790800544321535,-8.62212808098793
1772872172306437400,7.442437255859375,7.923224609839916,-0.4587275183290243,-7.46435096103847
1772872172316371200,7.45237109375,9.423870579841733,-2.3765981989264486,-6.768990277063846
1772872172326304300,7.46230419921875,10.678188504135608,-3.9200457843005654,-6.5271817546069615
1772872172336238300,7.47223828125,12.28162206391692,-4.874034023585915,-6.104242173495888
1772872172346171400,7.48217138671875,14.491352122819423,-4.947083477705717,-5.087727043148875
1772872172356104400,7.4921044921875,16.908901925337315,-4.644463051411509,-3.993781174857914
1772872172366038300,7.502038330078125,18.396151238149404,-4.676480822440982,-2.945743071261048
1772872172375971300,7.511971435546875,18.395834427285195,-5.170754285925627,-1.94889359537065
1772872172385904400,7.521904296875,16.938181795835494,-5.685112506061792,-0.5397577420696615
1772872172395838200,7.531838134765625,14.482774848610163,-5.910712236517668,1.670062625464797
1772872172405771300,7.541771240234375,11.39274313340187,-6.198935304147005,3.877683437128365
1772872172415705000,7.551705078125,8.737828343832492,-6.555155218681692,5.716735724815726
1772872172425638100,7.56163818359375,7.30787562021315,-6.436455774021148,6.401786611700057
1772872172435571200,7.5715712890625,6.9854416554242365,-5.990495967328548,5.739885714256763
1772872172445505300,7.58150537109375,7.074464923745393,-5.477538846161961,4.563570774836838
1772872172455438300,7.591438232421875,6.731358173283934,-5.096291457876562,2.990710924756527
1772872172465371400,7.601371337890625,6.300945479813218,-4.927175831186771,0.7570731899134814
1772872172475305200,7.61130517578125,6.336918710470199,-4.956485512301326,-1.6135680003046988
1772872172485238300,7.62123828125,5.562525990834832,-4.899716161853075,-2.83003462511003
1772872172495172400,7.63117236328125,4.177969575256109,-4.664197094929218,-3.755131408692896
1772872172505105200,7.641105224609375,3.088535339170694,-4.900321142008901,-4.548879986183345
1772872172515038200,7.6510380859375,2.15609666839242,-5.62165096449852,-4.899207627809047
1772872172524972300,7.66097216796875,1.5111293700933455,-6.3918345420062535,-4.715587967209518
1772872172534905000,7.670905029296875,1.2189163560450076,-6.938701531559229,-4.100914392626286
1772872172544838100,7.680838134765625,1.3628952033907173,-7.089303596436977,-3.32157603328228
1772872172554772500,7.6907724609375,2.0722686306267977,-7.1612786993235344,-2.7061513480708
1772872172564705300,7.700705322265625,2.6712486692547794,-7.467118672186136,-2.113107713754475
1772872172574638300,7.710638427734375,3.084699706530571,-7.870451051029563,-1.5974644222438334
1772872172584572400,7.720572509765625,3.5569793648719785,-8.018847714817523,-1.131241871984303
1772872172594505200,7.730505126953125,3.854468273496628,-8.161538275918364,-0.6205521112278104
1772872172604439300,7.740439208984375,3.9299616136372086,-7.44411481321752,-1.0031003529787064
1772872172614372400,7.750372314453125,5.066926831704378,-5.064463656461238,-2.0019073926776647
1772872172624305200,7.76030517578125,5.909770571753382,-2.330649517700076,-2.6419977325901387
1772872172634239200,7.7702392578125,5.914588785690069,0.7710872483491897,-2.791113358302414
1772872172644172300,7.78017236328125,5.658163124337792,4.414250274202227,-0.9975532402455806
1772872172654105000,7.79010498046875,2.949535449281335,7.859924396318196,1.7293366522103546
1772872172664039400,7.800039306640625,-2.4875866308182477,12.084050158071518,4.008247799366712
1772872172673972500,7.809972412109375,-9.575773790445924,15.952652170860766,5.925377890729904
1772872172683906300,7.81990625,-16.763521979022023,18.016653908401725,7.3534320872515435
1772872172693839400,7.82983935546875,-23.156405153298376,19.21303110038042,8.45806623055637
1772872172703772400,7.8397724609375,-27.140655991005897,18.138939394855498,8.76407337667942
1772872172713706200,7.849706298828125,-27.962227225923538,15.789391699939966,8.150607132059335
1772872172723639300,7.859639404296875,-25.24340081293583,14.273333641272782,6.225936123797297
1772872172733572400,7.869572265625,-19.985476777601242,13.427753754258156,3.2366666300207374
1772872172743506000,7.879505859375,-14.036409383726118,12.435862193036078,0.11570771549865602
1772872172753439000,7.88943896484375,-9.401219772094487,10.927232238543032,-1.543673941475898
1772872172763372800,7.899372802734375,-6.727037971997261,9.28756299777627,-0.848050076520443
1772872172773305900,7.909305908203125,-5.912888411512971,7.664094950225949,1.2756618872262537
1772872172783239000,7.919239013671875,-6.92051471748352,5.6887534929126495,3.62747387381196
1772872172793173000,7.929173095703125,-8.086618351751566,3.9583693774759765,5.589813226211071
1772872172803106000,7.93910595703125,-8.676040288439392,3.3159558553129433,6.335056423729657
1772872172813039000,7.9490390625,-9.187979756996034,3.2374282620429993,4.544136298787594
1772872172822973000,7.958972900390625,-8.336451190710067,3.0854227601081132,1.4180119643263518
1772872172832906000,7.968906005859375,-5.996353461185097,3.340782838055491,-0.7841727937631309
1772872172842839000,7.978839111328125,-3.5689836909204717,3.0327824722886083,-3.0010622229009867
1772872172852772900,7.98877294921875,-1.2359399715602397,2.205160266768932,-4.89789771425426
1772872172862706000,7.998705810546875,1.2299275794029234,1.426574771618843,-6.206593709945678
1772872172872640000,8.008639892578126,3.9126778858810662,0.34385084682703015,-6.867666924393177
1772872172882572800,8.01857275390625,6.741300306105614,-1.1339613600760698,-6.668264295989275
1772872172892505900,8.028505859375,9.80433821592629,-2.591229960644245,-5.82883299473226
1772872172902440200,8.038440185546875,12.675637748360634,-3.995914972016215,-4.497517463214695
1772872172912373000,8.048373046875,14.791071566975116,-5.192496162134408,-2.7602450495690105
1772872172922306000,8.05830615234375,15.411706388050316,-6.207855108183622,-0.9807241243891417
1772872172932240100,8.068240234375,14.862638089060782,-7.0573659049063915,0.489468985812366
1772872172942173000,8.0781728515625,13.683395571756362,-7.590704135322571,1.5126907741911708
1772872172952107000,8.08810693359375,12.475222728043795,-7.530421223795414,1.9632276795409618
1772872172962040000,8.0980400390625,11.46467322810292,-6.8877277156472205,1.836766222576797
1772872172971972900,8.107972900390624,10.395270557177065,-6.251260534667968,1.207472001966834
1772872172981907000,8.117906982421875,9.329180956321954,-5.703483444532751,0.6661313746199011
1772872172991840000,8.127840087890625,8.2946508613348,-5.266435258570313,0.15624036302566527
1772872173001772800,8.137772705078126,6.924454395020008,-5.059218741545081,-0.6004813831016421
1772872173011707100,8.14770703125,5.677491509664058,-4.827239539185166,-1.2577476064816115
1772872173021640000,8.157639892578125,4.9129766254425045,-4.7095086472958325,-1.9924796391189097
1772872173031573000,8.167572998046875,4.457902368924022,-4.792051321426034,-3.0543913697674867
1772872173041507000,8.177507080078126,4.264546619468927,-4.981978265476227,-3.834358674664795
1772872173051440000,8.187440185546874,4.155876401391625,-5.133827700066566,-4.63457761721313
1772872173061374000,8.1973740234375,4.022604826021194,-5.305704023641348,-5.403607933032513
1772872173071307000,8.20730712890625,4.193991320252418,-5.326434676980972,-5.727149566802382
1772872173081240000,8.217239990234376,4.559117010298371,-5.541371559125185,-5.824514547011256
1772872173091174000,8.227173828125,4.729698617887497,-5.909647237634658,-5.310402410590648
1772872173101107000,8.23710693359375,4.368277043056488,-6.325272111818194,-4.407770556794107
1772872173111040000,8.2470400390625,3.9550761811494826,-6.643245590066909,-3.4844098032236097
1772872173120974000,8.25697412109375,3.6979683827519416,-6.459029424878954,-2.994325023600459
1772872173130907100,8.2669072265625,3.3217233327984808,-5.785888171496987,-3.0604516927197576
1772872173140841000,8.276841064453125,2.923096355167031,-5.052080560228228,-3.655708911432326
1772872173150774000,8.28677392578125,2.767095061594248,-4.274011782428622,-3.8917753831058737
1772872173160707000,8.29670703125,2.5018098019599915,-3.838590320885181,-3.8381475455537437
1772872173170641000,8.306640869140624,2.9684616835474964,-3.1953175515443086,-3.4981709098115563
1772872173180574000,8.316573974609375,4.485803352284432,-1.7143249610394238,-2.794479619865119
1772872173190507000,8.326507080078125,4.462828134888411,-0.6125479607313871,-2.326487429584563
1772872173200440800,8.33644091796875,2.4496143352985382,-0.30218495748639107,-2.0566881996572017
1772872173210374000,8.346373779296876,0.5228548303246497,0.8975333616137504,-1.0096160184830427
1772872173220307000,8.356306884765624,-1.7981646892428398,1.9586679704099892,0.6688412181004881
1772872173230242000,8.366241943359375,-4.2530952511280775,2.1222885068148374,3.598407938325405
1772872173240175000,8.376175048828125,-6.2694964485824105,2.1608172671735284,6.8504024858593935
1772872173250108000,8.38610791015625,-7.696179356750846,3.1189620416164394,9.52699134709835
1772872173260042000,8.3960419921875,-8.998339228671789,5.772160090395808,10.991623169910907
1772872173269975000,8.40597509765625,-9.893532164639234,8.353247427210212,11.040759249001741
1772872173279907800,8.415907958984375,-10.50636361848712,10.559437037026882,10.214197366189955
1772872173289842000,8.425842041015626,-12.242096693736315,13.097625143313406,8.904388440820574
1772872173299775000,8.43577490234375,-15.53219856134653,15.05813260411024,7.094288983634113
1772872173309707800,8.445707763671875,-19.4443264121294,14.549495684230326,6.717651134970784
1772872173319642000,8.45564208984375,-21.8415348528862,12.778771959620713,6.659799249982833
1772872173329575200,8.4655751953125,-23.5819604698658,11.057070916855334,5.940897531422972
1772872173339509000,8.475509033203124,-24.261029944252968,10.297565385228395,4.880308573810756
1772872173349442000,8.485442138671875,-22.068270893895626,10.348891083317994,3.300803294366598
1772872173359375000,8.495375,-17.905425238013265,9.520805351939797,0.789123255777359
1772872173369309000,8.505308837890626,-12.94010117021799,7.8594141087085,-1.8447236113220453
1772872173379242000,8.515241943359374,-8.0329896374166,5.979305295750499,-4.030608099734783
1772872173389175000,8.525175048828125,-3.8316426937043664,3.843965584182739,-5.695043532967567
1772872173399108900,8.53510888671875,0.10077508091330528,1.9082412669867277,-6.090060503408313
1772872173409042000,8.5450419921875,4.09784623722732,0.34916356628239154,-4.717798921257257
1772872173418976000,8.55497607421875,6.058091247695684,-0.7745026097506285,-3.1112805472031235
1772872173428909000,8.564908935546875,5.249642529201507,-1.3767594780921935,-1.550924204865098
1772872173438842000,8.574842041015625,3.8187516479492185,-2.0567881529003382,-0.013181553134322165
1772872173448776000,8.58477587890625,3.3222330358862875,-2.9569156226605173,-0.24913316625654697
1772872173458709000,8.594708984375,4.996754394325614,-3.20186068957746,-1.311416068305075
1772872173468642000,8.60464208984375,8.109334625950455,-3.3019998106747863,-2.576273799052834
1772872173478575900,8.614575927734375,10.803430502307414,-3.6145009949922557,-3.1513147436887023
1772872173488509000,8.624509033203125,12.229933962255716,-4.237157677283883,-3.7466725001662966
1772872173498442000,8.63444189453125,12.694922294545172,-4.974014154729247,-3.7099244857445357
1772872173508375800,8.644375732421874,12.87637191762924,-5.017624748396873,-2.699716054326296
1772872173518308900,8.654308837890625,12.435721907782554,-4.993154908528924,-1.344057524190843
1772872173528243000,8.664242919921875,11.278861902678011,-5.682136120599508,-0.15543021568655968
1772872173538176000,8.674176025390626,9.798440390059351,-6.176492586192488,0.9172299957305192
1772872173548109000,8.684109130859374,8.046340117377042,-6.437874993169308,1.4095222222700714
1772872173558043000,8.69404296875,6.245832664400338,-6.927479880321026,1.4758812388405202
1772872173567976000,8.703975830078125,5.146639250844717,-7.3973092229008675,1.4221265600383282
1772872173577909000,8.713908935546876,4.667554588663577,-7.524761882859468,1.0376154937818647
1772872173587842800,8.7238427734375,4.623990172225237,-7.50689246416986,-0.08919453323483467
1772872173597776000,8.73377587890625,5.180664270043373,-7.234666007095575,-1.5684437872037291
1772872173607709000,8.743708984375,6.103166653218865,-6.835945505961775,-3.207778973710537
1772872173617642800,8.753642822265626,6.819421656662225,-6.826394418284297,-4.367048670305311
1772872173627575800,8.763575927734376,6.666467475700378,-6.706636989003419,-5.110529826587438
1772872173637510100,8.77351025390625,5.656458658507466,-6.470356874579191,-5.426773704564571
1772872173647443000,8.78344287109375,4.248958589714765,-6.25418489768207,-5.44583613243103
1772872173657376000,8.7933759765625,2.555632577562332,-6.4064394059419625,-5.113210443973541
1772872173667310000,8.80331005859375,0.9897259076207876,-6.503174271553754,-4.519396409806609
1772872173677243000,8.813242919921874,-0.4293663992881775,-6.742768040570616,-4.019568527065217
1772872173687176000,8.823176025390625,-1.1363824497431516,-7.1516457785815,-3.7750826020926236
1772872173697110000,8.833110107421875,-0.7809516397595405,-7.651310871976613,-3.4714430618837473
1772872173707042800,8.843042724609376,-0.033517069676518435,-8.110068785443902,-3.0121959035947916
1772872173716975900,8.852975830078124,0.7958715609937905,-8.498090782430767,-2.9239871665269135
1772872173726910000,8.862909912109375,1.2464110966920852,-8.496168289935587,-2.4828324220284816
1772872173736842800,8.8728427734375,0.32698037604689595,-8.253339776781202,-1.85454299454689
1772872173746776600,8.882776611328126,-1.5355197149842976,-6.420811045643687,-2.157032487937808
1772872173756709600,8.892709716796874,-2.1168594675034282,-3.416582467666268,-3.7790146808445453
1772872173766642700,8.902642578125,-2.4602397742092608,-1.257539808949828,-3.979451036210358
1772872173776576800,8.91257666015625,-2.1821248436182734,1.052021912536025,-3.3165912306070324
1772872173786509800,8.922509765625,-1.4037807560086248,3.620657764056325,-0.8825067651346326
1772872173796442600,8.932442626953126,-2.7247791839122772,5.9993520584791895,2.924629556083679
1772872173806376700,8.942376708984375,-5.748143839514255,8.188134606420993,5.988506839337945
1772872173816309800,8.952309814453125,-9.366213340643048,10.377557205832003,7.388397602170706
1772872173826243600,8.96224365234375,-12.629571578234433,13.14165367013216,6.4308203984826795
1772872173836176600,8.9721767578125,-15.246054053556918,16.19981842095852,4.009105292978883
1772872173846109700,8.982109619140624,-18.911416636258362,18.061541682398317,2.5355232709914444
1772872173856043500,8.99204345703125,-21.706341954064367,18.8692363676548,4.034894691012799
1772872173865976600,9.0019765625,-23.07510049653053,18.634015406894683,7.5080539091646665
1772872173875909600,9.01190966796875,-23.53789219555855,17.269463083946704,11.700713688552378
1772872173885843700,9.02184375,-21.325051311159132,15.10449688040018,14.632564428061245
1772872173895776800,9.03177685546875,-15.992903517228363,12.242600551605223,15.453592057621478
1772872173905709800,9.041709716796875,-8.752832436218858,10.166561170268059,13.742674274677038
1772872173915643600,9.0516435546875,-2.0502806707024575,8.961107522386312,10.255029727315902
1772872173925576700,9.06157666015625,1.1414537616580724,7.597481666633486,6.368976228988171
1772872173935510500,9.071510498046875,1.4138117361575364,6.017326106587052,3.0365476700410245
1772872173945443600,9.081443603515625,0.9325152431458235,5.526141841289401,0.5612111567258834
1772872173955376600,9.091376708984376,-0.9867109437137842,5.181662048909068,-1.3664602023959158
1772872173965310500,9.101310546875,-1.3649907143652438,3.7309932849973437,-3.4941941151350733
1772872173975243500,9.111243408203125,1.4708844534665346,2.1905150708228347,-4.812645196643471
1772872173985176600,9.121176513671875,5.503745885086059,1.0081669887185096,-5.236108509367704
1772872173995110700,9.131110595703126,8.445242404818535,-0.2006903301268816,-4.5520700143963095
1772872174005043700,9.141043701171874,9.701400988543034,-1.2533224835157393,-3.5560637113317846
1772872174014977800,9.150977783203125,10.361943457114696,-1.9981389800548552,-3.0134044026017186
1772872174024910600,9.16091064453125,11.11331127499342,-2.4902181483656167,-2.2937793382033704
1772872174034843600,9.17084375,12.022092006808519,-2.712849092143774,-2.075911955565214
1772872174044777700,9.18077783203125,12.480538370108604,-2.974817190054059,-1.944276164703071
1772872174054710500,9.19071044921875,12.498591913193463,-3.2087995489299295,-1.4490847095906734
1772872174064643600,9.2006435546875,11.780588604778051,-3.6463656212866304,-0.21918810984790324
1772872174074577700,9.21057763671875,10.527842459845543,-4.195620382758975,0.7146160040646791
1772872174084510500,9.220510498046876,9.569274491554498,-4.532302068608999,0.1409951553598046
1772872174094443800,9.23044384765625,9.183851278889179,-4.976591311740875,-0.767718356437981
1772872174104377900,9.2403779296875,7.733671175277233,-5.584098940217495,-1.0005059525713325
1772872174114310700,9.250310546875,5.074548997145891,-6.614106004822254,-0.7508820801883935
1772872174124244700,9.26024462890625,2.3019570917010306,-7.970656223100423,-0.11107757147997617
1772872174134177800,9.270177734375,0.6122556997865438,-9.085293289503454,0.8236550554543733
1772872174144110600,9.280110595703125,0.6552408550322055,-9.58812590701878,1.3459215644970535
1772872174154044700,9.290044677734375,1.7537287506669759,-9.694683078464864,1.1559043118149042
1772872174163977700,9.299977783203126,3.293417860290408,-9.533819731813669,0.3458987192675471
1772872174173910500,9.30991064453125,4.629850004169344,-9.07336319773495,-1.7342220861643551
1772872174183844600,9.3198447265625,5.418441345027089,-8.030928028711676,-4.14223366048634
1772872174193778000,9.32977783203125,5.743835328665376,-6.891154767486452,-6.2340557173669335
1772872174203710700,9.339710693359375,5.336936197251081,-6.181884216102957,-7.560741543257236
1772872174213644800,9.349644775390624,4.332380384767055,-5.7007122262537475,-7.852792060220241
1772872174223577900,9.359577880859375,3.0717928786844015,-5.455753130811453,-6.997301020044088
1772872174233510700,9.3695107421875,1.493595466968417,-5.362700753104686,-5.6051569258153435
1772872174243444700,9.37944482421875,-0.20908757159411906,-5.838966266211867,-4.361527276535332
1772872174253377800,9.389377685546876,-1.308788350149989,-6.17611673861742,-2.2220830522581934
1772872174263311600,9.3993115234375,-0.8802829516053199,-6.896865546348691,-1.6233923519656062
1772872174273244700,9.40924462890625,-0.21930559874773023,-6.68958940809071,-2.1411334925383327
1772872174283177700,9.419177734375,1.0716484040260315,-6.51713382332325,-2.8120421645626426
1772872174293111600,9.429111572265626,2.9595471402078863,-6.061155895963311,-3.8918361733824014
1772872174303044900,9.439044921875,4.29891241492927,-5.415395401459932,-3.798801039071381
1772872174312977700,9.448977783203125,5.205218865585326,-4.418511438778043,-2.3160978452563286
1772872174322911700,9.458911865234375,5.348712559762597,-1.2954840474188327,-1.4460820206433533
1772872174332844800,9.4688447265625,4.429378869751096,2.152183294340968,-1.2401119965478777
1772872174342777900,9.47877783203125,2.8288848705530163,5.146217226040363,-0.005198737686872482
1772872174352711700,9.488711669921875,1.1154326006948947,7.929870039203762,2.417513269899785
1772872174362644700,9.498644775390625,-1.0338321758508682,10.163417611545324,4.964325704407692
1772872174372578600,9.50857861328125,-4.389394065365195,11.677683526098727,6.2183531213223935
1772872174382511600,9.51851171875,-8.33424637414217,11.877938387417792,6.577687953007221
1772872174392444700,9.528444580078125,-12.436187187206745,11.910014610636233,8.557035723352431
1772872174402378800,9.538378662109375,-17.337053688138724,11.744482687652111,11.831889752948284
1772872174412311800,9.548311767578125,-22.016839981865882,11.873332354927062,13.362835584145783
1772872174422244900,9.558244873046876,-23.306014700007438,12.745738289546965,10.315766227829455
1772872174432178700,9.5681787109375,-20.704686539196967,12.811440888035296,3.8464088856816288
1772872174442111700,9.57811181640625,-16.64925964002609,12.360966234266757,0.40091918022185563
1772872174452044800,9.588044921875,-13.651238684517145,11.624445272386073,0.12571195377111435
1772872174461978600,9.597978515625,-11.503716952246426,10.701924769032,0.7851556673206388
1772872174471911700,9.60791162109375,-10.268289021861552,9.817031108760833,1.250451311993599
1772872174481845500,9.617845458984375,-11.036443139368295,9.149467947772145,2.2727577390931546
1772872174491778600,9.627778564453125,-11.527842508721351,8.846645861425996,3.265801246829331
1772872174501711600,9.637711669921876,-9.932862304508685,8.542163732913137,3.1342306301578877
1772872174511645700,9.647645751953124,-6.736123195728659,7.669970564261078,2.3728519981354474
1772872174521578800,9.657578857421875,-3.3753391876518726,6.496216122978925,2.2009572621211406
1772872174531511800,9.66751171875,-0.3528016305238008,5.336515341490506,2.36385795981884
1772872174541445600,9.677445556640626,2.2955589150965214,3.780523916363716,2.2512682302102447
1772872174551378700,9.687378662109374,4.75923392445147,1.3485381767362354,2.9340076252818106
1772872174561311700,9.697311767578125,8.867037492069601,-1.0653151093512774,3.9687075238779186
1772872174571245600,9.70724560546875,13.46993168477416,-2.5741098990172144,2.332196162620187
1772872174581178600,9.7171787109375,15.335843630075454,-3.5562761850386857,-0.4692024428531527
1772872174591112700,9.72711279296875,14.724584540110826,-4.131726294997335,-2.4721882784172893
1772872174601045500,9.73704541015625,13.328380356836318,-5.28859682149589,-3.0289181980758904
1772872174610978600,9.746978515625,12.660444855403899,-6.7105147072196,-2.4886630278781054
1772872174620913000,9.756912841796876,12.434043160915374,-7.841032648843527,-1.4334949262708425
1772872174630845700,9.766845703125,11.091048005259037,-8.456456457272171,-1.1333891131460665
1772872174640778800,9.77677880859375,7.897102326589822,-8.439276774412393,-1.553042804454267
1772872174650712800,9.786712890625,3.9652410168111323,-7.936163001868128,-2.0120596611186863
1772872174660645600,9.796645751953125,0.20689210737645625,-7.430792974829673,-2.676317350821197
1772872174670578700,9.80657861328125,-1.7662778511166572,-6.817572229403257,-3.465845095746219
1772872174680512800,9.8165126953125,-0.7855009736269712,-6.469432745471597,-4.130486524069309
1772872174690445600,9.826445556640625,2.0004624545663594,-6.197621298938989,-4.064677250336111
1772872174700378600,9.836378662109375,4.819142741969228,-6.030711073338985,-3.5215859799295663
1772872174710312700,9.846312744140626,6.678664109450578,-5.7090697202324865,-3.36190658236593
1772872174720245500,9.85624560546875,7.144308275300264,-5.582313810366392,-3.2254894024461507
1772872174730179800,9.866179931640625,6.4063195789545775,-5.554992672720551,-2.6578318460598584
1772872174740113000,9.87611279296875,5.277196891081333,-5.723861046651005,-2.112309256853163
1772872174750045700,9.886045654296876,4.539322761026025,-5.993665245014428,-2.0089146410912275
1772872174759980000,9.89597998046875,4.633557041993737,-6.113158470401167,-2.42046978161782
1772872174769912800,9.905912841796875,5.741755015259981,-6.598240327170491,-2.5438129604309796
1772872174779846000,9.915845947265625,5.634912012609839,-7.266873163217306,-2.411820318955183
1772872174789780000,9.925780029296876,4.378417913320661,-7.499601138117909,-1.7751193292200564
1772872174799713000,9.935713134765624,2.8756875382602214,-7.267292265412211,-1.954397745744884
1772872174809645800,9.945645751953125,2.494241997054219,-6.7038961658626794,-2.680322787070274
1772872174819580000,9.955579833984375,3.2730864354014395,-6.4149903766661875,-3.233510504077375
1772872174829513000,9.965512939453125,4.768771568125486,-6.295657894799113,-3.333506125050783
