time,seconds_elapsed,z,y,x
1772872164923450400,0.059450439453125,-0.025615347549319267,0.07815525680780411,-0.5954127907752991
1772872164933383400,0.069383544921875,-0.03458167985081673,0.08247437328100204,-0.6172029972076416
1772872164943317800,0.07931787109375,-0.06723762303590775,0.15357011556625366,-0.6371402740478516
1772872164953250600,0.08925048828125,-0.10496290028095245,0.26404309272766113,-0.6522337198257446
1772872164963183600,0.09918359375,-0.13488245010375977,0.3813692033290863,-0.6781066060066223
1772872164973117700,0.10911767578125,-0.13350613415241241,0.48275548219680786,-0.6812078356742859
1772872164983050500,0.119050537109375,-0.12661786377429962,0.4659874141216278,-0.61118483543396
1772872164992983600,0.128983642578125,-0.1526380181312561,0.39561977982521057,-0.48705407977104187
1772872165002917600,0.138917724609375,-0.20958784222602844,0.35266831517219543,-0.3656991422176361
1772872165012850400,0.148850341796875,-0.2810351252555847,0.33237236738204956,-0.2348649799823761
1772872165022784500,0.158784423828125,-0.3422960937023163,0.3769792318344116,-0.10945405811071396
1772872165032717600,0.168717529296875,-0.311754435300827,0.4251518249511719,-0.05089593678712845
1772872165042650400,0.178650390625,-0.16386030614376068,0.4221128821372986,-0.08799563348293304
1772872165052584700,0.188584716796875,0.02497619017958641,0.43107470870018005,-0.20683521032333374
1772872165062517800,0.198517822265625,0.16913868486881256,0.44307464361190796,-0.33876925706863403
1772872165072451600,0.20845166015625,0.2602824568748474,0.4935995936393738,-0.43915021419525146
1772872165082384600,0.218384521484375,0.28599926829338074,0.5377100706100464,-0.44716206192970276
1772872165092317700,0.228317626953125,0.2508346140384674,0.5465698838233948,-0.3114817142486572
1772872165102251500,0.23825146484375,0.20782430469989777,0.4950121343135834,-0.05692772939801216
1772872165112184600,0.2481845703125,0.18639491498470306,0.44446319341659546,0.23309849202632904
1772872165122118400,0.258118408203125,0.14632844924926758,0.43391096591949463,0.4338257312774658
1772872165132051500,0.268051513671875,0.0860786885023117,0.4353722333908081,0.520102322101593
1772872165141984500,0.277984619140625,-0.006038983818143606,0.430441677570343,0.5058533549308777
1772872165151918600,0.287918701171875,-0.10192130506038666,0.3974597454071045,0.4336552917957306
1772872165161851600,0.2978515625,-0.1651277095079422,0.29384467005729675,0.300996869802475
1772872165171785500,0.307785400390625,-0.1841767579317093,0.12291580438613892,0.09457923471927643
1772872165181718500,0.317718505859375,-0.18583032488822937,-0.016158729791641235,-0.12959341704845428
1772872165191651600,0.327651611328125,-0.1486339420080185,-0.11982040852308273,-0.3343859612941742
1772872165201585400,0.33758544921875,-0.09039460867643356,-0.14107003808021545,-0.49634823203086853
1772872165211518500,0.3475185546875,-0.03110652044415474,-0.13824282586574554,-0.5639477968215942
1772872165221452500,0.35745263671875,0.012260660529136658,-0.11633273214101791,-0.5345616936683655
1772872165231385300,0.36738525390625,0.024501614272594452,-0.04368036985397339,-0.45085692405700684
1772872165241318400,0.377318359375,-0.003802727675065398,0.0736909955739975,-0.3583613336086273
1772872165251252700,0.387252685546875,-0.039014510810375214,0.19561824202537537,-0.29780665040016174
1772872165261185500,0.397185546875,-0.04802238568663597,0.2813485860824585,-0.30539000034332275
1772872165271118600,0.40711865234375,0.003486077766865492,0.28742966055870056,-0.43095192313194275
1772872165281052700,0.417052734375,0.10237244516611099,0.23405617475509644,-0.641082763671875
1772872165290985500,0.4269853515625,0.19365468621253967,0.18898935616016388,-0.8625555038452148
1772872165300919600,0.43691943359375,0.2653366029262543,0.17183247208595276,-1.0326628684997559
1772872165310852600,0.4468525390625,0.293000191450119,0.20896945893764496,-1.1117643117904663
1772872165320785400,0.456785400390625,0.2811509668827057,0.31983792781829834,-1.0685750246047974
1772872165330719500,0.466719482421875,0.22131560742855072,0.44088417291641235,-0.9174307584762573
1772872165340652500,0.476652587890625,0.11069642007350922,0.5217230916023254,-0.6656925082206726
1772872165350586600,0.486586669921875,-0.0442071408033371,0.5383825302124023,-0.40110933780670166
1772872165360519700,0.496519775390625,-0.19993256032466888,0.4902826249599457,-0.2565242052078247
1772872165370452700,0.50645263671875,-0.32660314440727234,0.3967156708240509,-0.2548317611217499
1772872165380386600,0.516386474609375,-0.3995569944381714,0.29980534315109253,-0.3543546199798584
1772872165390319600,0.526319580078125,-0.43333038687705994,0.18607160449028015,-0.5154231190681458
1772872165400253400,0.53625341796875,-0.4542998671531677,0.017368070781230927,-0.7248940467834473
1772872165410186500,0.5461865234375,-0.45043081045150757,-0.19271938502788544,-0.9255339503288269
1772872165420119600,0.55611962890625,-0.4186140298843384,-0.3668901324272156,-1.015425443649292
1772872165430053400,0.566053466796875,-0.36091744899749756,-0.4735931158065796,-0.9798456430435181
1772872165439986400,0.575986328125,-0.2816804051399231,-0.5357193350791931,-0.8358200788497925
1772872165449920800,0.585920654296875,-0.1818227916955948,-0.5456758737564087,-0.5741487741470337
1772872165459853600,0.595853515625,-0.09172485768795013,-0.4438328444957733,-0.22975090146064758
1772872165469786600,0.60578662109375,-0.014111291617155075,-0.23938408493995667,0.09192193299531937
1772872165479720700,0.615720703125,0.034088194370269775,0.03188975527882576,0.372573584318161
1772872165489653500,0.625653564453125,0.07037855684757233,0.4052194058895111,0.6140775680541992
1772872165499587600,0.635587646484375,0.08638841658830643,0.7624307870864868,0.7551510334014893
1772872165509520600,0.645520751953125,0.0713367611169815,1.007932424545288,0.7563798427581787
1772872165519453400,0.655453369140625,0.05476124957203865,1.1185569763183594,0.613350510597229
1772872165529387500,0.665387451171875,0.04026992619037628,1.0561000108718872,0.3832840025424957
1772872165539320600,0.675320556640625,0.020592892542481422,0.853415846824646,0.09663945436477661
1772872165549254700,0.685254638671875,-0.010369017720222473,0.5921837091445923,-0.20433636009693146
1772872165559187700,0.695187744140625,-0.05348852649331093,0.338248074054718,-0.4707832336425781
1772872165569120800,0.705120849609375,-0.11674179881811142,0.1736527532339096,-0.6816829442977905
1772872165579054600,0.7150546875,-0.1849762499332428,0.13688594102859497,-0.8479549884796143
1772872165588987600,0.724987548828125,-0.22149403393268585,0.19137714803218842,-0.9602554440498352
1772872165598921500,0.73492138671875,-0.22564351558685303,0.3102175295352936,-1.026025414466858
1772872165608854500,0.7448544921875,-0.20562027394771576,0.44859829545021057,-1.054766297340393
1772872165618787600,0.75478759765625,-0.1759321540594101,0.5647534132003784,-1.0464707612991333
1772872165628721400,0.764721435546875,-0.16547630727291107,0.6019415259361267,-1.0304536819458008
1772872165638654500,0.774654541015625,-0.17979319393634796,0.5517593026161194,-1.010231852531433
1772872165648587500,0.78458740234375,-0.2149149626493454,0.4455420672893524,-0.9819104075431824
1772872165658521600,0.794521484375,-0.25446105003356934,0.29904448986053467,-0.9168672561645508
1772872165668454700,0.80445458984375,-0.2799150049686432,0.132230743765831,-0.79873126745224
1772872165678388500,0.814388427734375,-0.27618685364723206,-0.02587367594242096,-0.6225168108940125
1772872165688321500,0.824321533203125,-0.2515784502029419,-0.15810760855674744,-0.4156664311885834
1772872165698254600,0.834254638671875,-0.2114802896976471,-0.22932159900665283,-0.20811432600021362
1772872165708188400,0.8441884765625,-0.18634484708309174,-0.25550925731658936,-0.030437001958489418
1772872165718121500,0.85412158203125,-0.19983242452144623,-0.25602245330810547,0.09145321696996689
1772872165728056300,0.864056396484375,-0.256842702627182,-0.2528764605522156,0.13965563476085663
1772872165737989000,0.873989013671875,-0.34976571798324585,-0.26123639941215515,0.12801282107830048
1772872165747922200,0.883922119140625,-0.4556506276130676,-0.2886278033256531,0.06036347523331642
1772872165757856300,0.893856201171875,-0.5305411219596863,-0.34984561800956726,-0.031555794179439545
1772872165767789000,0.9037890625,-0.5516256093978882,-0.39145776629447937,-0.17594493925571442
1772872165777723100,0.91372314453125,-0.4885140359401703,-0.3215111792087555,-0.3796221613883972
1772872165787656200,0.92365625,-0.2925008535385132,-0.16020750999450684,-0.6258524656295776
1772872165797589000,0.933589111328125,0.06744614988565445,-0.09377389401197433,-0.8541820049285889
1772872165807523300,0.9435234375,0.5273085832595825,-0.07809320092201233,-0.9830595850944519
1772872165817456000,0.9534560546875,0.9844454526901245,-0.13223819434642792,-0.9825155138969421
1772872165827390200,0.96339013671875,1.245145559310913,-0.2826023995876312,-0.866723895072937
1772872165837323300,0.9733232421875,1.1535801887512207,-0.4100908637046814,-0.532287061214447
1772872165847256000,0.983256103515625,0.6882284879684448,-0.6071131229400635,0.03153422474861145
1772872165857190100,0.993190185546875,-0.13698315620422363,-0.7589852213859558,0.7196668386459351
1772872165867123200,1.003123291015625,-0.7677123546600342,-0.5936217904090881,1.2981126308441162
1772872165877057000,1.01305712890625,-0.8447973132133484,-0.036124713718891144,1.7449936866760254
1772872165886990000,1.022989990234375,-0.47099122405052185,0.6813953518867493,1.9628663063049316
1772872165896923100,1.032923095703125,0.08137554675340652,1.2085111141204834,1.6778385639190674
1772872165906857200,1.042857177734375,0.5801869630813599,1.3258336782455444,0.9844220280647278
1772872165916790300,1.052790283203125,0.8989462852478027,1.0139561891555786,0.06699980795383453
1772872165926724000,1.06272412109375,1.0673878192901611,0.43300682306289673,-0.7942078709602356
1772872165936657200,1.0726572265625,1.182924747467041,-0.057380203157663345,-1.2654366493225098
1772872165946590200,1.082590087890625,1.3056392669677734,-0.41276732087135315,-1.3114691972732544
1772872165956524000,1.09252392578125,1.5357389450073242,-0.6698044538497925,-1.2522082328796387
1772872165966457000,1.10245703125,1.8796199560165405,-0.8995143175125122,-1.337217926979065
1772872165976391200,1.11239111328125,2.1620635986328125,-1.1153135299682617,-1.4739174842834473
1772872165986324000,1.122323974609375,2.209275007247925,-1.1532888412475586,-1.4807149171829224
1772872165996257000,1.132257080078125,2.011899471282959,-1.117405891418457,-1.3566502332687378
1772872166006191400,1.14219140625,1.5313501358032227,-1.1992273330688477,-0.9902482628822327
1772872166016124200,1.152124267578125,0.8964413404464722,-1.3569122552871704,-0.40199989080429077
1772872166026058200,1.162058349609375,0.23756222426891327,-1.423579216003418,0.3097842335700989
1772872166035991300,1.1719912109375,-0.3058110475540161,-1.2746011018753052,1.092006802558899
1772872166045924000,1.181924072265625,-0.7369981408119202,-0.87516188621521,1.8731389045715332
1772872166055858200,1.191858154296875,-0.8953725695610046,-0.277311772108078,2.446755886077881
1772872166065791200,1.201791259765625,-0.7937844395637512,0.16429279744625092,2.716243028640747
1772872166075725000,1.21172509765625,-0.6564548015594482,0.49794960021972656,2.6000993251800537
1772872166085658000,1.221658203125,-0.44252097606658936,0.6877269744873047,2.093799591064453
1772872166095591200,1.231591064453125,-0.23175786435604095,0.7140952348709106,1.3001158237457275
1772872166105525200,1.241525146484375,-0.059364788234233856,0.5260768532752991,0.3496362864971161
1772872166115458300,1.251458251953125,0.1321396678686142,0.2096640169620514,-0.5533007383346558
1772872166125391400,1.261391357421875,0.3135339617729187,-0.07085233181715012,-1.2150858640670776
1772872166135325200,1.2713251953125,0.44934025406837463,-0.2322944849729538,-1.5841091871261597
1772872166145258200,1.28125830078125,0.547747790813446,-0.3268266022205353,-1.7194963693618774
1772872166155192000,1.291192138671875,0.5706837177276611,-0.34102097153663635,-1.6571197509765625
1772872166165125000,1.301125,0.48248061537742615,-0.31325989961624146,-1.4555398225784302
1772872166175058200,1.31105810546875,0.282278835773468,-0.24695652723312378,-1.2189152240753174
1772872166184992000,1.320991943359375,-0.027295270934700966,-0.12333524972200394,-1.016965627670288
1772872166194925000,1.330925048828125,-0.3576958179473877,0.05035851150751114,-0.8387902975082397
1772872166204859100,1.340859130859375,-0.62000972032547,0.16365763545036316,-0.6522560715675354
1772872166214792200,1.350792236328125,-0.8214765191078186,0.23036742210388184,-0.44323575496673584
1772872166224725200,1.360725341796875,-0.8811560869216919,0.3037465810775757,-0.20591481029987335
1772872166234659000,1.3706591796875,-0.7048588395118713,0.4208042025566101,0.057257961481809616
1772872166244592000,1.380592041015625,-0.3982773423194885,0.49689391255378723,0.2716064751148224
1772872166254526200,1.390526123046875,-0.11109962314367294,0.46471336483955383,0.3658522963523865
1772872166264459000,1.400458984375,0.07785458117723465,0.39576491713523865,0.35797280073165894
1772872166274392000,1.41039208984375,0.16962578892707825,0.3124127686023712,0.2877465784549713
1772872166284326100,1.420326171875,0.1690843552350998,0.2705276310443878,0.2006193846464157
1772872166294259000,1.430259033203125,0.08668935298919678,0.17720700800418854,0.09495341032743454
1772872166304193300,1.440193359375,-0.07382069528102875,-0.07361377030611038,0.0037702370900660753
1772872166314126300,1.450126220703125,-0.27276521921157837,-0.4801098704338074,-0.1282397210597992
1772872166324059100,1.46005908203125,-0.4691930413246155,-0.615675687789917,-0.1288945972919464
1772872166333993200,1.4699931640625,-0.5310319066047668,-0.6188381910324097,-0.11200136691331863
1772872166343926300,1.47992626953125,-0.5332708358764648,-0.5476556420326233,-0.102615587413311
1772872166353859000,1.489859130859375,-0.43938589096069336,-0.535504937171936,-0.21581564843654633
1772872166363793200,1.499793212890625,-0.37223562598228455,-0.6896671056747437,-0.46427419781684875
1772872166373726200,1.509726318359375,-0.3190022110939026,-0.6195048093795776,-0.5772465467453003
1772872166383660000,1.519659912109375,-0.0760183334350586,-0.3260076642036438,-0.6538052558898926
1772872166393593000,1.529593017578125,0.3564121723175049,0.006488525774329901,-0.6974978446960449
1772872166403526100,1.539526123046875,0.8175579309463501,0.014477476477622986,-0.8127877116203308
1772872166413460200,1.549460205078125,0.9799506068229675,-0.5104176998138428,-1.0543073415756226
1772872166423393300,1.559393310546875,0.7072756886482239,-1.274297833442688,-0.977829098701477
1772872166433327000,1.5693271484375,0.26629507541656494,-2.003138303756714,-0.5738433003425598
1772872166443260200,1.57926025390625,-0.11832557618618011,-2.5551950931549072,-0.28934207558631897
1772872166453193200,1.589193115234375,-0.2758781909942627,-2.846869945526123,-0.22761504352092743
1772872166463127000,1.599126953125,-0.09587086737155914,-2.550868272781372,-0.09895134717226028
1772872166473060000,1.60906005859375,0.3462202548980713,-1.6265290975570679,0.2944848835468292
1772872166482994200,1.618994140625,0.8674384355545044,-0.6036294102668762,0.7025325894355774
1772872166492927000,1.628927001953125,1.1367164850234985,-0.13649579882621765,0.8344091176986694
1772872166502860000,1.638860107421875,1.0500364303588867,-0.31638646125793457,0.6507447361946106
1772872166512794400,1.64879443359375,0.7707302570343018,-0.6944386959075928,0.42037543654441833
1772872166522727200,1.65872705078125,0.48192137479782104,-0.9143734574317932,0.365298867225647
1772872166532661200,1.6686611328125,0.26487958431243896,-0.8652269244194031,0.5388411283493042
1772872166542594300,1.67859423828125,0.16124694049358368,-0.6370885968208313,0.8330556750297546
1772872166552527000,1.688527099609375,0.162808358669281,-0.4166773855686188,1.1060049533843994
1772872166562461200,1.698461181640625,0.22642408311367035,-0.25111958384513855,1.3414340019226074
1772872166572394200,1.708394287109375,0.2751671373844147,-0.0330229327082634,1.5800178050994873
1772872166582328000,1.718328125,0.22695937752723694,0.14287859201431274,1.7860223054885864
1772872166592261000,1.72826123046875,0.046599458903074265,0.27500680088996887,1.9822185039520264
1772872166602194200,1.738194091796875,-0.2187584489583969,0.3236997723579407,2.1985208988189697
1772872166612128300,1.748128173828125,-0.49927371740341187,0.2829033434391022,2.343864917755127
1772872166622061300,1.758061279296875,-0.7241894006729126,0.1370721012353897,2.381087303161621
1772872166631994400,1.767994384765625,-0.8520187139511108,-0.04000893607735634,2.2363173961639404
1772872166641928200,1.77792822265625,-0.8230462074279785,-0.22074516117572784,1.8861366510391235
1772872166651861200,1.787861328125,-0.6477491855621338,-0.19482460618019104,1.4385418891906738
1772872166661795000,1.797795166015625,-0.3412366807460785,-0.10000063478946686,0.7980241775512695
1772872166671728000,1.80772802734375,-0.014362161047756672,-0.16200381517410278,-0.08052786439657211
1772872166681661200,1.8176611328125,0.29496026039123535,-0.369554340839386,-1.007431983947754
1772872166691595000,1.827594970703125,0.6099094152450562,-0.5261684656143188,-1.7151678800582886
1772872166701528000,1.837528076171875,0.8906627893447876,-0.6509820222854614,-2.1227004528045654
1772872166711462100,1.847462158203125,1.0902025699615479,-0.7130025029182434,-2.264690637588501
1772872166721395200,1.857395263671875,1.1365742683410645,-0.7459503412246704,-2.1621274948120117
1772872166731328300,1.867328369140625,1.0451903343200684,-0.6698452234268188,-1.8464590311050415
1772872166741262000,1.877261962890625,0.839380145072937,-0.5062400102615356,-1.3980144262313843
1772872166751195100,1.887195068359375,0.5604050159454346,-0.3006170988082886,-0.872174859046936
1772872166761129200,1.897129150390625,0.282772034406662,-0.079704150557518,-0.34786128997802734
1772872166771062000,1.90706201171875,0.018602445721626282,0.08680467307567596,0.05916185677051544
1772872166780995000,1.9169951171875,-0.22036832571029663,0.18358661234378815,0.29911425709724426
1772872166790929400,1.926929443359375,-0.3944019079208374,0.24983753263950348,0.40676429867744446
1772872166800862200,1.9368623046875,-0.4836769104003906,0.38410958647727966,0.44088417291641235
1772872166810796300,1.94679638671875,-0.4933188855648041,0.533629834651947,0.4512729048728943
1772872166820729300,1.956729248046875,-0.4859224855899811,0.5819265246391296,0.44512102007865906
1772872166830662100,1.966662109375,-0.44592875242233276,0.5463669300079346,0.4017098844051361
1772872166840596200,1.97659619140625,-0.39338749647140503,0.509793758392334,0.37951987981796265
1772872166850529300,1.986529296875,-0.356553316116333,0.5434297323226929,0.4124240577220917
1772872166860462000,1.996462158203125,-0.3576204478740692,0.6801772117614746,0.4650976359844208
1772872166870396200,2.006396240234375,-0.3637363910675049,0.8485110998153687,0.5403015613555908
1772872166880329200,2.0163291015625,-0.3842179775238037,1.0574896335601807,0.5534802079200745
1772872166890263300,2.02626318359375,-0.45680323243141174,1.3895986080169678,0.5703321695327759
1772872166900196400,2.0361962890625,-0.5283003449440002,1.577736496925354,0.41642996668815613
1772872166910129400,2.04612939453125,-0.6610777974128723,1.44779372215271,0.025913622230291367
1772872166920063200,2.056063232421875,-0.802683413028717,1.1710337400436401,-0.4077398180961609
1772872166929996300,2.065996337890625,-0.7946020364761353,0.5970569849014282,-1.1985540390014648
1772872166939930000,2.07593017578125,-0.6041072010993958,-0.025828933343291283,-2.3967342376708984
1772872166949863200,2.08586328125,-0.24918346107006073,-0.33747684955596924,-3.579739809036255
1772872166959796200,2.095796142578125,0.4475412964820862,0.04623354226350784,-4.072404861450195
1772872166969730000,2.10572998046875,1.3524162769317627,0.7906688451766968,-3.701594591140747
1772872166979663000,2.1156630859375,1.7805156707763672,1.2410277128219604,-2.8503901958465576
1772872166989597400,2.125597412109375,1.0555965900421143,1.0656591653823853,-1.6867700815200806
1772872166999530200,2.1355302734375,0.002030926523730159,0.43021610379219055,0.16144081950187683
1772872167009463300,2.14546337890625,-0.984323263168335,-0.12232937663793564,2.2055935859680176
1772872167019397400,2.1553974609375,-1.30335533618927,-0.31998518109321594,3.099698066711426
1772872167029330200,2.165330078125,-1.043644666671753,-0.4542977213859558,3.129342794418335
1772872167039264300,2.17526416015625,-0.44929230213165283,-0.46814829111099243,2.511686325073242
1772872167049197300,2.185197265625,0.4449947774410248,-0.3474631607532501,1.4405232667922974
1772872167059130000,2.195130126953125,1.3715252876281738,-0.3363569676876068,0.19916503131389618
1772872167069064200,2.205064208984375,2.0685174465179443,-0.541106641292572,-0.9156448245048523
1772872167078997200,2.214997314453125,2.516636848449707,-0.889218807220459,-1.8665273189544678
1772872167088930000,2.224929931640625,2.6034796237945557,-1.3772695064544678,-2.5216689109802246
1772872167098864400,2.234864501953125,2.2792391777038574,-1.8868848085403442,-2.78951358795166
1772872167108797200,2.244797119140625,1.8341413736343384,-2.0492773056030273,-2.642496109008789
1772872167118731300,2.254731201171875,1.332724928855896,-1.7751758098602295,-1.9939582347869873
1772872167128664300,2.264664306640625,0.8284769058227539,-1.0301389694213867,-0.9709064960479736
1772872167138597400,2.274597412109375,0.41951099038124084,-0.06052060052752495,0.18416211009025574
1772872167148531200,2.28453125,0.08947262167930603,0.8994507193565369,1.1791003942489624
1772872167158464300,2.29446435546875,-0.0691673532128334,1.7356494665145874,1.9579600095748901
1772872167168398000,2.304398193359375,-0.0582268200814724,2.3177411556243896,2.5593388080596924
1772872167178331100,2.3143310546875,-0.09402050822973251,2.4903080463409424,2.962639331817627
1772872167188264200,2.32426416015625,-0.24040675163269043,2.222106456756592,3.0480010509490967
1772872167198198300,2.3341982421875,-0.49827638268470764,1.5902035236358643,2.845451593399048
1772872167208131300,2.34413134765625,-0.792536735534668,0.895340085029602,2.5197525024414062
1772872167218065200,2.354065185546875,-0.995836079120636,0.3379817605018616,2.1701886653900146
1772872167227998200,2.363998291015625,-1.0167804956436157,0.04803703352808952,1.8056498765945435
1772872167237931300,2.37393115234375,-0.8732696771621704,-0.05155826732516289,1.369805932044983
1772872167247865000,2.383864990234375,-0.6453691720962524,-0.08684222400188446,0.7753215432167053
1772872167257798100,2.393798095703125,-0.29673951864242554,-0.17038984596729279,-0.028266258537769318
1772872167267731200,2.403731201171875,0.21160785853862762,-0.4263491928577423,-0.9779737591743469
1772872167277665000,2.4136650390625,0.7243273258209229,-0.8127658367156982,-1.8479235172271729
1772872167287598000,2.42359814453125,1.0745972394943237,-1.1661490201950073,-2.3715620040893555
1772872167297532400,2.433532470703125,1.2063528299331665,-1.3998993635177612,-2.4300765991210938
1772872167307465200,2.44346533203125,1.0803840160369873,-1.5821030139923096,-2.071291208267212
1772872167317398300,2.453398193359375,0.7459170818328857,-1.560185194015503,-1.4255558252334595
1772872167327332400,2.463332275390625,0.37255918979644775,-1.0929701328277588,-0.6649002432823181
1772872167337265200,2.47326513671875,0.054062969982624054,-0.2848037779331207,-0.020257867872714996
1772872167347199200,2.48319921875,-0.23932071030139923,0.5610886216163635,0.3939438462257385
1772872167357132300,2.49313232421875,-0.5278204083442688,1.1375330686569214,0.5826144218444824
1772872167367065000,2.503065185546875,-0.7243971228599548,1.3106502294540405,0.5827198624610901
1772872167376999200,2.512999267578125,-0.8338844776153564,1.1560148000717163,0.5095521807670593
1772872167386932200,2.52293212890625,-0.8707295656204224,0.8889746069908142,0.44786274433135986
1772872167396865000,2.532864990234375,-0.8455509543418884,0.6956378817558289,0.4508337676525116
1772872167406799400,2.54279931640625,-0.7820753455162048,0.6486573815345764,0.5339922904968262
1772872167416732400,2.552732421875,-0.6920804381370544,0.7310156226158142,0.6793984770774841
1772872167426666200,2.562666259765625,-0.5915285348892212,0.9100034832954407,0.8498258590698242
1772872167436599300,2.572599365234375,-0.47680890560150146,1.1362025737762451,0.9939998388290405
1772872167446532400,2.582532470703125,-0.32559648156166077,1.3766939640045166,1.0315061807632446
1772872167456466200,2.592466064453125,-0.16606061160564423,1.4359394311904907,0.8954551815986633
1772872167466399200,2.602399169921875,-0.008318915963172913,1.2114554643630981,0.6012272238731384
1772872167476333000,2.6123330078125,0.14255288243293762,0.7690242528915405,0.23812095820903778
1772872167486266000,2.62226611328125,0.19398678839206696,0.5333717465400696,0.08672796934843063
1772872167496199200,2.63219921875,0.15557041764259338,0.2843467593193054,-0.15020255744457245
1772872167506133200,2.64213330078125,-0.08416707813739777,0.08059391379356384,-0.3261730372905731
1772872167516066300,2.65206640625,-0.4504404067993164,-0.21001315116882324,-0.5880680680274963
1772872167526000400,2.66200048828125,-0.6643492579460144,-0.6845807433128357,-1.3244116306304932
1772872167535933200,2.67193310546875,-0.7316414713859558,-0.9838241338729858,-2.507000207901001
1772872167545866200,2.6818662109375,-0.3504711985588074,-0.5498045682907104,-3.666585683822632
1772872167555800300,2.69180029296875,0.6869256496429443,0.865980863571167,-3.955811023712158
1772872167565733000,2.701733154296875,1.4089035987854004,2.3922696113586426,-3.1399922370910645
1772872167575666200,2.711666259765625,0.603792130947113,3.4970126152038574,-1.598875641822815
1772872167585600300,2.721600341796875,-0.7086695432662964,3.15211820602417,0.524063766002655
1772872167595533000,2.731532958984375,-1.024580955505371,1.500929832458496,3.6815805435180664
1772872167605467400,2.74146728515625,-1.6163536310195923,0.3651531934738159,4.912775993347168
1772872167615400200,2.751400146484375,-1.5240226984024048,-0.43090692162513733,4.53098201751709
1772872167625333200,2.761333251953125,-1.0494694709777832,-0.8042245507240295,3.4858570098876953
1772872167635267300,2.771267333984375,-0.15486973524093628,-0.9680396318435669,2.260493278503418
1772872167645200100,2.7812001953125,0.9905071258544922,-0.9608815908432007,1.0408363342285156
1772872167655134200,2.79113427734375,1.9379171133041382,-0.9988608956336975,-0.28796282410621643
1772872167665067300,2.8010673828125,2.4795680046081543,-1.065780758857727,-1.5850716829299927
1772872167675000000,2.811,2.56451153755188,-1.0442694425582886,-2.5384953022003174
1772872167684934100,2.82093408203125,2.2376649379730225,-1.0396275520324707,-2.995012044906616
1772872167694867200,2.8308671875,1.7171436548233032,-0.9660747051239014,-2.922886371612549
1772872167704801300,2.84080126953125,1.1066046953201294,-0.8928428292274475,-2.267084836959839
1772872167714734300,2.850734375,0.540951132774353,-0.7446233034133911,-1.194894552230835
1772872167724667400,2.86066748046875,0.07022222876548767,-0.5236400365829468,-0.008623582310974598
1772872167734600400,2.870600341796875,-0.2757799029350281,-0.43779757618904114,1.0084937810897827
1772872167744533500,2.880533447265625,-0.5256443619728088,-0.40912064909935,1.7990965843200684
1772872167754467600,2.890467529296875,-0.6840813755989075,-0.21293304860591888,2.4009368419647217
1772872167764400400,2.900400390625,-0.7384948134422302,0.21330241858959198,2.7351043224334717
1772872167774333700,2.910333740234375,-0.7192659974098206,0.43647345900535583,2.6046409606933594
1772872167784267800,2.920267822265625,-0.7324012517929077,0.3000865876674652,2.0184295177459717
1772872167794200600,2.93020068359375,-0.7423524260520935,-0.008800415322184563,1.1841511726379395
1772872167804133600,2.940133544921875,-0.7051336765289307,-0.2097412496805191,0.3621283769607544
1772872167814067700,2.950067626953125,-0.5872054696083069,-0.2528674006462097,-0.3197178244590759
1772872167824000500,2.96000048828125,-0.4182947278022766,-0.2990751266479492,-0.8471214175224304
1772872167833934600,2.9699345703125,-0.24643640220165253,-0.4369877278804779,-1.2703711986541748
1772872167843867600,2.97986767578125,-0.0830908939242363,-0.6070646643638611,-1.627943754196167
1772872167853800400,2.989800537109375,0.06306791305541992,-0.755016565322876,-1.9120553731918335
1772872167863734500,2.999734619140625,0.12125106155872345,-0.8528416752815247,-2.0486786365509033
1772872167873667600,3.00966748046875,0.10351147502660751,-0.8916385769844055,-1.977458119392395
1772872167883601700,3.0196015625,0.011357050389051437,-0.8703703284263611,-1.6660841703414917
1772872167893534700,3.02953466796875,-0.09734572470188141,-0.8179699778556824,-1.1694116592407227
1772872167903467800,3.0394677734375,-0.1708364635705948,-0.6944794654846191,-0.5553588271141052
1772872167913401600,3.049401611328125,-0.22417211532592773,-0.3859034776687622,0.07175834476947784
1772872167923334700,3.059334716796875,-0.2571588158607483,0.07127977162599564,0.6323865056037903
1772872167933268500,3.0692685546875,-0.30784279108047485,0.465936541557312,1.0370391607284546
1772872167943201500,3.079201416015625,-0.32060757279396057,0.6723677515983582,1.249423623085022
1772872167953134600,3.089134521484375,-0.28896576166152954,0.7399685978889465,1.3243463039398193
1772872167963068400,3.099068359375,-0.23794890940189362,0.6943387985229492,1.2823823690414429
1772872167973001500,3.10900146484375,-0.20833855867385864,0.5586057305335999,1.190386414527893
1772872167982934800,3.118934814453125,-0.23802508413791656,0.41937941312789917,1.080485224723816
1772872167992868600,3.12886865234375,-0.29722633957862854,0.3548201322555542,0.9384114146232605
1772872168002801700,3.1388017578125,-0.3327915370464325,0.41806089878082275,0.7705997824668884
1772872168012735500,3.148735595703125,-0.33339235186576843,0.53265380859375,0.5650274157524109
1772872168022668500,3.15866845703125,-0.2869398891925812,0.5734339952468872,0.31069156527519226
1772872168032601600,3.1686015625,-0.18630382418632507,0.5153453946113586,0.0022825952619314194
1772872168042535400,3.178535400390625,-0.07663512229919434,0.3107275068759918,-0.2889886498451233
1772872168052468500,3.188468505859375,-0.008105597458779812,0.22098670899868011,-0.33504801988601685
1772872168062402600,3.198402587890625,0.010690194554626942,0.2561955749988556,-0.29583457112312317
1772872168072335400,3.20833544921875,-0.01272937748581171,0.3435176908969879,-0.1975247859954834
1772872168082268700,3.2182685546875,0.01067954208701849,0.2394256442785263,-0.18320710957050323
1772872168092202800,3.22820263671875,0.11188632249832153,0.024206535890698433,-0.19735194742679596
1772872168102135600,3.238135498046875,0.24084270000457764,0.02736903913319111,0.005425924435257912
1772872168112068600,3.248068603515625,0.3764764368534088,0.31674838066101074,0.03182637318968773
1772872168122002700,3.258002685546875,0.15391819179058075,0.9245206117630005,-0.3130583167076111
1772872168131935500,3.267935546875,-0.40952014923095703,1.38420569896698,-0.6774125695228577
1772872168141869600,3.27786962890625,-0.8788926601409912,1.5420104265213013,-0.5198442339897156
1772872168151802600,3.287802734375,-1.021256446838379,1.3527220487594604,0.30420249700546265
1772872168161735400,3.2977353515625,-1.0404688119888306,0.8311662077903748,1.4347319602966309
1772872168171669500,3.30766943359375,-0.9766938090324402,0.15736858546733856,2.366398572921753
1772872168181602600,3.3176025390625,-0.6790876984596252,-0.44580063223838806,2.7163374423980713
1772872168191536600,3.32753662109375,-0.31978943943977356,-0.652133047580719,2.461695671081543
1772872168201469700,3.3374697265625,0.13511840999126434,-0.6046723127365112,1.745096206665039
1772872168211402800,3.34740283203125,0.6079229712486267,-0.48144811391830444,0.8088462352752686
1772872168221336600,3.357336669921875,1.0154856443405151,-0.3729213774204254,-0.2082381546497345
1772872168231269600,3.36726953125,1.2727187871932983,-0.41772159934043884,-1.1562843322753906
1772872168241202700,3.37720263671875,1.3903197050094604,-0.5428584814071655,-1.892084002494812
1772872168251136500,3.387136474609375,1.2392537593841553,-0.7778846025466919,-2.1853127479553223
1772872168261069600,3.397069580078125,0.9393908977508545,-1.0611146688461304,-2.033115863800049
1772872168271003400,3.40700341796875,0.740151584148407,-1.0853004455566406,-1.5970537662506104
1772872168280936400,3.4169365234375,0.6172083616256714,-0.7048455476760864,-0.9208659529685974
1772872168290869800,3.426869873046875,0.45252540707588196,-0.06451773643493652,-0.0747099220752716
1772872168300803600,3.436803466796875,0.21215645968914032,0.6278578042984009,0.7405472993850708
1772872168310736600,3.446736572265625,-0.1135324239730835,1.1386557817459106,1.3883370161056519
1772872168320670700,3.456670654296875,-0.5585828423500061,1.3467859029769897,1.819290280342102
1772872168330603500,3.466603515625,-1.0285327434539795,1.1619653701782227,1.951265573501587
1772872168340536600,3.47653662109375,-1.401617169380188,0.7040446996688843,1.8223934173583984
1772872168350470700,3.486470703125,-1.5667078495025635,0.17138533294200897,1.5137839317321777
1772872168360403500,3.496403564453125,-1.4912586212158203,-0.22865848243236542,1.1362125873565674
1772872168370337500,3.506337646484375,-1.1961464881896973,-0.3897128701210022,0.6877307295799255
1772872168380270600,3.5162705078125,-0.7470840811729431,-0.3910931944847107,0.13561828434467316
1772872168390203600,3.52620361328125,-0.2831329107284546,-0.39673084020614624,-0.5368834137916565
1772872168400137700,3.5361376953125,0.19159740209579468,-0.3744007647037506,-1.1933954954147339
1772872168410070800,3.54607080078125,0.5711420774459839,-0.31927600502967834,-1.6441211700439453
1772872168420003600,3.556003662109375,0.6910218596458435,-0.27212977409362793,-1.821975588798523
1772872168429937700,3.565937744140625,0.6095360517501831,-0.2959024906158447,-1.7090955972671509
1772872168439870700,3.57587060546875,0.40674060583114624,-0.39606985449790955,-1.3902950286865234
1772872168449804500,3.585804443359375,0.13308773934841156,-0.45187264680862427,-0.9956454038619995
1772872168459737600,3.595737548828125,-0.10942555963993073,-0.43608224391937256,-0.5888898968696594
1772872168469670700,3.605670654296875,-0.2659832239151001,-0.35023683309555054,-0.22032438218593597
1772872168479604500,3.6156044921875,-0.2981557846069336,-0.295844703912735,0.06810048967599869
1772872168489537800,3.625537841796875,-0.24195750057697296,-0.3144221305847168,0.2894693613052368
1772872168499471600,3.6354716796875,-0.15811321139335632,-0.3409080505371094,0.5027489066123962
1772872168509404700,3.64540478515625,-0.07701995223760605,-0.24741990864276886,0.6807172894477844
1772872168519337700,3.655337646484375,-0.014668690972030163,-0.04102865979075432,0.8332881927490234
1772872168529271600,3.665271484375,-0.07264970242977142,0.184666246175766,1.0055744647979736
1772872168539204600,3.67520458984375,-0.18838855624198914,0.3612537980079651,1.0676697492599487
1772872168549137700,3.6851376953125,-0.2654910683631897,0.47528076171875,0.9601180553436279
1772872168559071500,3.695071533203125,-0.3085911273956299,0.5541929006576538,0.7249526381492615
1772872168569004500,3.705004638671875,-0.36833834648132324,0.6267741322517395,0.46518605947494507
1772872168578938400,3.7149384765625,-0.435187429189682,0.7111292481422424,0.23499414324760437
1772872168588871400,3.724871337890625,-0.48278582096099854,0.7710027098655701,0.10938268154859543
1772872168598804700,3.7348046875,-0.5591602325439453,0.7418562769889832,0.12998463213443756
1772872168608738600,3.744738525390625,-0.6418351531028748,0.6329886317253113,0.23006728291511536
1772872168618671600,3.754671630859375,-0.7100147008895874,0.5972210764884949,0.3491974174976349
1772872168628605700,3.764605712890625,-0.7915090322494507,0.6147318482398987,0.3767925500869751
1772872168638538500,3.77453857421875,-0.7440406084060669,0.5120808482170105,0.16083522140979767
1772872168648471600,3.784471435546875,-0.5202788710594177,0.21292318403720856,-0.46724069118499756
1772872168658405600,3.794405517578125,-0.1416708528995514,-0.23117595911026,-1.3797703981399536
1772872168668338400,3.80433837890625,0.2562653422355652,-0.5889543294906616,-2.346285820007324
1772872168678271500,3.814271484375,0.6190941333770752,-0.8579027056694031,-3.1171388626098633
1772872168688205600,3.82420556640625,1.0306446552276611,-0.9428788423538208,-3.47654390335083
1772872168698138600,3.834138671875,1.3667526245117188,-0.6929502487182617,-3.4026377201080322
1772872168708072700,3.84407275390625,1.44524347782135,-0.23728018999099731,-2.559211015701294
1772872168718005800,3.854005859375,1.356795310974121,0.386475533246994,-1.1201136112213135
1772872168727938600,3.8639384765625,0.9437928795814514,0.9272708892822266,0.2164156585931778
1772872168737873400,3.873873291015625,0.23069366812705994,0.6571738719940186,1.015879511833191
1772872168747806200,3.88380615234375,-0.29601967334747314,-0.41859060525894165,1.0477354526519775
1772872168757740300,3.893740234375,-0.4454006254673004,-1.6406177282333374,0.3552915155887604
1772872168767673300,3.90367333984375,-0.20163245499134064,-2.5533158779144287,-0.471800297498703
1772872168777606100,3.913606201171875,0.36162877082824707,-2.792470693588257,-1.0356956720352173
1772872168787540200,3.923540283203125,1.1108790636062622,-2.1694483757019043,-1.2176645994186401
1772872168797473300,3.933473388671875,1.8151721954345703,-0.9911547899246216,-1.0477453470230103
1772872168807407000,3.943406982421875,2.1661407947540283,0.1322440505027771,-0.6462916731834412
1772872168817340200,3.953340087890625,1.98172128200531,0.7412578463554382,-0.21958136558532715
1772872168827273200,3.963273193359375,1.418572187423706,0.7363483309745789,0.1453782320022583
1772872168837207300,3.973207275390625,0.7309221029281616,0.40712541341781616,0.4835038185119629
1772872168847138000,3.983137939453125,0.08641398698091507,0.11258992552757263,0.870385468006134
1772872168857071000,3.993071044921875,-0.4518375098705292,0.02804415114223957,1.3747644424438477
1772872168867005200,4.003005126953125,-0.884432315826416,0.1904439777135849,1.9788527488708496
1772872168876938000,4.01293798828125,-1.201667308807373,0.5578611493110657,2.6336207389831543
1772872168886872300,4.022872314453125,-1.390942931175232,1.0077204704284668,3.216269016265869
1772872168896805400,4.032805419921875,-1.5076857805252075,1.3218823671340942,3.4859673976898193
1772872168906738200,4.04273828125,-1.5995880365371704,1.344918966293335,3.308562755584717
1772872168916672300,4.05267236328125,-1.5997790098190308,1.1180189847946167,2.769911050796509
1772872168926605300,4.062605224609375,-1.4627257585525513,0.7981997132301331,2.01780366897583
1772872168936539100,4.0725390625,-1.2095155715942383,0.4130059480667114,1.0436869859695435
1772872168946472200,4.08247216796875,-0.8643622398376465,-0.024035561829805374,-0.05450505390763283
1772872168956405200,4.0924052734375,-0.4675123393535614,-0.3614274561405182,-1.0165964365005493
1772872168966339000,4.102339111328125,-0.11195023357868195,-0.4757327139377594,-1.7141410112380981
1772872168976272100,4.112272216796875,0.18098123371601105,-0.42067503929138184,-2.1594080924987793
1772872168986205400,4.122205322265625,0.3860238790512085,-0.24911262094974518,-2.4040775299072266
1772872168996139300,4.13213916015625,0.48131948709487915,-0.06568659842014313,-2.45027756690979
1772872169006072300,4.142072265625,0.4510577321052551,0.020439494401216507,-2.3084371089935303
1772872169016006100,4.152006103515625,0.3283672332763672,-0.030956584960222244,-1.9737597703933716
1772872169025939200,4.161939208984375,0.15204492211341858,-0.1521165668964386,-1.5086860656738281
1772872169035872300,4.171872314453125,-0.030337931588292122,-0.2665155827999115,-1.0260450839996338
1772872169045806000,4.18180615234375,-0.21690621972084045,-0.30586618185043335,-0.5732848644256592
1772872169055739100,4.1917392578125,-0.415086954832077,-0.2517741918563843,-0.14460724592208862
1772872169065672200,4.201672119140625,-0.5592382550239563,-0.12324949353933334,0.24903778731822968
1772872169075606000,4.21160595703125,-0.6643303036689758,0.05522224307060242,0.5896846055984497
1772872169085539300,4.221539306640625,-0.7237645983695984,0.2698439955711365,0.8256773948669434
1772872169095473400,4.231473388671875,-0.739774227142334,0.4638550281524658,0.9342563152313232
1772872169105406200,4.24140625,-0.7274895906448364,0.6096412539482117,0.9674840569496155
1772872169115339300,4.25133935546875,-0.7210292816162109,0.76823490858078,0.9603827595710754
1772872169125273300,4.2612734375,-0.7082687616348267,0.8937286138534546,0.9317119717597961
1772872169135206100,4.2712060546875,-0.6936661005020142,0.9630193114280701,0.8706267476081848
1772872169145140200,4.28114013671875,-0.6831008195877075,1.02422297000885,0.7889223098754883
1772872169155073300,4.2910732421875,-0.6380172371864319,1.1545284986495972,0.708254873752594
1772872169165006000,4.301006103515625,-0.5778548121452332,1.3305463790893555,0.6951937079429626
1772872169174940200,4.310940185546875,-0.5443759560585022,1.562841773033142,0.9459580183029175
1772872169184873200,4.320873291015625,-0.5356911420822144,1.7198017835617065,1.0890048742294312
1772872169194807300,4.330807373046875,-0.60162752866745,1.5690340995788574,0.9226787686347961
1772872169204740400,4.340740234375,-0.7154765725135803,1.0427918434143066,0.6108987927436829
1772872169214673400,4.35067333984375,-0.8141794800758362,0.2782529294490814,0.09426897764205933
1772872169224608300,4.360608154296875,-0.7696892619132996,-0.4655756950378418,-0.6670771241188049
1772872169234541000,4.370541015625,-0.4677613377571106,-0.905119776725769,-1.566527247428894
1772872169244475100,4.38047509765625,-0.02448217384517193,-0.8598159551620483,-2.4764089584350586
1772872169254408200,4.390408203125,0.30871841311454773,-0.35814961791038513,-3.267707109451294
1772872169264342300,4.40034228515625,0.4791868329048157,0.1837005913257599,-3.486438274383545
1772872169274275300,4.410275390625,0.4760141968727112,0.6484658718109131,-2.614309310913086
1772872169284208400,4.42020849609375,0.15647615492343903,0.8819555640220642,-1.039243221282959
1772872169294142200,4.43014208984375,-0.39122021198272705,0.5368735790252686,0.5506780743598938
1772872169304075300,4.4400751953125,-0.8140298128128052,-0.1762293577194214,1.3958200216293335
1772872169314008300,4.45000830078125,-0.89011549949646,-0.8343324065208435,1.7283923625946045
1772872169323942100,4.459942138671875,-0.6166413426399231,-0.995683491230011,1.800528883934021
1772872169333875200,4.469875244140625,-0.13481667637825012,-0.5311893224716187,1.5890262126922607
1772872169343809000,4.47980908203125,0.33348289132118225,0.24035881459712982,1.2475767135620117
1772872169353742000,4.4897421875,0.6971276998519897,0.9110476970672607,0.7792457342147827
1772872169363675100,4.499675048828125,0.8849247694015503,1.1094372272491455,0.312432199716568
1772872169373609200,4.509609130859375,0.9465300440788269,0.8620809316635132,-0.07503616064786911
1772872169383542300,4.519542236328125,0.8955193161964417,0.3850366175174713,-0.306487500667572
1772872169393476400,4.529476318359375,0.7499898076057434,-0.09032803028821945,-0.2564062178134918
1772872169403409200,4.5394091796875,0.6205612421035767,-0.3776562213897705,0.08866222202777863
1772872169413342200,4.54934228515625,0.5856181979179382,-0.3197002410888672,0.65496426820755
1772872169423276300,4.5592763671875,0.5808039903640747,0.03248843550682068,1.2770400047302246
1772872169433209000,4.569208984375,0.5161088705062866,0.5768308043479919,1.8744193315505981
1772872169443142100,4.57914208984375,0.3878028690814972,1.2173432111740112,2.3210184574127197
1772872169453076200,4.589076171875,0.15307264029979706,1.680306315422058,2.5466575622558594
1772872169463009000,4.599009033203125,-0.18904022872447968,1.7742700576782227,2.562713623046875
1772872169472943400,4.608943359375,-0.5753540992736816,1.52782142162323,2.3284425735473633
1772872169482876400,4.61887646484375,-0.9004238247871399,1.0495011806488037,1.9151909351348877
1772872169492809200,4.628809326171875,-1.0686242580413818,0.5017549991607666,1.4312293529510498
1772872169502743300,4.638743408203125,-1.087429404258728,0.10347339510917664,0.838184654712677
1772872169512676400,4.64867626953125,-0.9935516119003296,-0.2101881206035614,0.08929578959941864
1772872169522610200,4.658610107421875,-0.7731188535690308,-0.4396130442619324,-0.6725403070449829
1772872169532543200,4.668543212890625,-0.4219725430011749,-0.48819950222969055,-1.3524231910705566
1772872169542476300,4.678476318359375,0.008765794336795807,-0.48511263728141785,-1.9195716381072998
1772872169552410000,4.68841015625,0.40809985995292664,-0.5625578761100769,-2.3673195838928223
1772872169562343200,4.69834326171875,0.7028310894966125,-0.6768724918365479,-2.6523263454437256
1772872169572276200,4.708276123046875,0.8547133207321167,-0.7306030988693237,-2.6470301151275635
1772872169582210300,4.718210205078125,0.8402811288833618,-0.7079204320907593,-2.260653495788574
1772872169592143400,4.728143310546875,0.7095164656639099,-0.6212885975837708,-1.596022367477417
1772872169602077200,4.7380771484375,0.5187944173812866,-0.5140146017074585,-0.8390392661094666
1772872169612010200,4.74801025390625,0.2744997441768646,-0.3509122133255005,-0.1160762757062912
1772872169621943300,4.757943359375,-0.018315358087420464,-0.17962515354156494,0.45616114139556885
1772872169631877000,4.767877197265625,-0.3366334140300751,-0.004594485275447369,0.8373103737831116
1772872169641810200,4.77781005859375,-0.6173250079154968,0.13139477372169495,1.0304723978042603
1772872169651744000,4.787743896484375,-0.8425669074058533,0.20047476887702942,1.1243631839752197
1772872169661677000,4.797677001953125,-1.0339890718460083,0.25226128101348877,1.1669737100601196
1772872169671610000,4.807610107421875,-1.1066064834594727,0.270555317401886,1.1439120769500732
1772872169681544200,4.817544189453125,-1.0668189525604248,0.2944297790527344,1.0426398515701294
1772872169691477200,4.827477294921875,-0.9380398988723755,0.3128258287906647,0.8621115684509277
1772872169701410300,4.837410400390625,-0.7813080549240112,0.32294291257858276,0.6667377948760986
1772872169711344000,4.84734423828125,-0.6240411996841431,0.3407970070838928,0.5274542570114136
1772872169721277200,4.857277099609375,-0.46939200162887573,0.40974169969558716,0.44918444752693176
1772872169731211300,4.867211181640625,-0.35187309980392456,0.4360524117946625,0.3812277913093567
1772872169741144000,4.87714404296875,-0.27256229519844055,0.3348158001899719,0.24836960434913635
1772872169751077000,4.8870771484375,-0.2425929307937622,0.12359011173248291,0.037706099450588226
1772872169761011200,4.89701123046875,-0.2708203196525574,-0.0560411661863327,-0.2389361411333084
1772872169770944000,4.906944091796875,-0.4569489061832428,-0.3596990406513214,-0.6356281042098999
1772872169780878000,4.916878173828125,-0.7215757966041565,-0.9019703269004822,-0.9722841382026672
1772872169790811100,4.92681103515625,-0.8251144289970398,-1.6000008583068848,-1.4263904094696045
1772872169800744200,4.936744140625,-0.6676195859909058,-2.182525396347046,-2.0989484786987305
1772872169810678300,4.94667822265625,-0.06351692229509354,-2.1669819355010986,-2.8101582527160645
1772872169820611300,4.956611328125,0.7063435316085815,-1.4236098527908325,-3.2646656036376953
1772872169830544100,4.966544189453125,1.0273151397705078,-0.270770788192749,-3.1445281505584717
1772872169840478200,4.976478271484375,0.8388043642044067,0.6892226338386536,-2.2215356826782227
1772872169850411300,4.986411376953125,0.49686411023139954,0.9280937910079956,-0.08562568575143814
1772872169860345000,4.996344970703125,0.16669976711273193,0.9562625885009766,2.269929885864258
1772872169870278100,5.006278076171875,-0.16056543588638306,1.0692498683929443,3.208153486251831
1772872169880211200,5.016211181640625,-0.4414503872394562,1.0242857933044434,2.482574462890625
1772872169890145000,5.02614501953125,-0.4574487805366516,0.5461171269416809,1.0807254314422607
1772872169900078300,5.036078369140625,-0.10583854466676712,0.02437378279864788,-0.3894875645637512
1772872169910012200,5.04601220703125,0.4670281708240509,-0.48312750458717346,-1.6377782821655273
1772872169919945200,5.0559453125,0.9227948784828186,-0.9512936472892761,-2.4014711380004883
1772872169929878300,5.065878173828125,1.2228723764419556,-1.0673151016235352,-2.535513162612915
1772872169939812000,5.07581201171875,1.311066746711731,-0.7392280101776123,-1.9585506916046143
1772872169949745200,5.0857451171875,1.1832541227340698,-0.13304993510246277,-1.0259569883346558
1772872169959678200,5.09567822265625,0.9506893754005432,0.5475547313690186,-0.19355961680412292
1772872169969612000,5.105612060546875,0.6197378039360046,1.0050392150878906,0.5136635899543762
1772872169979545000,5.115545166015625,0.215727761387825,1.2310097217559814,1.1752405166625977
1772872169989479200,5.125479248046875,-0.18909695744514465,1.2628166675567627,1.7677311897277832
1772872169999412200,5.135412109375,-0.5326220989227295,1.1297805309295654,2.171539306640625
1772872170009345300,5.14534521484375,-0.7024729251861572,0.8370161056518555,2.281217098236084
1772872170019279400,5.155279296875,-0.7416507005691528,0.4550119936466217,2.1420373916625977
1772872170029212200,5.165212158203125,-0.6794463992118835,0.08818046003580093,1.9227734804153442
1772872170039145200,5.175145263671875,-0.5111516714096069,-0.20769193768501282,1.7449287176132202
1772872170049079300,5.185079345703125,-0.31576886773109436,-0.37327611446380615,1.6816256046295166
1772872170059012000,5.19501220703125,-0.08624700456857681,-0.34887436032295227,1.7202271223068237
1772872170068946200,5.2049462890625,0.16343925893306732,-0.20498937368392944,1.62480628490448
1772872170078879200,5.214879150390625,0.2684924304485321,-0.06266871094703674,1.234468936920166
1772872170088812000,5.22481201171875,0.16395005583763123,-0.055091481655836105,0.5117990970611572
1772872170098746400,5.234746337890625,0.040456611663103104,-0.1371527910232544,-0.26633021235466003
1772872170108679200,5.24467919921875,-0.007619570009410381,-0.19045063853263855,-0.8796055912971497
1772872170118613200,5.25461328125,0.027040937915444374,-0.16627739369869232,-1.340427041053772
1772872170128546300,5.26454638671875,0.16716289520263672,-0.19713090360164642,-1.6290696859359741
1772872170138479400,5.274479248046875,0.34202685952186584,-0.22150389850139618,-1.7018963098526
1772872170148413200,5.2844130859375,0.427534282207489,-0.27523770928382874,-1.5502934455871582
1772872170158346200,5.29434619140625,0.3823838531970978,-0.33097419142723083,-1.2100701332092285
1772872170168279300,5.304279296875,0.20256003737449646,-0.3080765902996063,-0.7122560143470764
1772872170178213000,5.314213134765625,0.010830809362232685,-0.26053598523139954,-0.12565992772579193
1772872170188146200,5.324146240234375,-0.09482451528310776,-0.16589681804180145,0.5021286606788635
1772872170198080000,5.334080078125,-0.15459197759628296,-0.09528736770153046,1.0523366928100586
1772872170208013300,5.344013427734375,-0.22951814532279968,-0.06474464386701584,1.458849549293518
1772872170217946400,5.3539462890625,-0.3419240415096283,-0.0338655561208725,1.6793824434280396
1772872170227880200,5.363880126953125,-0.46816372871398926,0.03092728927731514,1.7018970251083374
1772872170237813200,5.373813232421875,-0.5568405985832214,0.15797126293182373,1.595281720161438
1772872170247746300,5.383746337890625,-0.573746383190155,0.3174269497394562,1.4309906959533691
1772872170257680100,5.39368017578125,-0.5095194578170776,0.5330255627632141,1.2399533987045288
1772872170267613200,5.40361328125,-0.4001772403717041,0.7432094216346741,1.050302267074585
1772872170277547000,5.413547119140625,-0.33806484937667847,0.8497340083122253,0.832809329032898
1772872170287480000,5.42347998046875,-0.3183707892894745,0.8122308254241943,0.5936825275421143
1772872170297413000,5.4334130859375,-0.3214608430862427,0.6901211738586426,0.35363051295280457
1772872170307347200,5.44334716796875,-0.31043562293052673,0.5471829175949097,0.15222574770450592
1772872170317280300,5.4532802734375,-0.25123143196105957,0.48947247862815857,-0.04139937087893486
1772872170327213300,5.46321337890625,-0.17618754506111145,0.5423120260238647,-0.2375611513853073
1772872170337147100,5.473147216796875,-0.12562024593353271,0.7129181027412415,-0.5090680122375488
1772872170347080200,5.483080078125,-0.1322656273841858,0.8926782608032227,-1.1223002672195435
1772872170357014300,5.49301416015625,0.0016290555940940976,0.8571362495422363,-1.9769291877746582
1772872170366947000,5.502947021484375,0.2483845055103302,0.5578494071960449,-2.8976638317108154
1772872170376880000,5.512880126953125,0.4170752465724945,0.14644242823123932,-3.4780611991882324
1772872170386814200,5.522814208984375,0.4917580187320709,-0.10143767297267914,-3.5917539596557617
1772872170396747000,5.5327470703125,0.4087696671485901,0.09031737595796585,-3.4887359142303467
1772872170406681300,5.542681396484375,0.20238906145095825,0.4111774265766144,-3.2081031799316406
1772872170416614400,5.552614501953125,0.19570292532444,0.39725175499916077,-2.503099203109741
1772872170426547200,5.562547119140625,0.34172698855400085,0.282285213470459,-1.3541465997695923
1772872170436481300,5.572481201171875,0.3414023220539093,0.137612983584404,-0.1632794737815857
1772872170446414300,5.582414306640625,0.2563692033290863,-0.20701256394386292,0.537747323513031
1772872170456347100,5.59234716796875,0.3304322361946106,-0.7404927611351013,0.6445872187614441
1772872170466281200,5.60228125,0.5771980881690979,-1.2908616065979004,0.31355658173561096
1772872170476214300,5.61221435546875,0.8618258237838745,-1.5925636291503906,-0.2921261191368103
1772872170486148000,5.622148193359375,1.08626127243042,-1.7511104345321655,-0.8802024126052856
1772872170496081200,5.6320810546875,1.1537913084030151,-1.7887814044952393,-1.1606122255325317
1772872170506014200,5.64201416015625,1.0906959772109985,-1.5817928314208984,-1.1993615627288818
1772872170515948300,5.6519482421875,0.9588631391525269,-1.2041789293289185,-1.0658929347991943
1772872170525881300,5.66188134765625,0.7622667551040649,-0.845646321773529,-0.7730059623718262
1772872170535815200,5.671815185546875,0.5305224657058716,-0.5282241702079773,-0.2767069637775421
1772872170545748200,5.681748291015625,0.25560858845710754,-0.18384680151939392,0.3426297903060913
1772872170555681300,5.691681396484375,-0.026088058948516846,0.11964863538742065,0.9633148908615112
1772872170565615000,5.701614990234375,-0.3092646300792694,0.4005405008792877,1.5660334825515747
1772872170575548200,5.711548095703125,-0.616720974445343,0.7054953575134277,2.1780154705047607
1772872170585481200,5.721481201171875,-0.8977382779121399,1.0297338962554932,2.7980918884277344
1772872170595415000,5.7314150390625,-1.1403805017471313,1.2167418003082275,3.3296520709991455
1772872170605348000,5.74134814453125,-1.359560251235962,1.1773438453674316,3.6658904552459717
1772872170615282200,5.7512822265625,-1.4694393873214722,0.925898551940918,3.7017290592193604
1772872170625215200,5.76121533203125,-1.4031157493591309,0.6202451586723328,3.4390172958374023
1772872170635148300,5.771148193359375,-1.157898187637329,0.3869354724884033,2.9634127616882324
1772872170645082000,5.78108203125,-0.8284090161323547,0.23460212349891663,2.3147025108337402
1772872170655015200,5.79101513671875,-0.4902421534061432,0.17974339425563812,1.4654786586761475
1772872170664948200,5.8009482421875,-0.20355871319770813,0.1259494125843048,0.3502672016620636
1772872170674882000,5.810882080078125,0.08061441779136658,0.05074120685458183,-0.8362299203872681
1772872170684815000,5.820815185546875,0.37458452582359314,0.1016848161816597,-1.7860900163650513
1772872170694749200,5.830749267578125,0.660118818283081,0.2616412043571472,-2.434009075164795
1772872170704682000,5.840681884765625,0.9236364364624023,0.3710121512413025,-2.793926954269409
1772872170714615000,5.850614990234375,1.045458197593689,0.3315366506576538,-2.856395959854126
1772872170724549400,5.86054931640625,0.9701075553894043,0.061174143105745316,-2.6558687686920166
1772872170734482000,5.87048193359375,0.7335336208343506,-0.3046001195907593,-2.2607944011688232
1772872170744414700,5.880414794921875,0.3863793909549713,-0.5874685645103455,-1.6657291650772095
1772872170754348800,5.890348876953125,0.004432831425219774,-0.766755223274231,-0.9504156112670898
1772872170764281900,5.90028173828125,-0.36475905776023865,-0.7711734175682068,-0.21875818073749542
1772872170774215700,5.910215576171875,-0.6711757183074951,-0.6349300742149353,0.4251558184623718
1772872170784148700,5.920148681640625,-0.8662109971046448,-0.44375720620155334,0.9106969833374023
1772872170794081800,5.930081787109375,-0.9326187372207642,-0.19093693792819977,1.2409387826919556
1772872170804015900,5.940015869140625,-0.9293649196624756,0.06643122434616089,1.447261095046997
1772872170813949000,5.949948974609375,-0.9443148374557495,0.2549089789390564,1.5857696533203125
1772872170823882000,5.959882080078125,-0.9530521631240845,0.3752308785915375,1.6757214069366455
1772872170833815800,5.96981591796875,-0.920595109462738,0.5032019019126892,1.7106175422668457
1772872170843748900,5.979748779296875,-0.8429261445999146,0.5832029581069946,1.67253839969635
1772872170853682700,5.9896826171875,-0.7220889329910278,0.5554333925247192,1.589916706085205
1772872170863615700,5.99961572265625,-0.5459378957748413,0.4873102605342865,1.463716983795166
1772872170873548800,6.009548828125,-0.36939749121665955,0.4727720618247986,1.334656000137329
1772872170883482600,6.019482666015625,-0.2842322587966919,0.4688100814819336,1.2237454652786255
1772872170893415700,6.029415771484375,-0.27212366461753845,0.49699538946151733,1.1337969303131104
1772872170903349800,6.039349853515625,-0.30335909128189087,0.5929397344589233,1.0324103832244873
1772872170913282800,6.04928271484375,-0.2996434271335602,0.6064494252204895,0.959602952003479
1772872170923216000,6.0592158203125,-0.3837553858757019,0.5730614066123962,0.8699883818626404
1772872170933149700,6.069149658203125,-0.610593318939209,0.4128376245498657,0.54147869348526
1772872170943082800,6.079082763671875,-0.7722170948982239,0.15499304234981537,-0.0018604843644425273
1772872170953015800,6.089015869140625,-0.6998379826545715,-0.31656304001808167,-0.8728063106536865
1772872170962949600,6.09894970703125,-0.3553495705127716,-0.7005344033241272,-1.7694745063781738
1772872170972882700,6.108882568359375,0.19241498410701752,-0.4392620623111725,-2.4351539611816406
1772872170982816800,6.118816650390625,0.8563881516456604,0.44308581948280334,-2.7245309352874756
1772872170992749600,6.12874951171875,1.2629410028457642,1.4478222131729126,-2.4827518463134766
1772872171002683000,6.138682861328125,1.0288859605789185,1.791805386543274,-1.624273419380188
1772872171012617000,6.148616943359375,0.10911290347576141,1.3386536836624146,-0.4668095111846924
1772872171022549800,6.1585498046875,-1.0845798254013062,0.5388320684432983,0.1764621138572693
1772872171032482800,6.16848291015625,-1.9587349891662598,-0.6230960488319397,0.08035130053758621
1772872171042417000,6.1784169921875,-1.930615782737732,-1.393262267112732,0.04688867926597595
1772872171052349700,6.188349609375,-0.8333398699760437,-1.0981403589248657,0.1965913474559784
1772872171062283800,6.19828369140625,0.6546265482902527,-0.20128491520881653,0.45357388257980347
1772872171072216800,6.208216796875,1.8327269554138184,0.6644917130470276,0.6481732130050659
1772872171082149600,6.218149658203125,2.4630796909332275,1.0047739744186401,0.7612073421478271
1772872171092083700,6.228083740234375,2.524838924407959,0.7846383452415466,0.8109895586967468
1772872171102016800,6.238016845703125,2.06294584274292,0.18696056306362152,0.803661048412323
1772872171111950800,6.247950927734375,1.313822627067566,-0.4357791841030121,0.6985407471656799
1772872171121884000,6.2578837890625,0.5800862908363342,-0.8405141234397888,0.44455721974372864
1772872171131817000,6.26781689453125,0.03225301206111908,-0.9163993000984192,0.11561394482851028
1772872171141750800,6.277750732421875,-0.23907117545604706,-0.7941426634788513,-0.18153730034828186
1772872171151683800,6.287683837890625,-0.21865324676036835,-0.5446678400039673,-0.36268579959869385
1772872171161617000,6.297616943359375,-0.061712633818387985,-0.38559508323669434,-0.478193461894989
1772872171171550700,6.30755078125,0.07986074686050415,-0.49061232805252075,-0.4808334708213806
1772872171181483800,6.31748388671875,0.19522887468338013,-0.7033892869949341,-0.2840794026851654
1772872171191417600,6.32741748046875,0.33250871300697327,-0.9171274304389954,0.02052072063088417
1772872171201350700,6.3373505859375,0.36436358094215393,-1.2200958728790283,0.27147144079208374
1772872171211284000,6.347283935546875,0.19937196373939514,-1.3809510469436646,0.3704611659049988
1772872171221217800,6.3572177734375,-0.09877025336027145,-1.193106770515442,0.3952868580818176
1772872171231150800,6.36715087890625,-0.3908633589744568,-0.6638874411582947,0.5015648603439331
1772872171241084000,6.377083984375,-0.653704822063446,0.042819369584321976,0.7424216866493225
1772872171251017700,6.387017822265625,-0.8362181782722473,0.7629093527793884,0.9609547853469849
1772872171260950800,6.39695068359375,-0.9372404217720032,1.1981940269470215,0.9660243988037109
1772872171270884900,6.406884765625,-0.9514153599739075,1.1628527641296387,0.7051419615745544
1772872171280817700,6.416817626953125,-0.7717896699905396,0.8318596482276917,0.24712111055850983
1772872171290750700,6.426750732421875,-0.38271090388298035,0.3050230145454407,-0.17222583293914795
1772872171300684800,6.436684814453125,0.1042795330286026,-0.0896420031785965,-0.40552273392677307
1772872171310617900,6.446617919921875,0.638767421245575,-0.19096596539020538,-0.4325050711631775
1772872171320551000,6.456551025390625,1.0497419834136963,-0.18742182850837708,-0.3426803946495056
1772872171330485000,6.466485107421875,1.1979281902313232,-0.12217171490192413,-0.1996353417634964
1772872171340417800,6.476417724609375,1.1247568130493164,0.05953283607959747,-0.12333445250988007
1772872171350352000,6.486351806640625,0.9549512267112732,0.15418903529644012,-0.1231408417224884
1772872171360285000,6.496284912109375,0.6978142261505127,0.20156294107437134,-0.12738990783691406
1772872171370217700,6.5062177734375,0.44832053780555725,0.30401793122291565,-0.11223120242357254
1772872171380151800,6.51615185546875,0.23300182819366455,0.3723677098751068,-0.07037322968244553
1772872171390084900,6.5260849609375,0.03972157835960388,0.18112237751483917,-0.036437101662158966
1772872171400017700,6.536017578125,-0.05453115329146385,-0.12211472541093826,-0.05892590060830116
1772872171409951700,6.54595166015625,-0.015059110708534718,-0.37438851594924927,-0.02201528660953045
1772872171419884800,6.555884765625,0.05375457555055618,-0.5368232131004333,0.15074263513088226
1772872171429819000,6.56581884765625,0.08996611088514328,-0.4813160300254822,0.36033475399017334
1772872171439752000,6.575751953125,0.12067075818777084,-0.23986266553401947,0.5456380248069763
1772872171449684700,6.585684814453125,0.1339769810438156,0.010218548588454723,0.7572216391563416
1772872171459618800,6.595618896484375,0.12721973657608032,0.28265273571014404,0.9707320928573608
1772872171469551900,6.6055517578125,0.08098326623439789,0.5165552496910095,1.1733688116073608
1772872171479484700,6.615484619140625,-0.053464822471141815,0.6165862083435059,1.31988525390625
1772872171489418800,6.625418701171875,-0.12585486471652985,0.5750707387924194,1.2730746269226074
1772872171499351800,6.635351806640625,-0.02082458883523941,0.3055521845817566,0.9495940208435059
1772872171509285600,6.64528564453125,0.23610174655914307,-0.1389983594417572,0.37608280777931213
1772872171519219000,6.655218994140625,0.5251790881156921,-0.5652005672454834,-0.3733522891998291
1772872171529152000,6.665152099609375,0.7789306640625,-0.7717308402061462,-0.9839423894882202
1772872171539085800,6.6750859375,0.886438250541687,-0.7361677885055542,-1.4740614891052246
1772872171549019000,6.685018798828125,0.8084448575973511,-0.5195531845092773,-1.9405949115753174
1772872171558952000,6.694951904296875,0.44278329610824585,-0.268494576215744,-2.1812520027160645
1772872171568885800,6.7048857421875,-0.22466054558753967,-0.19161391258239746,-2.1523513793945312
1772872171578818800,6.71481884765625,-1.0033313035964966,-0.22754473984241486,-1.8347233533859253
1772872171588752600,6.724752685546875,-1.6531039476394653,-0.09316004067659378,-1.509371042251587
1772872171598685700,6.734685791015625,-1.958350658416748,0.008075237274169922,-1.6878478527069092
1772872171608618800,6.74461865234375,-1.7894114255905151,-0.29910388588905334,-2.005373001098633
1772872171618552800,6.754552734375,-1.2482579946517944,-0.6332024931907654,-1.4874497652053833
1772872171628486000,6.76448583984375,-0.6249661445617676,-0.5971853733062744,-0.1528846174478531
1772872171638419000,6.7744189453125,-0.31580936908721924,-0.228279247879982,1.2509533166885376
1772872171648352800,6.784352783203125,-0.2595415711402893,0.25565892457962036,2.1916606426239014
1772872171658285800,6.794285888671875,-0.23046676814556122,0.6845501065254211,2.382338285446167
1772872171668220000,6.804219970703125,-0.07617732882499695,0.8619546890258789,1.8683369159698486
1772872171678152700,6.814152587890625,0.22908325493335724,0.6597267985343933,0.9336893558502197
1772872171688085800,6.824085693359375,0.6350275874137878,0.15049417316913605,-0.09804826974868774
1772872171698019800,6.834019775390625,1.000382900238037,-0.313884437084198,-0.9255246520042419
1772872171707952600,6.84395263671875,1.208030343055725,-0.6194989085197449,-1.4774082899093628
1772872171717885700,6.8538857421875,1.2148070335388184,-0.8615682721138,-1.7581688165664673
1772872171727820000,6.863820068359375,1.1284332275390625,-0.9717296957969666,-1.7944467067718506
1772872171737753300,6.87375341796875,1.070550799369812,-0.860511839389801,-1.5262253284454346
1772872171747687400,6.8836875,0.9580469131469727,-0.4567217230796814,-0.9247217178344727
1772872171757620200,6.8936201171875,0.7884455919265747,-0.018994996324181557,-0.12971165776252747
1772872171767553300,6.90355322265625,0.5504658222198486,0.1288522481918335,0.5593692660331726
1772872171777487400,6.9134873046875,0.2729004919528961,-0.09752602130174637,1.0094422101974487
1772872171787420200,6.923420166015625,0.06198853626847267,-0.47986912727355957,1.203253984451294
1772872171797353200,6.933353271484375,-0.12719550728797913,-0.6399142146110535,1.157968282699585
1772872171807287300,6.943287353515625,-0.36645734310150146,-0.4387563169002533,0.9853163361549377
1772872171817220000,6.95322021484375,-0.622689425945282,0.05115799233317375,0.8315845727920532
1772872171827154400,6.963154541015625,-0.8397322297096252,0.5721601843833923,0.7327807545661926
1772872171837087500,6.97308740234375,-0.9562101364135742,0.9692018032073975,0.6897329092025757
1772872171847020300,6.983020263671875,-0.936882495880127,1.2025094032287598,0.5749048590660095
1772872171856954400,6.992954345703125,-0.8114068508148193,1.2260693311691284,0.230654776096344
1772872171866887400,7.002887451171875,-0.5810466408729553,1.0474460124969482,-0.324832946062088
1772872171876820200,7.0128203125,-0.2511749565601349,0.7425124645233154,-0.883461058139801
1772872171886754300,7.02275439453125,0.07609397172927856,0.5659478306770325,-1.2730274200439453
1772872171896687400,7.032687255859375,0.2943224310874939,0.5939693450927734,-1.3697305917739868
1772872171906621200,7.04262109375,0.40802130103111267,0.7400040626525879,-1.236063838005066
1772872171916554200,7.05255419921875,0.41989076137542725,0.8170639276504517,-1.0134313106536865
1772872171926487300,7.0624873046875,0.3748244643211365,0.774964451789856,-0.8420491814613342
1772872171936421400,7.07242138671875,0.32201477885246277,0.6067517399787903,-0.7788704633712769
1772872171946354400,7.0823544921875,0.32798507809638977,0.39384928345680237,-0.7864165306091309
1772872171956287500,7.09228759765625,0.37854090332984924,0.16123096644878387,-0.7843257188796997
1772872171966221300,7.10222119140625,0.4771271347999573,-0.030539799481630325,-0.7932866811752319
1772872171976154400,7.112154296875,0.5438047051429749,-0.19913414120674133,-0.7943610548973083
1772872171986088200,7.122088134765625,0.5052682161331177,-0.4012307822704315,-0.7078210711479187
1772872171996021200,7.132021240234375,0.40957924723625183,-0.4974217712879181,-0.5038833618164062
1772872172005954300,7.141954345703125,0.3115522861480713,-0.506806492805481,-0.2721388339996338
1772872172015888100,7.15188818359375,0.2621205747127533,-0.4073967933654785,-0.18775178492069244
1772872172025821200,7.1618212890625,0.32812434434890747,-0.3692001402378082,-0.344486802816391
1772872172035754200,7.171754150390625,0.5502293109893799,-0.5184910893440247,-0.7111250162124634
1772872172045688300,7.181688232421875,0.8598124980926514,-0.6199788451194763,-1.137587070465088
1772872172055621400,7.191621337890625,1.1492626667022705,-0.6303377151489258,-1.359845757484436
1772872172065554400,7.201554443359375,1.3678698539733887,-0.5387806296348572,-1.2633655071258545
1772872172075488300,7.21148828125,1.3543410301208496,-0.2911154627799988,-0.9571012258529663
1772872172085421300,7.22142138671875,1.024746298789978,-0.07533283531665802,-0.5540869235992432
1772872172095355400,7.23135546875,0.4919936954975128,0.10194527357816696,-0.0994672030210495
1772872172105288200,7.2412880859375,-0.04243906959891319,0.30389490723609924,0.34211045503616333
1772872172115221200,7.25122119140625,-0.48188140988349915,0.5024383664131165,0.7988324761390686
1772872172125155300,7.2611552734375,-0.8019558191299438,0.5310569405555725,1.1424840688705444
1772872172135088000,7.271088134765625,-0.9647085070610046,0.24362677335739136,1.2574615478515625
1772872172145021200,7.281021240234375,-0.9557328820228577,-0.16359399259090424,1.3262896537780762
1772872172154955300,7.290955322265625,-0.7339504361152649,-0.4627141058444977,1.4308035373687744
1772872172164888300,7.300888427734375,-0.4374889135360718,-0.5081295371055603,1.3440749645233154
1772872172174822400,7.310822509765625,-0.23769697546958923,-0.08665420114994049,1.0666513442993164
1772872172184755200,7.320755126953125,-0.09284631907939911,0.45198744535446167,0.5708379149436951
1772872172194688300,7.330688232421875,0.12905065715312958,0.3713383972644806,-0.29872196912765503
1772872172204622300,7.340622314453125,0.6083032488822937,-0.468516081571579,-1.4124913215637207
1772872172214555100,7.35055517578125,1.2050223350524902,-1.4567503929138184,-2.0317881107330322
1772872172224488200,7.36048828125,1.5903111696243286,-2.1755549907684326,-1.7902640104293823
1772872172234422300,7.37042236328125,1.5968849658966064,-2.771449089050293,-0.9780735969543457
1772872172244355300,7.380355224609375,1.1570545434951782,-3.091454267501831,0.11398515850305557
1772872172254289400,7.390289306640625,0.5226642489433289,-2.7001829147338867,1.1386574506759644
1772872172264222500,7.400222412109375,-0.01852414943277836,-1.4812424182891846,1.8745458126068115
1772872172274155300,7.4101552734375,-0.45135894417762756,0.015397598035633564,2.3478002548217773
1772872172284089300,7.42008935546875,-0.7531728148460388,1.2588034868240356,2.5484354496002197
1772872172294022400,7.4300224609375,-0.9470813274383545,1.7503290176391602,2.522658348083496
1772872172303955200,7.439955078125,-1.1260268688201904,1.5902643203735352,2.317366123199463
1772872172313889300,7.44988916015625,-1.3275823593139648,1.1609848737716675,2.1090357303619385
1772872172323822300,7.459822265625,-1.5779473781585693,0.85223788022995,2.0233099460601807
1772872172333756200,7.469756103515625,-1.8316776752471924,0.7452659010887146,1.9705466032028198
1772872172343689200,7.479689208984375,-1.9907411336898804,0.6848031282424927,1.7970834970474243
1772872172353622300,7.489622314453125,-1.9947515726089478,0.6463281512260437,1.4332586526870728
1772872172363556400,7.499556396484375,-1.8829715251922607,0.7427103519439697,0.966171383857727
1772872172373489400,7.509489501953125,-1.7600117921829224,0.9597616791725159,0.49871739745140076
1772872172383422500,7.51942236328125,-1.6273746490478516,1.1923328638076782,0.08575378358364105
1772872172393356300,7.529356201171875,-1.4450693130493164,1.2573212385177612,-0.20566047728061676
1772872172403289300,7.539289306640625,-1.2476332187652588,1.0294896364212036,-0.33453962206840515
1772872172413223200,7.54922314453125,-0.9315937161445618,0.5149719715118408,-0.37964585423469543
1772872172423156200,7.55915625,-0.579650342464447,-0.18203239142894745,-0.4317109286785126
1772872172433089300,7.56908935546875,-0.2067185640335083,-0.8706693649291992,-0.5426571369171143
1772872172443023000,7.579023193359375,0.19671837985515594,-1.2718218564987183,-0.7011682391166687
1772872172452956200,7.5889560546875,0.4850037097930908,-1.4030920267105103,-0.8315677642822266
1772872172462889200,7.59888916015625,0.5736760497093201,-1.1936330795288086,-0.9100719094276428
1772872172472823300,7.6088232421875,0.6249387264251709,-0.6947135329246521,-0.9559115767478943
1772872172482756400,7.61875634765625,0.6700875163078308,-0.2682570219039917,-0.874197244644165
1772872172492690400,7.6286904296875,0.6200235486030579,-0.06701178848743439,-0.7032992839813232
1772872172502623200,7.638623291015625,0.4568764567375183,-0.10278630256652832,-0.48948875069618225
1772872172512556300,7.648556396484375,0.21392932534217834,-0.2273910790681839,-0.2629738450050354
1772872172522490400,7.658490478515625,-0.018306303769350052,-0.34473979473114014,0.005843508057296276
1772872172532423200,7.668423095703125,-0.12422900646924973,-0.3177390694618225,0.36113929748535156
1772872172542356200,7.678356201171875,-0.07917391508817673,-0.1273270696401596,0.7502215504646301
1772872172552290300,7.688290283203125,0.04604818671941757,0.1338733732700348,1.0640872716903687
1772872172562223000,7.69822314453125,0.19277212023735046,0.3269469738006592,1.2877033948898315
1772872172572156200,7.70815625,0.31794360280036926,0.4159490168094635,1.423230767250061
1772872172582090500,7.718090576171875,0.42949971556663513,0.41830509901046753,1.4563195705413818
1772872172592023300,7.728023193359375,0.4981650412082672,0.3201436400413513,1.4215810298919678
1772872172601957400,7.737957275390625,0.5042312145233154,0.24753043055534363,1.4069839715957642
1772872172611890400,7.747890380859375,0.41420650482177734,0.22847232222557068,1.2083030939102173
1772872172621823200,7.7578232421875,0.20102046430110931,0.13571016490459442,0.8242073655128479
1772872172631757300,7.76775732421875,-0.014819160103797913,-0.040157005190849304,0.1564609855413437
1772872172641690400,7.7776904296875,-0.07858429104089737,-0.35290399193763733,-0.8905174136161804
1772872172651623200,7.787623046875,0.01326946634799242,-0.7264224290847778,-2.0450148582458496
1772872172661557200,7.79755712890625,0.1803189069032669,-0.9803556799888611,-2.8381664752960205
1772872172671490300,7.807490234375,0.3456026613712311,-1.2505847215652466,-3.1757640838623047
1772872172681424400,7.81742431640625,0.3381327688694,-1.6146948337554932,-3.0063862800598145
1772872172691357400,7.827357421875,0.17689087986946106,-1.7868473529815674,-2.365154504776001
1772872172701290500,7.83729052734375,0.03537636622786522,-1.7668752670288086,-1.426187515258789
1772872172711224300,7.847224365234375,-0.020962273702025414,-1.5280972719192505,-0.38957279920578003
1772872172721157400,7.857157470703125,0.01745222695171833,-1.1299999952316284,0.5456231236457825
1772872172731090400,7.86709033203125,-0.03966325521469116,-0.6333249807357788,1.139514684677124
1772872172741024000,7.87702392578125,-0.2644287347793579,-0.06812632083892822,1.3185653686523438
1772872172750957000,7.88695703125,-0.4821208417415619,0.5704794526100159,1.1819117069244385
1772872172760891000,7.896890869140625,-0.5010718703269958,1.100283145904541,0.8200099468231201
1772872172770824000,7.906823974609375,-0.2642692029476166,1.440164566040039,0.3782133460044861
1772872172780757000,7.916757080078125,0.1513865888118744,1.3672593832015991,-0.05060245841741562
1772872172790690800,7.92669091796875,0.62770015001297,0.741278886795044,-0.5563215613365173
1772872172800623900,7.936623779296875,1.0256376266479492,-0.2811214327812195,-0.9791628122329712
1772872172810557000,7.946556884765625,1.1545735597610474,-1.1150988340377808,-0.972078800201416
1772872172820491000,7.956490966796875,1.0298494100570679,-1.546796441078186,-0.7084088325500488
1772872172830424000,7.966424072265625,0.7753204703330994,-1.5124739408493042,-0.2938467860221863
1772872172840357000,7.976357177734375,0.46642178297042847,-0.8034163117408752,0.291810542345047
1772872172850290200,7.986290283203125,0.17142342031002045,0.3244984447956085,0.9967918992042542
1772872172860223000,7.996222900390625,-0.17632922530174255,1.4107275009155273,1.660377860069275
1772872172870156000,8.006156005859374,-0.5555553436279297,2.03800106048584,2.1235458850860596
1772872172880090000,8.016090087890625,-0.9342419505119324,2.0470104217529297,2.276585578918457
1772872172890023000,8.02602294921875,-1.242167353630066,1.5707358121871948,2.074906587600708
1772872172899956000,8.0359560546875,-1.432463526725769,0.9018858671188354,1.5634145736694336
1772872172909890000,8.04589013671875,-1.4348405599594116,0.37098953127861023,0.9333111643791199
1772872172919822800,8.05582275390625,-1.2425249814987183,0.1446535885334015,0.36827176809310913
1772872172929756000,8.065755859375,-0.9066998362541199,0.2589402198791504,-0.020367056131362915
1772872172939690000,8.07568994140625,-0.5166439414024353,0.5208434462547302,-0.25704431533813477
1772872172949622800,8.085622802734376,-0.162321537733078,0.6625806093215942,-0.4534907937049866
1772872172959557000,8.09555712890625,0.05260062590241432,0.5960642099380493,-0.6542038917541504
1772872172969490200,8.105490234375,0.14862675964832306,0.37239646911621094,-0.8449576497077942
1772872172979423000,8.115423095703125,0.17561976611614227,0.09475553780794144,-1.0034745931625366
1772872172989357000,8.125357177734376,0.19217103719711304,-0.05386216565966606,-1.0728142261505127
1772872172999290000,8.1352900390625,0.21527503430843353,-0.08027912676334381,-0.9839122891426086
1772872173009223000,8.145222900390625,0.2733026444911957,-0.03527623042464256,-0.7746501564979553
1772872173019157000,8.155156982421875,0.324645459651947,0.05931232497096062,-0.5342599153518677
1772872173029090000,8.165090087890626,0.3171529173851013,0.09143297374248505,-0.3406449258327484
1772872173039023900,8.17502392578125,0.2569412589073181,0.005140966270118952,-0.20019593834877014
1772872173048957000,8.18495703125,0.13261529803276062,-0.11836206167936325,-0.07292933762073517
1772872173058890000,8.194889892578125,-0.02857998013496399,-0.20218585431575775,0.07303506135940552
1772872173068824000,8.204823974609376,-0.198674738407135,-0.25564613938331604,0.2135189324617386
1772872173078757000,8.214757080078124,-0.3419903516769409,-0.24284513294696808,0.3162844777107239
1772872173088690000,8.22468994140625,-0.41003599762916565,-0.1461430937051773,0.40729159116744995
1772872173098624000,8.2346240234375,-0.390397310256958,0.010239321738481522,0.5176106691360474
1772872173108557000,8.24455712890625,-0.275035560131073,0.21004484593868256,0.6489324569702148
1772872173118489900,8.25448974609375,-0.1281563639640808,0.47322800755500793,0.794386088848114
1772872173128424000,8.264423828125,-0.03852342441678047,0.7367392778396606,0.976776659488678
1772872173138357000,8.27435693359375,-0.08237503468990326,0.8511350750923157,1.1744310855865479
1772872173148290800,8.284290771484375,-0.22141148149967194,0.8361918330192566,1.3322277069091797
1772872173158224000,8.294223876953126,-0.43373358249664307,0.5740816593170166,1.4707133769989014
1772872173168157000,8.304156982421874,-0.5742342472076416,0.18910813331604004,1.4207346439361572
1772872173178091000,8.314091064453125,-0.6516454219818115,-0.10506729781627655,1.0346848964691162
1772872173188024000,8.324024169921875,-0.7686588764190674,-0.08170364797115326,0.6970688104629517
1772872173197957000,8.33395703125,-0.8669460415840149,0.1730881631374359,0.522584080696106
1772872173207891000,8.343890869140624,-0.9922876954078674,0.5101900100708008,0.4838758707046509
1772872173217824000,8.353823974609375,-1.1299570798873901,0.8903767466545105,0.5875564217567444
1772872173227760000,8.363760009765626,-1.0626955032348633,1.226189374923706,0.7384913563728333
1772872173237693200,8.373693115234374,-0.7640718221664429,1.241441011428833,0.659747302532196
1772872173247626000,8.3836259765625,-0.21208801865577698,0.7899209856987,0.33157607913017273
1772872173257560000,8.39356005859375,0.4570429027080536,0.2959320545196533,-0.1439656913280487
1772872173267493000,8.4034931640625,1.0726888179779053,-0.06999719142913818,-0.888839840888977
1772872173277426000,8.413426025390624,1.5329762697219849,-0.40589743852615356,-1.8420861959457397
1772872173287360000,8.423360107421875,1.600285530090332,-0.7738613486289978,-2.714322566986084
1772872173297293000,8.43329296875,1.2954723834991455,-1.2890610694885254,-3.178844690322876
1772872173307225900,8.443225830078125,1.0410709381103516,-1.7730921506881714,-3.1722095012664795
1772872173317160000,8.453159912109374,0.9095835089683533,-1.9479223489761353,-2.893099546432495
1772872173327093000,8.463093017578124,0.8137198090553284,-1.9155747890472412,-2.2401349544525146
1772872173337027000,8.473027099609375,0.7972934246063232,-1.7951172590255737,-1.2980952262878418
1772872173346960100,8.482960205078125,0.7679073214530945,-1.525665283203125,-0.3648858368396759
1772872173356893200,8.49289306640625,0.6865807771682739,-1.0317355394363403,0.3721003234386444
1772872173366827000,8.502826904296874,0.5586678385734558,-0.4203679859638214,0.8214091658592224
1772872173376760000,8.512760009765625,0.3844725787639618,0.11956314742565155,0.9994606375694275
1772872173386693000,8.522693115234375,0.09977932274341583,0.4373224675655365,0.940765380859375
1772872173396627000,8.532626953125,-0.18064914643764496,0.4240250289440155,0.5401740074157715
1772872173406560000,8.54256005859375,-0.3606117069721222,-0.04639439657330513,-0.2607288062572479
1772872173416493800,8.552493896484375,-0.4660063087940216,-0.4087478220462799,-0.9519338607788086
1772872173426427000,8.562427001953125,-0.2893998622894287,-0.3918798863887787,-1.1325414180755615
1772872173436360000,8.57235986328125,0.014853781089186668,-0.028133101761341095,-0.7684577703475952
1772872173446294000,8.5822939453125,0.2001032680273056,0.3923712372779846,-0.17682404816150665
1772872173456227000,8.59222705078125,0.20547060668468475,0.7484747767448425,0.2668287754058838
1772872173466160000,8.60216015625,0.04784901440143585,0.9668931365013123,0.3441150188446045
1772872173476094000,8.612093994140626,-0.1956738978624344,0.9771026372909546,0.16609682142734528
1772872173486027000,8.622027099609374,-0.5358168482780457,0.9452301859855652,-0.07455252856016159
1772872173495960000,8.6319599609375,-0.8295760154724121,0.9026368856430054,-0.3102833032608032
1772872173505894000,8.641893798828125,-0.9467191100120544,1.023465871810913,-0.5500351786613464
1772872173515827000,8.651826904296875,-0.8865484595298767,1.3207720518112183,-0.7291370034217834
1772872173525760800,8.6617607421875,-0.6946951746940613,1.622255802154541,-0.8698557615280151
1772872173535693800,8.67169384765625,-0.48571690917015076,1.7062430381774902,-0.9742474555969238
1772872173545627000,8.681626953125,-0.3305736482143402,1.5694091320037842,-1.0308350324630737
1772872173555561000,8.69156103515625,-0.2282046675682068,1.251361608505249,-1.022944688796997
1772872173565494000,8.701493896484376,-0.12491317093372345,0.7713739275932312,-1.0145000219345093
1772872173575427000,8.711427001953124,-0.018987540155649185,0.2656468451023102,-0.9803010821342468
1772872173585361000,8.72136083984375,0.05427788570523262,-0.13388003408908844,-0.9140011668205261
1772872173595294000,8.7312939453125,0.07572352141141891,-0.2890283465385437,-0.8406521081924438
1772872173605227000,8.74122705078125,0.12536804378032684,0.04429662600159645,-0.8031616806983948
1772872173615160800,8.751160888671874,0.22394707798957825,0.6509032249450684,-0.8150284886360168
1772872173625094000,8.761093994140625,0.2768545150756836,1.1022908687591553,-0.8782860040664673
1772872173635028000,8.771028076171875,0.2374357283115387,1.2017295360565186,-0.988584578037262
1772872173644960800,8.780960693359376,0.11595936119556427,0.994035542011261,-1.104687213897705
1772872173654893800,8.790893798828124,-0.02515329048037529,0.5627261996269226,-1.1179039478302002
1772872173664828200,8.800828125,-0.09851006418466568,0.2115311622619629,-0.9636291265487671
1772872173674761000,8.810760986328125,-0.10400363057851791,0.0732630267739296,-0.5755496025085449
1772872173684694000,8.820694091796875,-0.08272390812635422,0.0014122743159532547,-0.07831131666898727
1772872173694628000,8.830628173828124,-0.0017907095607370138,-0.03274782747030258,0.3208933174610138
1772872173704561000,8.840560791015625,0.08985079079866409,-0.04003503546118736,0.5736062526702881
1772872173714494000,8.850493896484375,0.13293594121932983,-0.014742727391421795,0.6301406621932983
1772872173724428000,8.860427978515625,0.18254424631595612,-0.017140371724963188,0.549031138420105
1772872173734360800,8.87036083984375,0.24819569289684296,-0.057917095720767975,0.5611029863357544
1772872173744294700,8.880294677734375,0.2686660885810852,-0.12493820488452911,0.8897229433059692
1772872173754227700,8.890227783203125,0.040591366589069366,-0.11367010325193405,1.2414288520812988
1772872173764160500,8.900160400390625,-0.23008619248867035,-0.21262598037719727,1.552027940750122
1772872173774094600,8.910094482421876,-0.4695435166358948,-0.4133814573287964,1.526614785194397
1772872173784027600,8.920027587890624,-0.4313729703426361,-0.5540024638175964,1.1469672918319702
1772872173793960400,8.92996044921875,-0.012329104356467724,-0.4443944990634918,0.7341623902320862
1772872173803894800,8.939894775390625,0.6764117479324341,-0.22270870208740234,0.34399837255477905
1772872173813827800,8.949827880859376,1.3012644052505493,-0.5110558271408081,-0.013936588540673256
1772872173823761700,8.95976171875,1.4683761596679688,-1.174575686454773,-0.42322343587875366
1772872173833694700,8.96969482421875,0.963922917842865,-1.7095733880996704,-0.621724009513855
1772872173843627800,8.979627685546875,0.25942757725715637,-1.6894198656082153,-0.2306811511516571
1772872173853561600,8.9895615234375,-0.22282429039478302,-0.8593501448631287,0.5203654170036316
1772872173863494700,8.99949462890625,-0.3368925452232361,0.2844831347465515,1.559654951095581
1772872173873427700,9.009427734375,-0.0547466017305851,1.238363265991211,2.6962172985076904
1772872173883361500,9.019361572265625,0.4056077003479004,1.6408782005310059,3.4492835998535156
1772872173893294600,9.029294677734375,0.8464183807373047,1.0356719493865967,3.3631591796875
1772872173903227600,9.0392275390625,1.0261316299438477,-0.4048825204372406,2.310667037963867
1772872173913161700,9.04916162109375,0.9281435608863831,-1.9725639820098877,0.6955977082252502
1772872173923094800,9.0590947265625,0.7295977473258972,-2.976492166519165,-0.7096133828163147
1772872173933028600,9.069028564453125,0.6312466859817505,-3.3944644927978516,-1.6441456079483032
1772872173942961700,9.078961669921876,0.6393405795097351,-3.2144486904144287,-1.9346098899841309
1772872173952894700,9.088894775390624,0.6420100927352905,-2.5242276191711426,-1.4280458688735962
1772872173962828500,9.09882861328125,0.5533324480056763,-1.4298882484436035,-0.5094650983810425
1772872173972761600,9.10876171875,0.44507625699043274,-0.08326400071382523,0.24606755375862122
1772872173982694700,9.118694580078126,0.31673774123191833,1.0276038646697998,0.5679017901420593
1772872173992628500,9.12862841796875,0.21503454446792603,1.6568683385849,0.5515028238296509
1772872174002561500,9.1385615234375,0.07905407249927521,1.6213088035583496,0.35690248012542725
1772872174012496000,9.148495849609375,-0.10521616786718369,1.060975193977356,0.0903293639421463
1772872174022428700,9.1584287109375,-0.28308069705963135,0.333800345659256,-0.21688197553157806
1772872174032361700,9.16836181640625,-0.4598639905452728,-0.2179565578699112,-0.5331488847732544
1772872174042295800,9.1782958984375,-0.5990450382232666,-0.4668145775794983,-0.8180178999900818
1772872174052228600,9.188228515625,-0.6069549322128296,-0.43909400701522827,-1.0478774309158325
1772872174062161700,9.19816162109375,-0.38675010204315186,-0.19879378378391266,-1.152593970298767
1772872174072095700,9.208095703125,-0.11429914832115173,0.11926540732383728,-1.1505593061447144
1772872174082028500,9.218028564453125,0.014033260755240917,0.5661633014678955,-1.1510241031646729
1772872174091961600,9.227961669921875,0.009486179798841476,1.0237023830413818,-1.2969189882278442
1772872174101895700,9.237895751953126,-0.12140126526355743,1.2573028802871704,-1.451848030090332
1772872174111828500,9.247828369140626,-0.30423712730407715,1.1500115394592285,-1.4666478633880615
1772872174121762800,9.2577626953125,-0.4279060661792755,0.7898597717285156,-1.2772587537765503
1772872174131695900,9.26769580078125,-0.3743504285812378,0.32429686188697815,-0.9923670291900635
1772872174141628700,9.277628662109375,-0.21140332520008087,-0.07169841974973679,-0.7324970960617065
1772872174151562800,9.287562744140626,0.0691007748246193,-0.3796647787094116,-0.559718132019043
1772872174161495800,9.297495849609374,0.3928588628768921,-0.4339919090270996,-0.4532300531864166
1772872174171428600,9.3074287109375,0.6070324182510376,-0.19527629017829895,-0.3695279657840729
1772872174181362700,9.31736279296875,0.6390300393104553,0.1454453468322754,-0.2927413284778595
1772872174191295700,9.327295654296876,0.4976441264152527,0.4561254680156708,-0.2636002004146576
1772872174201228500,9.337228515625,0.24978506565093994,0.5932223200798035,-0.26134636998176575
1772872174211162600,9.34716259765625,-0.012832707725465298,0.5094794631004333,-0.26274561882019043
1772872174221095700,9.357095703125,-0.2134755253791809,0.09758701175451279,-0.33796340227127075
1772872174231028700,9.36702880859375,-0.2758640646934509,-0.24812911450862885,-0.1775561422109604
1772872174240962800,9.376962890625,-0.2532445192337036,-0.6963343024253845,0.05260328948497772
1772872174250895600,9.3868955078125,-0.028807412832975388,-0.7205547094345093,0.4529179334640503
1772872174260829700,9.39682958984375,0.2047819048166275,-0.8789337277412415,0.7703188061714172
1772872174270762800,9.4067626953125,0.2873428165912628,-0.9283137917518616,1.0062543153762817
1772872174280695600,9.416695556640626,0.24975045025348663,-0.9385440349578857,1.1323875188827515
1772872174290629600,9.426629638671875,0.14444346725940704,-0.8941701650619507,1.1562238931655884
1772872174300562700,9.436562744140625,0.02979198470711708,-0.7567766308784485,1.0973470211029053
1772872174310495500,9.44649560546875,0.13151142001152039,-0.5863434076309204,0.9547778367996216
1772872174320429600,9.4564296875,0.18987032771110535,-0.23283538222312927,0.7995661497116089
1772872174330363000,9.46636279296875,0.11258593201637268,0.2503747045993805,0.5722571015357971
1772872174340295700,9.476295654296875,0.014487596228718758,0.5342056155204773,0.175359308719635
1772872174350229800,9.486229736328125,0.03141491487622261,0.47429460287094116,-0.4353488087654114
1772872174360162800,9.496162841796876,0.14865419268608093,0.13553279638290405,-1.0566695928573608
1772872174370096600,9.5060966796875,0.16849340498447418,-0.21530991792678833,-1.4294016361236572
1772872174380029700,9.51602978515625,0.029034581035375595,-0.2871726453304291,-1.5581473112106323
1772872174389962800,9.525962646484375,-0.10677411407232285,-0.12884080410003662,-1.5872474908828735
1772872174399896600,9.535896484375,-0.05043254792690277,-0.19363737106323242,-1.3299981355667114
1772872174409829600,9.54582958984375,0.24019235372543335,-0.5923743844032288,-0.559405505657196
1772872174419762700,9.5557626953125,0.2062160223722458,-0.9758740663528442,0.2291535586118698
1772872174429696800,9.56569677734375,-0.3198946416378021,-1.286945104598999,0.6336698532104492
1772872174439629800,9.5756298828125,-0.849617600440979,-1.5092668533325195,0.7705584764480591
1772872174449563000,9.58556298828125,-1.0889832973480225,-1.4506440162658691,0.8520397543907166
1772872174459496700,9.59549658203125,-0.9925175309181213,-0.9095920324325562,0.834293007850647
1772872174469429800,9.6054296875,-0.7628664970397949,0.10987643152475357,0.7937226891517639
1772872174479363600,9.615363525390626,-0.4079917371273041,1.1115549802780151,0.9689999222755432
1772872174489296600,9.625296630859374,-0.044733382761478424,1.7870594263076782,1.288201093673706
1772872174499229700,9.635229736328125,0.1471862494945526,2.0498499870300293,1.5230815410614014
1772872174509163500,9.64516357421875,0.11279286444187164,1.839454174041748,1.4808558225631714
1772872174519096600,9.6550966796875,-0.04247928410768509,1.2177202701568604,1.2092833518981934
1772872174529029600,9.665029541015626,-0.15550890564918518,0.49089381098747253,0.8766425848007202
1772872174538963700,9.674963623046875,-0.2182101011276245,0.24144138395786285,0.8587560057640076
1772872174548896800,9.684896728515625,-0.13852111995220184,0.5118249654769897,1.1121147871017456
1772872174558829800,9.694829833984375,-0.03238137438893318,0.35242515802383423,0.8521918058395386
1772872174568763600,9.704763671875,-0.07822423428297043,-0.21646173298358917,0.14919348061084747
1772872174578696700,9.71469677734375,-0.2599317133426666,-0.5393620133399963,-0.4593864977359772
1772872174588630800,9.724630859375,-0.5071281790733337,-0.4845922589302063,-0.7068828344345093
1772872174598563600,9.7345634765625,-0.688437283039093,-0.22439448535442352,-0.718779981136322
1772872174608496600,9.74449658203125,-0.7185280323028564,-0.04475175961852074,-0.8267876505851746
1772872174618430700,9.7544306640625,-0.5418986678123474,0.09113656729459763,-1.146532654762268
1772872174628363500,9.764363525390625,-0.27971312403678894,0.20767755806446075,-1.5154709815979004
1772872174638296600,9.774296630859375,-0.03435371071100235,0.18292294442653656,-1.7244935035705566
1772872174648231000,9.78423095703125,0.18056924641132355,0.049486592411994934,-1.6185417175292969
1772872174658163700,9.794163818359374,0.28053340315818787,-0.04302150383591652,-1.0805025100708008
1772872174668096800,9.8040966796875,0.2943916916847229,0.0014066817238926888,-0.3355492353439331
1772872174678030800,9.81403076171875,0.22138990461826324,0.12302499264478683,0.2595285177230835
1772872174687963600,9.823963623046875,0.18234983086585999,0.23829832673072815,0.512939453125
1772872174697896700,9.833896728515626,0.16795891523361206,0.35442864894866943,0.5108970999717712
1772872174707830800,9.843830810546875,0.1293388158082962,0.451141357421875,0.3592252731323242
1772872174717763600,9.853763671875,0.06227083131670952,0.5326588749885559,0.2028937190771103
1772872174727697700,9.86369775390625,0.004087153356522322,0.5046687722206116,0.12186785042285919
1772872174737630700,9.873630615234376,-0.04675658792257309,0.3363756239414215,0.15468837320804596
1772872174747563800,9.883563720703124,-0.10612590610980988,0.14494813978672028,0.3663385808467865
1772872174757497900,9.893497802734375,-0.17462188005447388,-0.12141324579715729,0.33084636926651
1772872174767430700,9.9034306640625,-0.1855805218219757,-0.32702019810676575,0.14891517162322998
1772872174777363700,9.91336376953125,-0.12037674337625504,-0.3893091380596161,0.03556012362241745
1772872174787298000,9.923298095703124,0.04778856039047241,-0.32764312624931335,0.12922748923301697
1772872174797230800,9.93323095703125,0.1856742650270462,-0.2034255564212799,0.43421563506126404
1772872174807164000,9.943163818359375,0.26116663217544556,-0.05880073085427284,0.8079125285148621
1772872174817098000,9.953097900390626,0.24895735085010529,0.0602758564054966,1.0857404470443726
1772872174827030800,9.96303076171875,0.169386625289917,0.0888449177145958,1.1562494039535522
