time,seconds_elapsed,z,y,x
1772872164935865600,0.071865478515625,-0.03732709586620331,0.0888308584690094,-0.6235785484313965
1772872164945799700,0.081799560546875,-0.07382038980722427,0.17091666162014008,-0.6362120509147644
1772872164955732500,0.091732421875,-0.1133347675204277,0.284831702709198,-0.6579880118370056
1772872164965665500,0.10166552734375,-0.13723452389240265,0.40711313486099243,-0.6852800846099854
1772872164975599600,0.111599609375,-0.12956221401691437,0.4813564717769623,-0.6719142198562622
1772872164985532400,0.121532470703125,-0.1286487579345703,0.4445992708206177,-0.5816298127174377
1772872164995465500,0.131465576171875,-0.16374732553958893,0.3764093220233917,-0.455355167388916
1772872165005399600,0.141399658203125,-0.22488445043563843,0.33558517694473267,-0.3358687162399292
1772872165015332400,0.151332275390625,-0.29821592569351196,0.33033493161201477,-0.20288656651973724
1772872165025266700,0.1612666015625,-0.34571129083633423,0.39255544543266296,-0.08877917379140854
1772872165035199700,0.17119970703125,-0.2812781035900116,0.4172891676425934,-0.05265400558710098
1772872165045132500,0.181132568359375,-0.11752299219369888,0.4157243072986603,-0.11411523818969727
1772872165055066600,0.191066650390625,0.06878963112831116,0.4265992045402527,-0.24284209311008453
1772872165064999700,0.200999755859375,0.19690392911434174,0.4448871314525604,-0.3675052225589752
1772872165074933500,0.21093359375,0.27661022543907166,0.4975573420524597,-0.4533974230289459
1772872165084866600,0.220866455078125,0.28238847851753235,0.538865864276886,-0.4264765977859497
1772872165094799600,0.230799560546875,0.2381121963262558,0.5366223454475403,-0.25849834084510803
1772872165104733400,0.2407333984375,0.20552310347557068,0.4687492847442627,0.021664071828126907
1772872165114666500,0.25066650390625,0.1823621243238449,0.437460333108902,0.29288360476493835
1772872165124600600,0.2606005859375,0.1378239542245865,0.42825591564178467,0.4672338366508484
1772872165134533600,0.27053369140625,0.0673627108335495,0.4282042980194092,0.5236554741859436
1772872165144466700,0.280466796875,-0.03102298080921173,0.4187956154346466,0.48907625675201416
1772872165154400500,0.290400390625,-0.12251708656549454,0.37260669469833374,0.40883761644363403
1772872165164333600,0.30033349609375,-0.17088596522808075,0.24391689896583557,0.25379955768585205
1772872165174267600,0.310267578125,-0.18213607370853424,0.0794684886932373,0.038263458758592606
1772872165184200400,0.320200439453125,-0.1815674901008606,-0.05198274552822113,-0.18175092339515686
1772872165194133500,0.330133544921875,-0.135906383395195,-0.14038893580436707,-0.38193657994270325
1772872165204067600,0.340067626953125,-0.07140302658081055,-0.14647532999515533,-0.5235901474952698
1772872165214000400,0.35000048828125,-0.015506740659475327,-0.14006216824054718,-0.5657564997673035
1772872165223934700,0.359934814453125,0.01828930526971817,-0.1076941043138504,-0.5167639255523682
1772872165233867500,0.369867431640625,0.021493490785360336,-0.02123398147523403,-0.42781808972358704
1772872165243800600,0.379800537109375,-0.011569653637707233,0.09790119528770447,-0.3380059003829956
1772872165253734700,0.389734619140625,-0.04327019676566124,0.2144368439912796,-0.29248133301734924
1772872165263667500,0.39966748046875,-0.042753543704748154,0.2871589958667755,-0.3234480321407318
1772872165273600500,0.4096005859375,0.027853256091475487,0.27141204476356506,-0.48000672459602356
1772872165283534600,0.41953466796875,0.1269252449274063,0.21284276247024536,-0.6989119648933411
1772872165293467600,0.429467529296875,0.2162075936794281,0.17279061675071716,-0.9115346670150757
1772872165303401500,0.4394013671875,0.27608931064605713,0.16838735342025757,-1.0600652694702148
1772872165313334500,0.44933447265625,0.29420289397239685,0.22360463440418243,-1.1119813919067383
1772872165323267600,0.459267578125,0.27177855372428894,0.3441323935985565,-1.0388435125350952
1772872165333201700,0.46920166015625,0.2008117288351059,0.45960402488708496,-0.8637213110923767
1772872165343134700,0.479134765625,0.07571318745613098,0.5263793468475342,-0.5946698784828186
1772872165353068500,0.489068603515625,-0.08134394139051437,0.5241001844406128,-0.34895262122154236
1772872165363001600,0.499001708984375,-0.23462803661823273,0.4643343389034271,-0.24441157281398773
1772872165372934700,0.5089345703125,-0.34740331768989563,0.36639341711997986,-0.273253858089447
1772872165382868500,0.518868408203125,-0.4127429127693176,0.26718586683273315,-0.39001086354255676
1772872165392801500,0.528801513671875,-0.43845120072364807,0.14637961983680725,-0.5669659376144409
1772872165402735400,0.5387353515625,-0.4528975188732147,-0.039538849145174026,-0.7804736495018005
1772872165412668400,0.54866845703125,-0.4476235508918762,-0.24950121343135834,-0.956151008605957
1772872165422601500,0.5586015625,-0.4045434594154358,-0.4067384898662567,-1.01966392993927
1772872165432535600,0.56853564453125,-0.3410472869873047,-0.4996017515659332,-0.9525131583213806
1772872165442468600,0.578468505859375,-0.254241019487381,-0.5561118721961975,-0.7808293104171753
1772872165452402700,0.588402587890625,-0.1566978245973587,-0.5371406078338623,-0.48788589239120483
1772872165462335500,0.59833544921875,-0.06955839693546295,-0.4114631116390228,-0.14218521118164062
1772872165472268500,0.6082685546875,0.005455143749713898,-0.1836475282907486,0.16597731411457062
1772872165482202600,0.61820263671875,0.046790335327386856,0.11156467348337173,0.4404783844947815
1772872165492135400,0.628135498046875,0.07681785523891449,0.4976860284805298,0.660200297832489
1772872165502069500,0.638069580078125,0.08553757518529892,0.8253605961799622,0.772348165512085
1772872165512002600,0.64800244140625,0.06430339813232422,1.0433257818222046,0.7328371405601501
1772872165521935400,0.657935302734375,0.05624440312385559,1.1147706508636475,0.5636734366416931
1772872165531869700,0.66786962890625,0.03923186659812927,1.004033088684082,0.3202219307422638
1772872165541802800,0.677802734375,0.013268709182739258,0.7868580222129822,0.0221692007035017
1772872165551736600,0.687736572265625,-0.019697371870279312,0.5209651589393616,-0.2767675518989563
1772872165561669600,0.697669677734375,-0.06301607936620712,0.2775506377220154,-0.5296719670295715
1772872165571602700,0.707602783203125,-0.13556483387947083,0.14697366952896118,-0.7305167317390442
1772872165581536500,0.71753662109375,-0.1969432383775711,0.13707922399044037,-0.8811357617378235
1772872165591469600,0.727469482421875,-0.22483080625534058,0.21189714968204498,-0.9785983562469482
1772872165601403400,0.7374033203125,-0.22469232976436615,0.33799755573272705,-1.0365277528762817
1772872165611336400,0.74733642578125,-0.1964626908302307,0.48023903369903564,-1.0556738376617432
1772872165621269500,0.75726953125,-0.16932320594787598,0.5739340782165527,-1.0454076528549194
1772872165631203600,0.76720361328125,-0.16381151974201202,0.5906903147697449,-1.0238635540008545
1772872165641136600,0.77713671875,-0.1850409060716629,0.5220010280609131,-1.0057215690612793
1772872165651069700,0.787069580078125,-0.2226918786764145,0.4077998697757721,-0.9704847931861877
1772872165661003500,0.79700341796875,-0.2649970054626465,0.2529948651790619,-0.8919540643692017
1772872165670936600,0.8069365234375,-0.28026849031448364,0.08514487743377686,-0.7595964670181274
1772872165680870700,0.81687060546875,-0.26907601952552795,-0.06875520944595337,-0.5722510814666748
1772872165690803500,0.826803466796875,-0.2351727932691574,-0.19137665629386902,-0.3642120659351349
1772872165700736500,0.836736572265625,-0.20066729187965393,-0.2470489740371704,-0.1599782407283783
1772872165710670600,0.846670654296875,-0.1852748841047287,-0.2641112208366394,0.007728645112365484
1772872165720603400,0.856603271484375,-0.213065505027771,-0.2574591636657715,0.10812395811080933
1772872165730538200,0.866538330078125,-0.273063987493515,-0.25924864411354065,0.13952244818210602
1772872165740471000,0.876470947265625,-0.3751717209815979,-0.2741868495941162,0.11561738699674606
1772872165750404000,0.886404052734375,-0.4766571819782257,-0.3089725375175476,0.03907552734017372
1772872165760338200,0.896338134765625,-0.5404564142227173,-0.36887261271476746,-0.06147131696343422
1772872165770271000,0.90627099609375,-0.5449448823928833,-0.3957216143608093,-0.2215825468301773
1772872165780205300,0.916205322265625,-0.4516591429710388,-0.2869490385055542,-0.4385913014411926
1772872165790138400,0.926138427734375,-0.2195751667022705,-0.13953876495361328,-0.6876493692398071
1772872165800071200,0.9360712890625,0.17876368761062622,-0.09311268478631973,-0.9012367129325867
1772872165810005200,0.946005126953125,0.647605299949646,-0.09192904829978943,-0.988487720489502
1772872165819938300,0.955938232421875,1.0824894905090332,-0.16789838671684265,-0.9709481596946716
1772872165829872000,0.9658720703125,1.2507989406585693,-0.3389020562171936,-0.8062179088592529
1772872165839805200,0.97580517578125,1.080626368522644,-0.47268596291542053,-0.4067392349243164
1772872165849738200,0.98573828125,0.5057210326194763,-0.6608336567878723,0.20137427747249603
1772872165859672000,0.995672119140625,-0.33385199308395386,-0.760238766670227,0.8764973282814026
1772872165869605000,1.005605224609375,-0.8374545574188232,-0.5084879994392395,1.4263793230056763
1772872165879539200,1.015539306640625,-0.7817497253417969,0.14040476083755493,1.8297725915908813
1772872165889472300,1.02547216796875,-0.33731168508529663,0.8412283658981323,1.9382802248001099
1772872165899405300,1.0354052734375,0.2251300811767578,1.2689045667648315,1.5368201732635498
1772872165909339100,1.045339111328125,0.678911030292511,1.2813183069229126,0.7689900994300842
1772872165919272200,1.055272216796875,0.9523367285728455,0.8694708943367004,-0.1694181114435196
1772872165929206000,1.0652060546875,1.0999023914337158,0.29056403040885925,-0.9575709104537964
1772872165939139000,1.07513916015625,1.2127472162246704,-0.16895906627178192,-1.3105475902557373
1772872165949072100,1.085072021484375,1.3521655797958374,-0.4906889796257019,-1.2881911993026733
1772872165959006000,1.095005859375,1.6182955503463745,-0.7330459356307983,-1.2581385374069214
1772872165968939000,1.10493896484375,1.9635639190673828,-0.9621310830116272,-1.376007318496704
1772872165978873300,1.114873291015625,2.203157901763916,-1.1556878089904785,-1.4905363321304321
1772872165988806100,1.12480615234375,2.1873433589935303,-1.1461563110351562,-1.4672303199768066
1772872165998739200,1.1347392578125,1.9179878234863281,-1.1319438219070435,-1.2893391847610474
1772872166008673300,1.14467333984375,1.381639003753662,-1.2424339056015015,-0.8634446859359741
1772872166018606000,1.154606201171875,0.727709174156189,-1.3956618309020996,-0.23170030117034912
1772872166028540200,1.1645400390625,0.09263861924409866,-1.4139769077301025,0.4975166916847229
1772872166038473200,1.17447314453125,-0.419994056224823,-1.2092450857162476,1.2961853742599487
1772872166048406000,1.184406005859375,-0.8077488541603088,-0.7277128100395203,2.03774356842041
1772872166058340000,1.194340087890625,-0.8826504945755005,-0.15440982580184937,2.546459674835205
1772872166068273200,1.204273193359375,-0.7578641176223755,0.24875380098819733,2.724613904953003
1772872166078207200,1.214207275390625,-0.611377477645874,0.5555736422538757,2.507847309112549
1772872166088140300,1.224140380859375,-0.38478878140449524,0.7064809203147888,1.9170840978622437
1772872166098073300,1.2340732421875,-0.18258319795131683,0.6770793199539185,1.072092890739441
1772872166108007200,1.244007080078125,-0.013524550013244152,0.44765061140060425,0.10634201765060425
1772872166117940200,1.253940185546875,0.18085691332817078,0.12537536025047302,-0.7442021369934082
1772872166127873300,1.263873291015625,0.3525875210762024,-0.1258823722600937,-1.3348082304000854
1772872166137807000,1.27380712890625,0.47910207509994507,-0.2693047821521759,-1.637547254562378
1772872166147740200,1.283740234375,0.5671377778053284,-0.34124043583869934,-1.721566081047058
1772872166157674000,1.293674072265625,0.5627395510673523,-0.34543758630752563,-1.6157472133636475
1772872166167607000,1.30360693359375,0.4460517168045044,-0.30979058146476746,-1.3940770626068115
1772872166177540000,1.3135400390625,0.2164006531238556,-0.2293735146522522,-1.1676976680755615
1772872166187474200,1.32347412109375,-0.11370574682950974,-0.08799704909324646,-0.9726649522781372
1772872166197407200,1.3334072265625,-0.4284016489982605,0.08327456563711166,-0.7944848537445068
1772872166207341300,1.34334130859375,-0.6754380464553833,0.17679785192012787,-0.6011643409729004
1772872166217274000,1.353274169921875,-0.8544144630432129,0.23731951415538788,-0.38649091124534607
1772872166227207200,1.363207275390625,-0.8566941618919373,0.32016679644584656,-0.13748490810394287
1772872166237141200,1.373141357421875,-0.632352888584137,0.44144314527511597,0.11943715810775757
1772872166247074000,1.383073974609375,-0.31845542788505554,0.4914783537387848,0.307207852602005
1772872166257008000,1.393008056640625,-0.05340219661593437,0.4412687122821808,0.3726140260696411
1772872166266941200,1.402941162109375,0.11342860013246536,0.3674720227718353,0.3427788317203522
1772872166276874000,1.4128740234375,0.17703339457511902,0.29074928164482117,0.26720473170280457
1772872166286808300,1.422808349609375,0.15595154464244843,0.2527698576450348,0.17515306174755096
1772872166296741000,1.4327412109375,0.0548398420214653,0.12227178364992142,0.07181175798177719
1772872166306675200,1.44267529296875,-0.12012572586536407,-0.16890276968479156,-0.02721402235329151
1772872166316608300,1.452608154296875,-0.32782724499702454,-0.5592036843299866,-0.14704056084156036
1772872166326541300,1.462541259765625,-0.49176183342933655,-0.6241196393966675,-0.1175101175904274
1772872166336475100,1.47247509765625,-0.534116804599762,-0.6204873323440552,-0.11018455773591995
1772872166346408200,1.482408203125,-0.518297016620636,-0.5245817303657532,-0.10743213444948196
1772872166356341200,1.49234130859375,-0.41315650939941406,-0.5846333503723145,-0.27950963377952576
1772872166366275000,1.502275146484375,-0.364711195230484,-0.7100570797920227,-0.5077880024909973
1772872166376208100,1.5122080078125,-0.2808453440666199,-0.5609277486801147,-0.5962156057357788
1772872166386142200,1.52214208984375,0.017702337354421616,-0.24015960097312927,-0.6740109920501709
1772872166396075300,1.5320751953125,0.47707444429397583,0.05405179411172867,-0.7055686712265015
1772872166406008300,1.54200830078125,0.9003058075904846,-0.08357999473810196,-0.874971866607666
1772872166415942100,1.551942138671875,0.947636604309082,-0.697972297668457,-1.0799407958984375
1772872166425875200,1.561875244140625,0.5993238091468811,-1.4828968048095703,-0.8901060223579407
1772872166435809000,1.57180908203125,0.16200850903987885,-2.164252519607544,-0.4780990481376648
1772872166445742000,1.5817421875,-0.19038522243499756,-2.670252799987793,-0.2612994909286499
1772872166455675100,1.591675048828125,-0.26204368472099304,-2.845144271850586,-0.21387100219726562
1772872166465609000,1.60160888671875,-0.0049272142350673676,-2.3706700801849365,-0.0186380073428154
1772872166475542000,1.6115419921875,0.4842856228351593,-1.3582541942596436,0.40599584579467773
1772872166485476400,1.621476318359375,0.9699904322624207,-0.4232940673828125,0.7704502940177917
1772872166495409200,1.6314091796875,1.1463654041290283,-0.14084134995937347,0.809226930141449
1772872166505342200,1.64134228515625,0.9929781556129456,-0.41858476400375366,0.5877739191055298
1772872166515276300,1.6512763671875,0.6959435343742371,-0.7790595293045044,0.38430678844451904
1772872166525209000,1.661208984375,0.41937386989593506,-0.9321690201759338,0.3872305154800415
1772872166535143200,1.67114306640625,0.23086148500442505,-0.8269200921058655,0.6090958118438721
1772872166545076200,1.681076171875,0.1546655148267746,-0.5810701251029968,0.9075288772583008
1772872166555009000,1.691009033203125,0.1780155748128891,-0.3845764696598053,1.1656559705734253
1772872166564943000,1.700943115234375,0.24607399106025696,-0.2065606713294983,1.4019523859024048
1772872166574876200,1.710876220703125,0.27401798963546753,0.008527404628694057,1.6387863159179688
1772872166584810200,1.720810302734375,0.19332380592823029,0.17509135603904724,1.8303310871124268
1772872166594743300,1.730743408203125,-0.014146825298666954,0.2867033779621124,2.036374092102051
1772872166604676400,1.74067626953125,-0.2890489399433136,0.31891554594039917,2.2457528114318848
1772872166614610200,1.750610107421875,-0.5589360594749451,0.24755507707595825,2.3640880584716797
1772872166624543200,1.760543212890625,-0.7676052451133728,0.08694059401750565,2.365591287612915
1772872166634476300,1.770476318359375,-0.858211874961853,-0.09729502350091934,2.164318799972534
1772872166644410000,1.78041015625,-0.7934367656707764,-0.2418111264705658,1.779857873916626
1772872166654343200,1.79034326171875,-0.5812174677848816,-0.17144295573234558,1.299183964729309
1772872166664277000,1.800277099609375,-0.257973313331604,-0.10565098375082016,0.5983184576034546
1772872166674210000,1.8102099609375,0.06430885940790176,-0.21548134088516235,-0.3206007480621338
1772872166684143000,1.82014306640625,0.3727375268936157,-0.4197525680065155,-1.2118122577667236
1772872166694077200,1.8300771484375,0.6862496137619019,-0.5705024003982544,-1.844210147857666
1772872166704010200,1.84001025390625,0.9515705108642578,-0.6791208386421204,-2.1824748516082764
1772872166713944300,1.8499443359375,1.1168897151947021,-0.7340288162231445,-2.263902425765991
1772872166723877000,1.859877197265625,1.1277635097503662,-0.7416311502456665,-2.102261543273926
1772872166733810200,1.86981005859375,1.0041580200195312,-0.639151394367218,-1.7447142601013184
1772872166743744300,1.879744140625,0.7744090557098389,-0.4681486189365387,-1.2747125625610352
1772872166753677000,1.889677001953125,0.4887855648994446,-0.24974490702152252,-0.7380155324935913
1772872166763611400,1.899611328125,0.2195960283279419,-0.038662414997816086,-0.2303684949874878
1772872166773544200,1.909544189453125,-0.04481671750545502,0.11173268407583237,0.1341458261013031
1772872166783477200,1.919477294921875,-0.2670120894908905,0.1938033252954483,0.3357740640640259
1772872166793411300,1.929411376953125,-0.4254102408885956,0.266578733921051,0.4169549345970154
1772872166803344100,1.93934423828125,-0.49119046330451965,0.4206181466579437,0.43981948494911194
1772872166813278200,1.9492783203125,-0.49151352047920227,0.5505708456039429,0.45475584268569946
1772872166823211300,1.959211181640625,-0.4780328571796417,0.5705667734146118,0.4387383460998535
1772872166833144000,1.96914404296875,-0.4291161894798279,0.5275609493255615,0.3892698585987091
1772872166843078100,1.979078125,-0.3784399628639221,0.5008543729782104,0.3841169774532318
1772872166853011200,1.98901123046875,-0.3546733856201172,0.5667257905006409,0.4246026277542114
1772872166862944000,1.998944091796875,-0.3544847071170807,0.7099423408508301,0.4840885102748871
1772872166872878300,2.00887841796875,-0.36751794815063477,0.8918442726135254,0.5528223514556885
1772872166882811400,2.018811279296875,-0.39479824900627136,1.129071831703186,0.547888994216919
1772872166892745200,2.0287451171875,-0.47225284576416016,1.464270830154419,0.5665793418884277
1772872166902678300,2.03867822265625,-0.5512385964393616,1.5566647052764893,0.3257465362548828
1772872166912611300,2.048611328125,-0.7010379433631897,1.390961766242981,-0.0703541710972786
1772872166922545200,2.058545166015625,-0.8160218000411987,1.0444698333740234,-0.5607035160064697
1772872166932478200,2.068478271484375,-0.7597110867500305,0.4332239627838135,-1.4679878950119019
1772872166942412000,2.078412109375,-0.5315911173820496,-0.17251121997833252,-2.7299296855926514
1772872166952345000,2.088344970703125,-0.11335767805576324,-0.3035494089126587,-3.7874488830566406
1772872166962278100,2.098278076171875,0.6816632747650146,0.20488277077674866,-4.059388637542725
1772872166972212200,2.108212158203125,1.5370322465896606,0.9805007576942444,-3.501129627227783
1772872166982145300,2.118145263671875,1.7264258861541748,1.2211332321166992,-2.5948705673217773
1772872166992079400,2.128079345703125,0.7595343589782715,1.0117509365081787,-1.3361493349075317
1772872167002012200,2.13801220703125,-0.219262957572937,0.18300066888332367,0.7727771997451782
1772872167011945200,2.1479453125,-1.1607666015625,-0.18258662521839142,2.5207648277282715
1772872167021879300,2.15787939453125,-1.2633460760116577,-0.36575114727020264,3.180840253829956
1772872167031812000,2.16781201171875,-0.9300199747085571,-0.4824830889701843,3.025581121444702
1772872167041746200,2.17774609375,-0.24411557614803314,-0.4536481499671936,2.2771739959716797
1772872167051679200,2.18767919921875,0.6857958436012268,-0.33073392510414124,1.1334611177444458
1772872167061612000,2.197612060546875,1.5784311294555664,-0.374122679233551,-0.0986279845237732
1772872167071546400,2.20754638671875,2.2021753787994385,-0.6288233995437622,-1.1675678491592407
1772872167081479400,2.2174794921875,2.583634376525879,-1.0008207559585571,-2.070237874984741
1772872167091412200,2.227412109375,2.551264762878418,-1.527519702911377,-2.621501922607422
1772872167101346300,2.23734619140625,2.173740863800049,-1.9727301597595215,-2.8034465312957764
1772872167111279400,2.247279296875,1.7142831087112427,-2.032602071762085,-2.525521755218506
1772872167121213200,2.257213134765625,1.2002956867218018,-1.6340035200119019,-1.7656315565109253
1772872167131146200,2.267146240234375,0.7200195789337158,-0.8045216202735901,-0.6834137439727783
1772872167141079300,2.277079345703125,0.32959672808647156,0.17870280146598816,0.4528774619102478
1772872167151013000,2.28701318359375,0.03099696896970272,1.1153488159179688,1.393463373184204
1772872167160946200,2.2969462890625,-0.07132621109485626,1.9074702262878418,2.1226894855499268
1772872167170880300,2.30688037109375,-0.05709534510970116,2.3921902179718018,2.6831982135772705
1772872167180813300,2.316813232421875,-0.11963809281587601,2.4583752155303955,3.0159523487091064
1772872167190746400,2.326746337890625,-0.2916463315486908,2.0779173374176025,3.0163025856018066
1772872167200680200,2.33668017578125,-0.5721340775489807,1.4025912284851074,2.77302622795105
1772872167210613200,2.34661328125,-0.8570712804794312,0.731408953666687,2.436575174331665
1772872167220547000,2.356547119140625,-1.017636775970459,0.23199643194675446,2.0787901878356934
1772872167230480100,2.366480224609375,-0.990134596824646,0.007335356902331114,1.7093133926391602
1772872167240413200,2.3764130859375,-0.8224645256996155,-0.06803363561630249,1.23914635181427
1772872167250347300,2.38634716796875,-0.5733609199523926,-0.1065160483121872,0.5914693474769592
1772872167260280000,2.396280029296875,-0.18287844955921173,-0.2242189645767212,-0.2585332989692688
1772872167270213000,2.406213134765625,0.3478972613811493,-0.5149000883102417,-1.2155895233154297
1772872167280147200,2.416147216796875,0.8299891948699951,-0.9210376739501953,-2.021806240081787
1772872167290080300,2.426080322265625,1.1351221799850464,-1.2358659505844116,-2.4313201904296875
1772872167300014300,2.436014404296875,1.1973286867141724,-1.4576032161712646,-2.37752366065979
1772872167309947100,2.445947021484375,1.0136244297027588,-1.615313172340393,-1.92960786819458
1772872167319880200,2.455880126953125,0.6458403468132019,-1.492226243019104,-1.2366679906845093
1772872167329814300,2.465814208984375,0.29077860713005066,-0.9189762473106384,-0.48309755325317383
1772872167339747000,2.4757470703125,-0.018429448828101158,-0.06880743056535721,0.10253693163394928
1772872167349681200,2.48568115234375,-0.3139098286628723,0.7319288849830627,0.46153131127357483
1772872167359614200,2.4956142578125,-0.5878749489784241,1.2127310037612915,0.5912903547286987
1772872167369547000,2.505547119140625,-0.7593913078308105,1.2870211601257324,0.5684202313423157
1772872167379481300,2.5154814453125,-0.8475359678268433,1.0835195779800415,0.49016958475112915
1772872167389414400,2.525414306640625,-0.8687107563018799,0.8203724026679993,0.44361618161201477
1772872167399347200,2.53534716796875,-0.8300416469573975,0.6627914905548096,0.46489977836608887
1772872167409281300,2.54528125,-0.7597455978393555,0.652360200881958,0.5653084516525269
1772872167419214300,2.55521435546875,-0.6694643497467041,0.7619035243988037,0.7252545356750488
1772872167429148200,2.565148193359375,-0.564282238483429,0.9585843682289124,0.8899021148681641
1772872167439081200,2.575081298828125,-0.44222357869148254,1.1934009790420532,1.0164395570755005
1772872167449014300,2.58501416015625,-0.2845394015312195,1.407706379890442,1.0179200172424316
1772872167458948000,2.594947998046875,-0.12474550306797028,1.3981118202209473,0.8336825966835022
1772872167468881200,2.604881103515625,0.03358288109302521,1.1067862510681152,0.5148966312408447
1772872167478815200,2.614815185546875,0.16349786520004272,0.6855334043502808,0.17710334062576294
1772872167488748300,2.624748291015625,0.19997119903564453,0.4658982753753662,0.03670547902584076
1772872167498681300,2.634681396484375,0.11999741196632385,0.21899732947349548,-0.20876455307006836
1772872167508615200,2.644615234375,-0.1775493174791336,0.02380971610546112,-0.3580528199672699
1772872167518548200,2.65454833984375,-0.5186167359352112,-0.3361945152282715,-0.7257484197616577
1772872167528482300,2.664482421875,-0.6998277902603149,-0.788124680519104,-1.5742485523223877
1772872167538415000,2.6744150390625,-0.7002986669540405,-0.98343825340271,-2.8480916023254395
1772872167548348200,2.68434814453125,-0.12629346549510956,-0.27144426107406616,-3.8297688961029053
1772872167558282200,2.6942822265625,0.9436003565788269,1.275526523590088,-3.8768386840820312
1772872167568215000,2.704215087890625,1.4040489196777344,2.677779197692871,-2.7447879314422607
1772872167578148000,2.714148193359375,0.18135662376880646,3.5908448696136475,-1.206851601600647
1772872167588082400,2.72408251953125,-0.8479596376419067,2.7999513149261475,1.2751392126083374
1772872167598015200,2.73401513671875,-1.149487853050232,1.1617822647094727,4.258781909942627
1772872167607949300,2.74394921875,-1.6620291471481323,0.11752370744943619,4.9045538902282715
1772872167617882400,2.75388232421875,-1.4346411228179932,-0.5587393045425415,4.3234076499938965
1772872167627815200,2.763815185546875,-0.8613072633743286,-0.8725273013114929,3.177753210067749
1772872167637749200,2.773749267578125,0.12364592403173447,-0.9839522838592529,1.958870530128479
1772872167647682300,2.783682373046875,1.2736045122146606,-0.965873122215271,0.7228742837905884
1772872167657616100,2.7936162109375,2.1020007133483887,-1.0321364402770996,-0.6259042024612427
1772872167667549200,2.803549072265625,2.5548832416534424,-1.0679759979248047,-1.8701531887054443
1772872167677482200,2.813482177734375,2.506883144378662,-1.0466158390045166,-2.6956253051757812
1772872167687416300,2.823416259765625,2.1276533603668213,-1.0324736833572388,-3.0339910984039307
1772872167697349400,2.833349365234375,1.5689407587051392,-0.9560604095458984,-2.8105032444000244
1772872167707283200,2.843283203125,0.9585162997245789,-0.8730840086936951,-2.0250186920166016
1772872167717216300,2.85321630859375,0.414417028427124,-0.6950453519821167,-0.8981854915618896
1772872167727149300,2.8631494140625,-0.025756079703569412,-0.4962574243545532,0.2683408856391907
1772872167737082400,2.873082275390625,-0.34617879986763,-0.4414970278739929,1.2249596118927002
1772872167747015700,2.883015625,-0.5725062489509583,-0.38999468088150024,1.9645588397979736
1772872167756949800,2.89294970703125,-0.7082672715187073,-0.11828818917274475,2.5184383392333984
1772872167766882600,2.902882568359375,-0.7315369248390198,0.29583603143692017,2.750983953475952
1772872167776815600,2.912815673828125,-0.7199034094810486,0.42785462737083435,2.4957995414733887
1772872167786749700,2.922749755859375,-0.7373191714286804,0.2199467122554779,1.818001389503479
1772872167796682500,2.9326826171875,-0.7388970851898193,-0.08337642252445221,0.9678776860237122
1772872167806615600,2.942615478515625,-0.6835200786590576,-0.23600751161575317,0.17429672181606293
1772872167816549600,2.952549560546875,-0.5459744930267334,-0.2640368342399597,-0.46574515104293823
1772872167826482400,2.962482421875,-0.37410205602645874,-0.3321152329444885,-0.9623429179191589
1772872167836416500,2.97241650390625,-0.2079964578151703,-0.48839154839515686,-1.3663933277130127
1772872167846349800,2.982349853515625,-0.03987216204404831,-0.6512518525123596,-1.7067034244537354
1772872167856282600,2.99228271484375,0.08833334594964981,-0.7969524264335632,-1.962830901145935
1772872167866216700,3.002216796875,0.12513503432273865,-0.8728072047233582,-2.054260730743408
1772872167876149800,3.012149658203125,0.08723467588424683,-0.898033618927002,-1.9218677282333374
1772872167886083600,3.02208349609375,-0.01553298719227314,-0.8671132326126099,-1.556982398033142
1772872167896016600,3.0320166015625,-0.11683112382888794,-0.8018388152122498,-1.0233097076416016
1772872167905949700,3.04194970703125,-0.182525172829628,-0.6493722796440125,-0.3955570161342621
1772872167915883500,3.051883544921875,-0.23255519568920135,-0.2852644920349121,0.21881437301635742
1772872167925816600,3.061816650390625,-0.2646747827529907,0.17864060401916504,0.7483972311019897
1772872167935750400,3.07175048828125,-0.3168168067932129,0.529570996761322,1.1034455299377441
1772872167945683500,3.081683349609375,-0.3155355751514435,0.6916573643684387,1.280936360359192
1772872167955616800,3.09161669921875,-0.274660587310791,0.7362360954284668,1.3233165740966797
1772872167965550600,3.101550537109375,-0.22325703501701355,0.6583122611045837,1.2650671005249023
1772872167975483600,3.111483642578125,-0.20727433264255524,0.5172985792160034,1.1654996871948242
1772872167985416700,3.121416748046875,-0.2523672580718994,0.3863469958305359,1.0487501621246338
1772872167995350500,3.1313505859375,-0.30601567029953003,0.349043071269989,0.900586724281311
1772872168005283600,3.14128369140625,-0.3354659676551819,0.4392797648906708,0.7210606336593628
1772872168015217700,3.1512177734375,-0.3257390558719635,0.5465784668922424,0.5064788460731506
1772872168025150500,3.161150390625,-0.2664608061313629,0.566699743270874,0.2372598499059677
1772872168035083500,3.17108349609375,-0.15623658895492554,0.4728300869464874,-0.07440870255231857
1772872168045017600,3.181017578125,-0.05522102490067482,0.26234742999076843,-0.32718557119369507
1772872168054950700,3.19095068359375,0.005350056104362011,0.21497902274131775,-0.32727962732315063
1772872168064884700,3.200884765625,0.011705690063536167,0.26792001724243164,-0.2798471450805664
1772872168074817500,3.210817626953125,-0.016314782202243805,0.33557960391044617,-0.17208638787269592
1772872168084750600,3.22075048828125,0.03584456071257591,0.1677626371383667,-0.20522862672805786
1772872168094684700,3.2306845703125,0.1391039788722992,0.0016743838787078857,-0.15582753717899323
1772872168104617500,3.240617431640625,0.2885397970676422,0.05014391615986824,0.0365658774971962
1772872168114550500,3.250550537109375,0.3646864891052246,0.45121464133262634,-0.01819927617907524
1772872168124484600,3.260484619140625,0.03179800510406494,1.0585341453552246,-0.43265318870544434
1772872168134417400,3.27041748046875,-0.5466457009315491,1.4430201053619385,-0.6991516947746277
1772872168144351500,3.2803515625,-0.9395490288734436,1.5227993726730347,-0.37171998620033264
1772872168154284800,3.290284912109375,-1.0276525020599365,1.2461901903152466,0.5759629011154175
1772872168164217600,3.300217529296875,-1.0432096719741821,0.664921224117279,1.7060229778289795
1772872168174151700,3.310151611328125,-0.9130860567092896,-0.02865845337510109,2.518563985824585
1772872168184084700,3.320084716796875,-0.5941480398178101,-0.5379315614700317,2.7018232345581055
1772872168194018600,3.3300185546875,-0.2128860056400299,-0.6569201350212097,2.313899040222168
1772872168203951600,3.33995166015625,0.2570878863334656,-0.5818861126899719,1.5250948667526245
1772872168213884700,3.349884765625,0.7216841578483582,-0.4493691623210907,0.5533291101455688
1772872168223818500,3.359818603515625,1.0921140909194946,-0.3787096440792084,-0.4551820456981659
1772872168233751600,3.36975146484375,1.3189376592636108,-0.4510398209095001,-1.3659380674362183
1772872168243684600,3.3796845703125,1.3819350004196167,-0.5961040258407593,-2.0164990425109863
1772872168253618400,3.389618408203125,1.1678979396820068,-0.8635507225990295,-2.174337863922119
1772872168263551700,3.3995517578125,0.8776530027389526,-1.1100115776062012,-1.9492275714874268
1772872168273485600,3.409485595703125,0.7058118581771851,-1.0357515811920166,-1.449460506439209
1772872168283418600,3.419418701171875,0.5853390097618103,-0.5660123229026794,-0.7173005938529968
1772872168293351700,3.4293515625,0.3966151177883148,0.10702801495790482,0.13989725708961487
1772872168303285500,3.439285400390625,0.1406957507133484,0.7717399597167969,0.9193469882011414
1772872168313218600,3.449218505859375,-0.2141043096780777,1.2209080457687378,1.5225725173950195
1772872168323152600,3.459152587890625,-0.6754676699638367,1.330815076828003,1.8825697898864746
1772872168333085400,3.46908544921875,-1.1353858709335327,1.05796217918396,1.9391497373580933
1772872168343018500,3.4790185546875,-1.4650417566299438,0.5641308426856995,1.7578824758529663
1772872168352952600,3.48895263671875,-1.5713783502578735,0.048984989523887634,1.4238126277923584
1772872168362885600,3.4988857421875,-1.4365299940109253,-0.29696547985076904,1.0302075147628784
1772872168372819700,3.50881982421875,-1.0951411724090576,-0.4033724367618561,0.5599164962768555
1772872168382752800,3.518752685546875,-0.6262022256851196,-0.3939959704875946,-0.02804747223854065
1772872168392685600,3.528685546875,-0.1661255806684494,-0.4034324884414673,-0.7125929594039917
1772872168402619600,3.53861962890625,0.3090638518333435,-0.371629536151886,-1.3258925676345825
1772872168412552700,3.548552734375,0.6266770958900452,-0.31277596950531006,-1.716674566268921
1772872168422485500,3.558485595703125,0.688483476638794,-0.279532253742218,-1.8196117877960205
1772872168432419600,3.568419677734375,0.5706921219825745,-0.32505154609680176,-1.6432772874832153
1772872168442352600,3.5783525390625,0.34409093856811523,-0.42265984416007996,-1.2948460578918457
1772872168452286500,3.588286376953125,0.06684549152851105,-0.4615621864795685,-0.8927857875823975
1772872168462219800,3.5982197265625,-0.15658307075500488,-0.4272367060184479,-0.49076780676841736
1772872168472152800,3.60815283203125,-0.2807232439517975,-0.3359302282333374,-0.14322680234909058
1772872168482086700,3.618086669921875,-0.2870999276638031,-0.30153417587280273,0.12660999596118927
1772872168492019700,3.628019775390625,-0.218292236328125,-0.32892411947250366,0.3404151201248169
1772872168501953500,3.63795361328125,-0.135041281580925,-0.34210464358329773,0.5528392195701599
1772872168511886600,3.647886474609375,-0.054277203977108,-0.20497764647006989,0.7223842144012451
1772872168521819600,3.657819580078125,-0.013302606530487537,0.009563686326146126,0.8768640756607056
1772872168531753500,3.66775341796875,-0.10252118110656738,0.2299952656030655,1.034159779548645
1772872168541686500,3.6776865234375,-0.21177788078784943,0.38986003398895264,1.0577630996704102
1772872168551619600,3.68761962890625,-0.27298933267593384,0.4912593364715576,0.9082229733467102
1772872168561553400,3.697553466796875,-0.31961408257484436,0.5626538991928101,0.6597481966018677
1772872168571486700,3.70748681640625,-0.38730695843696594,0.6421918869018555,0.39985185861587524
1772872168581420500,3.717420654296875,-0.45048993825912476,0.7241155505180359,0.18757979571819305
1772872168591353600,3.727353515625,-0.4954357147216797,0.767245888710022,0.09943192452192307
1772872168601286700,3.73728662109375,-0.5792914032936096,0.7120339870452881,0.15093186497688293
1772872168611220500,3.747220458984375,-0.6563116908073425,0.6035633683204651,0.25714895129203796
1772872168621153500,3.757153564453125,-0.7300708293914795,0.6041567325592041,0.3812218904495239
1772872168631087600,3.767087646484375,-0.798995316028595,0.5929151177406311,0.34957122802734375
1772872168641020400,3.7770205078125,-0.7030251026153564,0.4569871127605438,0.047514159232378006
1772872168650953500,3.786953369140625,-0.43788474798202515,0.1002870574593544,-0.6860767006874084
1772872168660887600,3.796887451171875,-0.03825348988175392,-0.33564046025276184,-1.6206079721450806
1772872168670820600,3.806820556640625,0.3498010039329529,-0.6690234541893005,-2.5750234127044678
1772872168680753700,3.816753662109375,0.7148343920707703,-0.9126574397087097,-3.2461233139038086
1772872168690687700,3.826687744140625,1.1388983726501465,-0.9193131327629089,-3.5093348026275635
1772872168700620500,3.83662060546875,1.40739905834198,-0.5991628170013428,-3.2724194526672363
1772872168710554600,3.8465546875,1.441574215888977,-0.10382871329784393,-2.23163104057312
1772872168720487700,3.85648779296875,1.2989907264709473,0.5476207137107849,-0.7540157437324524
1772872168730420500,3.86642041015625,0.7718258500099182,0.9579777717590332,0.47841569781303406
1772872168740355300,3.876355224609375,0.07302948832511902,0.4298851788043976,1.1053847074508667
1772872168750288100,3.8862880859375,-0.3674684166908264,-0.7373313307762146,0.9232491850852966
1772872168760222200,3.89622216796875,-0.4156050682067871,-1.9222978353500366,0.1399455964565277
1772872168770155300,3.9061552734375,-0.08563539385795593,-2.6955599784851074,-0.6435101628303528
1772872168780088000,3.916088134765625,0.5416082739830017,-2.7183284759521484,-1.1196951866149902
1772872168790022100,3.926022216796875,1.302294135093689,-1.9136062860488892,-1.2067301273345947
1772872168799955200,3.935955078125,1.9474763870239258,-0.6874451041221619,-0.9624417424201965
1772872168809889300,3.94588916015625,2.172398328781128,0.3382049798965454,-0.5341823101043701
1772872168819822300,3.955822265625,1.8649141788482666,0.7833374738693237,-0.12285978347063065
1772872168829755400,3.96575537109375,1.250780463218689,0.6623696684837341,0.22886423766613007
1772872168839689200,3.975689208984375,0.5627632141113281,0.30815303325653076,0.5714393854141235
1772872168849621200,3.985621337890625,-0.05930604413151741,0.0664958506822586,0.984890878200531
1772872168859555300,3.995555419921875,-0.5653069019317627,0.036286551505327225,1.5201047658920288
1772872168869488000,4.005488037109375,-0.9778690338134766,0.2631792724132538,2.1386427879333496
1772872168879422200,4.015422119140625,-1.2577718496322632,0.6615892052650452,2.796861171722412
1772872168889355300,4.025355224609375,-1.4229487180709839,1.102710247039795,3.321204423904419
1772872168899288000,4.0352880859375,-1.5342280864715576,1.3505616188049316,3.482293128967285
1772872168909222100,4.04522216796875,-1.6120946407318115,1.3008489608764648,3.201061725616455
1772872168919155200,4.0551552734375,-1.5742175579071045,1.0363200902938843,2.6014480590820312
1772872168929088000,4.065087890625,-1.4056012630462646,0.7002221941947937,1.7981090545654297
1772872168939022300,4.075022216796875,-1.1301177740097046,0.30129504203796387,0.7698028087615967
1772872168948955400,4.084955322265625,-0.7644415497779846,-0.13607504963874817,-0.3189569413661957
1772872168958889200,4.09488916015625,-0.3744056522846222,-0.4168316125869751,-1.218441128730774
1772872168968822300,4.104822265625,-0.030505308881402016,-0.48243221640586853,-1.8482937812805176
1772872168978755300,4.11475537109375,0.24035122990608215,-0.39231911301612854,-2.2402429580688477
1772872168988689200,4.124689208984375,0.42335352301597595,-0.20743782818317413,-2.4364166259765625
1772872168998622200,4.134622314453125,0.48453885316848755,-0.03936226665973663,-2.432961940765381
1772872169008556000,4.14455615234375,0.42998000979423523,0.014844609424471855,-2.240656852722168
1772872169018489000,4.154489013671875,0.2887214124202728,-0.06427710503339767,-1.867850661277771
1772872169028422100,4.164422119140625,0.10641713440418243,-0.19011129438877106,-1.3895760774612427
1772872169038356200,4.174356201171875,-0.07260934263467789,-0.2896008789539337,-0.9126363396644592
1772872169048289300,4.184289306640625,-0.2666946351528168,-0.30732038617134094,-0.4644117057323456
1772872169058222300,4.194222412109375,-0.4551777243614197,-0.2298908531665802,-0.043651435524225235
1772872169068156200,4.20415625,-0.5862982273101807,-0.09052631258964539,0.3422299325466156
1772872169078089200,4.214089111328125,-0.6826404929161072,0.10278934985399246,0.6636865139007568
1772872169088023300,4.224023193359375,-0.7326799035072327,0.3147529363632202,0.8633988499641418
1772872169097956000,4.2339560546875,-0.7351265549659729,0.4924395680427551,0.9474205374717712
1772872169107889200,4.24388916015625,-0.7245196104049683,0.6425209045410156,0.9682230949401855
1772872169117823200,4.2538232421875,-0.7204926609992981,0.7981991767883301,0.9544204473495483
1772872169127756000,4.263756103515625,-0.7034193873405457,0.9090290665626526,0.9170775413513184
1772872169137690400,4.2736904296875,-0.6926152110099792,0.9688071608543396,0.8511134386062622
1772872169147623400,4.28362353515625,-0.6728650331497192,1.0413569211959839,0.76475989818573
1772872169157556200,4.29355615234375,-0.6209355592727661,1.1900843381881714,0.6960463523864746
1772872169167490300,4.303490234375,-0.5649224519729614,1.383025884628296,0.7410557270050049
1772872169177423400,4.31342333984375,-0.5340383052825928,1.6091793775558472,1.0052686929702759
1772872169187356200,4.323356201171875,-0.5445852875709534,1.7211148738861084,1.0684725046157837
1772872169197290200,4.333290283203125,-0.624187171459198,1.4584273099899292,0.8556182980537415
1772872169207223300,4.343223388671875,-0.742469847202301,0.8590915203094482,0.5058838129043579
1772872169217157000,4.3531572265625,-0.82316654920578,0.0729767307639122,-0.07477527111768723
1772872169227090200,4.363090087890625,-0.7159924507141113,-0.619092583656311,-0.8860055804252625
1772872169237023200,4.373023193359375,-0.3579948842525482,-0.9535796046257019,-1.7991845607757568
1772872169246957300,4.382957275390625,0.07588011771440506,-0.7711570262908936,-2.697705030441284
1772872169256890400,4.392890380859375,0.3684522211551666,-0.2165491282939911,-3.4103660583496094
1772872169266824200,4.40282421875,0.4981710910797119,0.29270321130752563,-3.366145610809326
1772872169276757200,4.41275732421875,0.43393707275390625,0.7374773621559143,-2.26611590385437
1772872169286690300,4.422690185546875,0.03045297972857952,0.8484853506088257,-0.6047930121421814
1772872169296624000,4.4326240234375,-0.5231298804283142,0.3787690997123718,0.8377468585968018
1772872169306557200,4.44255712890625,-0.8636533617973328,-0.37599417567253113,1.5066837072372437
1772872169316490200,4.452490234375,-0.8467217087745667,-0.9404159784317017,1.7740000486373901
1772872169326424000,4.462424072265625,-0.5063087344169617,-0.9319633841514587,1.766530990600586
1772872169336357000,4.472357177734375,-0.009729589335620403,-0.3608044385910034,1.5171045064926147
1772872169346291200,4.482291259765625,0.43766602873802185,0.43092140555381775,1.137068510055542
1772872169356224300,4.492224365234375,0.7624728679656982,1.0022457838058472,0.6546730399131775
1772872169366157300,4.5021572265625,0.9092977046966553,1.0778130292892456,0.2052493840456009
1772872169376091100,4.512091064453125,0.9470741152763367,0.7432472705841064,-0.15518534183502197
1772872169386024200,4.522024169921875,0.866637647151947,0.2542405426502228,-0.322366327047348
1772872169395958300,4.531958251953125,0.7101333737373352,-0.1961817890405655,-0.1999441534280777
1772872169405891000,4.54189111328125,0.6046748757362366,-0.40522608160972595,0.21909518539905548
1772872169415824100,4.55182421875,0.5869276523590088,-0.2606167197227478,0.8096908330917358
1772872169425758200,4.56175830078125,0.5748917460441589,0.1454370617866516,1.4331735372543335
1772872169435691000,4.57169091796875,0.4934905171394348,0.7288976311683655,2.0065343379974365
1772872169445624000,4.5816240234375,0.3402352035045624,1.3569817543029785,2.39701247215271
1772872169455558400,4.591558349609375,0.07904583215713501,1.732690453529358,2.5690619945526123
1772872169465491200,4.6014912109375,-0.2860011160373688,1.7349860668182373,2.528557777404785
1772872169475425300,4.61142529296875,-0.6645548343658447,1.4207302331924438,2.237165927886963
1772872169485358300,4.6213583984375,-0.9581499099731445,0.9022113680839539,1.7981234788894653
1772872169495291100,4.631291015625,-1.0770034790039062,0.3801960051059723,1.2960214614868164
1772872169505225200,4.64122509765625,-1.0694431066513062,0.01655147597193718,0.6605320572853088
1772872169515158300,4.651158203125,-0.9498381018638611,-0.28807127475738525,-0.10846157371997833
1772872169525092000,4.661092041015625,-0.6980804204940796,-0.46761757135391235,-0.8518412113189697
1772872169535025200,4.671025146484375,-0.3168688714504242,-0.494843065738678,-1.50625741481781
1772872169544958200,4.680958251953125,0.11931296437978745,-0.4998924136161804,-2.046354293823242
1772872169554892300,4.690892333984375,0.4921018183231354,-0.595775306224823,-2.457257032394409
1772872169564825300,4.700825439453125,0.7609463334083557,-0.7044248580932617,-2.6831862926483154
1772872169574758400,4.71075830078125,0.8681250214576721,-0.7401301264762878,-2.5843234062194824
1772872169584692200,4.720692138671875,0.8175859451293945,-0.6941921710968018,-2.1112594604492188
1772872169594625300,4.730625244140625,0.6659814715385437,-0.6038939952850342,-1.410596251487732
1772872169604559000,4.74055908203125,0.4668518900871277,-0.48348259925842285,-0.6477028131484985
1772872169614492200,4.7504921875,0.2043417990207672,-0.31093189120292664,0.04291612654924393
1772872169624425200,4.76042529296875,-0.0979836955666542,-0.1425284743309021,0.5701945424079895
1772872169634359000,4.770359130859375,-0.409743994474411,0.031035365536808968,0.9016934037208557
1772872169644292000,4.7802919921875,-0.6767889857292175,0.1440572589635849,1.0593020915985107
1772872169654226200,4.79022607421875,-0.8975238800048828,0.21209992468357086,1.1391198635101318
1772872169664159200,4.8001591796875,-1.0598289966583252,0.25328969955444336,1.1657429933547974
1772872169674092300,4.81009228515625,-1.1049436330795288,0.27023422718048096,1.1254020929336548
1772872169684026400,4.8200263671875,-1.0401332378387451,0.29574570059776306,1.005247712135315
1772872169693959200,4.829959228515625,-0.8983165621757507,0.3118549883365631,0.8094670176506042
1772872169703892200,4.839892333984375,-0.7386952042579651,0.3182484209537506,0.6260886788368225
1772872169713826300,4.849826416015625,-0.5810288190841675,0.34796270728111267,0.5020492076873779
1772872169723759000,4.859759033203125,-0.4365975558757782,0.41591352224349976,0.43361586332321167
1772872169733693200,4.869693115234375,-0.3273012042045593,0.42103323340415955,0.35488367080688477
1772872169743626200,4.879626220703125,-0.25866833329200745,0.2731955647468567,0.19424819946289062
1772872169753559000,4.88955908203125,-0.2384093850851059,0.07302863895893097,-0.017495039850473404
1772872169763493400,4.899493408203125,-0.2981802821159363,-0.11661053448915482,-0.3330410122871399
1772872169773426200,4.90942626953125,-0.5233559012413025,-0.48438140749931335,-0.7336317896842957
1772872169783360300,4.9193603515625,-0.7675323486328125,-1.0756752490997314,-1.061921238899231
1772872169793293300,4.929293212890625,-0.8136934638023376,-1.7834676504135132,-1.5831431150436401
1772872169803226000,4.93922607421875,-0.5584584474563599,-2.257113456726074,-2.279866933822632
1772872169813160200,4.94916015625,0.13808728754520416,-2.048638105392456,-2.963709831237793
1772872169823093200,4.95909326171875,0.844447910785675,-1.1558740139007568,-3.2983028888702393
1772872169833026000,4.969026123046875,1.0211844444274902,0.0033158808946609497,-2.9995172023773193
1772872169842960100,4.978960205078125,0.7542026042938232,0.8138462901115417,-1.811542272567749
1772872169852893200,4.98889306640625,0.4185362756252289,0.9094849228858948,0.5768157839775085
1772872169862827000,4.998826904296875,0.09219705313444138,0.972606360912323,2.6632320880889893
1772872169872760300,5.00876025390625,-0.2416604459285736,1.0809364318847656,3.16142201423645
1772872169882693400,5.018693359375,-0.46979188919067383,0.925316572189331,2.157447338104248
1772872169892627200,5.028627197265625,-0.4051426947116852,0.4015873372554779,0.7074747085571289
1772872169902560300,5.038560302734375,0.03406449034810066,-0.10761731117963791,-0.7358129620552063
1772872169912494000,5.048494140625,0.6001477241516113,-0.6232017874717712,-1.8808213472366333
1772872169922427100,5.05842724609375,1.0084962844848633,-1.0261449813842773,-2.5039806365966797
1772872169932360200,5.068360107421875,1.2697129249572754,-1.0286495685577393,-2.4507195949554443
1772872169942294000,5.0782939453125,1.2955541610717773,-0.6152748465538025,-1.7388743162155151
1772872169952227000,5.08822705078125,1.1372191905975342,0.03739373758435249,-0.8049395680427551
1772872169962160000,5.09816015625,0.8784344792366028,0.6857392191886902,-0.009366296231746674
1772872169972094200,5.10809423828125,0.5242878794670105,1.0749083757400513,0.6795220971107483
1772872169982027300,5.11802734375,0.1138547882437706,1.2491004467010498,1.3344523906707764
1772872169991961300,5.12796142578125,-0.2866417467594147,1.2406492233276367,1.8917628526687622
1772872170001894100,5.13789404296875,-0.5923782587051392,1.0646499395370483,2.228379726409912
1772872170011827200,5.1478271484375,-0.7201452851295471,0.7370404601097107,2.266282320022583
1772872170021761300,5.15776123046875,-0.7324932813644409,0.35229089856147766,2.090733289718628
1772872170031694000,5.167694091796875,-0.6477107405662537,-0.001540202647447586,1.868947982788086
1772872170041627100,5.177627197265625,-0.46070411801338196,-0.2690097391605377,1.714805006980896
1772872170051561200,5.187561279296875,-0.26181575655937195,-0.39445629715919495,1.6904358863830566
1772872170061494000,5.197493896484375,-0.022508101537823677,-0.32214534282684326,1.716800570487976
1772872170071428400,5.207428466796875,0.21715161204338074,-0.17320553958415985,1.5612623691558838
1772872170081361400,5.217361328125,0.2543109655380249,-0.05025217682123184,1.0779443979263306
1772872170091294200,5.227294189453125,0.12755794823169708,-0.08313864469528198,0.3092149794101715
1772872170101228300,5.237228271484375,0.023084543645381927,-0.16531074047088623,-0.43974632024765015
1772872170111161300,5.247161376953125,-0.011111767031252384,-0.19219842553138733,-1.0067410469055176
1772872170121095200,5.25709521484375,0.055100008845329285,-0.17181113362312317,-1.4318854808807373
1772872170131028200,5.2670283203125,0.21409189701080322,-0.2133510559797287,-1.6707234382629395
1772872170140961300,5.276961181640625,0.3753809332847595,-0.23270611464977264,-1.68667733669281
1772872170150895000,5.28689501953125,0.4303187429904938,-0.2985554337501526,-1.4834941625595093
1772872170160828200,5.296828125,0.34784892201423645,-0.3367563486099243,-1.097455620765686
1772872170170761200,5.30676123046875,0.15516121685504913,-0.301744282245636,-0.574539840221405
1772872170180695300,5.3166953125,-0.025304963812232018,-0.24632976949214935,0.032737866044044495
1772872170190628400,5.32662841796875,-0.10920649766921997,-0.1522597372531891,0.6507861018180847
1772872170200562200,5.336562255859375,-0.17050528526306152,-0.09150584787130356,1.1667391061782837
1772872170210495200,5.3464951171875,-0.25094300508499146,-0.06423003226518631,1.5323724746704102
1772872170220428300,5.35642822265625,-0.37074050307273865,-0.0281204953789711,1.7006988525390625
1772872170230362000,5.366362060546875,-0.49351558089256287,0.051247406750917435,1.6844171285629272
1772872170240295200,5.376295166015625,-0.5669429302215576,0.1861833781003952,1.55599045753479
1772872170250228200,5.386228271484375,-0.567206084728241,0.3619823753833771,1.3851115703582764
1772872170260162000,5.396162109375,-0.47735634446144104,0.585132360458374,1.1920808553695679
1772872170270095000,5.40609521484375,-0.37797167897224426,0.7756980657577515,0.9994034767150879
1772872170280029200,5.416029296875,-0.3276509940624237,0.8432976007461548,0.7736270427703857
1772872170289962200,5.425962158203125,-0.3172753155231476,0.7840921878814697,0.5308367609977722
1772872170299895300,5.435895263671875,-0.3221597969532013,0.6420266628265381,0.29938435554504395
1772872170309829000,5.4458291015625,-0.30006343126296997,0.5178623795509338,0.10344880819320679
1772872170319762200,5.45576220703125,-0.23268333077430725,0.48219814896583557,-0.09261657297611237
1772872170329695200,5.4656953125,-0.15690532326698303,0.5662919282913208,-0.28527218103408813
1772872170339629000,5.475629150390625,-0.12990432977676392,0.7638753056526184,-0.6287802457809448
1772872170349562000,5.48556201171875,-0.1091034859418869,0.8991419672966003,-1.3212071657180786
1772872170359496200,5.49549609375,0.06582758575677872,0.7972158193588257,-2.2084803581237793
1772872170369429000,5.505428955078125,0.30098631978034973,0.44665834307670593,-3.088493824005127
1772872170379362000,5.515362060546875,0.4430936574935913,0.052733954042196274,-3.540898561477661
1772872170389296400,5.52529638671875,0.49045878648757935,-0.1046263724565506,-3.5790154933929443
1772872170399229200,5.535229248046875,0.3664129972457886,0.1816951334476471,-3.4449617862701416
1772872170409163300,5.545163330078125,0.16822107136249542,0.43513259291648865,-3.0775697231292725
1772872170419096300,5.555096435546875,0.2326701134443283,0.35544177889823914,-2.2488348484039307
1772872170429029000,5.565029052734375,0.3660489320755005,0.24623294174671173,-1.0344961881637573
1772872170438963200,5.574963134765625,0.31804147362709045,0.07124088704586029,0.06912894546985626
1772872170448896300,5.584896240234375,0.25777295231819153,-0.3332888185977936,0.6126683354377747
1772872170458829000,5.5948291015625,0.38020220398902893,-0.8954437971115112,0.5958994626998901
1772872170468763100,5.60476318359375,0.6510568857192993,-1.3975049257278442,0.18152835965156555
1772872170478696200,5.6146962890625,0.9295063018798828,-1.6481953859329224,-0.45852193236351013
1772872170488630300,5.62463037109375,1.1204814910888672,-1.7848213911056519,-0.9789004325866699
1772872170498563300,5.634563232421875,1.1510915756225586,-1.7668884992599487,-1.1889764070510864
1772872170508496400,5.644496337890625,1.0636156797409058,-1.5032811164855957,-1.1843218803405762
1772872170518430200,5.65443017578125,0.916495144367218,-1.1140196323394775,-1.0138009786605835
1772872170528363300,5.66436328125,0.7106803059577942,-0.775079607963562,-0.6649332046508789
1772872170538297000,5.674297119140625,0.4667433202266693,-0.4480903446674347,-0.12793554365634918
1772872170548230100,5.684230224609375,0.18367554247379303,-0.10843538492918015,0.49919384717941284
1772872170558163200,5.6941630859375,-0.09477951377630234,0.18225130438804626,1.1152902841567993
1772872170568097000,5.704096923828125,-0.38206106424331665,0.4676007926464081,1.7170963287353516
1772872170578030000,5.714030029296875,-0.6940818428993225,0.7781895995140076,2.336477518081665
1772872170587963100,5.723963134765625,-0.9592956900596619,1.0909295082092285,2.938606023788452
1772872170597897200,5.733897216796875,-1.1987005472183228,1.221666693687439,3.4372458457946777
1772872170607830300,5.743830322265625,-1.401666522026062,1.1283882856369019,3.7025060653686523
1772872170617764400,5.753764404296875,-1.4652286767959595,0.8409589529037476,3.661163806915283
1772872170627697200,5.763697265625,-1.3559792041778564,0.5462169647216797,3.336963653564453
1772872170637630200,5.773630126953125,-1.0790849924087524,0.3337896466255188,2.814849376678467
1772872170647564300,5.783564208984375,-0.7384952902793884,0.20988890528678894,2.1238789558410645
1772872170657497000,5.7934970703125,-0.4145430326461792,0.16301700472831726,1.2081583738327026
1772872170667430100,5.80343017578125,-0.13580219447612762,0.09978912770748138,0.04792919009923935
1772872170677364200,5.8133642578125,0.16008059680461884,0.042026497423648834,-1.1017745733261108
1772872170687297000,5.823297119140625,0.44830626249313354,0.13096703588962555,-1.9746973514556885
1772872170697231400,5.8332314453125,0.7327174544334412,0.2879689037799835,-2.5530574321746826
1772872170707164200,5.8431640625,0.9729048013687134,0.3783860504627228,-2.8388149738311768
1772872170717097200,5.85309716796875,1.0452330112457275,0.2739592492580414,-2.8284318447113037
1772872170727031300,5.86303125,0.9290554523468018,-0.03537473455071449,-2.576017141342163
1772872170736963800,5.8729638671875,0.6549370884895325,-0.39323994517326355,-2.131516456604004
1772872170746896600,5.882896728515625,0.29361072182655334,-0.6486209630966187,-1.4952125549316406
1772872170756830700,5.892830810546875,-0.08786579966545105,-0.7920556664466858,-0.7631050944328308
1772872170766763800,5.902763671875,-0.44893667101860046,-0.752915620803833,-0.047648198902606964
1772872170776697900,5.91269775390625,-0.7298426628112793,-0.5946841835975647,0.5607994198799133
1772872170786631000,5.922630859375,-0.8922481536865234,-0.3893488049507141,1.0042493343353271
1772872170796564000,5.93256396484375,-0.9323905110359192,-0.12695500254631042,1.3010934591293335
1772872170806497800,5.942497802734375,-0.9295282959938049,0.1157124787569046,1.4842230081558228
1772872170816430800,5.952430908203125,-0.945664644241333,0.2823896110057831,1.612478494644165
1772872170826364000,5.962364013671875,-0.9496369957923889,0.4013192653656006,1.6916826963424683
1772872170836297700,5.972297607421875,-0.9034436941146851,0.5266953110694885,1.7051430940628052
1772872170846230800,5.982230712890625,-0.8162370324134827,0.5794674158096313,1.6548880338668823
1772872170856164600,5.99216455078125,-0.6806121468544006,0.5304322242736816,1.5610781908035278
1772872170866097700,6.00209765625,-0.49629300832748413,0.47062039375305176,1.4278647899627686
1772872170876031000,6.012031005859375,-0.3360103964805603,0.46473321318626404,1.3072224855422974
1772872170885964800,6.02196484375,-0.27274981141090393,0.4665554463863373,1.2002402544021606
1772872170895897900,6.03189794921875,-0.2776220738887787,0.5147168040275574,1.1108267307281494
1772872170905832000,6.04183203125,-0.3041284680366516,0.599977433681488,0.9940916895866394
1772872170915764700,6.0517646484375,-0.2987595200538635,0.5924220681190491,0.9495290517807007
1772872170925697800,6.06169775390625,-0.4354689419269562,0.5402086973190308,0.8099296689033508
1772872170935632000,6.0716318359375,-0.6627505421638489,0.35514986515045166,0.4289788603782654
1772872170945564700,6.081564697265625,-0.7798592448234558,0.05386652424931526,-0.1908939927816391
1772872170955497700,6.091497802734375,-0.6350107192993164,-0.4596537947654724,-1.119179606437683
1772872170965431800,6.101431884765625,-0.23266322910785675,-0.7072615623474121,-1.9583805799484253
1772872170975364900,6.11136474609375,0.3561965823173523,-0.27249282598495483,-2.5517737865448
1772872170985299000,6.121298828125,1.0037751197814941,0.7072280645370483,-2.7146124839782715
1772872170995231700,6.131231689453125,1.2757108211517334,1.6238795518875122,-2.324702739715576
1772872171005164800,6.141164794921875,0.8524911999702454,1.7235339879989624,-1.3420894145965576
1772872171015099000,6.151098876953125,-0.17756573855876923,1.1593451499938965,-0.22602728009223938
1772872171025031700,6.16103173828125,-1.3592336177825928,0.2748273015022278,0.19736707210540771
1772872171034964700,6.17096484375,-2.058718204498291,-0.9089547395706177,0.042595602571964264
1772872171044898800,6.18089892578125,-1.7374359369277954,-1.4180688858032227,0.07038072496652603
1772872171054831600,6.19083154296875,-0.463585764169693,-0.9125702977180481,0.2535598576068878
1772872171064765700,6.200765625,0.9966444969177246,0.03918126970529556,0.5139124393463135
1772872171074698800,6.21069873046875,2.051156997680664,0.7969914674758911,0.6823099851608276
1772872171084631800,6.2206318359375,2.532379150390625,0.9979406595230103,0.7792782187461853
1772872171094566000,6.23056591796875,2.455369234085083,0.6438713073730469,0.8119011521339417
1772872171104499000,6.2404990234375,1.8918739557266235,0.020996762439608574,0.790006160736084
1772872171114432800,6.250432861328125,1.1231319904327393,-0.5759420394897461,0.6470415592193604
1772872171124365800,6.26036572265625,0.4251306354999542,-0.8920431137084961,0.3647123873233795
1772872171134299000,6.270298828125,-0.05885601043701172,-0.9033410549163818,0.033461760729551315
1772872171144232700,6.280232666015625,-0.25594615936279297,-0.750190258026123,-0.23907287418842316
1772872171154165800,6.290165771484375,-0.18064609169960022,-0.4897101819515228,-0.39721086621284485
1772872171164098800,6.300098876953125,-0.017763037234544754,-0.39693760871887207,-0.49521663784980774
1772872171174032600,6.31003271484375,0.10632216185331345,-0.546677827835083,-0.44975778460502625
1772872171183966000,6.319966064453125,0.23190991580486298,-0.7628350853919983,-0.21124906837940216
1772872171193899800,6.329899658203125,0.3561035096645355,-0.9937958717346191,0.09360750764608383
1772872171203832800,6.339832763671875,0.3430280387401581,-1.2953890562057495,0.3128390610218048
1772872171213766000,6.349765869140625,0.12986835837364197,-1.3733994960784912,0.3759394586086273
1772872171223699700,6.35969970703125,-0.17334237694740295,-1.0947022438049316,0.4133872985839844
1772872171233632800,6.3696328125,-0.45547419786453247,-0.5048630237579346,0.5498461127281189
1772872171243565800,6.37956591796875,-0.7103869318962097,0.2239437997341156,0.8082256317138672
1772872171253499600,6.389499755859375,-0.8673112988471985,0.9034954309463501,0.9870758056640625
1772872171263432700,6.3994326171875,-0.9500763416290283,1.2255804538726807,0.9263867139816284
1772872171273366800,6.40936669921875,-0.9254607558250427,1.0940208435058594,0.5981571674346924
1772872171283299800,6.4192998046875,-0.686468243598938,0.7052360773086548,0.1333409994840622
1772872171293233000,6.42923291015625,-0.26419585943222046,0.17086216807365417,-0.25124022364616394
1772872171303167000,6.4391669921875,0.23712411522865295,-0.1437932848930359,-0.43387943506240845
1772872171313099800,6.449099853515625,0.7608880400657654,-0.19999796152114868,-0.4152125418186188
1772872171323032800,6.45903271484375,1.115178108215332,-0.19272083044052124,-0.3099895119667053
1772872171332967000,6.468966796875,1.1931041479110718,-0.0850825086236,-0.17037835717201233
1772872171342899700,6.478899658203125,1.0905507802963257,0.09072088450193405,-0.12058492749929428
1772872171352833800,6.488833740234375,0.9000464081764221,0.15784905850887299,-0.12542282044887543
1772872171362766800,6.498766845703125,0.6364062428474426,0.21484266221523285,-0.12582243978977203
1772872171372699600,6.50869970703125,0.39573824405670166,0.32760193943977356,-0.10370568931102753
1772872171382634000,6.518634033203125,0.17931874096393585,0.341866672039032,-0.05698809772729874
1772872171392567000,6.528567138671875,0.004834026098251343,0.09900451451539993,-0.03697098046541214
1772872171402499800,6.538499755859375,-0.05033817142248154,-0.19239531457424164,-0.06202597916126251
1772872171412434000,6.548433837890625,0.006399409845471382,-0.43118950724601746,0.010526781901717186
1772872171422367000,6.558366943359375,0.06751657277345657,-0.5587557554244995,0.20469403266906738
1772872171432300800,6.56830078125,0.09738605469465256,-0.4355432689189911,0.40508198738098145
1772872171442233900,6.57823388671875,0.12850148975849152,-0.18227246403694153,0.5953804850578308
1772872171452167000,6.5881669921875,0.135807067155838,0.07105114310979843,0.8103117346763611
1772872171462100700,6.598100830078125,0.12264107912778854,0.34447354078292847,1.0219414234161377
1772872171472033800,6.60803369140625,0.055850062519311905,0.547664999961853,1.2139909267425537
1772872171481966800,6.617966796875,-0.08263963460922241,0.6134452819824219,1.3361095190048218
1772872171491901000,6.62790087890625,-0.1178564801812172,0.521084725856781,1.2182589769363403
1772872171501834000,6.637833984375,0.03438711538910866,0.19689495861530304,0.8310540318489075
1772872171511767800,6.647767822265625,0.30994653701782227,-0.2616872787475586,0.19212064146995544
1772872171521700900,6.657700927734375,0.6006129384040833,-0.6474839448928833,-0.5467725396156311
1772872171531634000,6.667634033203125,0.822993814945221,-0.7879195809364319,-1.1061917543411255
1772872171541567700,6.677567626953125,0.8906667828559875,-0.7041741013526917,-1.600507140159607
1772872171551500800,6.687500732421875,0.74995356798172,-0.456916868686676,-2.0273263454437256
1772872171561433900,6.697433837890625,0.3034202754497528,-0.23635944724082947,-2.1980721950531006
1772872171571367700,6.70736767578125,-0.4167330861091614,-0.2051842212677002,-2.0989937782287598
1772872171581300700,6.71730078125,-1.1866564750671387,-0.22161845862865448,-1.7316619157791138
1772872171591234800,6.72723486328125,-1.7661653757095337,-0.04885360598564148,-1.4990406036376953
1772872171601168000,6.73716796875,-1.964205026626587,-0.03579431399703026,-1.7908968925476074
1772872171611101000,6.747100830078125,-1.6778526306152344,-0.4097529947757721,-1.9831116199493408
1772872171621034800,6.75703466796875,-1.0813775062561035,-0.6702734231948853,-1.2060589790344238
1772872171630967800,6.7669677734375,-0.5095505118370056,-0.5368442535400391,0.2167070358991623
1772872171640900900,6.77690087890625,-0.28409257531166077,-0.11758673936128616,1.547261118888855
1772872171650834700,6.786834716796875,-0.25515520572662354,0.3637915849685669,2.31420636177063
1772872171660767700,6.796767822265625,-0.20443904399871826,0.755831241607666,2.311232328414917
1772872171670701800,6.806701904296875,-0.01235136203467846,0.8441911935806274,1.6593096256256104
1772872171680634600,6.816634521484375,0.32694053649902344,0.5403300523757935,0.6702604293823242
1772872171690567700,6.826567626953125,0.7340230941772461,0.012885666452348232,-0.33194833993911743
1772872171700502000,6.836501953125,1.0723844766616821,-0.40693798661231995,-1.089712381362915
1772872171710434800,6.846434814453125,1.2295773029327393,-0.6911985278129578,-1.57170569896698
1772872171720367900,6.856367919921875,1.1965913772583008,-0.9071568250656128,-1.7926965951919556
1772872171730302000,6.866302001953125,1.1132099628448486,-0.9765201807022095,-1.7612148523330688
1772872171740235300,6.8762353515625,1.0469424724578857,-0.7865211963653564,-1.4049278497695923
1772872171750169300,6.88616943359375,0.9242067337036133,-0.3427049219608307,-0.7322328090667725
1772872171760102400,6.896102294921875,0.7360343933105469,0.04728072136640549,0.06198110803961754
1772872171770035200,6.90603515625,0.4853697419166565,0.096331886947155,0.6946163177490234
1772872171779969300,6.91596923828125,0.2122829407453537,-0.19690875709056854,1.0807106494903564
1772872171789902300,6.92590234375,0.018894566223025322,-0.5539771318435669,1.210168719291687
1772872171799835100,6.935835205078125,-0.18186382949352264,-0.6362596154212952,1.1209511756896973
1772872171809769500,6.94576953125,-0.42966270446777344,-0.339713990688324,0.9406024217605591
1772872171819702300,6.955702392578125,-0.6812058091163635,0.17868906259536743,0.8010966181755066
1772872171829636400,6.96563623046875,-0.879089891910553,0.6743208765983582,0.7202705144882202
1772872171839569400,6.9755693359375,-0.9609851837158203,1.0392582416534424,0.6757224202156067
1772872171849502200,6.985502197265625,-0.9144755005836487,1.224138855934143,0.5107958316802979
1772872171859436300,6.995436279296875,-0.7650002241134644,1.1938989162445068,0.10484689474105835
1772872171869369300,7.005369384765625,-0.5040783286094666,0.9696102142333984,-0.4696108102798462
1772872171879302100,7.01530224609375,-0.15962883830070496,0.6724791526794434,-1.000380039215088
1772872171889236200,7.025236328125,0.14539045095443726,0.5464812517166138,-1.3262706995010376
1772872171899169300,7.035169189453125,0.33438780903816223,0.619935154914856,-1.3537663221359253
1772872171909103400,7.045103271484375,0.4194220006465912,0.7674646377563477,-1.181997299194336
1772872171919036400,7.055036376953125,0.4171191453933716,0.8115193247795105,-0.9624440670013428
1772872171928969500,7.064969482421875,0.3607189953327179,0.7346458435058594,-0.8144887089729309
1772872171938903300,7.0749033203125,0.31992048025131226,0.5488419532775879,-0.7813621163368225
1772872171948836400,7.08483642578125,0.33865901827812195,0.330877423286438,-0.7876253724098206
1772872171958769400,7.094769287109375,0.4005497694015503,0.100222148001194,-0.7837816476821899
1772872171968703200,7.104703125,0.501055121421814,-0.0789385512471199,-0.7988455295562744
1772872171978636300,7.11463623046875,0.5437392592430115,-0.2539965808391571,-0.7853989601135254
1772872171988570000,7.124570068359375,0.4813920259475708,-0.4453582763671875,-0.6700829863548279
1772872171998503200,7.134503173828125,0.38799309730529785,-0.5167345404624939,-0.44335418939590454
1772872172008436200,7.144436279296875,0.28904175758361816,-0.4963672459125519,-0.232581228017807
1772872172018370300,7.154370361328125,0.2681979835033417,-0.3836047649383545,-0.20427103340625763
1772872172028303400,7.164303466796875,0.36723774671554565,-0.4056139290332794,-0.4199173152446747
1772872172038236400,7.174236328125,0.62408447265625,-0.5594241619110107,-0.8219923377037048
1772872172048170200,7.184170166015625,0.9370168447494507,-0.6394439339637756,-1.2228926420211792
1772872172058103300,7.194103271484375,1.216970682144165,-0.6232467293739319,-1.3635352849960327
1772872172068036400,7.204036376953125,1.3944826126098633,-0.49624404311180115,-1.2006579637527466
1772872172077970200,7.21397021484375,1.3013145923614502,-0.2332001030445099,-0.8656880259513855
1772872172087903200,7.2239033203125,0.9023168683052063,-0.03973610699176788,-0.4414217472076416
1772872172097837300,7.23383740234375,0.35322582721710205,0.14623355865478516,0.012155910953879356
1772872172107770000,7.24377001953125,-0.15930113196372986,0.35373643040657043,0.45078280568122864
1772872172117703200,7.253703125,-0.5721322298049927,0.5292325615882874,0.907662570476532
1772872172127637500,7.263637451171875,-0.8539631366729736,0.4743634760379791,1.188888669013977
1772872172137570300,7.2735703125,-0.9765766263008118,0.1330854892730713,1.2697539329528809
1772872172147503400,7.28350341796875,-0.9172059893608093,-0.2567041218280792,1.3601410388946533
1772872172157437400,7.2934375,-0.6525164842605591,-0.5179105997085571,1.4277609586715698
1772872172167370200,7.303370361328125,-0.3758012056350708,-0.4568765163421631,1.2921786308288574
1772872172177304300,7.31330419921875,-0.20125843584537506,0.06154407560825348,0.9668167233467102
1772872172187237400,7.3232373046875,-0.04693065956234932,0.5007150769233704,0.3930802345275879
1772872172197170200,7.333170166015625,0.22137893736362457,0.21624521911144257,-0.5809319019317627
1772872172207104300,7.343104248046875,0.7639013528823853,-0.7426285743713379,-1.6456314325332642
1772872172217037300,7.353037353515625,1.3296786546707153,-1.6619985103607178,-2.0452659130096436
1772872172226970000,7.36297021484375,1.6374377012252808,-2.343248128890991,-1.628847599029541
1772872172236904400,7.372904541015625,1.5239665508270264,-2.8971545696258545,-0.7189261317253113
1772872172246837500,7.38283740234375,1.0014897584915161,-3.0851333141326904,0.3860492408275604
1772872172256771300,7.392771240234375,0.3777458071708679,-2.465444564819336,1.35568368434906
1772872172266704400,7.402704345703125,-0.13405252993106842,-1.1189895868301392,2.013120174407959
1772872172276637400,7.412637451171875,-0.5376021265983582,0.3706466257572174,2.4239795207977295
1772872172286571300,7.4225712890625,-0.8061025738716125,1.4479035139083862,2.558107614517212
1772872172296504300,7.43250439453125,-0.9913905262947083,1.7595438957214355,2.4815714359283447
1772872172306437400,7.442437255859375,-1.1705254316329956,1.4813721179962158,2.258793354034424
1772872172316371200,7.45237109375,-1.3870275020599365,1.0604490041732788,2.0761313438415527
1772872172326304300,7.46230419921875,-1.641935110092163,0.8015034794807434,2.0126044750213623
1772872172336238300,7.47223828125,-1.8830121755599976,0.7229039669036865,1.9434070587158203
1772872172346171400,7.48217138671875,-2.0056681632995605,0.6609055399894714,1.7223460674285889
1772872172356104400,7.4921044921875,-1.9737118482589722,0.6532080173492432,1.322086215019226
1772872172366038300,7.502038330078125,-1.8489131927490234,0.7799345850944519,0.8461143970489502
1772872172375971300,7.511971435546875,-1.7277237176895142,1.0156859159469604,0.39079713821411133
1772872172385904400,7.521904296875,-1.5840857028961182,1.2252147197723389,-0.0008031042525544763
1772872172395838200,7.531838134765625,-1.4006935358047485,1.226967215538025,-0.2510501444339752
1772872172405771300,7.541771240234375,-1.1753764152526855,0.9175819158554077,-0.34815725684165955
1772872172415705000,7.551705078125,-0.842986524105072,0.3483582139015198,-0.39040225744247437
1772872172425638100,7.56163818359375,-0.49177148938179016,-0.3727978467941284,-0.4512520432472229
1772872172435571200,7.5715712890625,-0.10189299285411835,-1.011130452156067,-0.5814617276191711
1772872172445505300,7.58150537109375,0.29003989696502686,-1.3324443101882935,-0.7373194694519043
1772872172455438300,7.591438232421875,0.5297001600265503,-1.4013830423355103,-0.8525484204292297
1772872172465371400,7.601371337890625,0.583741307258606,-1.0908401012420654,-0.930901825428009
1772872172475305200,7.61130517578125,0.639589250087738,-0.5765599608421326,-0.9515218138694763
1772872172485238300,7.62123828125,0.67021244764328,-0.19616787135601044,-0.8412376642227173
1772872172495172400,7.63117236328125,0.5897310376167297,-0.0690702423453331,-0.6517257690429688
1772872172505105200,7.641105224609375,0.4035206735134125,-0.13489505648612976,-0.4338618814945221
1772872172515038200,7.6510380859375,0.15095284581184387,-0.2672976851463318,-0.20233024656772614
1772872172524972300,7.66097216796875,-0.05634573474526405,-0.3634505867958069,0.08230947703123093
1772872172534905000,7.670905029296875,-0.12529206275939941,-0.2862009108066559,0.46176016330718994
1772872172544838100,7.680838134765625,-0.051811181008815765,-0.0696939080953598,0.836763322353363
1772872172554772500,7.6907724609375,0.08721941709518433,0.18861420452594757,1.12674081325531
1772872172564705300,7.700705322265625,0.22950224578380585,0.34811943769454956,1.3307908773422241
1772872172574638300,7.710638427734375,0.3485487699508667,0.4181768596172333,1.440793752670288
1772872172584572400,7.720572509765625,0.4515473246574402,0.39503851532936096,1.4412627220153809
1772872172594505200,7.730505126953125,0.5090373754501343,0.28893786668777466,1.4211827516555786
1772872172604439300,7.740439208984375,0.4942797124385834,0.23343011736869812,1.379605770111084
1772872172614372400,7.750372314453125,0.36969825625419617,0.21115107834339142,1.1243500709533691
1772872172624305200,7.76030517578125,0.14287014305591583,0.09461008012294769,0.6988696455955505
1772872172634239200,7.7702392578125,-0.04894055053591728,-0.10700205713510513,-0.08133317530155182
1772872172644172300,7.78017236328125,-0.06500766426324844,-0.45722290873527527,-1.1818064451217651
1772872172654105000,7.79010498046875,0.048401832580566406,-0.8043943643569946,-2.293081283569336
1772872172664039400,7.800039306640625,0.23191280663013458,-1.0494084358215332,-2.9606008529663086
1772872172673972500,7.809972412109375,0.3586048483848572,-1.3465065956115723,-3.185167074203491
1772872172683906300,7.81990625,0.3103664815425873,-1.6933764219284058,-2.881509780883789
1772872172693839400,7.82983935546875,0.13118086755275726,-1.8027551174163818,-2.154600143432617
1772872172703772400,7.8397724609375,0.018685488030314445,-1.7395538091659546,-1.1696285009384155
1772872172713706200,7.849706298828125,-0.01443889643996954,-1.4456433057785034,-0.13471072912216187
1772872172723639300,7.859639404296875,0.02332179993391037,-1.0206009149551392,0.7295465469360352
1772872172733572400,7.869572265625,-0.08205124735832214,-0.5066497325897217,1.2211817502975464
1772872172743506000,7.879505859375,-0.3271166682243347,0.08360791951417923,1.3074138164520264
1772872172753439000,7.88943896484375,-0.5098763704299927,0.7140393257141113,1.107098937034607
1772872172763372800,7.899372802734375,-0.4619743525981903,1.199668049812317,0.7094733715057373
1772872172773305900,7.909305908203125,-0.1729648858308792,1.4662169218063354,0.27323341369628906
1772872172783239000,7.919239013671875,0.2695786952972412,1.259657621383667,-0.16534127295017242
1772872172793173000,7.929173095703125,0.7441261410713196,0.4987163841724396,-0.6906265020370483
1772872172803106000,7.93910595703125,1.0900294780731201,-0.5313836336135864,-1.0179823637008667
1772872172813039000,7.9490390625,1.1418626308441162,-1.26710844039917,-0.9210605621337891
1772872172822973000,7.958972900390625,0.9822937250137329,-1.600107192993164,-0.6208786368370056
1772872172832906000,7.968906005859375,0.6951184272766113,-1.4052561521530151,-0.16554579138755798
1772872172842839000,7.978839111328125,0.3942113220691681,-0.5490875840187073,0.4581630825996399
1772872172852772900,7.98877294921875,0.09299939125776291,0.6109887361526489,1.175024151802063
1772872172862706000,7.998705810546875,-0.26672494411468506,1.6148126125335693,1.7971419095993042
1772872172872640000,8.008639892578126,-0.6521573066711426,2.089914083480835,2.1945056915283203
1772872172882572800,8.01857275390625,-1.018316626548767,1.9561488628387451,2.257568597793579
1772872172892505900,8.028505859375,-1.3026114702224731,1.4044513702392578,1.9743801355361938
1772872172902440200,8.038440185546875,-1.453616738319397,0.7461309432983398,1.4090226888656616
1772872172912373000,8.048373046875,-1.4038443565368652,0.27424412965774536,0.7743369340896606
1772872172922306000,8.05830615234375,-1.1658709049224854,0.1356881558895111,0.25357484817504883
1772872172932240100,8.068240234375,-0.807386577129364,0.317181259393692,-0.08931726217269897
1772872172942173000,8.0781728515625,-0.41798877716064453,0.5703164935112,-0.30492591857910156
1772872172952107000,8.08810693359375,-0.09369219094514847,0.6540588140487671,-0.500653862953186
1772872172962040000,8.0980400390625,0.0880870446562767,0.5488300919532776,-0.7065408825874329
1772872172971972900,8.107972900390624,0.15598060190677643,0.29790574312210083,-0.8877657651901245
1772872172981907000,8.117906982421875,0.1843372881412506,0.03408920019865036,-1.0345497131347656
1772872172991840000,8.127840087890625,0.1964416205883026,-0.07372035086154938,-1.0659369230270386
1772872173001772800,8.137772705078126,0.22519443929195404,-0.08238542824983597,-0.939091682434082
1772872173011707100,8.14770703125,0.29085442423820496,-0.019899416714906693,-0.713080883026123
1772872173021640000,8.157639892578125,0.3290018141269684,0.07421223819255829,-0.4840189814567566
1772872173031573000,8.167572998046875,0.3108699321746826,0.07415338605642319,-0.30212798714637756
1772872173041507000,8.177507080078126,0.23192308843135834,-0.03241841867566109,-0.17232851684093475
1772872173051440000,8.187440185546874,0.09223947674036026,-0.14596256613731384,-0.040561966598033905
1772872173061374000,8.1973740234375,-0.06807246059179306,-0.2284868359565735,0.10914590209722519
1772872173071307000,8.20730712890625,-0.23890811204910278,-0.26565098762512207,0.2470363974571228
1772872173081240000,8.217239990234376,-0.363557904958725,-0.23811925947666168,0.33515408635139465
1772872173091174000,8.227173828125,-0.412495881319046,-0.11840617656707764,0.4342023730278015
1772872173101107000,8.23710693359375,-0.3668042719364166,0.05221782997250557,0.5464405417442322
1772872173111040000,8.2470400390625,-0.2375008910894394,0.26216599345207214,0.6825240254402161
1772872173120974000,8.25697412109375,-0.09222707152366638,0.5407940149307251,0.8368745446205139
1772872173130907100,8.2669072265625,-0.03679470345377922,0.7740831971168518,1.0257989168167114
1772872173140841000,8.276841064453125,-0.10859910398721695,0.8538610935211182,1.213788628578186
1772872173150774000,8.28677392578125,-0.27186256647109985,0.7872780561447144,1.3715004920959473
1772872173160707000,8.29670703125,-0.4764699339866638,0.4706803560256958,1.4915282726287842
1772872173170641000,8.306640869140624,-0.5936927199363708,0.0940161868929863,1.3429596424102783
1772872173180574000,8.316573974609375,-0.6739397048950195,-0.1425677090883255,0.935677707195282
1772872173190507000,8.326507080078125,-0.7962424755096436,-0.038353949785232544,0.6371791958808899
1772872173200440800,8.33644091796875,-0.8880818486213684,0.24463945627212524,0.5008646845817566
1772872173210374000,8.346373779296876,-1.0351420640945435,0.601887047290802,0.496207058429718
1772872173220307000,8.356306884765624,-1.1375919580459595,0.9775204062461853,0.6304701566696167
1772872173230242000,8.366241943359375,-1.0061473846435547,1.267664909362793,0.7457030415534973
1772872173240175000,8.376175048828125,-0.6467868089675903,1.1553349494934082,0.5920767188072205
1772872173250108000,8.38610791015625,-0.046068478375673294,0.6512671113014221,0.22879892587661743
1772872173260042000,8.3960419921875,0.6263545155525208,0.18989711999893188,-0.30159449577331543
1772872173269975000,8.40597509765625,1.2062478065490723,-0.15973171591758728,-1.1169930696487427
1772872173279907800,8.415907958984375,1.6046254634857178,-0.5018424987792969,-2.081937551498413
1772872173289842000,8.425842041015626,1.5379379987716675,-0.894540011882782,-2.8823657035827637
1772872173299775000,8.43577490234375,1.2194175720214844,-1.4377524852752686,-3.210419178009033
1772872173309707800,8.445707763671875,1.006449580192566,-1.857308268547058,-3.126117467880249
1772872173319642000,8.45564208984375,0.8810434937477112,-1.9594618082046509,-2.7715542316436768
1772872173329575200,8.4655751953125,0.8062736988067627,-1.8984624147415161,-2.0203440189361572
1772872173339509000,8.475509033203124,0.7985188364982605,-1.7526720762252808,-1.0539326667785645
1772872173349442000,8.485442138671875,0.7502666115760803,-1.4240838289260864,-0.1578778475522995
1772872173359375000,8.495375,0.6622414588928223,-0.8927944302558899,0.5103196501731873
1772872173369309000,8.505308837890626,0.5209317207336426,-0.2804976999759674,0.8889595866203308
1772872173379242000,8.515241943359374,0.3247986435890198,0.21683983504772186,1.0053315162658691
1772872173389175000,8.525175048828125,0.02349873259663582,0.46886488795280457,0.884378969669342
1772872173399108900,8.53510888671875,-0.22956015169620514,0.33578160405158997,0.36322158575057983
1772872173409042000,8.5450419921875,-0.39764636754989624,-0.17336922883987427,-0.4664582908153534
1772872173418976000,8.55497607421875,-0.44683772325515747,-0.44822269678115845,-1.0552300214767456
1772872173428909000,8.564908935546875,-0.207715705037117,-0.32615163922309875,-1.085619330406189
1772872173438842000,8.574842041015625,0.075339674949646,0.0728781670331955,-0.6264241337776184
1772872173448776000,8.58477587890625,0.22065132856369019,0.4795950651168823,-0.03989331051707268
1772872173458709000,8.594708984375,0.17574752867221832,0.8168076872825623,0.318637877702713
1772872173468642000,8.60464208984375,-0.0007478749612346292,0.9764367341995239,0.31549933552742004
1772872173478575900,8.614575927734375,-0.273781955242157,0.9601211547851562,0.10750026255846024
1772872173488509000,8.624509033203125,-0.6173869371414185,0.9251639246940613,-0.13586577773094177
1772872173498442000,8.63444189453125,-0.8749561905860901,0.9037206172943115,-0.3713013231754303
1772872173508375800,8.644375732421874,-0.9456074237823486,1.0819340944290161,-0.6020770072937012
1772872173518308900,8.654308837890625,-0.8440676927566528,1.3967645168304443,-0.7681991457939148
1772872173528243000,8.664242919921875,-0.6381749510765076,1.6628196239471436,-0.8969067931175232
1772872173538176000,8.674176025390626,-0.43792903423309326,1.6795427799224854,-0.997003972530365
1772872173548109000,8.684109130859374,-0.3043147921562195,1.5016404390335083,-1.0334221124649048
1772872173558043000,8.69404296875,-0.20119455456733704,1.1369314193725586,-1.0207339525222778
1772872173567976000,8.703975830078125,-0.09417222440242767,0.6314275860786438,-1.0123859643936157
1772872173577909000,8.713908935546876,0.0036030588671565056,0.15127995610237122,-0.9632627367973328
1772872173587842800,8.7238427734375,0.06723449379205704,-0.21526077389717102,-0.8944138884544373
1772872173597776000,8.73377587890625,0.08258017152547836,-0.2595933973789215,-0.8282374739646912
1772872173607709000,8.743708984375,0.15014536678791046,0.18197175860404968,-0.8016912937164307
1772872173617642800,8.753642822265626,0.2477446347475052,0.7862270474433899,-0.826093852519989
1772872173627575800,8.763575927734376,0.2765709459781647,1.1519157886505127,-0.9009803533554077
1772872173637510100,8.77351025390625,0.2147291600704193,1.1704455614089966,-1.018941044807434
1772872173647443000,8.78344287109375,0.08341667056083679,0.8906919360160828,-1.1185781955718994
1772872173657376000,8.7933759765625,-0.05307234823703766,0.4495374858379364,-1.099975347518921
1772872173667310000,8.80331005859375,-0.10390330106019974,0.15534816682338715,-0.8886743187904358
1772872173677243000,8.813242919921874,-0.1024785041809082,0.044134471565485,-0.4527527391910553
1772872173687176000,8.823176025390625,-0.0648440420627594,-0.01802370510995388,0.03445897996425629
1772872173697110000,8.833110107421875,0.025185851380228996,-0.04342567175626755,0.39823558926582336
1772872173707042800,8.843042724609376,0.10545752197504044,-0.03916355222463608,0.6049922108650208
1772872173716975900,8.852975830078124,0.14370611310005188,-0.018367290496826172,0.615331768989563
1772872173726910000,8.862909912109375,0.19989162683486938,-0.025867817923426628,0.5274679660797119
1772872173736842800,8.8728427734375,0.27085578441619873,-0.09065482020378113,0.6267532110214233
1772872173746776600,8.882776611328126,0.23150624334812164,-0.1306413859128952,0.9788311123847961
1772872173756709600,8.892709716796874,-0.027913596481084824,-0.12747089564800262,1.3260489702224731
1772872173766642700,8.902642578125,-0.2944161295890808,-0.2666389048099518,1.5920681953430176
1772872173776576800,8.91257666015625,-0.5000761151313782,-0.459454745054245,1.449123501777649
1772872173786509800,8.922509765625,-0.35364830493927,-0.5616591572761536,1.0401819944381714
1772872173796442600,8.932442626953126,0.14345550537109375,-0.3843933343887329,0.6350608468055725
1772872173806376700,8.942376708984375,0.8539053797721863,-0.23878446221351624,0.2525067925453186
1772872173816309800,8.952309814453125,1.4042327404022217,-0.6668869256973267,-0.10717698186635971
1772872173826243600,8.96224365234375,1.4015458822250366,-1.349934697151184,-0.5174046754837036
1772872173836176600,8.9721767578125,0.7797886729240417,-1.7801077365875244,-0.5769348740577698
1772872173846109700,8.982109619140624,0.11677021533250809,-1.560143232345581,-0.06682977825403214
1772872173856043500,8.99204345703125,-0.29320386052131653,-0.5864915251731873,0.7525732517242432
1772872173865976600,9.0019765625,-0.2938653826713562,0.5452579259872437,1.8492320775985718
1772872173875909600,9.01190966796875,0.051639948040246964,1.4017674922943115,2.9419100284576416
1772872173885843700,9.02184375,0.529774010181427,1.5888950824737549,3.518150568008423
1772872173895776800,9.03177685546875,0.9199514985084534,0.7264138460159302,3.1876718997955322
1772872173905709800,9.041709716796875,1.0278185606002808,-0.825147271156311,1.9291995763778687
1772872173915643600,9.0516435546875,0.878241777420044,-2.2929303646087646,0.3085363507270813
1772872173925576700,9.06157666015625,0.6943914890289307,-3.1333377361297607,-0.9881365299224854
1772872173935510500,9.071510498046875,0.6278851628303528,-3.415043592453003,-1.7924959659576416
1772872173945443600,9.081443603515625,0.6461661458015442,-3.0867152214050293,-1.8775839805603027
1772872173955376600,9.091376708984376,0.6232876181602478,-2.295283555984497,-1.2122801542282104
1772872173965310500,9.101310546875,0.5302839279174805,-1.1042990684509277,-0.2874487638473511
1772872173975243500,9.111243408203125,0.415147066116333,0.2200172394514084,0.3702082633972168
1772872173985176600,9.121176513671875,0.2885523736476898,1.2337220907211304,0.5861660838127136
1772872173995110700,9.131110595703126,0.19065456092357635,1.7069628238677979,0.5121521353721619
1772872174005043700,9.141043701171874,0.03419118374586105,1.5075581073760986,0.2966989576816559
1772872174014977800,9.150977783203125,-0.14873456954956055,0.876373291015625,0.013338437303900719
1772872174024910600,9.16091064453125,-0.32923564314842224,0.15857122838497162,-0.29711848497390747
1772872174034843600,9.17084375,-0.49225956201553345,-0.3144550621509552,-0.610811173915863
1772872174044777700,9.18077783203125,-0.6186502575874329,-0.49522003531455994,-0.8838049173355103
1772872174054710500,9.19071044921875,-0.5699001550674438,-0.39408165216445923,-1.0876389741897583
1772872174064643600,9.2006435546875,-0.31331151723861694,-0.1342756450176239,-1.1651145219802856
1772872174074577700,9.21057763671875,-0.06573768705129623,0.21036837995052338,-1.1399122476577759
1772872174084510500,9.220510498046876,0.02705269865691662,0.6833944916725159,-1.1777435541152954
1772872174094443800,9.23044384765625,-0.008304083719849586,1.1024113893508911,-1.3432728052139282
1772872174104377900,9.2403779296875,-0.16112852096557617,1.256325125694275,-1.4721157550811768
1772872174114310700,9.250310546875,-0.34663859009742737,1.0723713636398315,-1.4374477863311768
1772872174124244700,9.26024462890625,-0.43088316917419434,0.6719746589660645,-1.2088781595230103
1772872174134177800,9.270177734375,-0.3396270275115967,0.20894141495227814,-0.9207761287689209
1772872174144110600,9.280110595703125,-0.15147043764591217,-0.16620290279388428,-0.6832218766212463
1772872174154044700,9.290044677734375,0.15396350622177124,-0.43202564120292664,-0.5258575677871704
1772872174163977700,9.299977783203126,0.4633637070655823,-0.4060632884502411,-0.4300987720489502
1772872174173910500,9.30991064453125,0.6376522183418274,-0.11851447075605392,-0.3481239676475525
1772872174183844600,9.3198447265625,0.6179000735282898,0.2206478863954544,-0.28081390261650085
1772872174193778000,9.32977783203125,0.44626036286354065,0.5056199431419373,-0.2625303566455841
1772872174203710700,9.339710693359375,0.18313604593276978,0.5880053639411926,-0.2625247538089752
1772872174213644800,9.349644775390624,-0.06488809734582901,0.428282231092453,-0.2734620273113251
1772872174223577900,9.359577880859375,-0.24924595654010773,-0.005597845185548067,-0.3235134780406952
1772872174233510700,9.3695107421875,-0.2670680284500122,-0.36148756742477417,-0.1165807768702507
1772872174243444700,9.37944482421875,-0.23259152472019196,-0.7654403448104858,0.1390070617198944
1772872174253377800,9.389377685546876,0.0551581084728241,-0.7549623250961304,0.5448026657104492
1772872174263311600,9.3993115234375,0.2374538779258728,-0.9127618074417114,0.8405770659446716
1772872174273244700,9.40924462890625,0.29025372862815857,-0.9433876276016235,1.0470892190933228
1772872174283177700,9.419177734375,0.23302480578422546,-0.9378567934036255,1.145472764968872
1772872174293111600,9.429111572265626,0.11165469139814377,-0.8799010515213013,1.1580376625061035
1772872174303044900,9.439044921875,0.04009954631328583,-0.7233633995056152,1.0570673942565918
1772872174312977700,9.448977783203125,0.15725146234035492,-0.5221400856971741,0.9242609143257141
1772872174322911700,9.458911865234375,0.18682213127613068,-0.12384890019893646,0.753312885761261
1772872174332844800,9.4688447265625,0.08187521994113922,0.3459360599517822,0.4930521249771118
1772872174342777900,9.47877783203125,0.007121619768440723,0.5478870868682861,0.04039226099848747
1772872174352711700,9.488711669921875,0.05753191560506821,0.4017687439918518,-0.6048523783683777
1772872174362644700,9.498644775390625,0.1705618053674698,0.027105405926704407,-1.1773039102554321
1772872174372578600,9.50857861328125,0.15041914582252502,-0.2781606614589691,-1.4762721061706543
1772872174382511600,9.51851171875,-0.014760499820113182,-0.2644736170768738,-1.5759785175323486
1772872174392444700,9.528444580078125,-0.11405488848686218,-0.1195608451962471,-1.5711781978607178
1772872174402378800,9.538378662109375,0.007995122112333775,-0.27796778082847595,-1.1772311925888062
1772872174412311800,9.548311767578125,0.2907406985759735,-0.7077342867851257,-0.34158197045326233
1772872174422244900,9.558244873046876,0.10301339626312256,-1.0648975372314453,0.3705931007862091
1772872174432178700,9.5681787109375,-0.4641319513320923,-1.361570954322815,0.6822819113731384
1772872174442111700,9.57811181640625,-0.9445872902870178,-1.5316095352172852,0.796181321144104
1772872174452044800,9.588044921875,-1.0900559425354004,-1.3745204210281372,0.8597472906112671
1772872174461978600,9.597978515625,-0.9435946345329285,-0.6912065744400024,0.8152725100517273
1772872174471911700,9.60791162109375,-0.6838738918304443,0.3803778290748596,0.816444993019104
1772872174481845500,9.617845458984375,-0.31061747670173645,1.3063595294952393,1.0407260656356812
1772872174491778600,9.627778564453125,0.020721152424812317,1.8930584192276,1.3684297800064087
1772872174501711600,9.637711669921876,0.16009555757045746,2.0350210666656494,1.5396894216537476
1772872174511645700,9.647645751953124,0.08014469593763351,1.7107981443405151,1.432077169418335
1772872174521578800,9.657578857421875,-0.07679565250873566,1.0189584493637085,1.116538643836975
1772872174531511800,9.66751171875,-0.1737072765827179,0.3565535247325897,0.8334760665893555
1772872174541445600,9.677445556640626,-0.21020163595676422,0.28824904561042786,0.9190815091133118
1772872174551378700,9.687378662109374,-0.10082576423883438,0.5308292508125305,1.1174331903457642
1772872174561311700,9.697311767578125,-0.030664516612887383,0.21590164303779602,0.6970188021659851
1772872174571245600,9.70724560546875,-0.10945599526166916,-0.33706310391426086,-0.02786685898900032
1772872174581178600,9.7171787109375,-0.3196403682231903,-0.563327968120575,-0.5563280582427979
1772872174591112700,9.72711279296875,-0.5610899925231934,-0.43229037523269653,-0.7184592485427856
1772872174601045500,9.73704541015625,-0.7157869338989258,-0.17417310178279877,-0.7236420512199402
1772872174610978600,9.746978515625,-0.6873791217803955,-0.015089226886630058,-0.8870900273323059
1772872174620913000,9.756912841796876,-0.4765070974826813,0.11719584465026855,-1.2451390027999878
1772872174630845700,9.766845703125,-0.21332873404026031,0.21496862173080444,-1.5862754583358765
1772872174640778800,9.77677880859375,0.02913077175617218,0.14110903441905975,-1.7381536960601807
1772872174650712800,9.786712890625,0.21768470108509064,0.015330011025071144,-1.5251424312591553
1772872174660645600,9.796645751953125,0.2938489615917206,-0.05957192927598953,-0.8997552394866943
1772872174670578700,9.80657861328125,0.28485655784606934,0.02966667339205742,-0.16350996494293213
1772872174680512800,9.8165126953125,0.20380084216594696,0.1382269710302353,0.35464373230934143
1772872174690445600,9.826445556640625,0.18363314867019653,0.2651723325252533,0.5292282700538635
1772872174700378600,9.836378662109375,0.16220057010650635,0.3734537959098816,0.478649765253067
1772872174710312700,9.846312744140626,0.11943364888429642,0.47120121121406555,0.3171307444572449
1772872174720245500,9.85624560546875,0.04545129835605621,0.5363588929176331,0.17066673934459686
1772872174730179800,9.866179931640625,-0.007282364182174206,0.46554356813430786,0.11582714319229126
1772872174740113000,9.87611279296875,-0.05801451951265335,0.2720170021057129,0.1795525848865509
1772872174750045700,9.886045654296876,-0.12862250208854675,0.08833377063274384,0.39347124099731445
1772872174759980000,9.89597998046875,-0.17530426383018494,-0.19753925502300262,0.2868582606315613
1772872174769912800,9.905912841796875,-0.1855170875787735,-0.3622314929962158,0.1126525029540062
1772872174779846000,9.915845947265625,-0.07895868271589279,-0.38744470477104187,0.035589415580034256
1772872174789780000,9.925780029296876,0.08774533122777939,-0.3088071048259735,0.1911104917526245
1772872174799713000,9.935713134765624,0.21083052456378937,-0.17208413779735565,0.5281106233596802
1772872174809645800,9.945645751953125,0.2655910849571228,-0.03149677440524101,0.8911786675453186
1772872174819580000,9.955579833984375,0.2365293651819229,0.08258558809757233,1.1246699094772339
1772872174829513000,9.965512939453125,0.14333483576774597,0.048191819339990616,1.135072112083435
