time,seconds_elapsed,z,y,x
1772807049918083800,0.062083740234375,-0.9977569580078125,-0.0219573974609375,-0.0229644775390625
1772807049928016000,0.072015869140625,-0.9888153076171875,-0.0226593017578125,-0.0182037353515625
1772807049937947000,0.08194677734375,-0.996368408203125,-0.0242462158203125,-0.0257110595703125
1772807049947879000,0.09187890625,-1.0016632080078125,-0.02301025390625,-0.0279541015625
1772807049957811000,0.10181103515625,-0.9941558837890625,-0.026519775390625,-0.0217132568359375
1772807049967743000,0.111742919921875,-0.9921875,-0.0254974365234375,-0.0200347900390625
1772807049977673700,0.121673828125,-1,-0.0244598388671875,-0.0229644775390625
1772807049987605800,0.131605712890625,-0.9976348876953125,-0.0243682861328125,-0.0197296142578125
1772807049997537800,0.141537841796875,-0.9930267333984375,-0.0253753662109375,-0.0180816650390625
1772807050007469000,0.151468994140625,-0.9969635009765625,-0.023681640625,-0.0225677490234375
1772807050017401000,0.161401123046875,-0.997314453125,-0.0224761962890625,-0.0260467529296875
1772807050027332900,0.171332763671875,-0.99432373046875,-0.0228118896484375,-0.024566650390625
1772807050037265000,0.181264892578125,-0.994140625,-0.021026611328125,-0.0251007080078125
1772807050047196000,0.19119580078125,-0.998321533203125,-0.020233154296875,-0.0259552001953125
1772807050057128000,0.2011279296875,-0.9947509765625,-0.019012451171875,-0.022674560546875
1772807050067060000,0.21106005859375,-0.993499755859375,-0.0196685791015625,-0.020477294921875
1772807050076990700,0.22099072265625,-0.99554443359375,-0.01934814453125,-0.022552490234375
1772807050086923000,0.230923095703125,-0.9945831298828125,-0.0205841064453125,-0.022064208984375
1772807050096855000,0.24085498046875,-0.9935455322265625,-0.0217132568359375,-0.02215576171875
1772807050106787000,0.250787109375,-0.9966583251953125,-0.02166748046875,-0.023040771484375
1772807050116717800,0.2607177734375,-0.9978485107421875,-0.0219573974609375,-0.021942138671875
1772807050126649900,0.27064990234375,-0.9939727783203125,-0.0234832763671875,-0.0221710205078125
1772807050136582000,0.280581787109375,-0.9962005615234375,-0.0225372314453125,-0.022979736328125
1772807050146513000,0.290512939453125,-0.9966888427734375,-0.02374267578125,-0.0236663818359375
1772807050156444700,0.300444580078125,-0.9948577880859375,-0.023040771484375,-0.02410888671875
1772807050166376700,0.310376708984375,-0.99603271484375,-0.0228424072265625,-0.0220947265625
1772807050176309000,0.32030908203125,-0.9958648681640625,-0.0232086181640625,-0.024658203125
1772807050186240000,0.330239990234375,-0.9961700439453125,-0.0223846435546875,-0.0225372314453125
1772807050196171800,0.340171875,-0.9960479736328125,-0.0225677490234375,-0.022247314453125
1772807050206103800,0.350103759765625,-0.9959869384765625,-0.0234375,-0.021209716796875
1772807050216034800,0.360034912109375,-0.99591064453125,-0.0223236083984375,-0.0207061767578125
1772807050225966800,0.369966796875,-0.995147705078125,-0.0211639404296875,-0.0220794677734375
1772807050235899000,0.37989892578125,-0.9942169189453125,-0.022003173828125,-0.023651123046875
1772807050245830700,0.38983056640625,-0.9947357177734375,-0.022247314453125,-0.0258636474609375
1772807050255762000,0.399761962890625,-0.995330810546875,-0.021240234375,-0.0230255126953125
1772807050265694000,0.40969384765625,-0.996490478515625,-0.021575927734375,-0.023529052734375
1772807050275626000,0.4196259765625,-0.9963531494140625,-0.0218048095703125,-0.0209808349609375
1772807050285556700,0.429556640625,-0.9961395263671875,-0.0219573974609375,-0.02203369140625
1772807050295488800,0.43948876953125,-0.99615478515625,-0.020416259765625,-0.0207061767578125
1772807050305420800,0.4494208984375,-0.9953155517578125,-0.0210418701171875,-0.0217437744140625
1772807050315352800,0.459352783203125,-0.9954071044921875,-0.021636962890625,-0.024444580078125
1772807050325283800,0.469283935546875,-0.993682861328125,-0.0205535888671875,-0.024169921875
1772807050335215900,0.4792158203125,-0.9957122802734375,-0.022186279296875,-0.023040771484375
1772807050345148000,0.48914794921875,-0.9967803955078125,-0.020751953125,-0.0219879150390625
1772807050355079000,0.499078857421875,-0.995819091796875,-0.0219879150390625,-0.0221099853515625
1772807050365011000,0.509010986328125,-0.99658203125,-0.02191162109375,-0.0220184326171875
1772807050374942700,0.518942626953125,-0.9962005615234375,-0.0218048095703125,-0.0238494873046875
1772807050384874800,0.528874755859375,-0.9976806640625,-0.022552490234375,-0.024749755859375
1772807050394806000,0.538805908203125,-0.995025634765625,-0.0225372314453125,-0.0242156982421875
1772807050404738000,0.548738037109375,-0.9951629638671875,-0.022491455078125,-0.0234527587890625
1772807050414670000,0.558670166015625,-0.9965362548828125,-0.022003173828125,-0.0213165283203125
1772807050424600800,0.568600830078125,-0.9952392578125,-0.024169921875,-0.02001953125
1772807050434532900,0.578532958984375,-0.9967193603515625,-0.022491455078125,-0.0196075439453125
1772807050444465000,0.58846484375,-0.9955291748046875,-0.0229034423828125,-0.0235595703125
1772807050454397000,0.59839697265625,-0.9948272705078125,-0.023101806640625,-0.0240325927734375
1772807050464328000,0.608327880859375,-0.996307373046875,-0.022796630859375,-0.026031494140625
1772807050474260000,0.618260009765625,-0.9952239990234375,-0.021331787109375,-0.0238037109375
1772807050484192000,0.62819189453125,-0.994842529296875,-0.023040771484375,-0.0235137939453125
1772807050494124000,0.6381240234375,-0.995819091796875,-0.0223846435546875,-0.0216522216796875
1772807050504054800,0.6480546875,-0.995513916015625,-0.021514892578125,-0.020721435546875
1772807050513986800,0.65798681640625,-0.995513916015625,-0.021636962890625,-0.02197265625
1772807050523918800,0.6679189453125,-0.996307373046875,-0.02325439453125,-0.0238494873046875
1772807050533849900,0.677849853515625,-0.9945831298828125,-0.0212249755859375,-0.0236358642578125
1772807050543781600,0.68778173828125,-0.9976043701171875,-0.0211639404296875,-0.02471923828125
1772807050553714000,0.6977138671875,-0.9963836669921875,-0.021575927734375,-0.0230560302734375
1772807050563645700,0.707645751953125,-0.996124267578125,-0.02117919921875,-0.02459716796875
1772807050573577500,0.717577392578125,-0.9963836669921875,-0.02166748046875,-0.0225677490234375
1772807050583509500,0.727509521484375,-0.99688720703125,-0.02142333984375,-0.0215606689453125
1772807050593441500,0.737441650390625,-0.9959869384765625,-0.022216796875,-0.02325439453125
1772807050603372500,0.74737255859375,-0.9958343505859375,-0.0214691162109375,-0.0225830078125
1772807050613304600,0.7573046875,-0.9964447021484375,-0.02313232421875,-0.0219573974609375
1772807050623236400,0.767236328125,-0.995880126953125,-0.0232391357421875,-0.022857666015625
1772807050633167600,0.777167724609375,-0.996307373046875,-0.0228729248046875,-0.02325439453125
1772807050643099600,0.787099609375,-0.99688720703125,-0.0223846435546875,-0.022705078125
1772807050653031700,0.79703173828125,-0.9968414306640625,-0.0239410400390625,-0.02313232421875
1772807050662963500,0.80696337890625,-0.996917724609375,-0.0232086181640625,-0.024169921875
1772807050672894500,0.81689453125,-0.995086669921875,-0.02264404296875,-0.024139404296875
1772807050682826500,0.826826416015625,-0.9962005615234375,-0.0215911865234375,-0.024871826171875
1772807050692758500,0.836758544921875,-0.99609375,-0.0211944580078125,-0.0242767333984375
1772807050702689500,0.846689453125,-0.99468994140625,-0.0212860107421875,-0.0244598388671875
1772807050712621600,0.85662158203125,-0.9961090087890625,-0.019927978515625,-0.021759033203125
1772807050722553600,0.8665537109375,-0.9958038330078125,-0.02001953125,-0.020416259765625
1772807050732485600,0.876485595703125,-0.99560546875,-0.0215301513671875,-0.021514892578125
1772807050742416400,0.88641650390625,-0.9958038330078125,-0.0206756591796875,-0.0244293212890625
1772807050752348400,0.896348388671875,-0.9959869384765625,-0.0207672119140625,-0.0233612060546875
1772807050762280400,0.906280517578125,-0.9966583251953125,-0.0193939208984375,-0.024688720703125
1772807050772211500,0.91621142578125,-0.99530029296875,-0.0209197998046875,-0.02374267578125
1772807050782143500,0.9261435546875,-0.9963226318359375,-0.022369384765625,-0.0242156982421875
1772807050792075500,0.936075439453125,-0.995941162109375,-0.020660400390625,-0.02227783203125
1772807050802007600,0.946007568359375,-0.9943695068359375,-0.0204010009765625,-0.022216796875
1772807050811938600,0.9559384765625,-0.996612548828125,-0.0221710205078125,-0.021484375
1772807050821870600,0.96587060546875,-0.995819091796875,-0.0217132568359375,-0.0215911865234375
1772807050831802600,0.975802734375,-0.9956207275390625,-0.0239715576171875,-0.0226898193359375
1772807050841733400,0.9857333984375,-0.9957427978515625,-0.0238494873046875,-0.024383544921875
1772807050851665400,0.99566552734375,-0.99603271484375,-0.0223236083984375,-0.0227508544921875
1772807050861597400,1.005597412109375,-0.99713134765625,-0.0236053466796875,-0.0222930908203125
1772807050871529500,1.015529541015625,-0.9961700439453125,-0.0234832763671875,-0.0220489501953125
1772807050881460500,1.02546044921875,-0.9957275390625,-0.0240631103515625,-0.0221710205078125
1772807050891392500,1.035392578125,-0.994476318359375,-0.0228424072265625,-0.0238189697265625
1772807050901324500,1.045324462890625,-0.9957275390625,-0.0203094482421875,-0.022064208984375
1772807050911255600,1.055255615234375,-0.995758056640625,-0.02142333984375,-0.0233306884765625
1772807050921187300,1.065187255859375,-0.99578857421875,-0.0208587646484375,-0.0215606689453125
1772807050931119400,1.075119384765625,-0.9955902099609375,-0.0204315185546875,-0.0217132568359375
1772807050941051400,1.085051513671875,-0.9971771240234375,-0.01910400390625,-0.023040771484375
1772807050950982700,1.094982666015625,-0.9968414306640625,-0.0198211669921875,-0.023040771484375
1772807050960914700,1.104914794921875,-0.9956512451171875,-0.0200347900390625,-0.0229034423828125
1772807050970846500,1.114846435546875,-0.995361328125,-0.0195770263671875,-0.023529052734375
1772807050980777500,1.124777587890625,-0.995147705078125,-0.0207672119140625,-0.024871826171875
1772807050990709500,1.13470947265625,-0.9962158203125,-0.0207366943359375,-0.0240478515625
1772807051000641500,1.1446416015625,-0.9951934814453125,-0.02227783203125,-0.023468017578125
1772807051010573300,1.1545732421875,-0.9962615966796875,-0.0221405029296875,-0.02166748046875
1772807051020504600,1.164504638671875,-0.9945831298828125,-0.022735595703125,-0.0213165283203125
1772807051030436600,1.1744365234375,-0.99664306640625,-0.0228424072265625,-0.021728515625
1772807051040368600,1.18436865234375,-0.9971160888671875,-0.0240325927734375,-0.0201416015625
1772807051050299400,1.19429931640625,-0.99591064453125,-0.02471923828125,-0.0236358642578125
1772807051060231400,1.2042314453125,-0.99578857421875,-0.0227508544921875,-0.023468017578125
1772807051070163500,1.21416357421875,-0.9955291748046875,-0.0221710205078125,-0.0229034423828125
1772807051080095500,1.224095458984375,-0.995849609375,-0.022735595703125,-0.02362060546875
1772807051090026500,1.234026611328125,-0.9957275390625,-0.022308349609375,-0.0233917236328125
1772807051099958500,1.24395849609375,-0.9958038330078125,-0.02178955078125,-0.0236663818359375
1772807051109890600,1.253890625,-0.99664306640625,-0.02130126953125,-0.0233917236328125
1772807051119821600,1.263821533203125,-0.9958648681640625,-0.021453857421875,-0.02301025390625
1772807051129753600,1.273753662109375,-0.995391845703125,-0.019927978515625,-0.0236053466796875
1772807051139685400,1.283685302734375,-0.9964599609375,-0.01934814453125,-0.021881103515625
1772807051149617400,1.293617431640625,-0.9961395263671875,-0.0197296142578125,-0.0216064453125
1772807051159548400,1.30354833984375,-0.9953460693359375,-0.020233154296875,-0.0218048095703125
1772807051169480400,1.31348046875,-0.9950408935546875,-0.019775390625,-0.02264404296875
1772807051179412500,1.32341259765625,-0.996124267578125,-0.019927978515625,-0.0240478515625
1772807051189343500,1.333343505859375,-0.99639892578125,-0.0198974609375,-0.0239715576171875
1772807051199275500,1.343275634765625,-0.996124267578125,-0.0212860107421875,-0.0253448486328125
1772807051209207600,1.35320751953125,-0.9953155517578125,-0.0212860107421875,-0.0230865478515625
1772807051219138300,1.36313818359375,-0.9964599609375,-0.022613525390625,-0.0225830078125
1772807051229070300,1.3730703125,-0.9962158203125,-0.023773193359375,-0.021942138671875
1772807051239002400,1.38300244140625,-0.99505615234375,-0.02264404296875,-0.0208892822265625
1772807051248934400,1.392934326171875,-0.9952545166015625,-0.0254669189453125,-0.021636962890625
1772807051258865700,1.40286572265625,-0.9959716796875,-0.0233917236328125,-0.0211181640625
1772807051268797400,1.41279736328125,-0.9967803955078125,-0.024017333984375,-0.02239990234375
1772807051278729500,1.4227294921875,-0.99627685546875,-0.024444580078125,-0.023162841796875
1772807051288661500,1.43266162109375,-0.99652099609375,-0.0229034423828125,-0.0233917236328125
1772807051298592500,1.442592529296875,-0.9957122802734375,-0.0228424072265625,-0.02203369140625
1772807051308524500,1.452524658203125,-0.996368408203125,-0.0216827392578125,-0.02410888671875
1772807051318456300,1.462456298828125,-0.99420166015625,-0.02197265625,-0.024688720703125
1772807051328387600,1.4723876953125,-0.9966278076171875,-0.02032470703125,-0.0229949951171875
1772807051338319600,1.482319580078125,-0.996734619140625,-0.0207672119140625,-0.0234375
1772807051348251600,1.492251708984375,-0.9947509765625,-0.021881103515625,-0.0234375
1772807051358183400,1.502183349609375,-0.9954376220703125,-0.019622802734375,-0.0228271484375
1772807051368114400,1.512114501953125,-0.9969329833984375,-0.019927978515625,-0.02203369140625
1772807051378046500,1.52204638671875,-0.99639892578125,-0.0194854736328125,-0.0227813720703125
1772807051387978500,1.531978515625,-0.9962921142578125,-0.0200653076171875,-0.02294921875
1772807051397909500,1.541909423828125,-0.99591064453125,-0.02191162109375,-0.02398681640625
1772807051407841500,1.551841552734375,-0.997100830078125,-0.021881103515625,-0.022735595703125
1772807051417773600,1.561773681640625,-0.9952545166015625,-0.021942138671875,-0.0233306884765625
1772807051427704600,1.57170458984375,-0.996002197265625,-0.02288818359375,-0.024017333984375
1772807051437636600,1.58163671875,-0.9946136474609375,-0.021942138671875,-0.0221710205078125
1772807051447568400,1.591568359375,-0.995880126953125,-0.0231781005859375,-0.0208892822265625
1772807051457500400,1.60150048828125,-0.9958953857421875,-0.0240631103515625,-0.0218963623046875
1772807051467431400,1.611431396484375,-0.9954681396484375,-0.0235595703125,-0.021820068359375
1772807051477363700,1.62136376953125,-0.9961700439453125,-0.0238037109375,-0.0225677490234375
1772807051487295500,1.63129541015625,-0.996795654296875,-0.0225830078125,-0.026153564453125
1772807051497226500,1.6412265625,-0.99578857421875,-0.0224151611328125,-0.0251312255859375
1772807051507158500,1.651158447265625,-0.9958343505859375,-0.0224151611328125,-0.02392578125
1772807051517090600,1.661090576171875,-0.9949951171875,-0.0220184326171875,-0.0242919921875
1772807051527022600,1.671022705078125,-0.99560546875,-0.021453857421875,-0.022796630859375
1772807051536953300,1.680953369140625,-0.9956512451171875,-0.0207672119140625,-0.022247314453125
1772807051546885400,1.690885498046875,-0.995697021484375,-0.020538330078125,-0.0231170654296875
1772807051556817400,1.7008173828125,-0.9954833984375,-0.0200653076171875,-0.0228271484375
1772807051566748200,1.710748046875,-0.9969024658203125,-0.0184173583984375,-0.0244598388671875
1772807051576680200,1.72068017578125,-0.9954376220703125,-0.0190277099609375,-0.0243682861328125
1772807051586612200,1.7306123046875,-0.99725341796875,-0.0192718505859375,-0.024200439453125
1772807051596544300,1.740544189453125,-0.9945068359375,-0.0201416015625,-0.0229949951171875
1772807051606475300,1.750475341796875,-0.995513916015625,-0.0217742919921875,-0.02081298828125
1772807051616407000,1.760406982421875,-0.9958343505859375,-0.0219879150390625,-0.0223846435546875
1772807051626339000,1.770339111328125,-0.9959869384765625,-0.02276611328125,-0.022918701171875
1772807051636270300,1.780270263671875,-0.9966583251953125,-0.0235595703125,-0.0235595703125
1772807051646202400,1.790202392578125,-0.995147705078125,-0.024658203125,-0.0239105224609375
1772807051656134400,1.800134521484375,-0.995819091796875,-0.0228118896484375,-0.022125244140625
1772807051666066200,1.810066162109375,-0.995849609375,-0.022186279296875,-0.02203369140625
1772807051675997200,1.8199970703125,-0.9965667724609375,-0.0230255126953125,-0.0225982666015625
1772807051685929200,1.82992919921875,-0.9965362548828125,-0.022857666015625,-0.023834228515625
1772807051695861200,1.839861328125,-0.9952239990234375,-0.0228271484375,-0.023406982421875
1772807051705792300,1.849792236328125,-0.9957733154296875,-0.0230255126953125,-0.0227813720703125
1772807051715724300,1.859724365234375,-0.9952392578125,-0.021820068359375,-0.0253448486328125
1772807051725656300,1.86965625,-0.997161865234375,-0.021484375,-0.0220184326171875
1772807051735588400,1.87958837890625,-0.9968414306640625,-0.0209808349609375,-0.022796630859375
1772807051745519000,1.88951904296875,-0.9968414306640625,-0.02130126953125,-0.022674560546875
1772807051755451100,1.899451171875,-0.994293212890625,-0.021026611328125,-0.0209503173828125
1772807051765383200,1.909383056640625,-0.99566650390625,-0.02056884765625,-0.0216064453125
1772807051775314400,1.919314453125,-0.99603271484375,-0.0204315185546875,-0.0238037109375
1772807051785246200,1.92924609375,-0.9958648681640625,-0.0206298828125,-0.02301025390625
1772807051795178200,1.93917822265625,-0.9954681396484375,-0.0217742919921875,-0.0233917236328125
1772807051805110300,1.9491103515625,-0.993194580078125,-0.0209503173828125,-0.0234222412109375
1772807051815041300,1.959041259765625,-0.994384765625,-0.0220184326171875,-0.023284912109375
1772807051824973300,1.968973388671875,-0.9955902099609375,-0.0207977294921875,-0.0247955322265625
1772807051834905000,1.978905029296875,-0.996734619140625,-0.0222930908203125,-0.0227203369140625
1772807051844836400,1.98883642578125,-0.9958343505859375,-0.0227508544921875,-0.0231781005859375
1772807051854768400,1.998768310546875,-0.995391845703125,-0.0235748291015625,-0.0227508544921875
1772807051864700400,2.008700439453125,-0.9969024658203125,-0.021942138671875,-0.0229339599609375
1772807051874631200,2.018631103515625,-0.996307373046875,-0.024658203125,-0.0228729248046875
1772807051884563200,2.028563232421875,-0.995941162109375,-0.0238800048828125,-0.0208740234375
1772807051894495200,2.0384951171875,-0.996734619140625,-0.021453857421875,-0.02294921875
1772807051904427300,2.04842724609375,-0.9951629638671875,-0.0216217041015625,-0.0221099853515625
1772807051914358000,2.05835791015625,-0.996246337890625,-0.024444580078125,-0.0227813720703125
1772807051924290300,2.068290283203125,-0.996307373046875,-0.0224761962890625,-0.024627685546875
1772807051934222300,2.078222412109375,-0.995452880859375,-0.02166748046875,-0.023651123046875
1772807051944153300,2.0881533203125,-0.9952239990234375,-0.0205535888671875,-0.0232391357421875
1772807051954085400,2.09808544921875,-0.9954376220703125,-0.02056884765625,-0.022003173828125
1772807051964017200,2.10801708984375,-0.996795654296875,-0.020721435546875,-0.024139404296875
1772807051973949200,2.11794921875,-0.9955902099609375,-0.02008056640625,-0.022308349609375
1772807051983880200,2.127880126953125,-0.994659423828125,-0.0212249755859375,-0.021087646484375
1772807051993812200,2.137812255859375,-0.996307373046875,-0.0214385986328125,-0.02197265625
1772807052003744300,2.147744140625,-0.994232177734375,-0.0214691162109375,-0.0213470458984375
1772807052013675300,2.15767529296875,-0.9966888427734375,-0.02215576171875,-0.02264404296875
1772807052023607300,2.167607177734375,-0.9952392578125,-0.02099609375,-0.0214080810546875
1772807052033539300,2.177539306640625,-0.995391845703125,-0.0216827392578125,-0.0232696533203125
1772807052043471400,2.187471435546875,-0.994476318359375,-0.022125244140625,-0.023040771484375
1772807052053402000,2.197402099609375,-0.997406005859375,-0.022674560546875,-0.022186279296875
1772807052063334100,2.207334228515625,-0.996307373046875,-0.0222930908203125,-0.0225372314453125
1772807052073266200,2.21726611328125,-0.99664306640625,-0.0224456787109375,-0.02203369140625
1772807052083197400,2.227197509765625,-0.9931640625,-0.022705078125,-0.0231170654296875
1772807052093129200,2.237129150390625,-0.9970703125,-0.0204010009765625,-0.024078369140625
1772807052103061200,2.247061279296875,-0.99566650390625,-0.020263671875,-0.021484375
1772807052112993300,2.2569931640625,-0.9962615966796875,-0.0220184326171875,-0.0210723876953125
1772807052122924300,2.26692431640625,-0.9954376220703125,-0.02166748046875,-0.02154541015625
1772807052132856300,2.276856201171875,-0.9963531494140625,-0.022430419921875,-0.0234375
1772807052142788000,2.2867880859375,-0.996551513671875,-0.020477294921875,-0.022918701171875
1772807052152719400,2.29671923828125,-0.9955902099609375,-0.0212860107421875,-0.0225830078125
1772807052162651400,2.3066513671875,-0.9957733154296875,-0.022857666015625,-0.0230255126953125
1772807052172583400,2.31658349609375,-0.995025634765625,-0.021881103515625,-0.0225830078125
1772807052182515200,2.32651513671875,-0.9952850341796875,-0.021148681640625,-0.0223846435546875
1772807052192446200,2.3364462890625,-0.9957733154296875,-0.0220947265625,-0.021209716796875
1772807052202378200,2.346378173828125,-0.9965667724609375,-0.0214691162109375,-0.021209716796875
1772807052212310300,2.356310302734375,-0.9946441650390625,-0.0206756591796875,-0.0218505859375
1772807052222241300,2.3662412109375,-0.995880126953125,-0.0217742919921875,-0.0233612060546875
1772807052232173300,2.37617333984375,-0.9975128173828125,-0.021514892578125,-0.0247802734375
1772807052242105300,2.386105224609375,-0.99627685546875,-0.0228729248046875,-0.02471923828125
1772807052252037400,2.396037353515625,-0.9965972900390625,-0.023834228515625,-0.02252197265625
1772807052261968100,2.405968017578125,-0.9945526123046875,-0.022430419921875,-0.0224609375
1772807052271900200,2.415900146484375,-0.996063232421875,-0.0225677490234375,-0.0218505859375
1772807052281832200,2.425832275390625,-0.9961395263671875,-0.021575927734375,-0.02288818359375
1772807052291763200,2.43576318359375,-0.994384765625,-0.0231781005859375,-0.022918701171875
1772807052301695200,2.4456953125,-0.996795654296875,-0.0237884521484375,-0.0244903564453125
1772807052311627300,2.455627197265625,-0.995941162109375,-0.021148681640625,-0.02301025390625
1772807052321558300,2.465558349609375,-0.9954986572265625,-0.0223236083984375,-0.0204315185546875
1772807052331490300,2.475490234375,-0.9951171875,-0.0227813720703125,-0.0210113525390625
1772807052341422300,2.48542236328125,-0.996246337890625,-0.0227813720703125,-0.0210723876953125
1772807052351354400,2.495354248046875,-0.996429443359375,-0.0235137939453125,-0.0213623046875
1772807052361285000,2.50528515625,-0.9969482421875,-0.023162841796875,-0.021453857421875
1772807052371217200,2.515217041015625,-0.9957275390625,-0.022125244140625,-0.02349853515625
1772807052381149200,2.525149169921875,-0.996795654296875,-0.022003173828125,-0.0245513916015625
1772807052391080200,2.535080078125,-0.9960174560546875,-0.0220184326171875,-0.0243072509765625
1772807052401012200,2.54501220703125,-0.9949493408203125,-0.02166748046875,-0.0226898193359375
1772807052410944300,2.5549443359375,-0.9965972900390625,-0.02197265625,-0.023223876953125
1772807052420876300,2.564876220703125,-0.994354248046875,-0.0207366943359375,-0.0222320556640625
1772807052430807300,2.574807373046875,-0.9953765869140625,-0.0205841064453125,-0.021759033203125
1772807052440739000,2.584739013671875,-0.9954681396484375,-0.0194244384765625,-0.023101806640625
1772807052450671000,2.594671142578125,-0.9956207275390625,-0.0201568603515625,-0.0230712890625
1772807052460602400,2.604602294921875,-0.9973602294921875,-0.020233154296875,-0.0216064453125
1772807052470534400,2.614534423828125,-0.9965362548828125,-0.0204925537109375,-0.0226287841796875
1772807052480466400,2.624466552734375,-0.9948883056640625,-0.0211181640625,-0.021148681640625
1772807052490398200,2.634398193359375,-0.9954986572265625,-0.0203857421875,-0.02130126953125
1772807052500329200,2.6443291015625,-0.9961090087890625,-0.022003173828125,-0.0234832763671875
1772807052510261200,2.65426123046875,-0.99749755859375,-0.022613525390625,-0.0219879150390625
1772807052520193300,2.664193359375,-0.9958953857421875,-0.0222320556640625,-0.023193359375
1772807052530124300,2.674124267578125,-0.9951324462890625,-0.0234222412109375,-0.023468017578125
1772807052540056300,2.684056396484375,-0.99676513671875,-0.023162841796875,-0.0244140625
1772807052549988400,2.69398828125,-0.9952239990234375,-0.022735595703125,-0.0227813720703125
1772807052559919600,2.703919677734375,-0.9952392578125,-0.0227813720703125,-0.0216217041015625
1772807052569850400,2.713850341796875,-0.9963226318359375,-0.0230255126953125,-0.019866943359375
1772807052579782400,2.723782470703125,-0.9966888427734375,-0.0211944580078125,-0.0220947265625
1772807052589714400,2.73371435546875,-0.9942779541015625,-0.022247314453125,-0.02264404296875
1772807052599645700,2.743645751953125,-0.995330810546875,-0.0216064453125,-0.02325439453125
1772807052609577700,2.75357763671875,-0.9955291748046875,-0.0207366943359375,-0.0222625732421875
1772807052619509500,2.763509521484375,-0.996673583984375,-0.02203369140625,-0.0224456787109375
1772807052629441500,2.773441650390625,-0.99578857421875,-0.0223236083984375,-0.0217132568359375
1772807052639372500,2.78337255859375,-0.996551513671875,-0.0214080810546875,-0.0225372314453125
1772807052649304600,2.7933046875,-0.995452880859375,-0.0207977294921875,-0.022308349609375
1772807052659236400,2.803236328125,-0.9959716796875,-0.0205841064453125,-0.022674560546875
1772807052669167600,2.813167724609375,-0.9956817626953125,-0.0201416015625,-0.0243682861328125
1772807052679099600,2.823099609375,-0.997406005859375,-0.020294189453125,-0.0243988037109375
1772807052689031700,2.83303173828125,-0.995208740234375,-0.02093505859375,-0.023468017578125
1772807052698963700,2.842963623046875,-0.995697021484375,-0.020599365234375,-0.021484375
1772807052708894500,2.85289453125,-0.99517822265625,-0.0213775634765625,-0.023345947265625
1772807052718826500,2.862826416015625,-0.9967193603515625,-0.0222320556640625,-0.023895263671875
1772807052728758500,2.872758544921875,-0.996063232421875,-0.0229949951171875,-0.02288818359375
1772807052738689500,2.882689453125,-0.9964141845703125,-0.0231781005859375,-0.02239990234375
1772807052748621600,2.89262158203125,-0.9963226318359375,-0.0221099853515625,-0.0219268798828125
1772807052758553600,2.9025537109375,-0.996002197265625,-0.0223388671875,-0.022186279296875
1772807052768485600,2.912485595703125,-0.996734619140625,-0.02166748046875,-0.0233917236328125
1772807052778416600,2.922416748046875,-0.99591064453125,-0.0233154296875,-0.0216217041015625
1772807052788348400,2.932348388671875,-0.9953765869140625,-0.022308349609375,-0.02154541015625
1772807052798280400,2.942280517578125,-0.9962005615234375,-0.0225067138671875,-0.022186279296875
1772807052808211500,2.95221142578125,-0.9943389892578125,-0.02099609375,-0.0231475830078125
1772807052818143500,2.9621435546875,-0.996734619140625,-0.022186279296875,-0.0235137939453125
1772807052828075500,2.972075439453125,-0.996307373046875,-0.0215301513671875,-0.0240325927734375
1772807052838007600,2.982007568359375,-0.9958953857421875,-0.0204010009765625,-0.02386474609375
1772807052847938600,2.9919384765625,-0.9943695068359375,-0.0215301513671875,-0.0223846435546875
1772807052857870600,3.00187060546875,-0.9969024658203125,-0.0213775634765625,-0.0213775634765625
1772807052867802600,3.011802734375,-0.9962921142578125,-0.020538330078125,-0.0235748291015625
1772807052877733400,3.0217333984375,-0.995880126953125,-0.0212554931640625,-0.0235137939453125
1772807052887665400,3.03166552734375,-0.9959869384765625,-0.0197296142578125,-0.023223876953125
1772807052897597400,3.041597412109375,-0.9957275390625,-0.0199737548828125,-0.0226593017578125
1772807052907529500,3.051529541015625,-0.9954986572265625,-0.0216064453125,-0.0218048095703125
1772807052917460500,3.06146044921875,-0.996337890625,-0.022308349609375,-0.020721435546875
1772807052927392500,3.071392578125,-0.994903564453125,-0.0224609375,-0.0222930908203125
1772807052937324500,3.081324462890625,-0.997039794921875,-0.0230712890625,-0.0222930908203125
1772807052947255600,3.091255615234375,-0.99688720703125,-0.0233154296875,-0.02203369140625
1772807052957187600,3.1011875,-0.9954376220703125,-0.0237274169921875,-0.023345947265625
1772807052967119400,3.111119384765625,-0.996917724609375,-0.0226593017578125,-0.0230560302734375
1772807052977051400,3.121051513671875,-0.9974365234375,-0.0230560302734375,-0.02288818359375
1772807052986982700,3.130982666015625,-0.995391845703125,-0.02252197265625,-0.0227813720703125
1772807052996914700,3.140914794921875,-0.9957733154296875,-0.0212554931640625,-0.021759033203125
1772807053006846500,3.150846435546875,-0.995758056640625,-0.02294921875,-0.0211334228515625
1772807053016777500,3.160777587890625,-0.9969635009765625,-0.022918701171875,-0.0218048095703125
1772807053026709500,3.17070947265625,-0.996124267578125,-0.019989013671875,-0.02252197265625
1772807053036641500,3.1806416015625,-0.995819091796875,-0.019989013671875,-0.0226287841796875
1772807053046573600,3.190573486328125,-0.99468994140625,-0.020721435546875,-0.0230865478515625
1772807053056504600,3.200504638671875,-0.99493408203125,-0.0194549560546875,-0.022674560546875
1772807053066436600,3.2104365234375,-0.995513916015625,-0.0198822021484375,-0.0228729248046875
1772807053076368600,3.22036865234375,-0.994476318359375,-0.0203399658203125,-0.023162841796875
1772807053086299600,3.230299560546875,-0.9954681396484375,-0.0218353271484375,-0.023101806640625
1772807053096231400,3.2402314453125,-0.996612548828125,-0.0222625732421875,-0.0228118896484375
1772807053106163500,3.25016357421875,-0.9959564208984375,-0.0218505859375,-0.0219268798828125
1772807053116095500,3.260095458984375,-0.995361328125,-0.02197265625,-0.0231170654296875
1772807053126026800,3.27002685546875,-0.996124267578125,-0.02099609375,-0.022491455078125
1772807053135958500,3.27995849609375,-0.995513916015625,-0.0219573974609375,-0.022369384765625
1772807053145890600,3.289890625,-0.9958953857421875,-0.023345947265625,-0.02313232421875
1772807053155821600,3.299821533203125,-0.9951629638671875,-0.0222625732421875,-0.0231170654296875
1772807053165753600,3.309753662109375,-0.9957275390625,-0.0230560302734375,-0.024444580078125
1772807053175685600,3.319685546875,-0.99700927734375,-0.023223876953125,-0.023681640625
1772807053185617400,3.329617431640625,-0.9948272705078125,-0.0238037109375,-0.0237884521484375
1772807053195548400,3.33954833984375,-0.9958953857421875,-0.02325439453125,-0.0232086181640625
1772807053205480400,3.34948046875,-0.99481201171875,-0.0226593017578125,-0.0210418701171875
1772807053215412700,3.359412841796875,-0.9957122802734375,-0.021270751953125,-0.0230560302734375
1772807053225343500,3.369343505859375,-0.996124267578125,-0.0216064453125,-0.0222930908203125
1772807053235275500,3.379275634765625,-0.9954071044921875,-0.0215606689453125,-0.0224761962890625
1772807053245207600,3.38920751953125,-0.9959716796875,-0.0208892822265625,-0.024627685546875
1772807053255139600,3.3991396484375,-0.994598388671875,-0.0211944580078125,-0.02178955078125
1772807053265070300,3.4090703125,-0.995635986328125,-0.0198974609375,-0.0230865478515625
1772807053275002400,3.41900244140625,-0.9964141845703125,-0.0207672119140625,-0.0233306884765625
1772807053284934400,3.428934326171875,-0.996551513671875,-0.0210418701171875,-0.0229034423828125
1772807053294865700,3.43886572265625,-0.9970703125,-0.0207061767578125,-0.0234832763671875
1772807053304797700,3.448797607421875,-0.996063232421875,-0.020782470703125,-0.0233612060546875
1772807053314729500,3.4587294921875,-0.9956817626953125,-0.0219573974609375,-0.0231781005859375
1772807053324661500,3.46866162109375,-0.9969482421875,-0.023406982421875,-0.022918701171875
1772807053334592500,3.478592529296875,-0.9955291748046875,-0.022003173828125,-0.02178955078125
1772807053344524500,3.488524658203125,-0.995635986328125,-0.0220794677734375,-0.0212554931640625
1772807053354456300,3.498456298828125,-0.996063232421875,-0.0217742919921875,-0.023193359375
1772807053364387600,3.5083876953125,-0.9955596923828125,-0.0228729248046875,-0.0234375
1772807053374319600,3.518319580078125,-0.995269775390625,-0.0231170654296875,-0.022735595703125
1772807053384251600,3.528251708984375,-0.995147705078125,-0.0236663818359375,-0.02392578125
1772807053394183700,3.53818359375,-0.9959869384765625,-0.0226287841796875,-0.0219268798828125
1772807053404114400,3.548114501953125,-0.994476318359375,-0.0232391357421875,-0.02392578125
1772807053414046500,3.55804638671875,-0.9955902099609375,-0.021148681640625,-0.0229644775390625
1772807053423978500,3.567978515625,-0.9976654052734375,-0.0219879150390625,-0.023956298828125
1772807053433909800,3.57790966796875,-0.9952392578125,-0.022705078125,-0.023040771484375
1772807053443841500,3.587841552734375,-0.9962615966796875,-0.0204315185546875,-0.0231781005859375
1772807053453773600,3.597773681640625,-0.9964752197265625,-0.02117919921875,-0.0233154296875
1772807053463704600,3.60770458984375,-0.99615478515625,-0.0216064453125,-0.02178955078125
1772807053473636600,3.61763671875,-0.995208740234375,-0.019683837890625,-0.023590087890625
1772807053483568400,3.627568359375,-0.9967041015625,-0.0217132568359375,-0.022216796875
1772807053493500400,3.63750048828125,-0.9958648681640625,-0.0215301513671875,-0.0210113525390625
1772807053503431700,3.647431640625,-0.9963226318359375,-0.0217437744140625,-0.0207672119140625
1772807053513363700,3.65736376953125,-0.99658203125,-0.02178955078125,-0.0242462158203125
1772807053523295700,3.667295654296875,-0.9947509765625,-0.0204925537109375,-0.0236358642578125
1772807053533227500,3.6772275390625,-0.9959564208984375,-0.0211944580078125,-0.023529052734375
1772807053543158500,3.687158447265625,-0.9955596923828125,-0.02191162109375,-0.023956298828125
1772807053553090600,3.697090576171875,-0.9961700439453125,-0.023284912109375,-0.02239990234375
1772807053563023400,3.7070234375,-0.995330810546875,-0.0235748291015625,-0.0208740234375
1772807053572954400,3.716954345703125,-0.996368408203125,-0.0237579345703125,-0.022491455078125
1772807053582886400,3.726886474609375,-0.995758056640625,-0.02264404296875,-0.02203369140625
1772807053592818200,3.736818115234375,-0.9957122802734375,-0.0236053466796875,-0.02349853515625
1772807053602750200,3.746750244140625,-0.996337890625,-0.02215576171875,-0.0233154296875
1772807053612681500,3.756681396484375,-0.9970703125,-0.0232696533203125,-0.0220489501953125
1772807053622613500,3.766613525390625,-0.997650146484375,-0.021514892578125,-0.02337646484375
1772807053632545500,3.776545654296875,-0.9962005615234375,-0.022003173828125,-0.020751953125
1772807053642476300,3.786476318359375,-0.9960784912109375,-0.0215911865234375,-0.021575927734375
1772807053652408300,3.796408203125,-0.9964447021484375,-0.02008056640625,-0.0219573974609375
1772807053662340400,3.80634033203125,-0.9943084716796875,-0.0216064453125,-0.0225982666015625
1772807053672272400,3.8162724609375,-0.99530029296875,-0.0211029052734375,-0.0224609375
1772807053682203400,3.826203369140625,-0.994781494140625,-0.0210113525390625,-0.022735595703125
1772807053692135400,3.836135498046875,-0.9964447021484375,-0.0214996337890625,-0.02313232421875
1772807053702067500,3.8460673828125,-0.996246337890625,-0.020111083984375,-0.02313232421875
1772807053711998500,3.85599853515625,-0.9970550537109375,-0.02178955078125,-0.0234527587890625
1772807053721930200,3.86593017578125,-0.996185302734375,-0.022125244140625,-0.0227508544921875
1772807053731862300,3.8758623046875,-0.9955596923828125,-0.0213775634765625,-0.022430419921875
1772807053741794300,3.885794189453125,-0.9951019287109375,-0.021270751953125,-0.02264404296875
1772807053751725300,3.895725341796875,-0.9957733154296875,-0.0216217041015625,-0.0220184326171875
1772807053761657600,3.90565771484375,-0.9959259033203125,-0.023834228515625,-0.022186279296875
1772807053771589400,3.91558935546875,-0.9969635009765625,-0.0223846435546875,-0.0233612060546875
1772807053781520400,3.925520263671875,-0.9951629638671875,-0.021881103515625,-0.024444580078125
1772807053791452400,3.935452392578125,-0.9969940185546875,-0.02166748046875,-0.0235595703125
1772807053801384400,3.945384521484375,-0.9966583251953125,-0.021148681640625,-0.02264404296875
1772807053811316500,3.95531640625,-0.99615478515625,-0.023223876953125,-0.021484375
1772807053821247200,3.965247314453125,-0.995513916015625,-0.0235443115234375,-0.0225677490234375
1772807053831179300,3.97517919921875,-0.9940338134765625,-0.0232391357421875,-0.0214080810546875
1772807053841109200,3.985109130859375,-0.9965972900390625,-0.0213165283203125,-0.022796630859375
1772807053851041300,3.995041259765625,-0.9961700439453125,-0.021484375,-0.02423095703125
1772807053860973300,4.004973388671875,-0.9953155517578125,-0.020782470703125,-0.0229949951171875
1772807053870904300,4.014904296875,-0.9957733154296875,-0.02105712890625,-0.0229034423828125
1772807053880836600,4.024836669921875,-0.9962921142578125,-0.0223846435546875,-0.0229034423828125
1772807053890768400,4.034768310546875,-0.9960174560546875,-0.0202178955078125,-0.0243682861328125
1772807053900700400,4.044700439453125,-0.9964752197265625,-0.0210723876953125,-0.02294921875
1772807053910631400,4.05463134765625,-0.9962921142578125,-0.0220184326171875,-0.022613525390625
1772807053920563500,4.0645634765625,-0.9972381591796875,-0.0222625732421875,-0.0215301513671875
1772807053930495200,4.0744951171875,-0.99566650390625,-0.02191162109375,-0.0224609375
1772807053940426200,4.08442626953125,-0.9958953857421875,-0.0210723876953125,-0.0232696533203125
1772807053950358300,4.094358154296875,-0.9958038330078125,-0.02154541015625,-0.02294921875
1772807053960290300,4.104290283203125,-0.9957122802734375,-0.0214080810546875,-0.0234527587890625
1772807053970222600,4.11422265625,-0.9959564208984375,-0.0223846435546875,-0.0231781005859375
1772807053980153300,4.1241533203125,-0.9969482421875,-0.0233001708984375,-0.0245819091796875
1772807053990085400,4.13408544921875,-0.996337890625,-0.0224609375,-0.024871826171875
1772807054000017400,4.144017333984375,-0.995880126953125,-0.0226593017578125,-0.0223541259765625
1772807054009948400,4.153948486328125,-0.9957733154296875,-0.02349853515625,-0.0234527587890625
1772807054019880200,4.163880126953125,-0.9962615966796875,-0.0220794677734375,-0.0218963623046875
1772807054029812200,4.173812255859375,-0.9958648681640625,-0.0225372314453125,-0.0236358642578125
1772807054039744300,4.183744140625,-0.99560546875,-0.021636962890625,-0.0238037109375
1772807054049675500,4.193675537109375,-0.9952545166015625,-0.0229339599609375,-0.021697998046875
1772807054059607300,4.203607177734375,-0.9946746826171875,-0.0228271484375,-0.022369384765625
1772807054069539300,4.213539306640625,-0.995574951171875,-0.022491455078125,-0.0238037109375
1772807054079471400,4.223471435546875,-0.995819091796875,-0.0220184326171875,-0.0230712890625
1772807054089402400,4.23340234375,-0.996856689453125,-0.02093505859375,-0.022125244140625
1772807054099334400,4.24333447265625,-0.9956512451171875,-0.021240234375,-0.024200439453125
1772807054109266200,4.25326611328125,-0.9956817626953125,-0.02166748046875,-0.0231170654296875
1772807054119197400,4.263197509765625,-0.995391845703125,-0.021881103515625,-0.021514892578125
1772807054129129500,4.27312939453125,-0.99505615234375,-0.019989013671875,-0.0213623046875
1772807054139061500,4.2830615234375,-0.9951629638671875,-0.020751953125,-0.0233306884765625
1772807054148993500,4.29299365234375,-0.996307373046875,-0.019927978515625,-0.023468017578125
1772807054158924300,4.30292431640625,-0.99505615234375,-0.0218658447265625,-0.0217437744140625
1772807054168856300,4.312856201171875,-0.9951019287109375,-0.0217437744140625,-0.02349853515625
1772807054178789400,4.322789306640625,-0.9961700439453125,-0.0207061767578125,-0.0243988037109375
1772807054188720400,4.332720458984375,-0.995697021484375,-0.0235595703125,-0.0230712890625
1772807054198652200,4.342652099609375,-0.994598388671875,-0.0224609375,-0.02166748046875
1772807054208584200,4.352584228515625,-0.997589111328125,-0.0223388671875,-0.0211639404296875
1772807054218515500,4.362515380859375,-0.996826171875,-0.020721435546875,-0.023590087890625
1772807054228447500,4.372447509765625,-0.9954376220703125,-0.02227783203125,-0.0220184326171875
1772807054238379500,4.382379638671875,-0.9952545166015625,-0.0225830078125,-0.0234527587890625
1772807054248311300,4.392311279296875,-0.9962005615234375,-0.0237884521484375,-0.022918701171875
1772807054258242300,4.4022421875,-0.9971771240234375,-0.022552490234375,-0.0225830078125
1772807054268174300,4.41217431640625,-0.9954681396484375,-0.022430419921875,-0.02203369140625
1772807054278106400,4.4221064453125,-0.99676513671875,-0.0209808349609375,-0.02392578125
1772807054288037400,4.432037353515625,-0.99566650390625,-0.0228729248046875,-0.0223236083984375
1772807054297969400,4.441969482421875,-0.9963531494140625,-0.0223236083984375,-0.0236663818359375
1772807054307901400,4.4519013671875,-0.995513916015625,-0.0200347900390625,-0.02423095703125
1772807054317833500,4.46183349609375,-0.996002197265625,-0.0212860107421875,-0.02191162109375
1772807054327764200,4.47176416015625,-0.9962921142578125,-0.0225982666015625,-0.022308349609375
1772807054337696300,4.4816962890625,-0.9937591552734375,-0.0200958251953125,-0.02178955078125
1772807054347628300,4.491628173828125,-0.99505615234375,-0.0213470458984375,-0.022674560546875
1772807054357560300,4.501560302734375,-0.99560546875,-0.02252197265625,-0.0223236083984375
1772807054367491600,4.51149169921875,-0.99639892578125,-0.021820068359375,-0.0233306884765625
1772807054377423400,4.52142333984375,-0.9950408935546875,-0.0220794677734375,-0.0225830078125
1772807054387355400,4.53135546875,-0.9955291748046875,-0.02276611328125,-0.0240631103515625
1772807054397286400,4.541286376953125,-0.9962921142578125,-0.02154541015625,-0.0220489501953125
1772807054407218400,4.551218505859375,-0.995025634765625,-0.0215606689453125,-0.023284912109375
1772807054417150200,4.561150146484375,-0.9954376220703125,-0.02215576171875,-0.0229339599609375
1772807054427082200,4.571082275390625,-0.9954071044921875,-0.0224761962890625,-0.0224609375
1772807054437013500,4.581013427734375,-0.9957122802734375,-0.0234832763671875,-0.022979736328125
1772807054446945500,4.590945556640625,-0.996429443359375,-0.022430419921875,-0.0213775634765625
1772807054456877600,4.600877685546875,-0.995574951171875,-0.0216217041015625,-0.0228118896484375
1772807054466808300,4.610808349609375,-0.99462890625,-0.02142333984375,-0.0233917236328125
1772807054476740400,4.620740234375,-0.99609375,-0.0229644775390625,-0.022857666015625
1772807054486672400,4.63067236328125,-0.9965362548828125,-0.0202484130859375,-0.0222320556640625
1772807054496604400,4.6406044921875,-0.995361328125,-0.0220794677734375,-0.0218353271484375
1772807054506535200,4.65053515625,-0.9959564208984375,-0.0213470458984375,-0.0230865478515625
1772807054516467500,4.660467529296875,-0.9947357177734375,-0.0212249755859375,-0.0222625732421875
1772807054526399500,4.6703994140625,-0.9951171875,-0.021575927734375,-0.0223846435546875
1772807054536330500,4.68033056640625,-0.99591064453125,-0.022125244140625,-0.0242767333984375
1772807054546262300,4.69026220703125,-0.997039794921875,-0.0216064453125,-0.02294921875
1772807054556194300,4.7001943359375,-0.99578857421875,-0.0229644775390625,-0.0222930908203125
1772807054566125800,4.710125732421875,-0.996337890625,-0.020477294921875,-0.0212860107421875
1772807054576056800,4.720056884765625,-0.9971771240234375,-0.0213623046875,-0.0209197998046875
1772807054585988900,4.72998876953125,-0.9946441650390625,-0.0212860107421875,-0.0235443115234375
1772807054595921000,4.7399208984375,-0.9964141845703125,-0.0209197998046875,-0.0238189697265625
1772807054605851600,4.7498515625,-0.9955902099609375,-0.0230560302734375,-0.0224761962890625
1772807054615783700,4.75978369140625,-0.996978759765625,-0.0213470458984375,-0.0223388671875
1772807054625715700,4.7697158203125,-0.9959259033203125,-0.0201416015625,-0.0226593017578125
1772807054635647700,4.779647705078125,-0.9962615966796875,-0.0217742919921875,-0.021759033203125
1772807054645578800,4.789578857421875,-0.995819091796875,-0.0221710205078125,-0.0212554931640625
1772807054655510800,4.7995107421875,-0.9947052001953125,-0.022216796875,-0.02197265625
1772807054665442800,4.80944287109375,-0.9960174560546875,-0.0228729248046875,-0.0235137939453125
1772807054675374800,4.819374755859375,-0.996826171875,-0.0225982666015625,-0.0236663818359375
1772807054685305900,4.829305908203125,-0.9963836669921875,-0.0234527587890625,-0.0246734619140625
1772807054695237600,4.839237548828125,-0.99676513671875,-0.02288818359375,-0.0232086181640625
1772807054705169700,4.849169677734375,-0.99554443359375,-0.0228118896484375,-0.022186279296875
1772807054715100700,4.8591005859375,-0.9967193603515625,-0.02227783203125,-0.0220947265625
1772807054725032700,4.86903271484375,-0.995941162109375,-0.022308349609375,-0.0222320556640625
1772807054734964700,4.87896484375,-0.9956817626953125,-0.0225677490234375,-0.022918701171875
1772807054744896800,4.888896728515625,-0.995147705078125,-0.0216064453125,-0.0240478515625
1772807054754827800,4.898827880859375,-0.9955291748046875,-0.0217742919921875,-0.0230865478515625
1772807054764759800,4.908759765625,-0.9948577880859375,-0.0204010009765625,-0.0220184326171875
1772807054774691800,4.91869189453125,-0.995086669921875,-0.021026611328125,-0.0229034423828125
1772807054784622600,4.92862255859375,-0.996917724609375,-0.0212860107421875,-0.0224761962890625
1772807054794554600,4.9385546875,-0.9955291748046875,-0.02178955078125,-0.0225677490234375
1772807054804486700,4.948486572265625,-0.9961395263671875,-0.0214385986328125,-0.0235137939453125
1772807054814418700,4.958418701171875,-0.99591064453125,-0.02288818359375,-0.0246734619140625
1772807054824349700,4.968349609375,-0.996246337890625,-0.0209197998046875,-0.023681640625
1772807054834281700,4.97828173828125,-0.995758056640625,-0.0223541259765625,-0.024200439453125
1772807054844213800,4.9882138671875,-0.996337890625,-0.0210418701171875,-0.0231781005859375
1772807054854144800,4.998144775390625,-0.996826171875,-0.021697998046875,-0.0221099853515625
1772807054864076800,5.008076904296875,-0.995391845703125,-0.0229034423828125,-0.0224609375
1772807054874008600,5.018008544921875,-0.9947052001953125,-0.02227783203125,-0.0217132568359375
1772807054883940600,5.027940673828125,-0.995574951171875,-0.0223846435546875,-0.020599365234375
1772807054893871900,5.037871826171875,-0.9951629638671875,-0.0225677490234375,-0.02325439453125
1772807054903804000,5.047803955078125,-0.9951629638671875,-0.0215911865234375,-0.0231170654296875
1772807054913736000,5.05773583984375,-0.9952545166015625,-0.0209808349609375,-0.023590087890625
1772807054923666700,5.067666748046875,-0.9967193603515625,-0.0234527587890625,-0.0217437744140625
1772807054933598700,5.0775986328125,-0.995025634765625,-0.0233154296875,-0.0222015380859375
1772807054943530800,5.08753076171875,-0.99566650390625,-0.02203369140625,-0.02252197265625
1772807054953462800,5.097462890625,-0.9954376220703125,-0.021820068359375,-0.020751953125
1772807054963393800,5.107393798828125,-0.9955596923828125,-0.0212554931640625,-0.0230865478515625
1772807054973325800,5.117325927734375,-0.995208740234375,-0.02227783203125,-0.021453857421875
1772807054983257900,5.1272578125,-0.9964141845703125,-0.0211334228515625,-0.02423095703125
1772807054993190000,5.13718994140625,-0.996307373046875,-0.0223388671875,-0.02362060546875
1772807055003120600,5.14712060546875,-0.994873046875,-0.0210723876953125,-0.0223541259765625
1772807055013052700,5.157052734375,-0.9955902099609375,-0.021270751953125,-0.022857666015625
1772807055022984700,5.166984619140625,-0.9957427978515625,-0.02239990234375,-0.023101806640625
1772807055032915700,5.176915771484375,-0.9958343505859375,-0.021942138671875,-0.024566650390625
1772807055042847700,5.18684765625,-0.9964752197265625,-0.0224456787109375,-0.0226593017578125
1772807055052779800,5.19677978515625,-0.99639892578125,-0.02178955078125,-0.02459716796875
1772807055062711800,5.2067119140625,-0.996734619140625,-0.0226287841796875,-0.02398681640625
1772807055072642800,5.216642822265625,-0.99664306640625,-0.022003173828125,-0.0214385986328125
1772807055082574800,5.226574951171875,-0.995941162109375,-0.02276611328125,-0.0223846435546875
1772807055092506600,5.236506591796875,-0.995635986328125,-0.022430419921875,-0.0223541259765625
1772807055102437600,5.246437744140625,-0.9961090087890625,-0.022857666015625,-0.0239105224609375
1772807055112369700,5.25636962890625,-0.99530029296875,-0.021942138671875,-0.0226287841796875
1772807055122301700,5.2663017578125,-0.9967803955078125,-0.0217132568359375,-0.023040771484375
1772807055132234000,5.27623388671875,-0.99603271484375,-0.02215576171875,-0.0239105224609375
1772807055142164700,5.286164794921875,-0.9958953857421875,-0.0219879150390625,-0.0225830078125
1772807055152096800,5.2960966796875,-0.9953765869140625,-0.0225830078125,-0.0233917236328125
1772807055162028800,5.30602880859375,-0.9961090087890625,-0.020660400390625,-0.0220947265625
1772807055171959600,5.31595947265625,-0.994384765625,-0.020538330078125,-0.0224609375
1772807055181891600,5.3258916015625,-0.9959869384765625,-0.0208587646484375,-0.0221099853515625
1772807055191823600,5.33582373046875,-0.99755859375,-0.0205841064453125,-0.0224151611328125
1772807055201755600,5.345755615234375,-0.9968109130859375,-0.02288818359375,-0.0230712890625
1772807055211687000,5.35568701171875,-0.995635986328125,-0.02294921875,-0.021820068359375
1772807055221618700,5.36561865234375,-0.994232177734375,-0.0216522216796875,-0.022247314453125
1772807055231550700,5.37555078125,-0.995361328125,-0.022064208984375,-0.023956298828125
1772807055241482800,5.385482666015625,-0.99652099609375,-0.0228729248046875,-0.023712158203125
1772807055251413800,5.395413818359375,-0.9969635009765625,-0.0214996337890625,-0.022064208984375
1772807055261345800,5.405345703125,-0.9959716796875,-0.0221099853515625,-0.0220794677734375
1772807055271277600,5.415277587890625,-0.995513916015625,-0.0222930908203125,-0.0232391357421875
1772807055281208800,5.425208740234375,-0.994873046875,-0.0223846435546875,-0.0225067138671875
1772807055291140900,5.435140869140625,-0.9949188232421875,-0.02374267578125,-0.020538330078125
1772807055301073000,5.445072998046875,-0.9957122802734375,-0.022613525390625,-0.022705078125
1772807055311004700,5.455004638671875,-0.995208740234375,-0.0223236083984375,-0.0213165283203125
1772807055320935700,5.464935791015625,-0.996673583984375,-0.021942138671875,-0.0227508544921875
1772807055330867700,5.47486767578125,-0.9965362548828125,-0.0213165283203125,-0.023590087890625
1772807055340799700,5.4847998046875,-0.9953765869140625,-0.020721435546875,-0.022979736328125
1772807055350730800,5.494730712890625,-0.99664306640625,-0.0211029052734375,-0.0228424072265625
1772807055360662800,5.504662841796875,-0.9959716796875,-0.02264404296875,-0.0214385986328125
1772807055370594800,5.5145947265625,-0.996307373046875,-0.02099609375,-0.02294921875
1772807055380526800,5.52452685546875,-0.9971466064453125,-0.0202789306640625,-0.0231475830078125
1772807055390457900,5.534457763671875,-0.99462890625,-0.021087646484375,-0.0235137939453125
1772807055400389600,5.5443896484375,-0.9966278076171875,-0.0214691162109375,-0.02374267578125
1772807055410321700,5.55432177734375,-0.9946136474609375,-0.021392822265625,-0.0222015380859375
1772807055420253700,5.564253662109375,-0.99627685546875,-0.0219573974609375,-0.021453857421875
1772807055430185000,5.57418505859375,-0.99481201171875,-0.0204010009765625,-0.0225067138671875
1772807055440116700,5.58411669921875,-0.9949951171875,-0.021514892578125,-0.0233612060546875
1772807055450048800,5.594048828125,-0.994140625,-0.0214691162109375,-0.02197265625
1772807055459979800,5.603979736328125,-0.99517822265625,-0.02117919921875,-0.0218505859375
1772807055469911800,5.613911865234375,-0.9960174560546875,-0.0223846435546875,-0.021087646484375
1772807055479843800,5.62384375,-0.995452880859375,-0.0228424072265625,-0.0224609375
1772807055489775600,5.633775634765625,-0.995513916015625,-0.0237579345703125,-0.0239410400390625
1772807055499706600,5.64370654296875,-0.9965057373046875,-0.0240478515625,-0.022491455078125
1772807055509639000,5.653638916015625,-0.995391845703125,-0.023529052734375,-0.0216522216796875
1772807055519571000,5.663571044921875,-0.9947357177734375,-0.0210418701171875,-0.0236968994140625
1772807055529501700,5.673501708984375,-0.99627685546875,-0.021728515625,-0.0236968994140625
1772807055539433700,5.683433837890625,-0.9958648681640625,-0.023284912109375,-0.023651123046875
1772807055549365800,5.69336572265625,-0.9944000244140625,-0.0217742919921875,-0.022186279296875
1772807055559297800,5.7032978515625,-0.996612548828125,-0.022369384765625,-0.0222320556640625
1772807055569229000,5.71322900390625,-0.995208740234375,-0.0221710205078125,-0.0238037109375
1772807055579160800,5.723160888671875,-0.9951934814453125,-0.0213470458984375,-0.0232391357421875
1772807055589092900,5.7330927734375,-0.9974822998046875,-0.0201263427734375,-0.0223236083984375
1772807055599024000,5.743024169921875,-0.9955596923828125,-0.0212860107421875,-0.022674560546875
1772807055608956200,5.7529560546875,-0.9953460693359375,-0.0209503173828125,-0.02105712890625
1772807055618888200,5.76288818359375,-0.99517822265625,-0.0221099853515625,-0.023651123046875
1772807055628820000,5.772820068359375,-0.9956512451171875,-0.0217132568359375,-0.0228271484375
1772807055638751000,5.7827509765625,-0.995147705078125,-0.022491455078125,-0.0226898193359375
1772807055648683000,5.79268310546875,-0.9953765869140625,-0.024017333984375,-0.0218505859375
1772807055658615000,5.802614990234375,-0.9960479736328125,-0.021209716796875,-0.022186279296875
1772807055668547000,5.812547119140625,-0.99578857421875,-0.021240234375,-0.0241241455078125
1772807055678478000,5.82247802734375,-0.995452880859375,-0.0229034423828125,-0.0232086181640625
1772807055688410000,5.83241015625,-0.995574951171875,-0.022918701171875,-0.0232086181640625
1772807055698342100,5.842342041015625,-0.9959259033203125,-0.0231781005859375,-0.0220184326171875
1772807055708273000,5.85227294921875,-0.9967193603515625,-0.0218658447265625,-0.022796630859375
1772807055718205000,5.862204833984375,-0.99676513671875,-0.0222930908203125,-0.023834228515625
1772807055728137000,5.872136962890625,-0.9962310791015625,-0.022003173828125,-0.02447509765625
1772807055738069000,5.882069091796875,-0.9953155517578125,-0.021575927734375,-0.024169921875
1772807055748000300,5.892000244140625,-0.994964599609375,-0.0216827392578125,-0.0223846435546875
1772807055757932000,5.90193212890625,-0.9963226318359375,-0.0213775634765625,-0.022552490234375
1772807055767864000,5.911864013671875,-0.9957733154296875,-0.0216827392578125,-0.022918701171875
1772807055777795000,5.921795166015625,-0.9957427978515625,-0.0210723876953125,-0.0214385986328125
1772807055787727000,5.93172705078125,-0.9965057373046875,-0.0211639404296875,-0.023681640625
1772807055797659100,5.9416591796875,-0.9973297119140625,-0.021453857421875,-0.02569580078125
1772807055807591000,5.9515908203125,-0.99560546875,-0.0219573974609375,-0.02313232421875
1772807055817522200,5.961522216796875,-0.9957122802734375,-0.023468017578125,-0.0233917236328125
1772807055827454200,5.9714541015625,-0.995635986328125,-0.0221405029296875,-0.02191162109375
1772807055837386200,5.98138623046875,-0.9959259033203125,-0.020843505859375,-0.02197265625
1772807055847317000,5.99131689453125,-0.9947509765625,-0.0228118896484375,-0.022552490234375
1772807055857249000,6.0012490234375,-0.995635986328125,-0.02294921875,-0.023345947265625
1772807055867181000,6.01118115234375,-0.9962615966796875,-0.0213470458984375,-0.022430419921875
1772807055877113000,6.021113037109375,-0.996063232421875,-0.02264404296875,-0.0252532958984375
1772807055887043800,6.0310439453125,-0.9942779541015625,-0.0218048095703125,-0.023712158203125
1772807055896976000,6.040975830078125,-0.994964599609375,-0.0225982666015625,-0.0241546630859375
1772807055906908200,6.050908203125,-0.995941162109375,-0.022216796875,-0.0219573974609375
1772807055916840200,6.060840087890625,-0.99554443359375,-0.021636962890625,-0.0213623046875
1772807055926771000,6.07077099609375,-0.9954833984375,-0.02197265625,-0.0231475830078125
1772807055936703000,6.080702880859375,-0.99609375,-0.0222930908203125,-0.02313232421875
1772807055946635000,6.090635009765625,-0.995269775390625,-0.02117919921875,-0.0223541259765625
1772807055956566000,6.10056591796875,-0.9970855712890625,-0.0217437744140625,-0.0226593017578125
1772807055966498000,6.110498046875,-0.9959564208984375,-0.0219268798828125,-0.0224609375
1772807055976429800,6.120429931640625,-0.995574951171875,-0.0210418701171875,-0.021484375
1772807055986361900,6.13036181640625,-0.995758056640625,-0.02032470703125,-0.0234222412109375
1772807055996293000,6.140293212890625,-0.9963226318359375,-0.0216827392578125,-0.0222625732421875
1772807056006225200,6.15022509765625,-0.9973602294921875,-0.0219879150390625,-0.0228271484375
1772807056016157200,6.1601572265625,-0.995635986328125,-0.021209716796875,-0.0236968994140625
1772807056026088000,6.170087890625,-0.9943695068359375,-0.02178955078125,-0.02325439453125
1772807056036020000,6.18002001953125,-0.9956207275390625,-0.0222320556640625,-0.023193359375
1772807056045952000,6.189951904296875,-0.9964141845703125,-0.0225677490234375,-0.0233612060546875
1772807056055884000,6.199884033203125,-0.9952392578125,-0.0221099853515625,-0.022216796875
1772807056065815000,6.20981494140625,-0.9944915771484375,-0.020843505859375,-0.0226287841796875
1772807056075747000,6.2197470703125,-0.9952850341796875,-0.0222015380859375,-0.02386474609375
1772807056085679000,6.22967919921875,-0.9971923828125,-0.0212249755859375,-0.0236968994140625
1772807056095611100,6.239611083984375,-0.99468994140625,-0.0216827392578125,-0.023712158203125
1772807056105542000,6.2495419921875,-0.996551513671875,-0.02191162109375,-0.0229034423828125
1772807056115474000,6.259473876953125,-0.9962921142578125,-0.0225982666015625,-0.0230865478515625
1772807056125406000,6.269406005859375,-0.9958038330078125,-0.0203857421875,-0.0235748291015625
1772807056135337200,6.279337158203125,-0.996368408203125,-0.020050048828125,-0.0226593017578125
1772807056145269200,6.289269287109375,-0.995147705078125,-0.022308349609375,-0.023284912109375
1772807056155201000,6.299200927734375,-0.9957275390625,-0.0223846435546875,-0.023895263671875
1772807056165133000,6.309133056640625,-0.99658203125,-0.021087646484375,-0.0241241455078125
1772807056175064000,6.31906396484375,-0.995941162109375,-0.0214080810546875,-0.023956298828125
1772807056184996000,6.32899609375,-0.9942779541015625,-0.021636962890625,-0.0244598388671875
1772807056194927900,6.338927978515625,-0.9947662353515625,-0.0223236083984375,-0.0224151611328125
1772807056204859100,6.348859130859375,-0.9947967529296875,-0.02252197265625,-0.023468017578125
1772807056214791200,6.358791259765625,-0.9945831298828125,-0.021697998046875,-0.0212554931640625
1772807056224723200,6.36872314453125,-0.99615478515625,-0.021942138671875,-0.0201568603515625
1772807056234655200,6.3786552734375,-0.9966583251953125,-0.02197265625,-0.0219573974609375
1772807056244586000,6.3885859375,-0.995574951171875,-0.0221405029296875,-0.022857666015625
1772807056254518000,6.39851806640625,-0.9951629638671875,-0.0218048095703125,-0.023406982421875
1772807056264450000,6.408449951171875,-0.99462890625,-0.0217132568359375,-0.0247039794921875
1772807056274382000,6.418382080078125,-0.9956512451171875,-0.021484375,-0.022735595703125
1772807056284313000,6.42831298828125,-0.99505615234375,-0.0219879150390625,-0.0231781005859375
1772807056294245000,6.4382451171875,-0.9962921142578125,-0.0216217041015625,-0.0233917236328125
1772807056304177200,6.44817724609375,-0.995941162109375,-0.0219573974609375,-0.0225067138671875
1772807056314108200,6.458108154296875,-0.995269775390625,-0.0214385986328125,-0.021942138671875
1772807056324040000,6.4680400390625,-0.99627685546875,-0.022491455078125,-0.0225830078125
1772807056333972000,6.477971923828125,-0.995635986328125,-0.022186279296875,-0.0213165283203125
1772807056343904000,6.487904052734375,-0.9956207275390625,-0.0223846435546875,-0.022247314453125
1772807056353835000,6.4978349609375,-0.9951019287109375,-0.0218353271484375,-0.020721435546875
1772807056363767000,6.50776708984375,-0.99578857421875,-0.0224151611328125,-0.022491455078125
1772807056373699000,6.517698974609375,-0.99560546875,-0.0225067138671875,-0.0229339599609375
1772807056383631000,6.527631103515625,-0.9970245361328125,-0.0235595703125,-0.0220947265625
1772807056393562000,6.53756201171875,-0.9957122802734375,-0.022125244140625,-0.02239990234375
1772807056403494100,6.547494140625,-0.996246337890625,-0.02276611328125,-0.0243377685546875
1772807056413426200,6.55742626953125,-0.9951171875,-0.023101806640625,-0.0219573974609375
1772807056423357000,6.56735693359375,-0.995086669921875,-0.022064208984375,-0.022918701171875
1772807056433289000,6.5772890625,-0.99627685546875,-0.0226593017578125,-0.023101806640625
1772807056443221000,6.587220947265625,-0.9963531494140625,-0.0221405029296875,-0.02276611328125
1772807056453153000,6.597153076171875,-0.9960174560546875,-0.0222320556640625,-0.021759033203125
1772807056463084000,6.607083984375,-0.9950714111328125,-0.0205535888671875,-0.0225830078125
1772807056473016000,6.61701611328125,-0.9952545166015625,-0.0217742919921875,-0.0242767333984375
1772807056482948000,6.626947998046875,-0.9956817626953125,-0.0218505859375,-0.0215606689453125
1772807056492879000,6.636879150390625,-0.99591064453125,-0.0216064453125,-0.0240020751953125
1772807056502811000,6.646810791015625,-0.996307373046875,-0.0218505859375,-0.024383544921875
1772807056512743000,6.656742919921875,-0.9957733154296875,-0.0217437744140625,-0.0225677490234375
1772807056522675000,6.666675048828125,-0.9963531494140625,-0.0213470458984375,-0.02239990234375
1772807056532606200,6.676606201171875,-0.9960174560546875,-0.0230255126953125,-0.0222015380859375
1772807056542538000,6.6865380859375,-0.997467041015625,-0.02154541015625,-0.023681640625
1772807056552470000,6.696469970703125,-0.9969482421875,-0.023193359375,-0.0223388671875
1772807056562402000,6.706402099609375,-0.995697021484375,-0.022979736328125,-0.024017333984375
1772807056572334300,6.716334228515625,-0.99700927734375,-0.0230255126953125,-0.0233306884765625
1772807056582266400,6.726266357421875,-0.9951324462890625,-0.0220184326171875,-0.024932861328125
1772807056592198400,6.736198486328125,-0.994964599609375,-0.02203369140625,-0.0238800048828125
1772807056602129200,6.746129150390625,-0.996246337890625,-0.022125244140625,-0.0222320556640625
1772807056612061200,6.756061279296875,-0.99591064453125,-0.0223846435546875,-0.022216796875
1772807056621993200,6.7659931640625,-0.9955596923828125,-0.0208892822265625,-0.021331787109375
1772807056631925200,6.77592529296875,-0.994873046875,-0.020294189453125,-0.0218353271484375
1772807056641856300,6.785856201171875,-0.9959564208984375,-0.0217132568359375,-0.022613525390625
1772807056651788300,6.795788330078125,-0.99505615234375,-0.0217742919921875,-0.0203857421875
1772807056661720300,6.80572021484375,-0.9962005615234375,-0.0226287841796875,-0.022247314453125
1772807056671651300,6.8156513671875,-0.996917724609375,-0.02166748046875,-0.021575927734375
1772807056681583400,6.825583251953125,-0.9955902099609375,-0.021484375,-0.02227783203125
1772807056691515100,6.83551513671875,-0.99542236328125,-0.0205078125,-0.0244140625
1772807056701447200,6.845447265625,-0.99468994140625,-0.0220489501953125,-0.02264404296875
1772807056711378400,6.85537841796875,-0.994903564453125,-0.022247314453125,-0.0237884521484375
1772807056721310500,6.865310546875,-0.995697021484375,-0.0222320556640625,-0.0234222412109375
1772807056731242200,6.8752421875,-0.994415283203125,-0.02197265625,-0.02325439453125
1772807056741174300,6.88517431640625,-0.997314453125,-0.0216827392578125,-0.0227203369140625
1772807056751105300,6.895105224609375,-0.995819091796875,-0.023284912109375,-0.023040771484375
1772807056761037300,6.905037353515625,-0.9946746826171875,-0.022918701171875,-0.0218505859375
1772807056770969300,6.91496923828125,-0.99700927734375,-0.0225830078125,-0.0219268798828125
1772807056780900400,6.924900390625,-0.996856689453125,-0.0214691162109375,-0.0238037109375
1772807056790832400,6.934832275390625,-0.9951171875,-0.0220184326171875,-0.0244140625
1772807056800764400,6.944764404296875,-0.9965667724609375,-0.02294921875,-0.0233306884765625
1772807056810696400,6.954696533203125,-0.9945220947265625,-0.0228271484375,-0.0237274169921875
1772807056820627200,6.964627197265625,-0.9953765869140625,-0.021942138671875,-0.022705078125
1772807056830559200,6.974559326171875,-0.996337890625,-0.0227508544921875,-0.02252197265625
1772807056840491300,6.9844912109375,-0.993927001953125,-0.0222320556640625,-0.0213623046875
1772807056850423300,6.99442333984375,-0.9952392578125,-0.0218353271484375,-0.0217437744140625
1772807056860354300,7.004354248046875,-0.9968719482421875,-0.021209716796875,-0.022308349609375
1772807056870286300,7.014286376953125,-0.9952850341796875,-0.0213470458984375,-0.02313232421875
1772807056880218400,7.02421826171875,-0.99560546875,-0.021881103515625,-0.0225982666015625
1772807056890149400,7.0341494140625,-0.9965972900390625,-0.022247314453125,-0.0247955322265625
1772807056900081400,7.044081298828125,-0.9969940185546875,-0.021026611328125,-0.02264404296875
1772807056910013200,7.05401318359375,-0.9952392578125,-0.020599365234375,-0.022003173828125
1772807056919945200,7.0639453125,-0.9961700439453125,-0.02191162109375,-0.0248260498046875
1772807056929876200,7.073876220703125,-0.9960784912109375,-0.0214385986328125,-0.02252197265625
1772807056939808300,7.083808349609375,-0.9954986572265625,-0.0224456787109375,-0.0227508544921875
1772807056949740300,7.093740234375,-0.9960479736328125,-0.0214691162109375,-0.022125244140625
1772807056959671300,7.10367138671875,-0.9953460693359375,-0.0218658447265625,-0.0232696533203125
1772807056969603300,7.113603271484375,-0.995391845703125,-0.021636962890625,-0.0221099853515625
1772807056979535400,7.123535400390625,-0.995361328125,-0.0210723876953125,-0.0225372314453125
1772807056989467400,7.13346728515625,-0.995819091796875,-0.0220794677734375,-0.0240936279296875
1772807056999398100,7.143398193359375,-0.994781494140625,-0.022308349609375,-0.0234832763671875
1772807057009330200,7.153330078125,-0.9946441650390625,-0.0220184326171875,-0.022796630859375
1772807057019262200,7.16326220703125,-0.99700927734375,-0.022308349609375,-0.0236663818359375
1772807057029194200,7.1731943359375,-0.9959564208984375,-0.0214691162109375,-0.024810791015625
1772807057039125200,7.183125244140625,-0.9956817626953125,-0.021484375,-0.0229339599609375
1772807057049057300,7.193057373046875,-0.995086669921875,-0.0218658447265625,-0.0218048095703125
1772807057058989300,7.2029892578125,-0.9972991943359375,-0.0213623046875,-0.0205078125
1772807057068920300,7.21292041015625,-0.9956512451171875,-0.0216827392578125,-0.0216827392578125
1772807057078852000,7.22285205078125,-0.99530029296875,-0.0229339599609375,-0.022216796875
1772807057088784100,7.2327841796875,-0.9959716796875,-0.022430419921875,-0.023406982421875
1772807057098716200,7.242716064453125,-0.9957427978515625,-0.021514892578125,-0.0239715576171875
1772807057108647400,7.2526474609375,-0.995208740234375,-0.0215301513671875,-0.0237579345703125
1772807057118579500,7.262579345703125,-0.996002197265625,-0.022003173828125,-0.0241241455078125
1772807057128511200,7.27251123046875,-0.9962005615234375,-0.0214385986328125,-0.022430419921875
1772807057138443300,7.282443359375,-0.9964752197265625,-0.0212554931640625,-0.022186279296875
1772807057148374300,7.292374267578125,-0.9957122802734375,-0.0213470458984375,-0.022796630859375
1772807057158306300,7.302306396484375,-0.9952239990234375,-0.0207366943359375,-0.0228118896484375
1772807057168238300,7.31223828125,-0.994049072265625,-0.0220489501953125,-0.0224761962890625
1772807057178169300,7.32216943359375,-0.995574951171875,-0.02093505859375,-0.02288818359375
1772807057188101400,7.332101318359375,-0.996002197265625,-0.0212249755859375,-0.0219573974609375
1772807057198033400,7.342033447265625,-0.9964141845703125,-0.0226593017578125,-0.02081298828125
1772807057207965400,7.35196533203125,-0.9947509765625,-0.0214080810546875,-0.0232391357421875
1772807057217896200,7.361896240234375,-0.9954681396484375,-0.02313232421875,-0.023162841796875
1772807057227828200,7.371828125,-0.996063232421875,-0.0223388671875,-0.0238800048828125
1772807057237760300,7.38176025390625,-0.9959869384765625,-0.022216796875,-0.0234527587890625
1772807057247692300,7.3916923828125,-0.9946441650390625,-0.0214080810546875,-0.024169921875
1772807057257623300,7.401623291015625,-0.9963226318359375,-0.02227783203125,-0.0226898193359375
1772807057267555300,7.411555419921875,-0.9950408935546875,-0.021728515625,-0.0223388671875
1772807057277487400,7.4214873046875,-0.995452880859375,-0.0205535888671875,-0.0228729248046875
1772807057287418400,7.43141845703125,-0.996368408203125,-0.0211334228515625,-0.0238800048828125
1772807057297350400,7.441350341796875,-0.997100830078125,-0.02032470703125,-0.023773193359375
1772807057307282200,7.4512822265625,-0.9964141845703125,-0.020965576171875,-0.024444580078125
1772807057317214200,7.461214111328125,-0.9957427978515625,-0.022552490234375,-0.0238189697265625
1772807057327145200,7.471145263671875,-0.9968719482421875,-0.0212249755859375,-0.022064208984375
1772807057337077500,7.481077392578125,-0.996795654296875,-0.02276611328125,-0.0207366943359375
1772807057347009300,7.49100927734375,-0.99603271484375,-0.0225677490234375,-0.0217437744140625
1772807057356940300,7.500940185546875,-0.995025634765625,-0.02117919921875,-0.0223541259765625
1772807057366872300,7.510872314453125,-0.996368408203125,-0.0223541259765625,-0.0234527587890625
1772807057376804400,7.520804443359375,-0.997100830078125,-0.0227813720703125,-0.0230560302734375
1772807057386736400,7.530736328125,-0.9956817626953125,-0.023101806640625,-0.0230560302734375
1772807057396667100,7.540667236328125,-0.99566650390625,-0.022308349609375,-0.022735595703125
1772807057406599200,7.55059912109375,-0.9953765869140625,-0.0227203369140625,-0.0214691162109375
1772807057416531200,7.56053125,-0.99542236328125,-0.0215911865234375,-0.0219268798828125
1772807057426463500,7.57046337890625,-0.9964599609375,-0.023529052734375,-0.0223236083984375
1772807057436394200,7.580394287109375,-0.9959259033203125,-0.021484375,-0.02203369140625
1772807057446326300,7.590326171875,-0.9966583251953125,-0.021331787109375,-0.0225067138671875
1772807057456258300,7.60025830078125,-0.99676513671875,-0.0209503173828125,-0.02252197265625
1772807057466190300,7.6101904296875,-0.9968109130859375,-0.02166748046875,-0.0219879150390625
1772807057476121000,7.62012109375,-0.9965362548828125,-0.021270751953125,-0.02398681640625
1772807057486053000,7.63005322265625,-0.9957122802734375,-0.022735595703125,-0.0220794677734375
1772807057495985200,7.639985107421875,-0.9962005615234375,-0.022979736328125,-0.0207366943359375
1772807057505916400,7.64991650390625,-0.9953460693359375,-0.0219573974609375,-0.02398681640625
1772807057515848400,7.659848388671875,-0.995025634765625,-0.0219879150390625,-0.0225830078125
1772807057525780200,7.6697802734375,-0.9957122802734375,-0.02215576171875,-0.023345947265625
1772807057535712300,7.679712158203125,-0.99371337890625,-0.0225830078125,-0.02191162109375
1772807057545643300,7.689643310546875,-0.9944915771484375,-0.0221405029296875,-0.022796630859375
1772807057555575300,7.6995751953125,-0.995697021484375,-0.022216796875,-0.022369384765625
1772807057565506300,7.70950634765625,-0.9952545166015625,-0.0224609375,-0.02215576171875
1772807057575437000,7.71943701171875,-0.9975433349609375,-0.0227813720703125,-0.022918701171875
1772807057585369000,7.729369140625,-0.996429443359375,-0.022064208984375,-0.022705078125
1772807057595301000,7.739301025390625,-0.9947052001953125,-0.02239990234375,-0.0238037109375
1772807057605233200,7.749233154296875,-0.9954833984375,-0.022735595703125,-0.023681640625
1772807057615164200,7.7591640625,-0.9954376220703125,-0.0229034423828125,-0.0236663818359375
1772807057625096200,7.76909619140625,-0.995849609375,-0.0231170654296875,-0.0231170654296875
1772807057635028200,7.7790283203125,-0.9953765869140625,-0.0218658447265625,-0.020416259765625
1772807057644960300,7.788960205078125,-0.9962158203125,-0.0228424072265625,-0.021392822265625
1772807057654891000,7.79889111328125,-0.994720458984375,-0.0219879150390625,-0.0218658447265625
1772807057664823000,7.808822998046875,-0.9954071044921875,-0.0210723876953125,-0.023681640625
1772807057674755000,7.818755126953125,-0.9952545166015625,-0.0209197998046875,-0.023284912109375
1772807057684686000,7.82868603515625,-0.995758056640625,-0.0213623046875,-0.0221710205078125
1772807057694618000,7.8386181640625,-0.996246337890625,-0.022186279296875,-0.0214996337890625
1772807057704550100,7.848550048828125,-0.994293212890625,-0.0224761962890625,-0.02349853515625
1772807057714482200,7.858482177734375,-0.99578857421875,-0.0209808349609375,-0.0215606689453125
1772807057724413200,7.8684130859375,-0.9977264404296875,-0.0218048095703125,-0.022552490234375
1772807057734345200,7.87834521484375,-0.995697021484375,-0.0230560302734375,-0.0250396728515625
1772807057744277200,7.88827734375,-0.995513916015625,-0.0227203369140625,-0.02276611328125
1772807057754209000,7.898208984375,-0.9968719482421875,-0.0205078125,-0.023040771484375
1772807057764140000,7.90814013671875,-0.9951171875,-0.023345947265625,-0.0230255126953125
1772807057774072000,7.918072021484375,-0.996551513671875,-0.0216522216796875,-0.0218353271484375
1772807057784004000,7.928004150390625,-0.9969024658203125,-0.021270751953125,-0.0212860107421875
1772807057793935000,7.93793505859375,-0.99560546875,-0.02349853515625,-0.0223846435546875
1772807057803867100,7.9478671875,-0.9965972900390625,-0.0214385986328125,-0.023712158203125
1772807057813799200,7.957799072265625,-0.9963836669921875,-0.021240234375,-0.02288818359375
1772807057823731200,7.967731201171875,-0.99591064453125,-0.0208892822265625,-0.0231781005859375
1772807057833662000,7.977661865234375,-0.9949798583984375,-0.0206146240234375,-0.02301025390625
1772807057843593200,7.98759326171875,-0.9958038330078125,-0.0210113525390625,-0.02252197265625
1772807057853525200,7.997525146484375,-0.99652099609375,-0.0217132568359375,-0.022003173828125
1772807057863457300,8.007457275390625,-0.9953155517578125,-0.0213623046875,-0.023468017578125
1772807057873388000,8.017387939453124,-0.9956207275390625,-0.02154541015625,-0.0232086181640625
1772807057883320000,8.027320068359375,-0.995819091796875,-0.021759033203125,-0.0233917236328125
1772807057893252000,8.037252197265625,-0.996002197265625,-0.0218658447265625,-0.022247314453125
1772807057903184100,8.04718408203125,-0.9960479736328125,-0.0232086181640625,-0.0219268798828125
1772807057913115100,8.057115234375,-0.995758056640625,-0.022125244140625,-0.0227813720703125
1772807057923047200,8.067047119140625,-0.9958953857421875,-0.02178955078125,-0.024566650390625
1772807057932979200,8.076979248046875,-0.99542236328125,-0.022735595703125,-0.02313232421875
1772807057942910200,8.08691015625,-0.9943695068359375,-0.0218963623046875,-0.021820068359375
1772807057952842200,8.09684228515625,-0.99493408203125,-0.0235748291015625,-0.0235595703125
1772807057962774000,8.10677392578125,-0.99542236328125,-0.022674560546875,-0.0220794677734375
1772807057972706000,8.1167060546875,-0.9962310791015625,-0.0233917236328125,-0.0205230712890625
1772807057982637000,8.126636962890625,-0.99664306640625,-0.0219573974609375,-0.0218963623046875
1772807057992569000,8.136569091796876,-0.9948272705078125,-0.0211334228515625,-0.0231475830078125
1772807058002501000,8.146501220703126,-0.996002197265625,-0.020599365234375,-0.0227203369140625
1772807058012433200,8.15643310546875,-0.9965972900390625,-0.021209716796875,-0.0212860107421875
1772807058022364200,8.1663642578125,-0.9949951171875,-0.020599365234375,-0.023284912109375
1772807058032296200,8.176296142578124,-0.9964752197265625,-0.022064208984375,-0.021484375
1772807058042228200,8.186228271484374,-0.9954986572265625,-0.0205230712890625,-0.0228118896484375
1772807058052159000,8.196158935546874,-0.9976654052734375,-0.0215911865234375,-0.0238189697265625
1772807058062091000,8.206091064453124,-0.998138427734375,-0.0223541259765625,-0.023712158203125
1772807058072023000,8.21602294921875,-0.9966583251953125,-0.0221099853515625,-0.021728515625
1772807058081955000,8.225955078125,-0.997833251953125,-0.0221405029296875,-0.0234375
1772807058091886000,8.235885986328125,-1.0108795166015625,-0.020172119140625,-0.0290374755859375
1772807058101818000,8.245818115234375,-0.9850616455078125,-0.024322509765625,-0.01422119140625
1772807058111750100,8.255750244140625,-0.98779296875,-0.024200439453125,-0.017425537109375
1772807058121682200,8.26568212890625,-1.0055389404296875,-0.022918701171875,-0.0250701904296875
1772807058131613000,8.275613037109375,-0.9853668212890625,-0.0242919921875,-0.0164947509765625
1772807058141545000,8.285544921875,-1.0044403076171875,-0.0216827392578125,-0.02532958984375
1772807058151477000,8.29547705078125,-0.990997314453125,-0.022186279296875,-0.017913818359375
1772807058161408300,8.305408203125,-0.9992828369140625,-0.02154541015625,-0.0227508544921875
1772807058171340300,8.31534033203125,-0.994384765625,-0.0212249755859375,-0.0201873779296875
1772807058181272000,8.32527197265625,-1.0003662109375,-0.02001953125,-0.0240020751953125
1772807058191204000,8.3352041015625,-0.989410400390625,-0.0215911865234375,-0.015594482421875
1772807058201135000,8.345135009765626,-0.999114990234375,-0.0215911865234375,-0.021728515625
1772807058211067100,8.355067138671876,-0.994476318359375,-0.0228424072265625,-0.0206451416015625
1772807058220999200,8.364999267578124,-0.998779296875,-0.02069091796875,-0.021148681640625
1772807058230931000,8.374930908203124,-0.993988037109375,-0.021820068359375,-0.0191497802734375
1772807058240862200,8.3848623046875,-0.9963226318359375,-0.0218505859375,-0.0208892822265625
1772807058250794200,8.394794189453124,-0.994903564453125,-0.0222320556640625,-0.0194091796875
1772807058260726300,8.404726318359375,-0.99652099609375,-0.0224609375,-0.0199737548828125
1772807058270657000,8.414656982421874,-0.996734619140625,-0.02227783203125,-0.0195465087890625
1772807058280589000,8.424589111328125,-0.9959259033203125,-0.0244140625,-0.021942138671875
1772807058290521000,8.43452099609375,-0.9951629638671875,-0.0254058837890625,-0.0202178955078125
1772807058300453000,8.444453125,-0.996246337890625,-0.0225677490234375,-0.0206146240234375
1772807058310384000,8.454384033203125,-0.9962310791015625,-0.022491455078125,-0.0207977294921875
1772807058320316200,8.464316162109375,-0.9955291748046875,-0.0226593017578125,-0.0187835693359375
1772807058330248200,8.474248291015625,-0.996978759765625,-0.0226593017578125,-0.020782470703125
1772807058340180200,8.48418017578125,-0.9945831298828125,-0.0229949951171875,-0.02008056640625
1772807058350111000,8.494111083984375,-0.995574951171875,-0.0242919921875,-0.020263671875
1772807058360043000,8.50404296875,-0.994110107421875,-0.021881103515625,-0.020660400390625
1772807058369975000,8.51397509765625,-0.99658203125,-0.0221405029296875,-0.020355224609375
1772807058379906300,8.52390625,-0.9971771240234375,-0.0214996337890625,-0.022430419921875
1772807058389838300,8.53383837890625,-0.99169921875,-0.02044677734375,-0.0183868408203125
1772807058399770000,8.54377001953125,-0.9915313720703125,-0.0211029052734375,-0.0163726806640625
1772807058409702100,8.5537021484375,-0.9892120361328125,-0.0225830078125,-0.0163726806640625
1772807058419633200,8.563633056640626,-1.01116943359375,-0.019134521484375,-0.030548095703125
