time,seconds_elapsed,z,y,x
1772807049918083800,0.062083740234375,-0.0013494236627593637,0.0062456452287733555,0.000014114753867033869
1772807049928016000,0.072015869140625,-0.00088949577184394,-0.01667778007686138,-0.007442469708621502
1772807049937947000,0.08194677734375,-0.0014729943359270692,0.01701946370303631,0.0017955031944438815
1772807049947879000,0.09187890625,-0.003451190423220396,0.023557523265480995,0.0033065807074308395
1772807049957811000,0.10181103515625,0.0021963089238852262,-0.008596417494118214,-0.004240018781274557
1772807049967743000,0.111742919921875,0.0009829727932810783,0.0006314354832284153,-0.0019265307346358895
1772807049977673700,0.121673828125,-0.0007829693495295942,0.022114356979727745,0.003736414946615696
1772807049987605800,0.131605712890625,-0.0030772825703024864,0.002276470186188817,-0.0034463966730982065
1772807049997537800,0.141537841796875,-0.002246909076347947,-0.006698382552713156,-0.0016817862633615732
1772807050007469000,0.151468994140625,-0.000559263804461807,0.013087572529911995,0.0013283847365528345
1772807050017401000,0.161401123046875,-0.0025180187076330185,0.013202887028455734,0.001270061475224793
1772807050027332900,0.171332763671875,-0.0007153250626288354,-0.004397944081574678,-0.0037324202712625265
1772807050037265000,0.181264892578125,-0.0007366303470917046,0.008522115647792816,-0.0009299758239649236
1772807050047196000,0.19119580078125,-0.0004069310089107603,0.012487828731536865,0.004082892090082169
1772807050057128000,0.2011279296875,0.0009526127250865102,-0.0003712446487043053,-0.0014410364674404263
1772807050067060000,0.21106005859375,-0.0007371630053967237,0.0031409321818500757,-0.0013811152894049883
1772807050076990700,0.22099072265625,0.0014700648607686162,0.00920521654188633,0.001005609636195004
1772807050086923000,0.230923095703125,-0.0011150655336678028,0.005102616734802723,0
1772807050096855000,0.24085498046875,-0.000012783173588104546,0.0006562029011547565,-0.0004945489927195013
1772807050106787000,0.250787109375,-0.0002892192860599607,0.008261658251285553,0.0021228056866675615
1772807050116717800,0.2607177734375,0.0002442118711769581,0.006590791046619415,0.0015962987672537565
1772807050126649900,0.27064990234375,-0.0014383733505383134,0.001966211711987853,-0.0028687571175396442
1772807050136582000,0.280581787109375,-0.0012034825049340725,0.0057068876922130585,-0.0005760417552664876
1772807050146513000,0.290512939453125,-0.0010974886827170849,0.007764712441712618,0.0021901836153119802
1772807050156444700,0.300444580078125,0.0004269047058187425,0.004771319217979908,0.0013555489713326097
1772807050166376700,0.310376708984375,-0.0013398362789303064,0.0036962011363357306,0.0015190670965239406
1772807050176309000,0.32030908203125,0.0010937602492049336,0.0054703992791473866,0.0012801815755665302
1772807050186240000,0.330239990234375,0.0007542071980424225,0.004655205644667149,0.0014213290996849537
1772807050196171800,0.340171875,0.00001651159800530877,0.004466387443244457,0.00034434671397320926
1772807050206103800,0.350103759765625,-0.003316967049613595,0.006828344892710447,0.00019094864546786994
1772807050216034800,0.360034912109375,-0.0018466358305886388,0.009090966545045376,-0.004756671842187643
1772807050225966800,0.369966796875,-0.0011339739430695772,0.0005640574963763356,-0.0014498248929157853
1772807050235899000,0.37989892578125,-0.0011318434262648225,0.008207063190639019,0.00038163099088706076
1772807050245830700,0.38983056640625,0.0001304948964389041,0.009676329791545868,0.001333178486675024
1772807050255762000,0.399761962890625,-0.001139566651545465,0.004591023549437523,0.00123783724848181
1772807050265694000,0.40969384765625,-0.0002796319022309035,0.004047205671668053,0.0014426343841478229
1772807050275626000,0.4196259765625,-0.0003808320325333625,0.0059838565066456795,-0.00008735168376006186
1772807050285556700,0.429556640625,-0.0009315737406723201,0.006082393694669008,-0.0001573928166180849
1772807050295488800,0.43948876953125,0.00006125270738266408,0.00552366254851222,0.002579005202278495
1772807050305420800,0.4494208984375,0.00026551715563982725,0.005711948033422232,-0.0014950985787436366
1772807050315352800,0.459352783203125,-0.0014567491598427296,0.00797536876052618,0.0007949535502120852
1772807050325283800,0.469283935546875,-0.0002697782183531672,0.007868575863540173,0.00033182985498569906
1772807050335215900,0.4792158203125,-0.001255946815945208,0.005848834291100502,-0.0001968075957847759
1772807050345148000,0.48914794921875,0.0000756337758502923,0.002055960241705179,0.0002055960358120501
1772807050355079000,0.499078857421875,-0.0005840312223881483,0.004327636677771807,-0.00011611382069531828
1772807050365011000,0.509010986328125,-0.0012008192716166377,0.0067990501411259174,-0.0007331682136282325
1772807050374942700,0.518942626953125,0.0014202637830749154,0.007720770314335823,-0.0010066748363897204
1772807050384874800,0.528874755859375,-0.0022855247370898724,0.004602208733558655,-0.0008069378091022372
1772807050394806000,0.538805908203125,0.0005254416610114276,0.00517691858112812,0.00007137271313695237
1772807050404738000,0.548738037109375,-0.0019446401856839657,0.00720598129555583,0.00009933590627042577
1772807050414670000,0.558670166015625,-0.0011041465913876891,0.006061887368559837,0.0022799321450293064
1772807050424600800,0.568600830078125,-0.0036820864770561457,0.004988367203623056,0.0026876621413975954
1772807050434532900,0.578532958984375,0.00005512743518920615,0.0073593794368207455,0.0010849718237295747
1772807050444465000,0.58846484375,-0.0014266553334891796,0.007408914156258106,0.0004474110610317439
1772807050454397000,0.59839697265625,-0.002371012233197689,0.007789213676005602,0.000036485307646216825
1772807050464328000,0.608327880859375,0.00008655273268232122,0.007453389000147581,0.002257827902212739
1772807050474260000,0.618260009765625,-0.00008495483780279756,0.00708773685619235,-0.00042264367220923305
1772807050484192000,0.62819189453125,0.0015166702214628458,0.00612287363037467,-0.0013294500531628728
1772807050494124000,0.6381240234375,-0.00017470336752012372,0.007486145943403244,0.0006111954571679235
1772807050504054800,0.6480546875,-0.0011643340112641454,0.006720220670104027,0.0014058827655389905
1772807050513986800,0.65798681640625,-0.0018021611031144857,0.003177417442202568,-0.0007992146420292556
1772807050523918800,0.6679189453125,-0.000011984225238848012,0.005323925521224737,-0.0011398328933864832
1772807050533849900,0.677849853515625,-0.002793389605358243,0.00726323900744319,0.00012969593808520585
1772807050543781600,0.68778173828125,0.00002103897168126423,0.0037476003635674715,0.00037950044497847557
1772807050553714000,0.6977138671875,-0.00040613205055706203,0.006060022860765457,-0.0016327840276062489
1772807050563645700,0.707645751953125,-0.00014168016787152737,0.00620995881035924,-0.00031664984999224544
1772807050573577500,0.717577392578125,0.0003787015157286078,0.005653890781104565,0.002508431440219283
1772807050583509500,0.727509521484375,-0.0017925737192854285,0.00592659879475832,-0.00070493872044608
1772807050593441500,0.737441650390625,-0.0024985778145492077,0.0062794676050543785,0.00037683729897253215
1772807050603372500,0.74737255859375,-0.00023941817926242948,0.005106877535581589,-0.0001507349224993959
1772807050613304600,0.7573046875,-0.0007097324123606086,0.005498362239450216,0.0004183826094958931
1772807050623236400,0.767236328125,-0.00014407701382879168,0.00509755639359355,-0.0005344964447431266
1772807050633167600,0.777167724609375,-0.0021020330023020506,0.006124737672507763,-0.001213602488860488
1772807050643099600,0.787099609375,-0.002855974016711116,0.005293298978358507,-0.00019441076437942684
1772807050653031700,0.79703173828125,-0.00006151902198325843,0.005771868862211704,-0.00036139096482656896
1772807050662963500,0.80696337890625,-0.0014689996605738997,0.004831773228943348,-0.0023760723415762186
1772807050672894500,0.81689453125,0.0002079928817693144,0.006958307232707739,-0.0013552826130762696
1772807050682826500,0.826826416015625,-0.0017012272728607059,0.0062278020195662975,0.0006450176006183028
1772807050692758500,0.836758544921875,-0.0022530341520905495,0.007673099637031555,0.00031664984999224544
1772807050702689500,0.846689453125,-0.0034059167373925447,0.0064802695997059345,-0.0027108315844088793
1772807050712621600,0.85662158203125,-0.0025624935515224934,0.006326871924102306,0.0018793927738443017
1772807050722553600,0.8665537109375,-0.00032730249222368,0.004492486361414194,0.0008146609761752188
1772807050732485600,0.876485595703125,-0.0019920445047318935,0.0041638524271547794,0.0010330402292311192
1772807050742416400,0.88641650390625,-0.00011371697473805398,0.004972121678292751,-0.000883636821527034
1772807050752348400,0.896348388671875,0.00042344260145910084,0.006853911560028791,0.0013044163351878524
1772807050762280400,0.906280517578125,-0.00245090713724494,0.006657103542238474,-0.0010301107540726662
1772807050772211500,0.91621142578125,0.00032863407977856696,0.00583605095744133,0.0025885924696922302
1772807050782143500,0.9261435546875,0.001350755337625742,0.005391037091612816,0.0015073491958901286
1772807050792075500,0.936075439453125,0.0014231932582333684,0.005810751114040613,0.00004447478931979276
1772807050802007600,0.946007568359375,-0.002469549188390374,0.006109557580202818,0.0000804274677648209
1772807050811938600,0.9559384765625,0.0011640676530078053,0.005013134330511093,0.0009446232579648495
1772807050821870600,0.96587060546875,0.0009659285424277186,0.004856540355831385,-0.0004058657505083829
1772807050831802600,0.975802734375,-0.0005390237784013152,0.00455879932269454,-0.0003992078418377787
1772807050841733400,0.9857333984375,-0.001671666163019836,0.00743208359926939,-0.0006050702068023384
1772807050851665400,0.99566552734375,-0.0005669869715347886,0.009708287194371223,-0.0007840346079319715
1772807050861597400,1.005597412109375,-0.0006095975404605269,0.006067479960620403,0.0005275722360238433
1772807050871529500,1.015529541015625,-0.0010956244077533484,0.006214752793312073,-0.00063383235828951
1772807050881460500,1.02546044921875,-0.002058357233181596,0.006174538750201464,0.0012128035305067897
1772807050891392500,1.035392578125,-0.0021912488155066967,0.007131412625312805,-0.001353684812784195
1772807050901324500,1.045324462890625,-0.0001411475386703387,0.005960687063634396,-0.002575543010607362
1772807050911255600,1.055255615234375,-0.0017992316279560328,0.007501325570046902,-0.0009829727932810783
1772807050921187300,1.065187255859375,-0.00202267081476748,0.005489840172231197,0.0011014834744855762
1772807050931119400,1.075119384765625,-0.00015952334797475487,0.006925283931195736,0.0015243934467434883
1772807050941051400,1.085051513671875,-0.002478870330378413,0.006298908498138189,0.0015592807903885841
1772807050950982700,1.094982666015625,-0.0009432916413061321,0.006322344299405813,0.0005451490869745612
1772807050960914700,1.104914794921875,-0.000589091214351356,0.007485879585146904,0.003175287041813135
1772807050970846500,1.114846435546875,-0.0011941614793613553,0.00643659383058548,0.0003712446487043053
1772807050980777500,1.124777587890625,-0.00236222380772233,0.004400607198476791,0.0010735202813521028
1772807050990709500,1.13470947265625,-0.004089550115168095,0.006171609275043011,0.00046924897469580173
1772807051000641500,1.1446416015625,-0.0014122743159532547,0.0043774377554655075,-0.003683418035507202
1772807051010573300,1.1545732421875,-0.00040320257539860904,0.006905310321599245,-0.0006865629111416638
1772807051020504600,1.164504638671875,-0.0034932682756334543,0.00478543434292078,0.0002402171230642125
1772807051030436600,1.1744365234375,-0.0006956176948733628,0.00762862479314208,-0.0019198728259652853
1772807051040368600,1.18436865234375,-0.0012932310346513987,0.006527940277010202,0.0009179916232824326
1772807051050299400,1.19429931640625,-0.0008154599345289171,0.007497064769268036,-0.002566754585132003
1772807051060231400,1.2042314453125,0.00014141385327093303,0.007394266780465841,0.00006205165118444711
1772807051070163500,1.21416357421875,0.00014860439114272594,0.0048978193663060665,0.0013616742799058557
1772807051080095500,1.224095458984375,-0.0018226674292236567,0.006859770510345697,-0.000892691605258733
1772807051090026500,1.234026611328125,-0.0020655477419495583,0.006419016979634762,0.00005459480235003866
1772807051099958500,1.24395849609375,0.0011555455857887864,0.005037369206547737,-0.0010567422723397613
1772807051109890600,1.253890625,-0.000550475378986448,0.006738330237567425,0.0014237258583307266
1772807051119821600,1.263821533203125,0.00040480049210600555,0.005805957596749067,-0.00016218650853261352
1772807051129753600,1.273753662109375,-0.002083390951156616,0.005703159607946873,-0.00010279801790602505
1772807051139685400,1.283685302734375,-0.003154247999191284,0.0027084348257631063,0.0004069310089107603
1772807051149617400,1.293617431640625,-0.0009275790071114898,0.00469568558037281,0.0016266588354483247
1772807051159548400,1.30354833984375,-0.0002412823960185051,0.007445931900292635,0.0017358483746647835
1772807051169480400,1.31348046875,-0.0026146916206926107,0.007193997036665678,-0.0005954828229732811
1772807051179412500,1.32341259765625,-0.0013957626651972532,0.005800897255539894,0.0012828446924686432
1772807051189343500,1.333343505859375,-0.0023166837636381388,0.005484247580170631,-0.001312405802309513
1772807051199275500,1.343275634765625,0.0007629956235177815,0.0049737198278307915,0.002353701740503311
1772807051209207600,1.35320751953125,-0.0021142836194485426,0.00628985371440649,0.0015395734226331115
1772807051219138300,1.36313818359375,-0.0008990831556729972,0.005842176266014576,-0.0008207862265408039
1772807051229070300,1.3730703125,0.001070857048034668,0.0054853130131959915,0.0004593952908180654
1772807051239002400,1.38300244140625,-0.0013206616276875138,0.005799565929919481,0.0015315839555114508
1772807051248934400,1.392934326171875,-0.00041784998029470444,0.005515672732144594,0.00015286543930415064
1772807051258865700,1.40286572265625,0.0002697782183531672,0.005607285536825657,0.0007590008899569511
1772807051268797400,1.41279736328125,-0.0019033611752092838,0.007935686968266964,-0.00028762139845639467
1772807051278729500,1.4227294921875,-0.0002620550512801856,0.00398648576810956,0.00033875409280881286
1772807051288661500,1.43266162109375,-0.00207726564258337,0.006620618514716625,-0.0015952334506437182
1772807051298592500,1.442592529296875,0.00033928672201000154,0.005979062989354134,0.00048389637959189713
1772807051308524500,1.452524658203125,-0.0017915084026753902,0.006866960786283016,-0.00019920444174204022
1772807051318456300,1.462456298828125,-0.002058623591437936,0.004974518436938524,-0.0006231797160580754
1772807051328387600,1.4723876953125,-0.0003145193331874907,0.006487460341304541,0.002413090318441391
1772807051338319600,1.482319580078125,-0.0010287790792062879,0.007640875410288572,0.001014131703414023
1772807051348251600,1.492251708984375,0.0005049353349022567,0.008109591901302338,0.0014045510906726122
1772807051358183400,1.502183349609375,-0.0010913633741438389,0.004682902246713638,-0.000841825210954994
1772807051368114400,1.512114501953125,-0.00023382554354611784,0.00566853815689683,-0.00046871634549461305
1772807051378046500,1.52204638671875,-0.000990695902146399,0.00589597225189209,-0.00031425300403498113
1772807051387978500,1.531978515625,-0.0002585929469205439,0.007895739749073982,-0.0012652678415179253
1772807051397909500,1.541909423828125,-0.001740642124786973,0.0060030315071344376,0.00046312372433021665
1772807051407841500,1.551841552734375,-0.0006527407676912844,0.008143147453665733,-0.00011291803093627095
1772807051417773600,1.561773681640625,-0.00011904330312972888,0.006873352453112602,0.0007757788407616317
1772807051427704600,1.57170458984375,-0.00042211104300804436,0.0031944618094712496,0.0008349010022357106
1772807051437636600,1.58163671875,-0.002280997345224023,0.0046690539456903934,-0.0007478156476281583
1772807051447568400,1.591568359375,-0.0013480921043083072,0.005858954507857561,0.00041571943438611925
1772807051457500400,1.60150048828125,-0.0013190637109801173,0.0041374871507287025,-0.00032890037982724607
1772807051467431400,1.611431396484375,-0.0022690133191645145,0.007210508454591036,0.0014777880860492587
1772807051477363700,1.62136376953125,-0.0009366337326355278,0.00791225116699934,-0.0014149374328553677
1772807051487295500,1.63129541015625,-0.00330338510684669,0.007409713231027126,-0.0007880293414928019
1772807051497226500,1.6412265625,0.0000679106087773107,0.006571616046130657,-0.000022903184799361043
1772807051507158500,1.651158447265625,-0.0027084348257631063,0.005649097263813019,0.0005286374944262207
1772807051517090600,1.661090576171875,-0.0009174589649774134,0.006491188891232014,0.0002854908525478095
1772807051527022600,1.671022705078125,-0.0020157466642558575,0.005643238313496113,0.0015907060587778687
1772807051536953300,1.680953369140625,-0.0015385081060230732,0.0046213832683861256,-0.001508680754341185
1772807051546885400,1.690885498046875,0.00007882956560933962,0.007481085602194071,-0.0005233111442066729
1772807051556817400,1.7008173828125,-0.002557966159656644,0.005565473809838295,0.002651176881045103
1772807051566748200,1.710748046875,-0.0027031085919588804,0.007485080510377884,-0.0014586133183911443
1772807051576680200,1.72068017578125,0.00018136126163881272,0.00743101816624403,-0.00040799626731313765
1772807051586612200,1.7306123046875,-0.0039036613889038563,0.006677343975752592,0.0019177423091605306
1772807051596544300,1.740544189453125,-0.0014319816837087274,0.005773467011749744,0.0010932276491075754
1772807051606475300,1.750475341796875,-0.0016911072889342904,0.00851385947316885,0.002669286448508501
1772807051616407000,1.760406982421875,-0.0008221178431995213,0.00347489258274436,0.0011076086666435003
1772807051626339000,1.770339111328125,-0.000336090917699039,0.0057196710258722305,0.0025856629945337772
1772807051636270300,1.780270263671875,0.0003379551344551146,0.0059929112903773785,-0.0012500877492129803
1772807051646202400,1.790202392578125,-0.0027089675422757864,0.006767092272639275,0.0003504719934426248
1772807051656134400,1.800134521484375,0.000019707391402334906,0.006384928710758686,-0.0006807039608247578
1772807051666066200,1.810066162109375,-0.00039654469583183527,0.006852047052234411,0.0020122844725847244
1772807051675997200,1.8199970703125,-0.00036458674003370106,0.005033374298363924,0.002088983543217182
1772807051685929200,1.82992919921875,-0.00021198761533014476,0.009357016533613205,0.0007856325246393681
1772807051695861200,1.839861328125,-0.0013363742036744952,0.006697051227092743,0.0005808354471810162
1772807051705792300,1.849792236328125,-0.002487392397597432,0.006566289812326431,0.001353418454527855
1772807051715724300,1.859724365234375,0.0002519350382499397,0.007135407533496618,-0.001386175281368196
1772807051725656300,1.86965625,-0.0030192257836461067,0.00717721926048398,-0.0015451660146936774
1772807051735588400,1.87958837890625,-0.0015166702214628458,0.006620884872972965,-0.0014980280539020896
1772807051745519000,1.88951904296875,-0.0009307747823186219,0.005642439238727093,0.0006892260862514377
1772807051755451100,1.899451171875,-0.00216488353908062,0.006623281631618738,-0.0005278385360725224
1772807051765383200,1.909383056640625,-0.001371794263832271,0.006622748915106058,0.0009177253232337534
1772807051775314400,1.919314453125,-0.001698830397799611,0.0052384380251169205,0.0022485069930553436
1772807051785246200,1.92924609375,-0.0015957661671563983,0.0037611823063343763,0.0012484899489209056
1772807051795178200,1.93917822265625,-0.0019686087034642696,0.005376389715820551,0.0013318468118086457
1772807051805110300,1.9491103515625,0.00030360036180354655,0.00390312890522182,0.00152332813013345
1772807051815041300,1.959041259765625,0.001383778522722423,0.0062336609698832035,-0.00034408041392453015
1772807051824973300,1.968973388671875,0.0005731122801080346,0.003977963700890541,0.00140987744089216
1772807051834905000,1.978905029296875,-0.001023452845402062,0.005562012083828449,0.0007123955874703825
1772807051844836400,1.98883642578125,-0.00021411814668681473,0.005631786771118641,0.00086872314568609
1772807051854768400,1.998768310546875,0.001290834159590304,0.005711148958653212,0.0008876316132955253
1772807051864700400,2.008700439453125,-0.003578755771741271,0.0052229915745556355,-0.0020732709672302008
1772807051874631200,2.018631103515625,-0.0007363640470430255,0.007104514632374048,-0.0010402307379990816
1772807051884563200,2.028563232421875,-0.0009981527691707015,0.008804144337773323,-0.00023222764139063656
1772807051894495200,2.0384951171875,-0.00002210423735959921,0.006170277949422598,0.00023329291434492916
1772807051904427300,2.04842724609375,0.0003880225704051554,0.004446147475391626,0.000984836951829493
1772807051914358000,2.05835791015625,-0.001811748486943543,0.0036104475148022175,0.00007057376933516935
1772807051924290300,2.068290283203125,-0.001996039180085063,0.0054182009771466255,-0.000764593540225178
1772807051934222300,2.078222412109375,-0.0012428972404450178,0.006684534251689911,0.00011238539445912465
1772807051944153300,2.0881533203125,0.00007936220208648592,0.006042712368071079,0.0001685781026026234
1772807051954085400,2.09808544921875,-0.000883636821527034,0.005881857592612505,0.00018029600323643535
1772807051964017200,2.10801708984375,-0.0009680590592324734,0.006195577792823315,0.000005592638444795739
1772807051973949200,2.11794921875,-0.00010945591930067167,0.005795571021735668,0.0016937704058364034
1772807051983880200,2.127880126953125,-0.00004713794987765141,0.005429652985185385,-0.00024447820032946765
1772807051993812200,2.137812255859375,-0.000803209375590086,0.005525792948901653,0.0008042746339924634
1772807052003744300,2.147744140625,-0.00166633992921561,0.007392668630927801,-0.0001930791768245399
1772807052013675300,2.15767529296875,0.00021518341964110732,0.004769188817590475,0.0027443873696029186
1772807052023607300,2.167607177734375,-0.0016642092959955335,0.006015548016875982,0.002091380301862955
1772807052033539300,2.177539306640625,-0.0009901633020490408,0.006339921150356531,0.0010812433902174234
1772807052043471400,2.187471435546875,-0.0012684636749327183,0.0049612028524279594,0.0034439999144524336
1772807052053402000,2.197402099609375,0.00003302319601061754,0.006301837973296642,-0.0015299860388040543
1772807052063334100,2.207334228515625,-0.0023787354584783316,0.0065742796286940575,0.0015222628135234118
1772807052073266200,2.21726611328125,-0.0007925567333586514,0.00720651401206851,0.001190166687592864
1772807052083197400,2.227197509765625,-0.0024762072134763002,0.00626002624630928,-0.0012221246724948287
1772807052093129200,2.237129150390625,-0.0015614113071933389,0.005541505757719278,0.001062068622559309
1772807052103061200,2.247061279296875,0.0006924218614585698,0.00541340745985508,-0.0004183826094958931
1772807052112993300,2.2569931640625,-0.0014956312952563167,0.0076512619853019714,0.00006072007090551779
1772807052122924300,2.26692431640625,0.0004170510219410062,0.005105546209961176,0.000003462109361862531
1772807052132856300,2.276856201171875,-0.0004183826094958931,0.0076150428503751755,-0.0013401026371866465
1772807052142788000,2.2867880859375,-0.002428004052489996,0.00595456175506115,-0.00008655273268232122
1772807052152719400,2.29671923828125,0.0001840244367485866,0.006133792456239462,-0.0004420847399160266
1772807052162651400,2.3066513671875,-0.001654355670325458,0.005631254054605961,0.00008948221511673182
1772807052172583400,2.31658349609375,0.0010863033821806312,0.005489840172231197,-0.0002133192028850317
1772807052182515200,2.32651513671875,-0.0008122641011141241,0.00711809704080224,0.0003009371866937727
1772807052192446200,2.3364462890625,-0.0010942928493022919,0.007230216171592474,0.000040480048483004794
1772807052202378200,2.346378173828125,0.0026530411560088396,0.00634817685931921,0.0008253136184066534
1772807052212310300,2.356310302734375,-0.000901480030734092,0.005282380152493715,-0.0004420847399160266
1772807052222241300,2.3662412109375,-0.0015667376574128866,0.006678675301373005,0.0006442186422646046
1772807052232173300,2.37617333984375,0.0002937466779258102,0.0057106162421405315,0.001413073274306953
1772807052242105300,2.386105224609375,-0.0028636970091611147,0.004092479590326548,-0.0008498146780766547
1772807052252037400,2.396037353515625,-0.002210956299677491,0.005151352379471064,0.0015571502735838294
1772807052261968100,2.405968017578125,0.00180881901178509,0.0023758059833198786,0.0006660565850324929
1772807052271900200,2.415900146484375,-0.0034072482958436012,0.006482400465756655,0.0000013315805063029984
1772807052281832200,2.425832275390625,-0.0000929443194763735,0.0065106297843158245,-0.00010040117194876075
1772807052291763200,2.43576318359375,-0.0001573928166180849,0.005663211923092604,0.000713993504177779
1772807052301695200,2.4456953125,0.0008093346259556711,0.008893626742064953,0.0015923039754852653
1772807052311627300,2.455627197265625,-0.0014106763992458582,0.005403287708759308,0.0024586303625255823
1772807052321558300,2.465558349609375,-0.0008080030675046146,0.009535182267427444,-0.000322775129461661
1772807052331490300,2.475490234375,-0.0024615598376840353,0.007242732681334019,-0.0011012171162292361
1772807052341422300,2.48542236328125,-0.0015576828736811876,0.006384129635989666,0.00012436961696948856
1772807052351354400,2.495354248046875,-0.0008609999786131084,0.002715625334531069,-0.0006282397080212831
1772807052361285000,2.50528515625,-0.0018186726374551654,0.004492486361414194,-0.0004194478678982705
1772807052371217200,2.515217041015625,-0.00020160128769930452,0.007661648094654083,-0.00017363809456583112
1772807052381149200,2.525149169921875,-0.0005342300864867866,0.006111422087997198,-0.0002591255761217326
1772807052391080200,2.535080078125,-0.0009526127250865102,0.006192115601152182,-0.0009882990270853043
1772807052401012200,2.54501220703125,-0.000969656917732209,0.007299990858882666,-0.0010892328573390841
1772807052410944300,2.5549443359375,0.0025598304346203804,0.004089017398655415,0.0009614011505618691
1772807052420876300,2.564876220703125,-0.0024735440965741873,0.00552206439897418,0.00019361180602572858
1772807052430807300,2.574807373046875,-0.0008831042214296758,0.007527957204729319,-0.00037736992817372084
1772807052440739000,2.584739013671875,-0.0024466461036354303,0.00833915639668703,-0.0005153216770850122
1772807052450671000,2.594671142578125,0.0022951122373342514,0.00433056615293026,-0.0019805929623544216
1772807052460602400,2.604602294921875,-0.001184574095532298,0.006888266187161207,0.00015472965606022626
1772807052470534400,2.614534423828125,-0.0005747101386077702,0.00771810719743371,0.001008539111353457
1772807052480466400,2.624466552734375,0.00011424961121520028,0.0038959383964538574,-0.0008109325426630676
1772807052490398200,2.634398193359375,-0.00037390782381407917,0.006214486435055733,-0.00015393071225844324
1772807052500329200,2.6443291015625,-0.001541171339340508,0.005239502992480993,0.0007747135823592544
1772807052510261200,2.65426123046875,-0.001142229768447578,0.008709069341421127,-0.0015038870042189956
1772807052520193300,2.664193359375,-0.003397394670173526,0.006709834095090628,0.00041039311327040195
1772807052530124300,2.674124267578125,0.0012865731259807944,0.007444334216415882,0.000636495475191623
1772807052540056300,2.684056396484375,-0.0021076255943626165,0.006412625312805176,-0.0006852313526906073
1772807052549988400,2.69398828125,-0.002147839404642582,0.005401423200964928,-0.0002580603177193552
1772807052559919600,2.703919677734375,0.0005038700764998794,0.006400108803063631,-0.0015166702214628458
1772807052569850400,2.713850341796875,-0.00177925790194422,0.004637096077203751,-0.001701759872958064
1772807052579782400,2.723782470703125,0.001415736391209066,0.005075186025351286,-0.0012010856298729777
1772807052589714400,2.73371435546875,-0.0016421051695942879,0.004512992687523365,-0.0004593952908180654
1772807052599645700,2.743645751953125,-0.0011704593198373914,0.0065132929012179375,0.00019520970818120986
1772807052609577700,2.75357763671875,-0.002011219272390008,0.0067899953573942184,-0.000054861116950633004
1772807052619509500,2.763509521484375,-0.0023281353060156107,0.0068184914998710155,0.001398425898514688
1772807052629441500,2.773441650390625,-0.0010634001810103655,0.0068299430422484875,-0.0013020194601267576
1772807052639372500,2.78337255859375,-0.0009685916593298316,0.005936185829341412,0.0010420948965474963
1772807052649304600,2.7933046875,-0.0022426480427384377,0.003943875432014465,-0.0003789678157772869
1772807052659236400,2.803236328125,0.0011201255256310105,0.004433364141732454,0.0004117247008252889
1772807052669167600,2.813167724609375,-0.0023339942563325167,0.0031728900503367186,0.001246625673957169
1772807052679099600,2.823099609375,-0.0009835053933784366,0.0063785370439291,-0.000011451592399680521
1772807052689031700,2.83303173828125,-0.0014381069922819734,0.0054360441863536835,0.0006399576086550951
1772807052698963700,2.842963623046875,0.0015688681742176414,0.005643238313496113,-0.000731836655177176
1772807052708894500,2.85289453125,-0.0014442323008552194,0.008159925229847431,-0.0016128103015944362
1772807052718826500,2.862826416015625,-0.003543335711583495,0.007014233618974686,-0.001116130850277841
1772807052728758500,2.872758544921875,0.00020399813365656883,0.004746285732835531,-0.0008756473544053733
1772807052738689500,2.882689453125,0.0014263890916481614,0.003805124433711171,-0.0011640676530078053
1772807052748621600,2.89262158203125,-0.0022269352339208126,0.006196376867592335,0.00242187874391675
1772807052758553600,2.9025537109375,-0.0027164241764694452,0.0070765516720712185,-0.0012207929976284504
1772807052768485600,2.912485595703125,-0.0005667206714861095,0.007423561532050371,-0.00002210423735959921
1772807052778416600,2.922416748046875,-0.000675111310556531,0.0057439059019088745,0.002204830991104245
1772807052788348400,2.932348388671875,0.0014594122767448425,0.0049558766186237335,0.0026069683954119682
1772807052798280400,2.942280517578125,-0.0001478054327890277,0.0029856697656214237,0.0017904432024806738
1772807052808211500,2.95221142578125,-0.00014168016787152737,0.0079146483913064,0.000791491474956274
1772807052818143500,2.9621435546875,-0.0006053365068510175,0.005733519326895475,-0.0010048106778413057
1772807052828075500,2.972075439453125,0.0010042780777439475,0.0060262009501457214,0.00045380264054983854
1772807052838007600,2.982007568359375,-0.002719087526202202,0.008704275824129581,-0.0012516856659203768
1772807052847938600,2.9919384765625,-0.0011973571963608265,0.003885818412527442,-0.002400839701294899
1772807052857870600,3.00187060546875,-0.00016112125013023615,0.003781422507017851,0.0010050770360976458
1772807052867802600,3.011802734375,-0.00023196132679004222,0.0060152821242809296,0.001270061475224793
1772807052877733400,3.0217333984375,-0.003183276392519474,0.005510612856596708,0.000702009245287627
1772807052887665400,3.03166552734375,0.00048629322554916143,0.006081594619899988,0.0001781654718797654
1772807052897597400,3.041597412109375,-0.0013377057621255517,0.006248041987419128,0.0004620584368240088
1772807052907529500,3.051529541015625,-0.001651692553423345,0.008162588812410831,-0.0003182477375958115
1772807052917460500,3.06146044921875,-0.0002612560929264873,0.006595318205654621,-0.002323341788724065
1772807052927392500,3.071392578125,-0.0018692727899178863,0.0064744106493890285,0.0020160130225121975
1772807052937324500,3.081324462890625,0.00023861923546064645,0.006468818057328463,0.0013568805297836661
1772807052947255600,3.091255615234375,0.0005209143273532391,0.006371879018843174,-0.0010061422362923622
1772807052957187600,3.1011875,-0.0029963224660605192,0.005854426883161068,-0.0005036037764512002
1772807052967119400,3.111119384765625,-0.0003802994033321738,0.003885552054271102,-0.0009185242815874517
1772807052977051400,3.121051513671875,0.0013206616276875138,0.006462426856160164,-0.0035654399544000626
1772807052986982700,3.130982666015625,-0.0010988202411681414,0.007241401355713606,-0.0022682142443954945
1772807052996914700,3.140914794921875,0.00016165387933142483,0.007348194252699614,-0.0013177321525290608
1772807053006846500,3.150846435546875,-0.0004777711001224816,0.005146558862179518,-0.00021172130072955042
1772807053016777500,3.160777587890625,-0.002886600326746702,0.006720753386616707,-0.0010298443958163261
1772807053026709500,3.17070947265625,0.0016141419764608145,0.004992628004401922,-0.0008785768295638263
1772807053036641500,3.1806416015625,0.0007765777409076691,0.005991047248244286,0.0003842941368930042
1772807053046573600,3.190573486328125,0.0013568805297836661,0.006310626398772001,0.0005957491230219603
1772807053056504600,3.200504638671875,-0.0000929443194763735,0.007355118170380592,0.002746251644566655
1772807053066436600,3.2104365234375,-0.0022628880105912685,0.0054277884773910046,0.0018399780383333564
1772807053076368600,3.22036865234375,-0.0007105313707143068,0.006406234111636877,0.0025537051260471344
1772807053086299600,3.230299560546875,-0.0008175904513336718,0.005495699122548103,0.002142513170838356
1772807053096231400,3.2402314453125,-0.002490321872755885,0.007377222646027803,0.00044368262751959264
1772807053106163500,3.25016357421875,-0.0017004283145070076,0.004994226153939962,0.0012381036067381501
1772807053116095500,3.260095458984375,-0.0013901700731366873,0.004767591133713722,0.00036698358599096537
1772807053126026800,3.27002685546875,-0.0009542105835862458,0.006503705866634846,0.0014980280539020896
1772807053135958500,3.27995849609375,-0.0018612833227962255,0.005221659783273935,0.0013851100811734796
1772807053145890600,3.289890625,-0.0008000136003829539,0.005285575985908508,0.0003259709046687931
1772807053155821600,3.299821533203125,-0.0017267935909330845,0.0037297571543604136,0.0006002765148878098
1772807053165753600,3.309753662109375,-0.0032264196779578924,0.006729009095579386,-0.0004756405542138964
1772807053175685600,3.319685546875,-0.0013749900972470641,0.008391087874770164,-0.00017017599020618945
1772807053185617400,3.329617431640625,-0.0013401026371866465,0.005071990191936493,-0.0012471582740545273
1772807053195548400,3.33954833984375,0.0003944141499232501,0.0046149916015565395,0.000678307143971324
1772807053205480400,3.34948046875,-0.0006996124284341931,0.006037119776010513,0.000886566296685487
1772807053215412700,3.359412841796875,-0.001377386855892837,0.004448277875781059,0.0008327704854309559
1772807053225343500,3.369343505859375,-0.00032197617110796273,0.0072957295924425125,-0.0011922972043976188
1772807053235275500,3.379275634765625,0.0011076086666435003,0.004795287735760212,0.001722532557323575
1772807053245207600,3.38920751953125,0.0014093448407948017,0.006385195069015026,0.0013771206140518188
1772807053255139600,3.3991396484375,-0.0026114957872778177,0.008617457002401352,-0.001844771672040224
1772807053265070300,3.4090703125,0.0006133259739726782,0.004655205644667149,-0.00021225394448265433
1772807053275002400,3.41900244140625,-0.003605121048167348,0.0065375277772545815,-0.0005347627447918057
1772807053284934400,3.428934326171875,-0.0032929987646639347,0.00507092522457242,0.0007550061563961208
1772807053294865700,3.43886572265625,0.0012237224727869034,0.0059537626802921295,-0.0003424825263209641
1772807053304797700,3.448797607421875,-0.00009667274571256712,0.006109823938459158,0.0007560714147984982
1772807053314729500,3.4587294921875,-0.00130894361063838,0.0057463026605546474,0.0007992146420292556
1772807053324661500,3.46866162109375,-0.00009667274571256712,0.005222725216299295,-0.0019590212032198906
1772807053334592500,3.478592529296875,-0.0014082795241847634,0.0059508332051336765,-0.0019941749051213264
1772807053344524500,3.488524658203125,-0.00002103897168126423,0.008421980775892735,-0.0008668589289300144
1772807053354456300,3.498456298828125,-0.0018112158868461847,0.008193481713533401,0.00028069718973711133
1772807053364387600,3.5083876953125,-0.00015712650201749057,0.005879194475710392,0.00018615495355334133
1772807053374319600,3.518319580078125,0.0009435579413548112,0.006380933802574873,-0.00005273058923194185
1772807053384251600,3.528251708984375,-0.00112465291749686,0.006432599388062954,0.0011757856700569391
1772807053394183700,3.53818359375,0.000319845654303208,0.00512685114517808,0.0003408846096135676
1772807053404114400,3.548114501953125,-0.001520132296718657,0.005317800212651491,0.00011611382069531828
1772807053414046500,3.55804638671875,-0.0026618295814841986,0.008698683232069016,0.0003904194163624197
1772807053423978500,3.567978515625,-0.00012436961696948856,0.004928978625684977,-0.0010716560063883662
1772807053433909800,3.57790966796875,0.0005581985460594296,0.006640059407800436,-0.0003374225052539259
1772807053443841500,3.587841552734375,-0.0009350358741357923,0.005567871034145355,0.0009036105475388467
1772807053453773600,3.597773681640625,-0.00008202536264434457,0.005407814867794514,0.0007765777409076691
1772807053463704600,3.60770458984375,-0.002576608443632722,0.0060331248678267,0.0024290692526847124
1772807053473636600,3.61763671875,0.0002972087822854519,0.004959338344633579,-0.0014748586108908057
1772807053483568400,3.627568359375,0.0013275857781991363,0.006234726402908564,-0.0004522047529462725
1772807053493500400,3.63750048828125,-0.0014325142838060856,0.005524194799363613,-0.00122558674775064
1772807053503431700,3.647431640625,-0.0020692760590463877,0.006797985173761845,-0.001029311795718968
1772807053513363700,3.65736376953125,-0.0009406284661963582,0.007260043174028397,-0.0005906891310587525
1772807053523295700,3.667295654296875,-0.002416019793599844,0.003920439630746841,-0.000316916179144755
1772807053533227500,3.6772275390625,-0.00046631949953734875,0.006848584860563278,0.0012926984345540404
1772807053543158500,3.687158447265625,-0.0002985403698403388,0.005854160524904728,0.000018109494703821838
1772807053553090600,3.697090576171875,-0.0010133327450603247,0.005489840172231197,0.0001448759576305747
1772807053563023400,3.7070234375,-0.00040666470886208117,0.007672833278775215,0.0001757686259225011
1772807053572954400,3.716954345703125,-0.0026114957872778177,0.00518810423091054,0.0007483482477255166
1772807053582886400,3.726886474609375,-0.001710548298433423,0.004779042676091194,-0.002145176287740469
1772807053592818200,3.736818115234375,0.0003992078418377787,0.005556419026106596,-0.000874582096002996
1772807053602750200,3.746750244140625,0.0015512913232669234,0.0067545752972364426,0.0015283881220966578
1772807053612681500,3.756681396484375,-0.00133903743699193,0.00577772781252861,0.0009560748003423214
1772807053622613500,3.766613525390625,-0.00038402783684432507,0.006091182120144367,0.001121723442338407
1772807053632545500,3.776545654296875,-0.0009068063227459788,0.006833937484771013,0.0005552690709009767
1772807053642476300,3.786476318359375,0.00006604639202123508,0.004989165812730789,0.00009614011651137844
1772807053652408300,3.796408203125,-0.00009693906031316146,0.00797110702842474,-0.001383245806209743
1772807053662340400,3.80634033203125,-0.0005083974683657289,0.005034173373132944,0.0017188041238114238
1772807053672272400,3.8162724609375,-0.0009123989730142057,0.008057394064962864,-0.00045060686534270644
1772807053682203400,3.826203369140625,-0.0011174624087288976,0.004790227860212326,-0.0014652712270617485
1772807053692135400,3.836135498046875,-0.000746750389225781,0.006901049055159092,-0.0011283813510090113
1772807053702067500,3.8460673828125,-0.0027624969370663166,0.005435245577245951,0.0009483516332693398
1772807053711998500,3.85599853515625,-0.0022266688756644726,0.005320196971297264,-0.0009736517095007002
1772807053721930200,3.86593017578125,-0.0037025928031653166,0.006885336712002754,0.0013576794881373644
1772807053731862300,3.8758623046875,0.0015869776252657175,0.005227785091847181,-0.0014836470363661647
1772807053741794300,3.885794189453125,-0.0020154803059995174,0.0070981234312057495,0.0004348942020442337
1772807053751725300,3.895725341796875,-0.00011398329661460593,0.0057681407779455185,0.0007994809420779347
1772807053761657600,3.90565771484375,-0.0020325244404375553,0.003632019041106105,0.0006708502769470215
1772807053771589400,3.91558935546875,0.0004647216119337827,0.005250421818345785,-0.002645051572471857
1772807053781520400,3.925520263671875,0.00038269624928943813,0.005760683678090572,0.0003328951424919069
1772807053791452400,3.935452392578125,-0.0013171994360163808,0.006703442893922329,0.0003755057114176452
1772807053801384400,3.945384521484375,-0.0011406318517401814,0.005422462243586779,0.0025872609112411737
1772807053811316500,3.95531640625,-0.002924683503806591,0.0027300063520669937,0.000150202278746292
1772807053821247200,3.965247314453125,-0.001966478070244193,0.007931958884000778,-0.0009805759182199836
1772807053831179300,3.97517919921875,-0.0020996362436562777,0.004728708881884813,0.00020772656716872007
1772807053841109200,3.985109130859375,-0.0009643306257203221,0.004062918480485678,-0.0004599279200192541
1772807053851041300,3.995041259765625,0.0018130800453945994,0.005931925028562546,-0.0016157397767528892
1772807053860973300,4.004973388671875,-0.0030988543294370174,0.005109807010740042,-0.003007774008437991
1772807053870904300,4.014904296875,-0.000024234765078290366,0.006305832881480455,0.0025417208671569824
1772807053880836600,4.024836669921875,-0.0008625978953205049,0.004351605195552111,0.000580036488827318
1772807053890768400,4.034768310546875,-0.00330311874859035,0.007951666601002216,-0.0011049455497413874
1772807053900700400,4.044700439453125,0.0004732437082566321,0.0046152579598128796,0.0011411645682528615
1772807053910631400,4.05463134765625,-0.0005667206714861095,0.006554305553436279,0.00012676646292675287
1772807053920563500,4.0645634765625,-0.0026674221735447645,0.0055817193351686,0.0011379687348380685
1772807053930495200,4.0744951171875,-0.0007249124464578927,0.004802478477358818,-0.0002793656021822244
1772807053940426200,4.08442626953125,0.0005044027348048985,0.005215534474700689,-0.0008737831376492977
1772807053950358300,4.094358154296875,0.0003632551815826446,0.008416654542088509,-0.0014152037911117077
1772807053960290300,4.104290283203125,0.0002767024270724505,0.0044322991743683815,0.00048416267964057624
1772807053970222600,4.11422265625,-0.0007022755453363061,0.005831257440149784,0.0015105449128895998
1772807053980153300,4.1241533203125,-0.002285258611664176,0.007084541022777557,-0.0025656893849372864
1772807053990085400,4.13408544921875,-0.0024551681708544493,0.007044061087071896,-0.002067944500595331
1772807054000017400,4.144017333984375,-0.0014306501252576709,0.005160140804946423,0.0002921487612184137
1772807054009948400,4.153948486328125,-0.0005289037944748998,0.008957009762525558,0.0018093516118824482
1772807054019880200,4.163880126953125,-0.0014700648607686162,0.007457383442670107,0.001606685109436512
1772807054029812200,4.173812255859375,-0.0033539850264787674,0.00606268597766757,-0.0006719155353493989
1772807054039744300,4.183744140625,-0.002168612089008093,0.0036762275267392397,0.001743305241689086
1772807054049675500,4.193675537109375,-0.0010167949367314577,0.006904244888573885,0.0010554107138887048
1772807054059607300,4.203607177734375,-0.00213532242923975,0.004624579101800919,0.00046578687033616006
1772807054069539300,4.213539306640625,-0.002338521648198366,0.007095193490386009,-0.0012266519479453564
1772807054079471400,4.223471435546875,-0.0036599822342395782,0.007497863844037056,0.0010761833982542157
1772807054089402400,4.23340234375,-0.0018410432385280728,0.005908755585551262,-0.00014088122406974435
1772807054099334400,4.24333447265625,0.00013981595111545175,0.007962052710354328,0.00024048343766480684
1772807054109266200,4.25326611328125,0.0008263788768090308,0.0028154938481748104,-0.00025779398856684566
1772807054119197400,4.263197509765625,0.0015574166318401694,0.006627276539802551,0.00005379585491027683
1772807054129129500,4.27312939453125,0.0003462109307292849,0.006816360633820295,-0.0004878911131527275
1772807054139061500,4.2830615234375,-0.0011712582781910896,0.005114068277180195,0.0011377023765817285
1772807054148993500,4.29299365234375,0.00014274542627390474,0.006825681775808334,0.0015169365797191858
1772807054158924300,4.30292431640625,-0.0010362359462305903,0.004929777234792709,0.001404284848831594
1772807054168856300,4.312856201171875,-0.0020628846250474453,0.008612662553787231,0.0000045273736759554595
1772807054178789400,4.322789306640625,-0.000993625377304852,0.0043830303475260735,0.0034434671979397535
1772807054188720400,4.332720458984375,-0.0017419736832380295,0.00845606904476881,0.0006807039608247578
1772807054198652200,4.342652099609375,-0.001577123999595642,0.004948153160512447,0.0011685950448736548
1772807054208584200,4.352584228515625,-0.0003914846747647971,0.007544469088315964,0.0026841999497264624
1772807054218515500,4.362515380859375,0.00046365635353140533,0.004502606578171253,-0.0007765777409076691
1772807054228447500,4.372447509765625,0.0005060005933046341,0.006311691831797361,0.001493234420195222
1772807054238379500,4.382379638671875,0.003141997382044792,0.007221694104373455,0.000553404854144901
1772807054248311300,4.392311279296875,-0.0010556770721450448,0.0041731735691428185,-0.0005528722540475428
1772807054258242300,4.4022421875,-0.0018064221367239952,0.0076091839000582695,0.0008767126128077507
1772807054268174300,4.41217431640625,-0.0014759238110855222,0.005561745725572109,0.0013843111228197813
1772807054278106400,4.4221064453125,-0.0010990865994244814,0.005224855616688728,0.0010253170039504766
1772807054288037400,4.432037353515625,-0.002254898427054286,0.009642506949603558,0.0004673847579397261
1772807054297969400,4.441969482421875,-0.00020532972121145576,0.006595318205654621,-0.00017843178648035973
1772807054307901400,4.4519013671875,-0.00014647385978605598,0.0065684206783771515,0.0003403519804123789
1772807054317833500,4.46183349609375,0.0014231932582333684,0.007385211996734142,0.0023848607670515776
1772807054327764200,4.47176416015625,-0.003765709698200226,0.006628874223679304,0.00017710021347738802
1772807054337696300,4.4816962890625,-0.0023433153983205557,0.005576925817877054,-0.00011291803093627095
1772807054347628300,4.491628173828125,-0.0019022959750145674,0.0071164988912642,0.001621332485228777
1772807054357560300,4.501560302734375,-0.0005502090789377689,0.005794506054371595,0.0010375675046816468
1772807054367491600,4.51149169921875,0.00020932445477228612,0.005875199567526579,0.0002620550512801856
1772807054377423400,4.52142333984375,-0.001148088718764484,0.003914314322173595,0.0002620550512801856
1772807054387355400,4.53135546875,0.0002426139690214768,0.008390288800001144,0.000993625377304852
1772807054397286400,4.541286376953125,0.00010093380114994943,0.005528722424060106,0.0008474178612232208
1772807054407218400,4.551218505859375,-0.000972852751147002,0.005852296482771635,0.000827177835162729
1772807054417150200,4.561150146484375,-0.0016295883106067777,0.00700890738517046,0.000254331884207204
1772807054427082200,4.571082275390625,-0.0010181264951825142,0.006171342916786671,0.0021755362395197153
1772807054437013500,4.581013427734375,-0.0014612764352932572,0.007674431428313255,-0.0022338596172630787
1772807054446945500,4.590945556640625,0.0015393070643767715,0.0049308426678180695,0.00024341292737517506
1772807054456877600,4.600877685546875,-0.0001584580895723775,0.006103964988142252,-0.0023640880826860666
1772807054466808300,4.610808349609375,0.0015006912872195244,0.003972371108829975,0.002228533150628209
1772807054476740400,4.620740234375,-0.0004540689697023481,0.007819839753210545,-0.000012783173588104546
1772807054486672400,4.63067236328125,-0.0021584921050816774,0.008431834168732166,0.0003808320325333625
1772807054496604400,4.6406044921875,-0.003495398908853531,0.006219546310603619,-0.0024144218768924475
1772807054506535200,4.65053515625,-0.0006013417732901871,0.008055529557168484,0.0009139968897216022
1772807054516467500,4.660467529296875,-0.00036991306114941835,0.004942294210195541,0.00048070057528093457
1772807054526399500,4.6703994140625,-0.00009800432599149644,0.008949819020926952,0.0009957558941096067
1772807054536330500,4.68033056640625,-0.0012351741315796971,0.0051926313899457455,0.0018793927738443017
1772807054546262300,4.69026220703125,-0.0023845944087952375,0.006915962789207697,-0.003123621689155698
1772807054556194300,4.7001943359375,-0.0008681904873810709,0.004387557972222567,0.0014080132823437452
1772807054566125800,4.710125732421875,0.001412806916050613,0.005654157139360905,-0.0015472965314984322
1772807054576056800,4.720056884765625,0.0007715177489444613,0.003728425595909357,-0.001210673013702035
1772807054585988900,4.72998876953125,-0.0005424859118647873,0.005663744639605284,-0.000002663161012605997
1772807054595921000,4.7399208984375,0.00008548746700398624,0.005877329967916012,-0.000532632227987051
1772807054605851600,4.7498515625,-0.0009715211344882846,0.004197940696030855,0.0016378440195694566
1772807054615783700,4.75978369140625,-0.0004601942200679332,0.0032895365729928017,-0.003552923211827874
1772807054625715700,4.7697158203125,-0.0018738001817837358,0.007799067068845034,0.0018935075495392084
1772807054635647700,4.779647705078125,-0.0011496866354718804,0.006646184716373682,0.0011651329696178436
1772807054645578800,4.789578857421875,-0.003641073824837804,0.003979295492172241,0.0002740392810665071
1772807054655510800,4.7995107421875,-0.0006181196658872068,0.002746784361079335,0.00037816885742358863
1772807054665442800,4.80944287109375,-0.0010868359822779894,0.005932724103331566,0.00011451592581579462
1772807054675374800,4.819374755859375,0.00012729909212794155,0.0070304786786437035,0.000853809411637485
1772807054685305900,4.829305908203125,0.0004516721237450838,0.004320978652685881,-0.001511610229499638
1772807054695237600,4.839237548828125,-0.0015547533985227346,0.0072957295924425125,0.0007547398563474417
1772807054705169700,4.849169677734375,-0.001526257605291903,0.005250155925750732,0.0007941546500660479
1772807054715100700,4.8591005859375,-0.0004894890007562935,0.0031135017052292824,-0.0013012205017730594
1772807054725032700,4.86903271484375,-0.0021789984311908484,0.008412392809987068,0.0024586303625255823
1772807054734964700,4.87896484375,-0.0001560612436151132,0.006205964367836714,0.001972869737073779
1772807054744896800,4.888896728515625,0.0002769687562249601,0.006316218990832567,-0.0004444815858732909
1772807054754827800,4.898827880859375,-0.0011464908020570874,0.0033633061684668064,-0.0009001484140753746
1772807054764759800,4.908759765625,-0.00015339808305725455,0.007847536355257034,-0.0009475527331233025
1772807054774691800,4.91869189453125,-0.0008170577930286527,0.006045908201485872,-0.0014285196084529161
1772807054784622600,4.92862255859375,-0.002514556748792529,0.0071066454984247684,-0.0016074840677902102
1772807054794554600,4.9385546875,-0.0021640846971422434,0.00609384523704648,-0.0007858988246880472
1772807054804486700,4.948486572265625,0.00013422331539914012,0.006237389519810677,-0.0014567491598427296
1772807054814418700,4.958418701171875,0.0004223773430567235,0.006935404147952795,-0.00010386328358436003
1772807054824349700,4.968349609375,0.00025832661776803434,0.007784686051309109,0.0008982842555269599
1772807054834281700,4.97828173828125,-0.0011430287268012762,0.005865079816430807,0.0001651159836910665
1772807054844213800,4.9882138671875,-0.001088700257241726,0.007395864464342594,-0.002369148191064596
1772807054854144800,4.998144775390625,-0.0005675196298398077,0.004803809802979231,-0.002546780975535512
1772807054864076800,5.008076904296875,-0.0014911039033904672,0.006163886282593012,0.001463406952098012
1772807054874008600,5.018008544921875,-0.0034461303148418665,0.005532450973987579,0.0006226470577530563
1772807054883940600,5.027940673828125,-0.002469549188390374,0.008782572112977505,0.0008223841432482004
1772807054893871900,5.037871826171875,-0.0004791026876773685,0.005464540328830481,-0.0007217166712507606
1772807054903804000,5.047803955078125,-0.00290364446118474,0.007368167862296104,0.00024181502521969378
1772807054913736000,5.05773583984375,-0.0006974819116294384,0.007845939137041569,0.0013760552974417806
1772807054923666700,5.067666748046875,-0.0020040287636220455,0.00683074165135622,-0.002055694116279483
1772807054933598700,5.0775986328125,-0.0005704491049982607,0.00446798512712121,0.0005699164466932416
1772807054943530800,5.08753076171875,0.00037284253630787134,0.007792941760271788,0.0004993426846340299
1772807054953462800,5.097462890625,-0.0026325348298996687,0.006835269276052713,0.0004415521107148379
1772807054963393800,5.107393798828125,-0.0019688750617206097,0.007358047645539045,-0.0019481023773550987
1772807054973325800,5.117325927734375,-0.0012887036427855492,0.006749249063432217,0.0005816344055347145
1772807054983257900,5.1272578125,-0.002016811864450574,0.007656588219106197,-0.002341451123356819
1772807054993190000,5.13718994140625,0.0012186624808236957,0.0034708979073911905,0.002671683207154274
1772807055003120600,5.14712060546875,0.0013440974289551377,0.006142847239971161,-0.0022069616243243217
1772807055013052700,5.157052734375,-0.0010277138790115714,0.003031742526218295,-0.00010865696822293103
1772807055022984700,5.166984619140625,0.0011092065833508968,0.0049614692106842995,0.0012865731259807944
1772807055032915700,5.176915771484375,-0.0016620787791907787,0.006748716346919537,-0.0002615224220789969
1772807055042847700,5.18684765625,-0.0022309301421046257,0.006261890754103661,-0.0009869674686342478
1772807055052779800,5.19677978515625,0.0010761833982542157,0.006611031014472246,0.00011371697473805398
1772807055062711800,5.2067119140625,-0.0028391960076987743,0.004786499310284853,-0.0004932174342684448
1772807055072642800,5.216642822265625,-0.001041562296450138,0.005462143570184708,-0.0014101437991485
1772807055082574800,5.226574951171875,-0.002386725042015314,0.0027204190846532583,-0.0005174521938897669
1772807055092506600,5.236506591796875,-0.0034586472902446985,0.0042719766497612,-0.0007957525085657835
1772807055102437600,5.246437744140625,-0.0009659285424277186,0.0065191518515348434,-0.0009395632077939808
1772807055112369700,5.25636962890625,-0.0008191883680410683,0.0034296188969165087,-0.0004676510870922357
1772807055122301700,5.2663017578125,-0.0021614215802401304,0.006136455573141575,0.00006418218254111707
1772807055132234000,5.27623388671875,0.0005315669695846736,0.003819771809503436,-0.0005038700764998794
1772807055142164700,5.286164794921875,-0.001136637176387012,0.0089365029707551,-0.00016218650853261352
1772807055152096800,5.2960966796875,-0.0020642161834985018,0.004284493625164032,0.00030892668291926384
1772807055162028800,5.30602880859375,-0.0009984191274270415,0.003899933071807027,-0.00039974047103896737
1772807055171959600,5.31595947265625,0.00012543488992378116,0.005864280741661787,-5.326322138898831e-7
1772807055181891600,5.3258916015625,-0.002433063928037882,0.006450176239013672,0.000862864195369184
1772807055191823600,5.33582373046875,-0.0018048242200165987,0.0037257622461766005,-0.001487109111621976
1772807055201755600,5.345755615234375,-0.004710599314421415,0.00845393817871809,0.0006921555614098907
1772807055211687000,5.35568701171875,-0.0001739044237183407,0.005742574110627174,-0.0009422263829037547
1772807055221618700,5.36561865234375,-0.0014772554859519005,0.006840062793344259,-0.0015275891637429595
1772807055231550700,5.37555078125,-0.001026382320560515,0.0054301852360367775,-0.0008194546680897474
1772807055241482800,5.385482666015625,-0.0008652610122226179,0.0038069887086749077,0.00034194986801594496
1772807055251413800,5.395413818359375,-0.001359543763101101,0.004126301966607571,0.0017419736832380295
1772807055261345800,5.405345703125,-0.0019108180422335863,0.005973204039037228,0.0023374564480036497
1772807055271277600,5.415277587890625,-0.001517469179816544,0.004098871257156134,-0.0011345066595822573
1772807055281208800,5.425208740234375,-0.000550475378986448,0.007917577400803566,0.0007076018955558538
1772807055291140900,5.435140869140625,-0.0016825852217152715,0.00634897593408823,-0.0008159925346262753
1772807055301073000,5.445072998046875,-0.0002884203568100929,0.005303951445966959,-0.0017707358347252011
1772807055311004700,5.455004638671875,-0.00013315805699676275,0.007931692525744438,0.0011558119440451264
1772807055320935700,5.464935791015625,-0.0029055087361484766,0.007248325273394585,0.0013622068800032139
1772807055330867700,5.47486767578125,-0.00029294771957211196,0.007673365995287895,-0.0007664577569812536
1772807055340799700,5.4847998046875,0.0001483380765421316,0.006354834884405136,0.0012839100090786815
1772807055350730800,5.494730712890625,-0.0018122810870409012,0.006485596299171448,-0.0008892294717952609
1772807055360662800,5.504662841796875,-0.0043835630640387535,0.007743673399090767,-0.0006077333819121122
1772807055370594800,5.5145947265625,-0.001371794263832271,0.007538876496255398,0.0019563580863177776
1772807055380526800,5.52452685546875,-0.0024551681708544493,0.003999002743512392,-0.00003834952076431364
1772807055390457900,5.534457763671875,-0.00023409185814671218,0.006738330237567425,-0.0035305526107549667
1772807055400389600,5.5443896484375,-0.0015366439474746585,0.0062576294876635075,-0.00048655952559784055
1772807055410321700,5.55432177734375,-0.002034388715401292,0.007838748395442963,-0.0011544802691787481
1772807055420253700,5.564253662109375,-0.0029553098138421774,0.006506102625280619,-0.0011736550368368626
1772807055430185000,5.57418505859375,-0.0008551410282962024,0.007919175550341606,0.0006711165769957006
1772807055440116700,5.58411669921875,-0.0013116068439558148,0.006184126250445843,-0.0001680454588495195
1772807055450048800,5.594048828125,-0.0009598032338544726,0.005312207154929638,-0.0016498282784596086
1772807055459979800,5.603979736328125,-0.0011672634864225984,0.004066380672156811,-0.0001984054979402572
1772807055469911800,5.613911865234375,0.00032410668791271746,0.005516738165169954,-0.0007344998302869499
1772807055479843800,5.62384375,-0.0034384073223918676,0.006016613449901342,-0.0006301039247773588
1772807055489775600,5.633775634765625,0.00021172130072955042,0.00631941482424736,0.0008239820599555969
1772807055499706600,5.64370654296875,-0.0005898901727050543,0.007559915538877249,-0.00013422331539914012
1772807055509639000,5.653638916015625,-0.00011424961121520028,0.006419283337891102,0.0017725999932736158
1772807055519571000,5.663571044921875,-0.00007110639853635803,0.007232879288494587,0.0009382316493429244
1772807055529501700,5.673501708984375,-0.0010777813149616122,0.00782543234527111,0.004653607495129108
1772807055539433700,5.683433837890625,-0.0020852552261203527,0.006572947837412357,0.0023337281309068203
1772807055549365800,5.69336572265625,-0.0006583334179595113,0.006150304339826107,0.0009534116834402084
1772807055559297800,5.7032978515625,0.0004988100845366716,0.006564692128449678,-0.0008870989549905062
1772807055569229000,5.71322900390625,-0.0009659285424277186,0.0041675809770822525,-0.00039468047907575965
1772807055579160800,5.723160888671875,-0.0006737797521054745,0.004993959795683622,-0.00042823629337362945
1772807055589092900,5.7330927734375,0.0005954828229732811,0.006201703101396561,0.0011859056539833546
1772807055599024000,5.743024169921875,-0.0019387812353670597,0.009707221761345863,0.0003153182624373585
1772807055608956200,5.7529560546875,0.00011771172285079956,0.006703975144773722,-0.002582201035693288
1772807055618888200,5.76288818359375,0.00013209278404247016,0.0057007623836398125,0.0011062771081924438
1772807055628820000,5.772820068359375,-0.001133174984715879,0.008621185086667538,0.00010040117194876075
1772807055638751000,5.7827509765625,0.00018722022650763392,0.0060019660741090775,0.001288171042688191
1772807055648683000,5.79268310546875,-0.0015515576815232635,0.007104514632374048,0.000603738590143621
1772807055658615000,5.802614990234375,-0.0003534014686010778,0.005819006823003292,0.0022160164080560207
1772807055668547000,5.812547119140625,-0.00019520970818120986,0.005056810099631548,-0.0014671353856101632
1772807055678478000,5.82247802734375,-0.005327120888978243,0.006983074825257063,0.0012229235144332051
1772807055688410000,5.83241015625,0.000791491474956274,0.007842210121452808,-0.0003834952076431364
1772807055698342100,5.842342041015625,-0.0032178976107388735,0.008523447439074516,0.000529436394572258
1772807055708273000,5.85227294921875,-0.0018817896489053965,0.003715908620506525,-0.0004780374001711607
1772807055718205000,5.862204833984375,0.0003081277245655656,0.006934072356671095,-0.001419198582880199
1772807055728137000,5.872136962890625,-0.0016285229939967394,0.006539658177644014,-0.00043036683928221464
1772807055738069000,5.882069091796875,-0.0016753945965319872,0.005012601613998413,0.0020956413354724646
1772807055748000300,5.892000244140625,-0.0019121496006846428,0.007738879881799221,0.0012056130217388272
1772807055757932000,5.90193212890625,-0.0010570086305961013,0.006076801102608442,-0.0004886900424025953
1772807055767864000,5.911864013671875,-0.0010660634143278003,0.007485879585146904,0.0016466324450448155
1772807055777795000,5.921795166015625,-0.0008815063047222793,0.004889297299087048,0.0013800500892102718
1772807055787727000,5.93172705078125,-0.001192829804494977,0.004591023549437523,0.0020072245970368385
1772807055797659100,5.9416591796875,-0.0017528926255181432,0.00634844321757555,0.001458080718293786
1772807055807591000,5.9515908203125,-0.0007917577750049531,0.004196609370410442,-0.00011185276525793597
1772807055817522200,5.961522216796875,-0.0020362529903650284,0.007022755686193705,-0.002380866091698408
1772807055827454200,5.9714541015625,-0.0009629990672692657,0.004879443906247616,0.000687361869495362
1772807055837386200,5.98138623046875,-0.003079146845266223,0.007583084981888533,-0.0002822950773406774
1772807055847317000,5.99131689453125,0.0007720504072494805,0.006487460341304541,0.00019148127466905862
1772807055857249000,6.0012490234375,0.0012692625168710947,0.006725280545651913,0.0019065570086240768
1772807055867181000,6.01118115234375,-0.0014828480780124664,0.006926615722477436,-0.0016703346045687795
1772807055877113000,6.021113037109375,-0.00036245622322894633,0.006132461130619049,0.0008740494376979768
1772807055887043800,6.0310439453125,-0.0015899071004241705,0.004904743749648333,0.0002271676348755136
1772807055896976000,6.040975830078125,-0.002275138394907117,0.007001183927059174,-0.00096086849225685
1772807055906908200,6.050908203125,-0.0009278453071601689,0.004859203472733498,0.0013222594279795885
1772807055916840200,6.060840087890625,-0.003328418591991067,0.0078046596609056,-0.0011313108261674643
1772807055926771000,6.07077099609375,-0.001237571006640792,0.0067750816233456135,-0.00009081379539566115
1772807055936703000,6.080702880859375,0.00025513084256090224,0.0046179210767149925,0.002844256116077304
1772807055946635000,6.090635009765625,-0.0006740460521541536,0.005842176266014576,-0.0010514160385355353
1772807055956566000,6.10056591796875,-0.003183010034263134,0.008962868712842464,0.00027324032271280885
1772807055966498000,6.110498046875,-0.0008237157016992569,0.004789428785443306,0.00038509309524670243
1772807055976429800,6.120429931640625,-0.0018053569365292788,0.005007808096706867,-0.002428004052489996
1772807055986361900,6.13036181640625,-0.0015361113473773003,0.00839801225811243,-0.0004649879119824618
1772807055996293000,6.140293212890625,-0.001430916483514011,0.002829076023772359,0.0015225291717797518
1772807056006225200,6.15022509765625,-0.0003885551996063441,0.004135622642934322,0.001115598133765161
1772807056016157200,6.1601572265625,-0.0014266553334891796,0.005403553601354361,0.000838895735796541
1772807056026088000,6.170087890625,-0.0014146711910143495,0.002954510971903801,-0.001127848750911653
1772807056036020000,6.18002001953125,-0.0023702133912593126,0.005465073045343161,0.0014002900570631027
1772807056045952000,6.189951904296875,-0.000021305288100847974,0.00612313998863101,-0.0005139900604262948
1772807056055884000,6.199884033203125,-0.0022117553744465113,0.007248325273394585,0.0000804274677648209
1772807056065815000,6.20981494140625,-0.000037550569686573,0.004221909213811159,-0.0005187837523408234
1772807056075747000,6.2197470703125,-0.0005789712304249406,0.008285626769065857,-0.0001246359315700829
1772807056085679000,6.22967919921875,-0.00035420042695477605,0.0062576294876635075,0.0007845672662369907
1772807056095611100,6.239611083984375,-0.0020034960471093655,0.003221093211323023,-0.0009259810904040933
1772807056105542000,6.2495419921875,-0.0008293083519674838,0.006117547396570444,-0.0013353090034797788
1772807056115474000,6.259473876953125,-0.002283926820382476,0.006887999828904867,0.000627707049716264
1772807056125406000,6.269406005859375,0.0012655340833589435,0.0046879625879228115,-0.00011717908637365326
1772807056135337200,6.279337158203125,-0.0018314558546990156,0.006878945045173168,0.0009933591354638338
1772807056145269200,6.289269287109375,0.00009108010999625549,0.007919441908597946,0.0015305186389014125
1772807056155201000,6.299200927734375,-0.0006809702608734369,0.004962800536304712,0.0011683288030326366
1772807056165133000,6.309133056640625,-0.0009190568816848099,0.008226238191127777,-0.00003328951424919069
1772807056175064000,6.31906396484375,0.0005174521938897669,0.005125786177814007,0.0009893643436953425
1772807056184996000,6.32899609375,-0.0008799084462225437,0.005934854503720999,0.001062068622559309
1772807056194927900,6.338927978515625,-0.00004340952364145778,0.006253900937736034,-0.00032570460462011397
1772807056204859100,6.348859130859375,0.0006937534781172872,0.0073383403941988945,-0.0006093312404118478
1772807056214791200,6.358791259765625,-0.0005185174522921443,0.005744704511016607,-0.0021486382465809584
1772807056224723200,6.36872314453125,-0.0032591766212135553,0.006084257736802101,0.0026069683954119682
1772807056234655200,6.3786552734375,-0.0021044297609478235,0.0073316823691129684,-0.00036192359402775764
1772807056244586000,6.3885859375,-0.001290834159590304,0.007831824012100697,0.00016192019393201917
1772807056254518000,6.39851806640625,-0.003177950158715248,0.009130913764238358,0.00330205331556499
1772807056264450000,6.408449951171875,-0.0004386226355563849,0.006143113598227501,-0.0014138722326606512
1772807056274382000,6.418382080078125,0.002653307281434536,0.006671750918030739,0.0010189254535362124
1772807056284313000,6.42831298828125,-0.0012913667596876621,0.007911186665296555,-0.0007126618875190616
1772807056294245000,6.4382451171875,-0.0010349043877795339,0.006445914972573519,0.001383245806209743
1772807056304177200,6.44817724609375,-0.0019196064677089453,0.007397728972136974,-0.0022684806026518345
1772807056314108200,6.458108154296875,-0.0021174794528633356,0.0059479037299752235,-0.0015686018159613013
1772807056324040000,6.4680400390625,0.0010924286907538772,0.007502923719584942,0.0009675264009274542
1772807056333972000,6.477971923828125,-0.0014780544443055987,0.006697583943605423,0.0003557983145583421
1772807056343904000,6.487904052734375,-0.0015102786710485816,0.007907457649707794,-0.0006649913266301155
1772807056353835000,6.4978349609375,0.0000958738019107841,0.007017695810645819,0.0014583469601348042
1772807056363767000,6.50776708984375,-0.0002998719282913953,0.00512844929471612,0.0005819007055833936
1772807056373699000,6.517698974609375,-0.001916410750709474,0.007119694724678993,-0.0010032127611339092
1772807056383631000,6.527631103515625,0.00034354778472334146,0.007379619404673576,0.0012833772925660014
1772807056393562000,6.53756201171875,-0.0008588694618083537,0.003919906914234161,0.003456516657024622
1772807056403494100,6.547494140625,0.0006463492172770202,0.008070177398622036,0.0014889733865857124
1772807056413426200,6.55742626953125,0.00016005597717594355,0.0033417344093322754,-0.00034914040588773787
1772807056423357000,6.56735693359375,-0.002528937766328454,0.005977198481559753,-0.001145159243606031
1772807056433289000,6.5772890625,-0.0005850964807905257,0.00891067087650299,-0.00020479709201026708
1772807056443221000,6.587220947265625,-0.0006988134700804949,0.006172141991555691,0.0024772724136710167
1772807056453153000,6.597153076171875,-0.0006511429091915488,0.007790545001626015,0.00014620754518546164
1772807056463084000,6.607083984375,-0.00046818371629342437,0.007876831106841564,0.0018873822409659624
1772807056473016000,6.61701611328125,-0.0019470370607450604,0.006629140581935644,0.002174737397581339
1772807056482948000,6.626947998046875,-0.0024461133871227503,0.005938849411904812,-0.0002258360618725419
1772807056492879000,6.636879150390625,-0.0012144014472141862,0.005628324579447508,0.00023861923546064645
1772807056502811000,6.646810791015625,-0.0015283881220966578,0.0057132793590426445,0.00008016114588826895
1772807056512743000,6.656742919921875,-0.002260757377371192,0.006523413117974997,0.0011590076610445976
1772807056522675000,6.666675048828125,0.0004005394293926656,0.0040826257318258286,-0.0034466630313545465
1772807056532606200,6.676606201171875,0.00046046054922044277,0.004461860284209251,0.001549693406559527
1772807056542538000,6.6865380859375,0.0011012171162292361,0.006857373286038637,0.00017257283616345376
1772807056552470000,6.696469970703125,-0.0020213392563164234,0.009818808175623417,0.002644518855959177
1772807056562402000,6.706402099609375,0.0008114652009680867,0.004433896858245134,0.0015254586469382048
1772807056572334300,6.716334228515625,-0.0009305084822699428,0.007918642833828926,-0.0011965582380071282
1772807056582266400,6.726266357421875,0.00032330775866284966,0.0037611823063343763,0.001395230065099895
1772807056592198400,6.736198486328125,-0.001585912425071001,0.006250705569982529,-0.0012567456578835845
1772807056602129200,6.746129150390625,-0.0008812400046736002,0.005392901133745909,-0.0009345032158307731
1772807056612061200,6.756061279296875,-0.0018362496048212051,0.006667756475508213,-0.0026727484073489904
1772807056621993200,6.7659931640625,-0.0009054747642949224,0.00628985371440649,0.00047697214176878333
1772807056631925200,6.77592529296875,-0.00180881901178509,0.0059995693154633045,0.0004958806093782187
1772807056641856300,6.785856201171875,-0.0007126618875190616,0.003910585772246122,0.0006418218254111707
1772807056651788300,6.795788330078125,0.0004894890007562935,0.003920705523341894,0.0033848776947706938
1772807056661720300,6.80572021484375,-0.0009928264189511538,0.0067870658822357655,-0.0012266519479453564
1772807056671651300,6.8156513671875,-0.002371278591454029,0.006789462640881538,-0.0014831144362688065
1772807056681583400,6.825583251953125,0.0007403587806038558,0.006072539836168289,0.0002495381922926754
1772807056691515100,6.83551513671875,-0.0017622136510908604,0.007907990366220474,0.00017736652807798237
1772807056701447200,6.845447265625,0.0010894992155954242,0.003707652911543846,0.0012639362830668688
1772807056711378400,6.85537841796875,-0.0026168220210820436,0.005885586142539978,0.0010058758780360222
1772807056721310500,6.865310546875,-0.0005603290628641844,0.005585447885096073,-0.0010311759542673826
1772807056731242200,6.8752421875,-0.0023957795929163694,0.007459780666977167,-0.0008125304593704641
1772807056741174300,6.88517431640625,-0.0010002832859754562,0.004929777234792709,0.0019238675013184547
1772807056751105300,6.895105224609375,-0.0015219965716823936,0.00857298169285059,0.001404284848831594
1772807056761037300,6.905037353515625,-0.0008468852029182017,0.007080546114593744,0.0019126823171973228
1772807056770969300,6.91496923828125,0.0011262508342042565,0.007702394388616085,0.0006908240029588342
1772807056780900400,6.924900390625,0.0003294330381322652,0.006549245677888393,0.00006498113361885771
1772807056790832400,6.934832275390625,0.0004450142150744796,0.00678227236494422,-0.0010985539993271232
1772807056800764400,6.944764404296875,-0.001270327833481133,0.005923935677856207,-0.00008122641156660393
1772807056810696400,6.954696533203125,-0.002150768879801035,0.00686110183596611,0.00009720538218971342
1772807056820627200,6.964627197265625,0.00039015308720991015,0.007392934989184141,-0.0008444883860647678
1772807056830559200,6.974559326171875,-0.002514024032279849,0.008007592521607876,0.0017606157343834639
1772807056840491300,6.9844912109375,-0.00010386328358436003,0.004820588044822216,0.002463157754391432
1772807056850423300,6.99442333984375,-0.0010831075487658381,0.0051779840141534805,-0.0008495483780279756
1772807056860354300,7.004354248046875,-0.0007912251749075949,0.006065615452826023,0.0008215851848945022
1772807056870286300,7.014286376953125,-0.0020479708909988403,0.006738063879311085,-0.0005882922559976578
1772807056880218400,7.02421826171875,-0.0024527714122086763,0.005222458858042955,-0.001781921018846333
1772807056890149400,7.0341494140625,-0.00035206988104619086,0.005179848056286573,-0.0002793656021822244
1772807056900081400,7.044081298828125,-0.0013291836949065328,0.0052019525319337845,0.00029348034877330065
1772807056910013200,7.05401318359375,0.0006700513185933232,0.005589175969362259,0.002186455298215151
1772807056919945200,7.0639453125,-0.0008146609761752188,0.0017172062071040273,0.0019323896849527955
1772807056929876200,7.073876220703125,-0.0005994775565341115,0.006661897525191307,-0.002558498876169324
1772807056939808300,7.083808349609375,-0.0006681871018372476,0.0049369679763913155,0.0013659353135153651
1772807056949740300,7.093740234375,-0.0009973538108170033,0.006530071143060923,-0.0015808524331077933
1772807056959671300,7.10367138671875,-0.000313986703986302,0.003736681304872036,-0.00019760655413847417
1772807056969603300,7.113603271484375,-0.0014514228096231818,0.006303968373686075,0.0015592807903885841
1772807056979535400,7.123535400390625,0.00007190534961409867,0.006045641843229532,-0.00026764770154841244
1772807056989467400,7.13346728515625,-0.002039981307461858,0.006053897552192211,0.001517469179816544
1772807056999398100,7.143398193359375,-0.0014514228096231818,0.008644354529678822,-0.0016133430181071162
1772807057009330200,7.153330078125,-0.0031675638165324926,0.008505870588123798,-0.0013627394801005721
1772807057019262200,7.16326220703125,-0.0005203816690482199,0.003979561384767294,-0.0007443535141646862
1772807057029194200,7.1731943359375,0.00008681904728291556,0.007192665245383978,-0.0009326389990746975
1772807057039125200,7.183125244140625,0.0004093278548680246,0.007283213082700968,0.00028096348978579044
1772807057049057300,7.193057373046875,-0.0014293185668066144,0.008678975515067577,0.00004926848123432137
1772807057058989300,7.2029892578125,-0.0005398227367550135,0.007417436223477125,-0.000330231967382133
1772807057068920300,7.21292041015625,-0.002776079112663865,0.006136189214885235,0.00025779398856684566
1772807057078852000,7.22285205078125,-0.0021550299134105444,0.006710899528115988,-0.0013784521725028753
1772807057088784100,7.2327841796875,-0.0025238776579499245,0.007419832982122898,-0.0022943131625652313
1772807057098716200,7.242716064453125,-0.0011584750609472394,0.006125004030764103,-0.0006620618514716625
1772807057108647400,7.2526474609375,-0.002388855442404747,0.006727145053446293,0.0009496832499280572
1772807057118579500,7.262579345703125,-0.0007462177309207618,0.005285309627652168,0.0001102548703784123
1772807057128511200,7.27251123046875,-0.002769687445834279,0.00478303711861372,-0.0007155913626775146
1772807057138443300,7.282443359375,0.0011374361347407103,0.004789961501955986,0.0004527373821474612
1772807057148374300,7.292374267578125,-0.00039015308720991015,0.0049220542423427105,-0.00020506340661086142
1772807057158306300,7.302306396484375,-0.0007715177489444613,0.007872836664319038,-0.0002271676348755136
1772807057168238300,7.31223828125,-0.0005230448441579938,0.006590791046619415,-0.0012783173006027937
1772807057178169300,7.32216943359375,-0.0022602248936891556,0.00746271014213562,-0.002590723102912307
1772807057188101400,7.332101318359375,-0.0002700445184018463,0.006045908201485872,-0.0002545981842558831
1772807057198033400,7.342033447265625,-0.002430400811135769,0.006427006796002388,-0.0007707187905907631
1772807057207965400,7.35196533203125,-0.0006705839768983424,0.003718305379152298,-0.00019467707898002118
1772807057217896200,7.361896240234375,-0.0017542241839691997,0.005708219483494759,0.00043595946044661105
1772807057227828200,7.371828125,-0.0006950850365683436,0.004612328484654427,-0.0009760485263541341
1772807057237760300,7.38176025390625,-0.003114300547167659,0.005060005933046341,0.0010436928132548928
1772807057247692300,7.3916923828125,-0.002543585142120719,0.00703900121152401,-0.0015331818722188473
1772807057257623300,7.401623291015625,-0.0012301141396164894,0.005156146362423897,-0.0010061422362923622
1772807057267555300,7.411555419921875,-0.0005360943032428622,0.00609224708750844,0.0000045273736759554595
1772807057277487400,7.4214873046875,-0.0019313243683427572,0.004751345608383417,-0.0012724583502858877
1772807057287418400,7.43141845703125,-0.0012061456218361855,0.006225671619176865,-0.0007411577389575541
1772807057297350400,7.441350341796875,-0.0005542038124985993,0.006485329940915108,-0.00004021373388241045
1772807057307282200,7.4512822265625,-0.0009976201690733433,0.009659817442297935,0.0004069310089107603
1772807057317214200,7.461214111328125,0.000041545314161339775,0.004303401801735163,0.0012804478174075484
1772807057327145200,7.471145263671875,-0.0022865901701152325,0.006099970545619726,0.001430916483514011
1772807057337077500,7.481077392578125,-0.000529702752828598,0.0064834654331207275,-0.002237055217847228
1772807057347009300,7.49100927734375,-0.0030184267088770866,0.004953745752573013,0.0006964165950194001
1772807057356940300,7.500940185546875,0.00013262542779557407,0.0070736221969127655,-0.002626675646752119
1772807057366872300,7.510872314453125,-0.001458080718293786,0.0076211681589484215,-0.0019358517602086067
1772807057376804400,7.520804443359375,-0.0016098808264359832,0.0049588060937821865,0.0013757890556007624
1772807057386736400,7.530736328125,-0.0013174657942727208,0.00689172837883234,0.001490571303293109
1772807057396667100,7.540667236328125,0.0016538230702280998,0.006304767448455095,-0.0012114719720557332
1772807057406599200,7.55059912109375,-0.0005904228310100734,0.006813164800405502,0.0023582291323691607
1772807057416531200,7.56053125,-0.0009187905816361308,0.007918110117316246,-0.0013523531379178166
1772807057426463500,7.57046337890625,-0.002216282533481717,0.004972388036549091,-0.00012596751912496984
1772807057436394200,7.580394287109375,-0.002603239845484495,0.0054626758210361,0.0009201221400871873
1772807057446326300,7.590326171875,-0.000901480030734092,0.005820072256028652,-0.0008591357618570328
1772807057456258300,7.60025830078125,-0.0012088088551536202,0.005335377063602209,-0.002413090318441391
1772807057466190300,7.6101904296875,-0.0005494101205840707,0.006371346767991781,-0.0004649879119824618
1772807057476121000,7.62012109375,0.00086872314568609,0.004328702110797167,0.0017875137273222208
1772807057486053000,7.63005322265625,-0.0022740731947124004,0.008219580166041851,-0.002144909929484129
1772807057495985200,7.639985107421875,-0.0022501046769320965,0.0075636436231434345,-0.0008764463127590716
1772807057505916400,7.64991650390625,-0.0020455741323530674,0.005607019178569317,-0.0001699096756055951
1772807057515848400,7.659848388671875,-0.0014285196084529161,0.006147641222923994,-0.000022636868379777297
1772807057525780200,7.6697802734375,-0.003620833856984973,0.007322094868868589,-0.0007797735743224621
1772807057535712300,7.679712158203125,0.0010194580536335707,0.007631287910044193,0.001312139444053173
1772807057545643300,7.689643310546875,-0.00018482338055036962,0.005343366414308548,0.0004948153509758413
1772807057555575300,7.6995751953125,-0.0014418354257941246,0.004441353492438793,-0.00007190534961409867
1772807057565506300,7.70950634765625,-0.0002479403046891093,0.005918342620134354,0.001484445994719863
1772807057575437000,7.71943701171875,-0.0014258564915508032,0.004673847462981939,-0.0009195895399898291
1772807057585369000,7.729369140625,0.0001584580895723775,0.005331914871931076,-0.0009571401169523597
1772807057595301000,7.739301025390625,0.001228782464750111,0.0066062374971807,-0.000949150591623038
1772807057605233200,7.749233154296875,-0.0015472965314984322,0.004459729418158531,0.000011451592399680521
1772807057615164200,7.7591640625,-0.0006894923863001168,0.008459797129034996,-0.0005004079430364072
1772807057625096200,7.76909619140625,-0.0007651261985301971,0.005985986907035112,-0.0015475628897547722
1772807057635028200,7.7790283203125,-0.0016237293602898717,0.00424135010689497,-0.0005352954030968249
1772807057644960300,7.788960205078125,-0.0002860235108528286,0.005293298978358507,0.0020639498252421618
1772807057654891000,7.79889111328125,-0.0015227955300360918,0.005273591727018356,-0.0004189152386970818
1772807057664823000,7.808822998046875,-0.0013576794881373644,0.006392385344952345,0.0004926847759634256
1772807057674755000,7.818755126953125,0.0002591255761217326,0.007366036996245384,0.0010058758780360222
1772807057684686000,7.82868603515625,-0.0016367788193747401,0.006277869455516338,-0.0013550163712352514
1772807057694618000,7.8386181640625,-0.00009960222087102011,0.00694978516548872,0.000609863898716867
1772807057704550100,7.848550048828125,0.00014620754518546164,0.003469299990683794,-0.0011108045000582933
1772807057714482200,7.858482177734375,0.00024447820032946765,0.006403038278222084,0.0015997608425095677
1772807057724413200,7.8684130859375,-0.0006628608098253608,0.005841909907758236,-0.002581668319180608
1772807057734345200,7.87834521484375,-0.002372077666223049,0.006779875606298447,0.00034940673504024744
1772807057744277200,7.88827734375,-0.003561977995559573,0.006296245381236076,-0.0023489079903811216
1772807057754209000,7.898208984375,0.00024154871061909944,0.0065140919759869576,-0.0022237394005060196
1772807057764140000,7.90814013671875,-0.0021515677217394114,0.0073774890042841434,0.0014271880500018597
1772807057774072000,7.918072021484375,-0.001091629732400179,0.006352438125759363,0.0002743055811151862
1772807057784004000,7.928004150390625,-0.00047590688336640596,0.007084541022777557,-0.0003832288784906268
1772807057793935000,7.93793505859375,-0.0009749832679517567,0.00580782163888216,0.0028756812680512667
1772807057803867100,7.9478671875,-0.0015222628135234118,0.0051745218224823475,0.0011789813870564103
1772807057813799200,7.957799072265625,-0.00023142869758885354,0.0051742554642260075,0.0009813748765736818
1772807057823731200,7.967731201171875,-0.0014077469240874052,0.006892793346196413,0.00027537086862139404
1772807057833662000,7.977661865234375,-0.0024533038958907127,0.004515655804425478,0.000012783173588104546
1772807057843593200,7.98759326171875,0.00044900894863530993,0.004989964887499809,0.00047377636656165123
1772807057853525200,7.997525146484375,0.0010713896481320262,0.00643792562186718,0.0013680658303201199
1772807057863457300,8.007457275390625,-0.000841825210954994,0.006934338714927435,0.0002263686910737306
1772807057873388000,8.017387939453124,-0.0018181400373578072,0.005796370096504688,0.0003944141499232501
1772807057883320000,8.027320068359375,-0.0024495755787938833,0.0070619042962789536,-0.0014394385507330298
1772807057893252000,8.037252197265625,0.0009606021922081709,0.006357764359563589,-0.000838895735796541
1772807057903184100,8.04718408203125,-0.00018269284919369966,0.0073266224935650826,-0.0023518374655395746
1772807057913115100,8.057115234375,0.00009933590627042577,0.005248291417956352,-0.0000852211524033919
1772807057923047200,8.067047119140625,-0.0016165387351065874,0.006472280248999596,-0.003690076060593128
1772807057932979200,8.076979248046875,-0.001907355966977775,0.005185707006603479,-0.00007669904152862728
1772807057942910200,8.08691015625,-0.003534547286108136,0.0059566921554505825,-0.0010002832859754562
1772807057952842200,8.09684228515625,-0.0015430354978889227,0.006614759564399719,0.002004561247304082
1772807057962774000,8.10677392578125,-0.00014061490946915,0.005256547126919031,-0.00042876892257481813
1772807057972706000,8.1167060546875,-0.0013078784104436636,0.003753991797566414,-0.0023787354584783316
1772807057982637000,8.126636962890625,0.0001739044237183407,0.005104480776935816,0.00039787625428289175
1772807057992569000,8.136569091796876,-0.001433845958672464,0.006924751214683056,-0.0002426139690214768
1772807058002501000,8.146501220703126,-0.002412024885416031,0.005499694030731916,0.00010679275874281302
1772807058012433200,8.15643310546875,0.0014596786350011826,0.006411293987184763,0.00034461304312571883
1772807058022364200,8.1663642578125,-0.002424808219075203,0.006995591334998608,-0.00003222424857085571
1772807058032296200,8.176296142578124,-0.001606152392923832,0.0062544336542487144,-0.0009680590592324734
1772807058042228200,8.186228271484374,-0.002412024885416031,0.0060331248678267,0.00019813918333966285
1772807058052159000,8.196158935546874,-0.00012543488992378116,0.004794488660991192,-0.001979261403903365
1772807058062091000,8.206091064453124,-0.0004799016169272363,0.002746518002822995,-0.0008724515791982412
1772807058072023000,8.21602294921875,0.0002700445184018463,0.006650712341070175,-0.0009129316313192248
1772807058081955000,8.225955078125,-0.0023281353060156107,0.07291682064533234,0.018818695098161697
1772807058091886000,8.235885986328125,-0.003967044875025749,0.0918513610959053,0.019145464524626732
1772807058101818000,8.245818115234375,0.0006636597099713981,-0.02521081455051899,-0.009121859446167946
1772807058111750100,8.255750244140625,-0.0015845808666199446,0.048590973019599915,0.007140201050788164
1772807058121682200,8.26568212890625,-0.00001864212754298933,-0.005950034596025944,-0.004774781409651041
1772807058131613000,8.275613037109375,0.00034887410583905876,0.02394448034465313,0.003297259798273444
1772807058141545000,8.285544921875,-0.002100967802107334,0.00412417110055685,-0.0011163970921188593
1772807058151477000,8.29547705078125,-0.0010317085543647408,0.01871270127594471,0.0034048515371978283
1772807058161408300,8.305408203125,-0.003317233407869935,0.014883075840771198,0.001184574095532298
1772807058171340300,8.31534033203125,-0.0008705873624421656,0.01942562870681286,0.004715659189969301
1772807058181272000,8.32527197265625,-0.000910268456209451,0.019509518519043922,0.002261556452140212
1772807058191204000,8.3352041015625,-0.000931041082367301,0.010415356606245041,-0.00016005597717594355
1772807058201135000,8.345135009765626,-0.001606418751180172,0.012546950951218605,0.0002623213513288647
1772807058211067100,8.355067138671876,-0.0002860235108528286,0.00723634148016572,-0.0015491608064621687
1772807058220999200,8.364999267578124,-0.0001715075777610764,0.009591108188033104,0.001520398654974997
1772807058230931000,8.374930908203124,-0.0011297129094600677,0.0040442761965096,-0.0005520732956938446
1772807058240862200,8.3848623046875,-0.002067944500595331,0.007903995923697948,0.0020154803059995174
1772807058250794200,8.394794189453124,0.00011345066013745964,0.004205664154142141,-0.00046605319948866963
1772807058260726300,8.404726318359375,-0.0014708638191223145,0.006702910177409649,0.0010239854454994202
1772807058270657000,8.414656982421874,-0.000594950164668262,0.009798568673431873,0.00024714134633541107
1772807058280589000,8.424589111328125,-0.001055943313986063,0.014448448084294796,0.00048123320448212326
1772807058290521000,8.43452099609375,-0.0014170679496601224,0.01116450410336256,0.0026162895374000072
1772807058300453000,8.444453125,-0.0010735202813521028,0.012190086767077446,0.0015214639715850353
1772807058310384000,8.454384033203125,0.0016498282784596086,0.0031095067970454693,-0.002889263443648815
1772807058320316200,8.464316162109375,-0.0012889700010418892,0.005605155136436224,0.00028309403569437563
1772807058330248200,8.474248291015625,0.00007217166421469301,-0.00016431703988928348,-0.0007483482477255166
1772807058340180200,8.48418017578125,-0.0013968279818072915,-0.005250421818345785,-0.0009624664089642465
1772807058350111000,8.494111083984375,-0.0019832560792565346,-0.012558935210108757,-0.0073013221845030785
1772807058360043000,8.50404296875,-0.0007494135061278939,-0.012958409264683723,-0.0029142971616238356
1772807058369975000,8.51397509765625,-0.0009531453251838684,-0.00570049649104476,-0.002299639629200101
1772807058379906300,8.52390625,0.0011315771844238043,-0.009915214963257313,-0.004982774145901203
1772807058389838300,8.53383837890625,-0.0006178533658385277,-0.03851703181862831,-0.010759171098470688
1772807058399770000,8.54377001953125,0.0007600661483593285,-0.08584992587566376,-0.026284335181117058
1772807058409702100,8.5537021484375,-0.0008791094878688455,-0.048296425491571426,-0.015364841558039188
1772807058419633200,8.563633056640626,-0.001630120910704136,0.06976097077131271,0.020852018147706985
