time,seconds_elapsed,z,y,x
1772806450346780400,0.070780517578125,-0.13024199841618536,0.4661931780345738,0.14051950067207217
1772806450356712700,0.080712646484375,-0.0032236382216215133,0.44551637377403674,0.1308572077050805
1772806450366643500,0.0906435546875,-0.027234043884277342,0.4591828608810901,0.2756720674835145
1772806450376575500,0.100575439453125,-0.129194535189867,0.4781561491593718,0.44022403951957817
1772806450386506500,0.110506591796875,-0.20666998905837536,0.4984504569083452,0.5557476306229829
1772806450396438300,0.120438232421875,-0.2515063251286745,0.5800241398759186,0.6137079444214701
1772806450406369500,0.13036962890625,-0.20843115351200103,0.6770503165844828,0.7927396927088498
1772806450416301600,0.140301513671875,-0.22746260171830654,0.7561781407698989,0.92230130764544
1772806450426232600,0.150232666015625,-0.3403074751317501,0.8629645909272133,0.9142394356124103
1772806450436163300,0.160163330078125,-0.3839087164491415,0.9597985329993068,0.8068314925558865
1772806450446095400,0.170095458984375,-0.27052257576584815,1.0457785611670463,0.6383776907756924
1772806450456026600,0.180026611328125,-0.06217150175273418,1.1132463426969945,0.37735958706662054
1772806450465958400,0.18995849609375,0.19122399812340735,1.1142514280863105,0.1810223375827074
1772806450475889400,0.199889404296875,0.4130693444818258,1.085878151039034,0.07455985868275165
1772806450485821400,0.209821533203125,0.7396621825158596,1.0638496399085968,0.06928396410644054
1772806450495752400,0.21975244140625,0.9751508543014525,1.0449870454631744,0.09491393379494548
1772806450505684500,0.2296845703125,1.1527274353444577,1.0238461308222264,0.08746376391947269
1772806450515615500,0.239615478515625,1.3663748622000216,1.0213131782785057,0.07086874907985329
1772806450525546500,0.24954638671875,1.5582973639816045,0.9986406701561062,-0.031252047353982924
1772806450535478300,0.259478271484375,1.7715332874268293,1.0429044670354575,-0.10715499120876193
1772806450545409500,0.269409423828125,2.123154183733463,1.0604116282839327,-0.1675355178914964
1772806450555341600,0.279341552734375,2.4237363821983338,1.0605951681572943,-0.08593450852558017
1772806450565272600,0.2892724609375,2.750936538475752,1.0020833579558879,0.10616861051991582
1772806450575204400,0.299204345703125,2.949368860542774,1.0319687931317836,0.31841260031834245
1772806450585135400,0.30913525390625,2.8974703310012817,1.1320279808606952,0.3386641649041325
1772806450595067400,0.3190673828125,2.7871406552791593,1.299220895859599,0.27642705056928096
1772806450604998400,0.328998291015625,2.800931864744425,1.575784213094413,0.1523527079373598
1772806450614930400,0.338930419921875,2.8860288995325565,1.7408084788173437,-0.06622559944912791
1772806450624861400,0.348861328125,3.1600650363773104,1.9235931498974561,-0.2321029748700559
1772806450634792400,0.35879248046875,3.591598842832446,2.0151501744799316,0.07708923102989793
1772806450644724500,0.368724365234375,4.059210509362816,1.9615110848814248,0.5225981521498412
1772806450654655500,0.378655517578125,4.425308843833208,2.03391025839895,0.7585368327252566
1772806450664587500,0.38858740234375,4.6846933549910785,2.1977214950703083,0.8379482230924069
1772806450674518300,0.398518310546875,4.64317476516664,2.3402120035544036,0.8998300211835653
1772806450684450300,0.4084501953125,4.490796922788023,2.4273177478164434,1.0188592823203653
1772806450694381600,0.418381591796875,4.440733791980147,2.593811209309101,1.3774252485245466
1772806450704313600,0.428313720703125,4.169125174543261,2.6306208907902238,1.599738796916604
1772806450714244400,0.438244384765625,3.4925527776688337,2.7335747770473358,1.8404747217059134
1772806450724175400,0.44817529296875,2.5545412751942873,2.998476882582903,2.1287930664032695
1772806450734107400,0.458107421875,1.2107780577749012,3.086172409431636,2.742599502763152
1772806450744038700,0.46803857421875,0.206933608430624,3.0383138029307126,2.7575597560077902
1772806450753970400,0.477970458984375,-0.03682195644080639,3.147255531425774,2.326669800414145
1772806450763901400,0.4879013671875,0.12990589832961558,3.3331875606209036,1.8797715438276528
1772806450773833500,0.49783349609375,0.2267144136995077,3.3458436285763975,1.5695719144508242
1772806450783764500,0.507764404296875,0.12942892846763132,3.359051192934811,1.329482470871508
1772806450793696500,0.517696533203125,0.11048866567611694,3.3085300892263647,1.2449760954529046
1772806450803627500,0.52762744140625,0.3303945684045553,3.3347391739770766,1.3187076866179703
1772806450813558500,0.53755859375,0.4159183041721582,3.391394250395894,1.2974695221476256
1772806450823490300,0.547490234375,0.1797498334288597,3.340618587404489,1.271876815729588
1772806450833421600,0.557421630859375,0.06133621997237205,3.4025171174347397,1.6174750907458364
1772806450843353600,0.567353515625,-0.23296996696293354,3.42892581641078,1.5755802149549125
1772806450853284400,0.577284423828125,-0.7936948014765978,3.489341998928785,1.3158636953637004
1772806450863216400,0.58721630859375,-1.177380230563879,3.4970793151825665,0.8465347035214305
1772806450873147400,0.5971474609375,-1.6705881106436251,3.466926461242139,0.016761749708652494
1772806450883079400,0.607079345703125,-2.4640409200578928,3.4393834975391626,-0.8174589772932231
1772806450893010400,0.617010498046875,-2.979547725707292,3.1490298476219176,-1.6225912647157907
1772806450902942500,0.6269423828125,-3.152439363804459,2.6677649187922476,-2.165195628388226
1772806450912873500,0.63687353515625,-2.9426188017606734,2.240675524525344,-2.236042457897216
1772806450922804500,0.646804443359375,-2.49785843398571,1.794159837515652,-1.8988433240443467
1772806450932736500,0.656736572265625,-2.2878946640789506,1.25190384888947,-1.1224497859805822
1772806450942667500,0.66666748046875,-2.306469600689411,0.7723316954523325,-0.2534774790711701
1772806450952599600,0.676599609375,-2.558840433692932,0.4276221859693527,0.18412337233796713
1772806450962530300,0.6865302734375,-2.9211545734494924,0.18875731574892995,0.28274565913155675
1772806450972462300,0.69646240234375,-3.163624774685502,0.10960720666646957,0.2155781026571989
1772806450982393600,0.7063935546875,-3.437735730332136,0.05694529153704643,0.014752309582382439
1772806450992325600,0.71632568359375,-3.6393788311392066,0.14968553455471992,-0.12254355286806821
1772806451002256400,0.72625634765625,-3.630155660241842,0.3860813843131065,-0.310659648104012
1772806451012187400,0.7361875,-3.523492105811834,0.6427636507749557,-0.5902896594330668
1772806451022119400,0.746119384765625,-3.2382442546010015,0.8076286342829465,-0.9967080215930938
1772806451032050400,0.756050537109375,-2.7989140951812264,1.0007780475109815,-1.4002940829366444
1772806451041982500,0.765982421875,-2.2803695292711255,0.9984136564671993,-1.6391154062762856
1772806451051913500,0.77591357421875,-1.5932611253350972,0.889549961644411,-1.624246630707383
1772806451061845500,0.785845458984375,-0.9230331290513276,0.7691729391604661,-1.669538601590693
1772806451071776500,0.795776611328125,-0.5864671785354614,0.6269634395748377,-1.7170862424463034
1772806451081708500,0.80570849609375,-0.18424772936999798,0.48315994879603386,-1.7543480516090988
1772806451091639600,0.8156396484375,0.13531915555000304,0.4050567184180021,-1.9967972100570797
1772806451101570300,0.8255703125,0.25992753199338914,0.27655133453607555,-2.2958704652637243
1772806451111502300,0.83550244140625,0.042374329870939254,0.15404957498311997,-2.375681376342475
1772806451121433600,0.84543359375,-0.051691608792543406,-0.003212532305717468,-2.444823593890667
1772806451131365600,0.85536572265625,0.05440905105769634,-0.14953940408229827,-2.32904763546139
1772806451141296400,0.86529638671875,0.17745558501183986,-0.28745851299762726,-2.0258900335505605
1772806451151228400,0.875228515625,0.45846740608811376,-0.3691062841147184,-1.5949989089131353
1772806451161159400,0.885159423828125,0.8764706998407841,-0.4501987594366073,-0.9689131289556622
1772806451171091500,0.895091552734375,1.0557044004410505,-0.5745552069455385,-0.649204789738357
1772806451181022500,0.9050224609375,0.8966577478229999,-0.6535808128654956,-0.6033063773944973
1772806451190954500,0.91495458984375,0.6336562152117491,-0.7305448100805282,-0.805205206528306
1772806451200885500,0.924885498046875,0.01953998225033283,-0.8075614142656325,-0.9443392441913485
1772806451210816300,0.934816162109375,-0.9322112917631864,-0.9505044888228178,-1.1288684208512305
1772806451220748500,0.94474853515625,-2.0775205598056314,-1.0046931751281023,-1.1310855123788117
1772806451230679600,0.954679443359375,-3.5425703157693147,-1.156014786452055,-0.8245888291731476
1772806451240611600,0.964611572265625,-4.757796585124731,-1.266288932594657,-0.4981675483137369
1772806451250543400,0.97454345703125,-5.332873770117759,-1.2155629539638757,-0.4309788029208779
1772806451260475400,0.984475341796875,-4.947058343264461,-1.0179138912290333,-0.5980173310756683
1772806451270406100,0.99440625,-3.820103062558174,-0.7115414189249276,-0.9463187275707721
1772806451280338200,1.004338134765625,-2.4466414569675923,-0.5458779785156249,-1.2274614815503357
1772806451290269400,1.01426953125,-1.096806226158142,-0.3585802139252424,-1.2892431072026491
1772806451300200200,1.0242001953125,0.1246200668811798,-0.1455944658488035,-1.249001989968121
1772806451310132200,1.03413232421875,0.7014625079810619,-0.049287470260262485,-1.3452984641626478
1772806451320063200,1.044063232421875,0.7721095771342515,-0.06684767687022686,-1.4447513565614818
1772806451329995500,1.05399560546875,0.7438625568151473,-0.025353052443265914,-1.4165195338115095
1772806451339926300,1.06392626953125,0.5837900682806968,-0.07559972312450408,-1.1250994237065315
1772806451349858300,1.0738583984375,0.4701005607366562,-0.27305004841685293,-0.7025581942632794
1772806451359789300,1.083789306640625,0.4634674063324928,-0.5402653993308544,-0.14417086278647184
1772806451369721300,1.093721435546875,0.40658933481276033,-0.8366437163650989,0.45675388016849755
1772806451379652400,1.10365234375,-0.04575286639332771,-1.0837105977416037,1.0210931057870387
1772806451389584400,1.11358447265625,-0.5451707070291042,-1.3823258800476788,1.6100047548651695
1772806451399515400,1.123515380859375,-0.899789031586051,-1.5512649811267851,2.0358006021901964
1772806451409446100,1.133446044921875,-1.0486749401956796,-1.5304267757594585,2.2730033844172954
1772806451419378200,1.143378173828125,-1.1361322743743658,-1.5889257264792918,2.296881688132882
1772806451429309400,1.153309326171875,-0.9218623317062854,-1.6538737072080372,2.0727628438845276
1772806451439241500,1.163241455078125,-0.5529886873036622,-1.536779944178462,1.7257539714179932
1772806451449172200,1.173172119140625,-0.22340894241333006,-1.410248490718007,1.2374540293850005
1772806451459104300,1.183104248046875,0.10404022018909453,-1.3191472470790147,0.8818557538799942
1772806451469035300,1.19303515625,0.4751227728128433,-1.2021516837269066,0.5452620385743677
1772806451478967600,1.202967529296875,0.7514625104248523,-1.1022528011262416,0.3572029342226684
1772806451488898300,1.212898193359375,0.764424867850542,-1.0527420435041188,0.2563536190293729
1772806451498829300,1.222829345703125,0.49944706673026085,-1.100006483504176,0.3231026578307152
1772806451508761300,1.23276123046875,0.18572306261956692,-1.1551543702304363,0.5871791261970997
1772806451518692400,1.2426923828125,-0.20422902564704418,-1.1950848140805959,1.0062786907538772
1772806451528624400,1.252624267578125,-0.49976504663825033,-1.2716314626663923,1.4817635748773812
1772806451538555400,1.262555419921875,-0.5309668251097202,-1.3321610424309969,1.910351975530386
1772806451548487400,1.2724873046875,-0.4321773650556803,-1.3573872536242007,2.195786435354501
1772806451558418200,1.282418212890625,-0.31892098823189735,-1.3269880237072706,2.3769589950628576
1772806451568350200,1.29235009765625,-0.15047639267146587,-1.2165496269136666,2.483355861380696
1772806451578281500,1.302281494140625,-0.11593874777555466,-1.0599000985652207,2.5317858380287883
1772806451588212200,1.312212158203125,-0.17176234180629252,-0.8604735047638415,2.4865105260193348
1772806451598144300,1.322144287109375,-0.14067863675653933,-0.5687251856178045,2.435389995113015
1772806451608075300,1.3320751953125,0.015602058279514311,-0.23403613488972186,2.350749618051201
1772806451618007300,1.34200732421875,0.19571487980186938,0.062002574926614755,2.3275008444108067
1772806451627938300,1.351938232421875,0.24359891300499437,0.3617553368300199,2.2884464527428148
1772806451637870300,1.361870361328125,0.06938391734957694,0.6291553966611624,2.3414658030077815
1772806451647801300,1.37180126953125,-0.17963000644147395,0.8913730854183435,2.3631398746773598
1772806451657733400,1.3817333984375,-0.345195831695199,1.151823764503002,2.3513594205126167
1772806451667664400,1.391664306640625,-0.6106342360645532,1.3535866922974586,2.1192595143824815
1772806451677595400,1.401595458984375,-1.092852520096302,1.4560878663510084,1.717253561837226
1772806451687527400,1.41152734375,-1.6714344983398914,1.3642226526021957,1.2766399384781717
1772806451697458200,1.421458251953125,-2.325753562352061,1.1855033312648533,1.1421157326981424
1772806451707390200,1.43139013671875,-2.8213386929571627,0.8877999031066894,1.0156234422042965
1772806451717321500,1.441321533203125,-2.841073905518651,0.5582020380377769,0.8883604595988989
1772806451727253500,1.45125341796875,-2.1679402509212493,0.48240533103644845,0.8240094218499958
1772806451737184300,1.461184326171875,-0.7613152113974094,0.5515595312833785,0.4282170831225812
1772806451747116300,1.4711162109375,0.7732558245599269,0.8124392494350672,-0.26727643345147367
1772806451757047300,1.48104736328125,1.9208318684905765,1.1828624613672494,-0.9555883679583668
1772806451766978300,1.490978271484375,2.6535703892230984,1.6037538777768612,-1.7518737704500555
1772806451776910300,1.500910400390625,3.029695027667284,2.004823572385311,-2.4452539481319486
1772806451786841300,1.51084130859375,2.97675488011837,2.3130285208135843,-3.0606787794739008
1772806451796773400,1.5207734375,2.8108506166905163,2.4890485200643537,-3.4643273846596476
1772806451806704400,1.530704345703125,2.6265812600106,2.692301978677511,-3.692347620260715
1772806451816636400,1.540636474609375,2.2178958297014235,2.7808313260018824,-3.6856034066975116
1772806451826567400,1.5505673828125,1.7090584188133477,2.6381156304597853,-3.3744355168104168
1772806451836499500,1.56049951171875,1.3400655319452286,2.367809912315011,-2.766384282976389
1772806451846430200,1.57043017578125,1.0870885497421026,2.0514625739634034,-1.9568102137140928
1772806451856362200,1.5803623046875,0.9772001880466937,1.6861971831858158,-1.1490791419699788
1772806451866293500,1.59029345703125,0.7551783160775899,1.3163614157527685,-0.30228491072952746
1772806451876224300,1.600224365234375,0.6241694249421358,1.0351052645266055,0.20611191678419707
1772806451886156300,1.61015625,0.8310071717828512,0.780460056850314,0.31761209759041664
1772806451896087300,1.62008740234375,1.1508569652974605,0.664292761015892,0.07694470799267292
1772806451906019300,1.630019287109375,1.462768951550126,0.6183791511029004,-0.46141412706449625
1772806451915950300,1.639950439453125,1.7630150499284267,0.5638765765428543,-1.0771586918801068
1772806451925882400,1.64988232421875,1.8918074340581892,0.5100806889474392,-1.6156844079367816
1772806451935813400,1.6598134765625,1.8021563892275094,0.5027841021984816,-2.00806153139323
1772806451945744400,1.669744384765625,1.4777590154111384,0.4209738339960575,-2.3690667805083097
1772806451955676400,1.679676513671875,1.1638228298544884,0.37890871620476246,-2.7344582818835974
1772806451965607400,1.689607421875,0.9745675014555454,0.342269715115428,-2.9319930705890056
1772806451975539500,1.69953955078125,0.8927829522162676,0.32555589620172976,-2.966314734646678
1772806451985470200,1.70947021484375,1.0074924504578113,0.22760464053750037,-2.846450922381878
1772806451995402200,1.71940234375,1.188423018103838,0.13740999034941195,-2.522211369475722
1772806452005333500,1.72933349609375,1.2034458151906728,-0.0839735837161541,-2.0569902513436973
1772806452015265300,1.739265380859375,1.2001567105174065,-0.31899522251188756,-1.5199617881074547
1772806452025196300,1.7491962890625,1.012619876474142,-0.5227841031759977,-1.0486974442884325
1772806452035127300,1.759127197265625,0.5630459709376097,-0.7116700137406587,-0.6100485451310873
1772806452045059300,1.769059326171875,-0.21738369077444075,-0.8738543798625469,-0.1795689239040017
1772806452054990300,1.778990234375,-1.2224784324407576,-0.9285907631784677,0.28616993449181316
1772806452064922400,1.78892236328125,-2.1767706231087445,-0.9737579386383295,0.8290906706370412
1772806452074853400,1.798853271484375,-2.933644637188315,-0.9361801953941583,1.3190769583217798
1772806452084785200,1.80878515625,-3.3898692327857014,-0.7546668594241142,1.458303058182448
1772806452094716400,1.81871630859375,-3.423821186748147,-0.5293307483404874,1.1440583911985158
1772806452104648400,1.8286484375,-2.9814158576667307,-0.2529781512469053,0.6143475574992596
1772806452114579500,1.838579345703125,-2.270665296858549,-0.05374971036612987,0.04326207249090075
1772806452124511200,1.84851123046875,-1.6748469371318817,0.0424725295484066,-0.4180623304635286
1772806452134442200,1.858442138671875,-1.173010344916582,0.054933951714634895,-0.8323891276605426
1772806452144373500,1.86837353515625,-0.6538613833725452,0.06324760655164718,-1.1045068636633455
1772806452154305500,1.878305419921875,-0.3295569485366344,-0.10051906032562255,-1.3127306580349802
1772806452164236300,1.888236328125,-0.07954290779232978,-0.2732511239469051,-1.4505843004986643
1772806452174168300,1.898168212890625,0.11514204443991184,-0.47305941054224965,-1.4911692627348005
1772806452184099300,1.908099365234375,0.18711597828269003,-0.6948065572232007,-1.434517839577794
1772806452194031400,1.91803125,0.11988660861849784,-0.900083630618453,-1.2244368730321527
1772806452203962400,1.92796240234375,-0.07326163556575775,-1.1111860491663217,-0.993864468730241
1772806452213893400,1.937893310546875,-0.29513854610621926,-1.3390414495944976,-0.6763596309065818
1772806452223825400,1.947825439453125,-0.418641591656208,-1.476620366770029,-0.2717863120913505
1772806452233756400,1.95775634765625,-0.5373819528490305,-1.5993050816744565,0.14512275668382643
1772806452243688400,1.9676884765625,-0.77651394957304,-1.6296575498402117,0.47740284657403825
1772806452253619500,1.977619384765625,-0.8972720803290605,-1.510871011418104,0.6186990307070315
1772806452263551200,1.98755126953125,-0.807086782491207,-1.291419866719842,0.548751049733907
1772806452273482200,1.997482177734375,-0.5688806684404611,-0.93369656188488,0.18281594300121068
1772806452283414300,2.007414306640625,-0.378377970328927,-0.5402537088930607,-0.33688378429338334
1772806452293345500,2.017345458984375,-0.17978607378602027,-0.1036363155633211,-0.8846253647238016
1772806452303276300,2.0272763671875,-0.16991408359110355,0.22192308776974676,-1.3754435731880366
1772806452313208300,2.037208251953125,-0.3479489297956228,0.44375382108092304,-1.6308986359424889
1772806452323139300,2.047139404296875,-0.46926820156574245,0.7328583477199078,-1.7557120334386824
1772806452333071000,2.057071044921875,-0.7146674419909715,0.937950712198019,-1.8788032833173869
1772806452343002400,2.06700244140625,-1.2071546065807341,1.0207727877914905,-1.891694329072535
1772806452352934400,2.076934326171875,-1.550030470895767,0.9848901580274104,-1.8216881881713867
1772806452362865400,2.086865478515625,-1.737747337681055,0.8514268594771623,-1.6785320553854106
1772806452372797200,2.096797119140625,-1.9261019178479908,0.5420727410137653,-1.4279732402399181
1772806452382728400,2.106728515625,-2.1126631848573685,0.15103227298855781,-1.0412786924645303
1772806452392659500,2.116659423828125,-2.252369177189469,-0.2819137383520603,-0.5584346777498722
1772806452402591200,2.12659130859375,-2.5283564481019973,-0.7564268548339604,0.08758359090685844
1772806452412522200,2.136522216796875,-2.7642881874799725,-1.2161281866312026,0.6868883314445614
1772806452422454300,2.146454345703125,-2.893100445353985,-1.4607523510307072,1.1013292565405368
1772806452432385500,2.156385498046875,-2.7729776898920533,-1.5261235256075858,1.279619538810849
1772806452442317300,2.1663173828125,-2.6722657373428342,-1.416138133278489,1.1842542079865932
1772806452452248300,2.176248291015625,-2.813758028569817,-0.981619758054614,0.8961220335111022
1772806452462180400,2.186180419921875,-3.044265989333391,-0.3213596135556698,0.41442660430967804
1772806452472111000,2.196111083984375,-2.9270529838383195,0.45479485505521294,-0.2801218864992261
1772806452482042400,2.20604248046875,-2.492722824662924,1.2764140207678079,-0.955543359772861
1772806452491974400,2.215974365234375,-1.7988608548134564,1.9865379741102456,-1.4906231731593609
1772806452501905400,2.225905517578125,-1.0534089829802513,2.362690085083246,-2.150950537675619
1772806452511837200,2.235837158203125,-0.7407423789680003,2.4793583161771298,-2.940245642888546
1772806452521768400,2.2457685546875,-0.9098223498225212,2.4463410127162932,-3.645797466009855
1772806452531700500,2.255700439453125,-1.2988468018501995,2.2676883268743753,-4.154623478721082
1772806452541631200,2.26563134765625,-1.5047177494853734,1.9883114135235547,-4.402582048240304
1772806452551563300,2.275563232421875,-1.0814847383856774,1.7193915967792273,-4.322703624883294
1772806452561494300,2.285494384765625,-0.2505436175763607,1.4369669862955807,-3.8275674070894716
1772806452571425500,2.295425537109375,0.7275877138406038,0.9858972892433404,-3.060385641746223
1772806452581357300,2.305357421875,1.7559867587268352,0.5268482838749885,-1.589947763003409
1772806452591288300,2.315288330078125,2.722705884769559,-0.0706236882776022,0.43031507831513877
1772806452601220400,2.325220458984375,3.4224218413442373,-0.7154302430570125,2.2389152368545533
1772806452611151400,2.3351513671875,3.896025441765785,-1.2755197022765874,3.431564932742715
1772806452621083100,2.345083251953125,4.152289190554619,-1.5329419734507799,3.976077175863087
1772806452631014400,2.355014404296875,3.6365053215295076,-1.3361439745873211,3.94749931615442
1772806452640946400,2.364946533203125,2.143913478645682,-0.7757318592846393,4.063182920125127
1772806452650877200,2.374877197265625,0.07409867091178894,-0.4946329444468021,4.452998522530496
1772806452660808400,2.384808349609375,-1.8003133917093277,-0.47476738350391384,5.270757797944546
1772806452670740500,2.394740478515625,-2.556910342413187,-0.3391097897797823,6.024666532477736
1772806452680671500,2.40467138671875,-1.9047165999919176,-0.041370705786347384,5.83799069917798
1772806452690603300,2.414603271484375,-0.6379787545859813,0.26138065341114997,4.623264196038246
1772806452700534300,2.4245341796875,0.3763450031965971,0.4963765732437372,2.8998016965582964
1772806452710466300,2.43446630859375,0.9756021052002907,0.7037339600443839,1.5307921019405126
1772806452720397300,2.444397216796875,1.2260931158065795,0.6885293766498565,0.4260799249634146
1772806452730329300,2.454329345703125,1.3406880477577447,0.5524941817849874,-0.48445787965208287
1772806452740260400,2.46426025390625,1.5684242057204245,0.4051601787924766,-1.137525190037489
1772806452750191400,2.47419140625,1.9430980608344077,0.19535598336160181,-1.677072796487808
1772806452760123100,2.484123046875,2.4044243634849787,-0.0638870734989643,-2.073832518942654
1772806452770054400,2.494054443359375,2.759994289678335,-0.3329208720117807,-2.2307535577088595
1772806452779986400,2.503986328125,3.0358576419502494,-0.6199024151474237,-2.1636264793753623
1772806452789917200,2.513917236328125,3.307670257526636,-0.9658967037439345,-2.0201324929371474
1772806452799849200,2.52384912109375,3.5832290738940236,-1.328842711663246,-1.8905624024331569
1772806452809780500,2.533780517578125,3.7408874870240685,-1.5908715998500584,-1.6565137003228068
1772806452819712500,2.54371240234375,3.6047184366464613,-1.7809627945512532,-1.3798647506311534
1772806452829643300,2.553643310546875,3.3328742568880316,-1.9028695108205078,-1.1677782894819975
1772806452839574300,2.56357421875,2.7525872282922266,-1.886058076751232,-0.9596133856907486
1772806452849506300,2.57350634765625,1.9352350723743437,-1.8758891494363545,-0.8475707685709
1772806452859437300,2.583437255859375,1.1617506997555493,-1.760121666574478,-0.6519862371504307
1772806452869369300,2.593369384765625,0.05573825383484363,-1.6824632573544978,-0.23724194519370792
1772806452879300400,2.60330029296875,-0.9881909531384706,-1.6811849079817534,0.1641229329690337
1772806452889232400,2.613232421875,-1.464096985283494,-1.6041653811872005,0.5116521760478615
1772806452899163100,2.6231630859375,-1.5500088435858488,-1.5468740526914595,0.9622828971609473
1772806452909094400,2.633094482421875,-1.2317308294326066,-1.6163257745802402,1.2764973151370882
1772806452919026400,2.6430263671875,-0.9169710525333881,-1.5986410648077725,1.466985692462325
1772806452928957200,2.652957275390625,-0.811671187672019,-1.6518179437220095,1.6470269100531936
1772806452938889200,2.66288916015625,-0.8623363760262728,-1.6720517534554005,1.6845967622518538
1772806452948820500,2.672820556640625,-1.1519295629650355,-1.6357488524526356,1.5440262620449066
1772806452958752500,2.68275244140625,-1.4122633376717566,-1.557252238842845,1.1667556684359908
1772806452968683300,2.692683349609375,-1.5523457621008157,-1.4070757059007881,0.677401833435893
1772806452978615300,2.702615234375,-1.5625778177797793,-1.161495848211646,0.152553783467412
1772806452988546300,2.71254638671875,-1.5831635096907615,-0.9636556468188762,-0.35529753899276256
1772806452998477300,2.722477294921875,-1.6148106938421725,-0.8158750691026448,-0.6861471576884388
1772806453008409300,2.732409423828125,-1.4630547827541827,-0.6618050358533859,-0.7500117270946502
1772806453018340400,2.74234033203125,-1.159410858631134,-0.5658148511290549,-0.40202129624485966
1772806453028272400,2.7522724609375,-0.7129378417193889,-0.6130477269470691,0.03761252229660749
1772806453038203100,2.762203125,-0.2668628842145204,-0.6112655197054148,0.4271557375013828
1772806453048135200,2.77213525390625,-0.01820201164484024,-0.575977348703146,0.5886971295446157
1772806453058066400,2.78206640625,-0.018584873482584953,-0.4766740939080715,0.5454390025764704
1772806453067998500,2.79199853515625,-0.35476211694180965,-0.4708680379778146,0.5411532880812883
1772806453077929200,2.80192919921875,-0.8386024492174387,-0.5463555328994989,0.707255119907856
1772806453087860200,2.811860107421875,-1.4178665645062922,-0.7360369777560234,1.0534987070903181
1772806453097792500,2.82179248046875,-2.075128696233034,-0.9851923558443784,1.608118210466206
1772806453107723300,2.83172314453125,-2.926765399068594,-1.2318056482344866,2.499671913148463
1772806453117655300,2.8416552734375,-3.6739100462943313,-1.4035750043034552,3.4455449427783487
1772806453127586300,2.85158642578125,-4.209561229828,-1.4315490529000758,4.034628149031103
1772806453137518300,2.861518310546875,-3.992560400891304,-1.0362708011746407,3.932331849899888
1772806453147449300,2.871449462890625,-3.545428627809882,-0.3193096952885389,3.2437913673341274
1772806453157381400,2.88138134765625,-3.126872376349568,0.46770519003272054,2.314007156587392
1772806453167312400,2.8913125,-2.7271242857336997,1.2370073085308073,1.5653689098030328
1772806453177243100,2.9012431640625,-2.27441208217144,1.915374187606573,0.8422834758177399
1772806453187175200,2.911175048828125,-1.9407237329185008,2.329974394917488,0.05690905117988586
1772806453197106400,2.9211064453125,-1.781815611988306,2.5098329494178295,-0.5361085719123483
1772806453207038500,2.93103857421875,-1.5968465826064346,2.4452608162641525,-1.0248957129403948
1772806453216969200,2.94096923828125,-1.2151216399371623,2.212654421916604,-1.3248727851189672
1772806453226901200,2.9509013671875,-0.6206850899577141,1.9110516482323407,-1.222750235119462
1772806453236832300,2.960832275390625,0.4387058900415897,1.721905625426769,-1.1024433552622794
1772806453246763300,2.97076318359375,1.8182634744197128,1.5835048704743384,-1.2889844562664627
1772806453256695300,2.9806953125,3.342730464991927,1.4962556260883808,-1.5469881805904209
1772806453266626300,2.990626220703125,4.802700725734233,1.5083002841472626,-1.9868409025795757
1772806453276558000,3.00055810546875,5.667069484370947,1.478088101235032,-2.3396321578398345
1772806453286489300,3.0104892578125,6.017445933574438,1.4481149877756834,-2.4078970080316067
1772806453296421400,3.02042138671875,6.071456340703368,1.4151473686754703,-2.224345005840808
1772806453306352000,3.03035205078125,5.392177607479691,1.457772458437085,-1.6823806936375796
1772806453316284200,3.0402841796875,4.3184220020413395,1.3517173912942408,-0.9550447626009583
1772806453326215200,3.050215087890625,3.2125223688453435,1.3313000416874885,-0.20041238996833563
1772806453336146400,3.060146484375,1.8998866956174372,1.2173586052089929,0.3816688285678625
1772806453346078200,3.070078125,0.6672054335922002,0.955207551947236,0.9096598527371883
1772806453356009200,3.08000927734375,-0.4457949715197086,0.7065244675457477,1.6423796687692402
1772806453365941200,3.089941162109375,-1.1223130078583956,0.3529506836056709,2.2465710123047233
1772806453375872300,3.099872314453125,-0.9835527719438075,0.04987725284695625,2.413030571527779
1772806453385804300,3.10980419921875,-0.29100188469290733,-0.043970659151673315,2.050171949630976
1772806453395735300,3.1197353515625,0.47672845444381234,-0.051287704166769976,1.312255441738665
1772806453405667300,3.129667236328125,1.1967366729408502,-0.04778291091620922,0.19846271720528602
1772806453415598000,3.13959814453125,1.8550491905033588,0.13255261344611644,-0.8790838049486279
1772806453425529300,3.149529296875,2.392923895305395,0.24062311206459996,-1.7044950564205645
1772806453435461400,3.15946142578125,2.650723767620325,0.2149421428412199,-2.3869532964631914
1772806453445392400,3.169392333984375,2.564391053557396,0.18646715898513794,-2.6723493239730596
1772806453455324200,3.17932421875,2.448927522078156,0.10979834532439708,-2.6146254492789507
1772806453465255200,3.189255126953125,2.321208904659748,0.04495791662335395,-2.167750865828991
1772806453475187200,3.199187255859375,2.225140394002199,-0.07885901718139648,-1.526708632019162
1772806453485118200,3.2091181640625,2.317297284173965,-0.1552069283246994,-1.0787518062904478
1772806453495049200,3.21904931640625,2.42562672598958,-0.15165771141052245,-0.8396154256522655
1772806453504981200,3.228981201171875,2.4825609116107223,-0.08873802163898944,-0.7809203678384423
1772806453514912300,3.238912353515625,2.214272963029146,0.07268938863575458,-0.784643480014801
1772806453524844300,3.24884423828125,1.787481382665038,0.21708909174203872,-0.7787760492861271
1772806453534775300,3.258775390625,1.1065981368541717,0.32809330572485923,-0.5983657061219215
1772806453544707300,3.268707275390625,0.31655425910055635,0.30052783792912957,-0.2935638441354036
1772806453554638000,3.27863818359375,-0.42989013090133665,0.16999065595865248,0.10245412004143
1772806453564570000,3.288570068359375,-1.2720277685075998,-0.10509762028753757,0.6132347739517688
1772806453574501400,3.29850146484375,-1.9080518818944692,-0.5457832859694958,1.3403788356781006
1772806453584432400,3.308432373046875,-2.3836878649264572,-0.8767419179975986,2.282036293439567
1772806453594364200,3.3183642578125,-3.4175118574708696,-0.8663795139372348,2.326716269904375
1772806453604295200,3.328295166015625,-3.557898233282566,-0.5451882426857948,1.6287614777833221
1772806453614227200,3.338227294921875,-3.406317094239592,-0.3911158713489771,0.9337740110352635
1772806453624158200,3.348158203125,-2.9149083725363014,-0.1891565441995859,0.26324878537058827
1772806453634090200,3.35809033203125,-2.1173978121638295,0.14283902966082096,-0.34144612377285954
1772806453644021200,3.368021240234375,-1.4119050257533787,0.29104806192219257,-0.9067246760681271
1772806453653953300,3.377953369140625,-0.7745113775789737,0.36005613169670103,-1.321516898819804
1772806453663884300,3.38788427734375,-0.26266777061223984,0.39687750361561774,-1.4932216652199626
1772806453673815300,3.397815185546875,0.018300795844197273,0.278657951426506,-1.306662444037199
1772806453683747300,3.407747314453125,0.3684872754335403,0.1694458815574646,-0.8757149130374192
1772806453693678000,3.417677978515625,0.3842237737476826,0.03316168036758899,-0.34607875200957056
1772806453703610000,3.427610107421875,0.14628478620052338,-0.12115969729423522,0.07783055091649294
1772806453713541400,3.437541259765625,-0.18851941533982752,-0.15717852065861224,0.16719576454311608
1772806453723473400,3.447473388671875,-0.5747784943073988,-0.0777642076820135,-0.05770546225458383
1772806453733404200,3.457404052734375,-0.6952963865667581,-0.015033903002738951,-0.43113282443881035
1772806453743335200,3.467335205078125,-0.8320417755275964,0.0790583391457796,-0.759616883046925
1772806453753267200,3.47726708984375,-1.0327087247788906,0.14198445865809917,-0.9509463873714208
1772806453763198200,3.4871982421875,-1.2192501180440187,0.03318623028695583,-0.8572527891516685
1772806453773130200,3.497130126953125,-1.450411574280262,-0.16516075158417223,-0.43321693723648785
1772806453783061200,3.507061279296875,-1.6540116543740033,-0.22405074744820594,0.010061375287175179
1772806453792993300,3.5169931640625,-1.8250620485186575,-0.3852455180108547,0.38334260699898004
1772806453802924000,3.526924072265625,-1.6422960821390151,-0.3308919965326786,0.862279969663918
1772806453812856300,3.536856201171875,-1.3439894273906945,-0.13679974949657916,1.1344584959432482
1772806453822787300,3.546787353515625,-1.260880351549387,0.10804477965533733,1.0653013730868697
1772806453832718300,3.55671826171875,-1.4733768548041581,0.5067880771428346,0.565132421822846
1772806453842650000,3.566650146484375,-1.7316875992506742,0.8915104480624199,-0.022238135293126106
1772806453852581400,3.576581298828125,-1.995701523774862,1.1097528014928102,-0.5120885216385126
1772806453862513400,3.586513427734375,-2.1292869874000546,1.1302110676318406,-0.7232984922140836
1772806453872444200,3.596444091796875,-2.3657757761389018,1.311239250433445,-0.800372964066267
1772806453882376200,3.606376220703125,-2.697464476007223,1.57287124825716,-1.1035101077109575
1772806453892307200,3.61630712890625,-2.633236626246571,1.7750591234654187,-1.525662630097568
1772806453902239200,3.6262392578125,-2.276362631717324,1.9639882886499165,-2.050711463335156
1772806453912170200,3.636170166015625,-1.8475509437024593,2.05726979893744,-2.4258792394459245
1772806453922101200,3.646101318359375,-1.3868524175614119,1.9758119974344968,-2.5842352794513106
1772806453932033300,3.656033203125,-1.1301982081502675,1.6828800214618445,-2.5632538662210105
1772806453941964000,3.665964111328125,-0.6196469790816307,1.4704332025676965,-2.3332933102071283
1772806453951896000,3.67589599609375,-0.04573533073663711,1.2203022574454545,-1.8723361331298947
1772806453961827300,3.685827392578125,0.3902613003462553,0.8133487654954195,-1.3120637185588477
1772806453971759400,3.69575927734375,0.839170604494214,0.49373804143369193,-0.5466460402786731
1772806453981690000,3.705690185546875,1.2155272981286047,0.26011165638864037,0.2925491141349077
1772806453991621400,3.715621337890625,1.471178467977047,-0.05690905117988586,1.079323468698561
1772806454001553400,3.725553466796875,1.6567676750838756,-0.2910720273196697,1.8523562981575727
1772806454011484200,3.735484130859375,1.6842758597344158,-0.3815402337521314,2.393328384453058
1772806454021416200,3.745416259765625,1.6432734027385711,-0.3587608311891556,2.4517361497581005
1772806454031347200,3.75534716796875,1.5878262408047914,-0.3970014222562313,2.16172912132144
1772806454041279200,3.765279296875,1.2607535102993248,-0.23053192616105078,1.492407718488574
1772806454051210200,3.775210205078125,0.908998173958063,0.008744447469711304,0.6452028606206178
1772806454061141200,3.785141357421875,0.9522796818017959,0.07505319515764713,0.013176292437314987
1772806454071073300,3.7950732421875,0.6234633224993944,0.1876145754545927,-0.5773775708898902
1772806454081004000,3.805004150390625,0.2723924612909555,0.17871055350899695,-1.0087433273017405
1772806454090936000,3.81493603515625,-0.17874737838804722,0.12364157723784445,-1.1661112330526113
1772806454100867300,3.824867431640625,-0.6617670419305562,0.060578095081448555,-1.2292431042701004
1772806454110799400,3.83479931640625,-1.0366536630123853,-0.019708909076452254,-1.2357371424645185
1772806454120730000,3.844730224609375,-1.3374287537008522,-0.0948965442687273,-1.2576131664469838
1772806454130662100,3.854662109375,-1.3398235398828982,-0.1150304007589817,-1.339005209237337
1772806454140593400,3.864593505859375,-1.0776409224390984,-0.1530149712383747,-1.4648741071358322
1772806454150524200,3.874524169921875,-0.5525596482366323,-0.1826958237528801,-1.537289062744379
1772806454160456200,3.884456298828125,0.17528759332299232,-0.25556933678388594,-1.5090744833901524
1772806454170387200,3.89438720703125,1.0030874934971332,-0.38126492394208905,-1.4491615742191672
1772806454180319200,3.9043193359375,1.7514005999803541,-0.4453787919342518,-1.2956822003394364
1772806454190250200,3.914250244140625,2.3007658360898495,-0.5039332722336054,-1.0910738199859857
1772806454200182300,3.924182373046875,2.5750831279635427,-0.590522591406107,-0.8303896244063973
1772806454210113300,3.93411328125,2.7701842597812414,-0.5707178207397461,-0.6200947228491306
1772806454220045300,3.94404541015625,2.8614328029364344,-0.5938683947026729,-0.42545448654145
1772806454229976000,3.95397607421875,2.8185604604154824,-0.6210726279705763,-0.23252339223921298
1772806454239907300,3.9639072265625,2.6881097876846787,-0.7166308510184287,-0.03300502850115299
1772806454249838800,3.9738388671875,2.606891055634618,-0.6832546511173248,0.0997018987238407
1772806454259769900,3.983769775390625,2.456309449023008,-0.7888736649304627,0.27081016053557394
1772806454269702000,3.993701904296875,2.3688643898040054,-0.8655132524967193,0.4949553082689643
1772806454279633000,4.0036328125,2.3112334540903565,-0.8884586592763661,0.7944467888876795
1772806454289565000,4.01356494140625,2.170049790421128,-1.0484732801437378,1.099465800756216
1772806454299496000,4.023495849609375,2.081032951840758,-1.0900491531133651,1.3372116038188337
1772806454309426700,4.0334267578125,1.9860311936318873,-1.0466565861105919,1.2915797334566712
1772806454319358700,4.043358642578125,1.6961358088761567,-0.9653571900397538,0.9785217920392751
1772806454329290000,4.0532900390625,1.174371696397662,-0.7893734311461448,0.4492877820715308
1772806454339222000,4.063221923828125,0.4812082302063703,-0.5422843379378318,-0.0676256755053997
1772806454349152800,4.07315283203125,-0.20607553029656409,-0.33461832357943055,-0.5337567480891943
1772806454359084800,4.083084716796875,-0.6932756943941116,-0.3079424980998039,-0.6744745478123426
1772806454369015800,4.093015869140625,-0.672187313657999,-0.49567631601989265,-0.45749067001044746
1772806454378948000,4.102947998046875,-0.48341187773048877,-0.8561573951303958,0.03738923493474722
1772806454388878800,4.11287890625,-0.4267231913030147,-1.324366443032026,0.6048463003128767
1772806454398809900,4.122809814453125,-0.5715811595708131,-1.6616005020678042,0.9228393600448965
1772806454408742000,4.132741943359375,-0.9151602037191391,-1.7737112159878015,1.136611290062964
1772806454418673000,4.1426728515625,-1.1484376291960476,-1.7518348997443913,1.1454817019999026
1772806454428605000,4.15260498046875,-0.9523013091117143,-1.470992005494237,0.9127461283147335
1772806454438536000,4.162535888671875,-0.5826251161545515,-0.9853121828317641,0.4256918024286627
1772806454448468000,4.172468017578125,-0.2401601707279682,-0.4880974051982164,-0.06396627621501684
1772806454458398700,4.182398681640625,-0.059903556820750235,-0.19650515339672564,-0.2792638083651662
1772806454468330000,4.192330078125,0.08454524612426757,-0.11241057364940643,-0.004281330581009388
1772806454478262000,4.202261962890625,0.040453590941429134,-0.23363456835150717,0.711348818962276
1772806454488192800,4.21219287109375,-0.6585381430119276,-0.4350497056216001,1.6089374178946017
1772806454498124800,4.222124755859375,-1.7218156090557575,-0.8494745563656091,2.577680450980365
1772806454508055800,4.232055908203125,-2.6851047606498,-1.4159768052369355,3.5247464897871015
1772806454517987800,4.24198779296875,-3.651651452735066,-1.9071242456555366,4.177350858835876
1772806454527918800,4.2519189453125,-4.595379579290747,-1.9718658901572226,4.095809470702708
1772806454537849900,4.261849853515625,-5.308201685675979,-1.535614407530427,3.3325071771413084
1772806454547782000,4.271781982421875,-5.4957391042411325,-1.152678335505724,2.451693479660153
1772806454557713000,4.281712890625,-4.877272859376669,-0.6450964776366949,1.8994485964611172
1772806454567645000,4.29164501953125,-3.895555486166477,-0.22252163818478582,1.6358055510759353
1772806454577576000,4.301575927734375,-2.9074668243587016,0.1618511886447668,1.164063945133984
1772806454587508000,4.311508056640625,-1.7871183945715425,0.8899240556538105,0.5934706275567412
1772806454597438700,4.321438720703125,-0.787716896110773,1.7123060224324465,-0.049238370421528815
1772806454607370800,4.331370849609375,0.010844050097465514,2.281090829282999,-0.46736967446804045
1772806454617302000,4.341302001953125,0.514849803045392,2.709441914048791,-0.6031900575384497
1772806454627232800,4.351232666015625,0.6165110191434622,2.9975656129568815,-0.42367578643113374
1772806454637164800,4.361164794921875,0.2537888831079006,2.9384675273001193,-0.19009528635442255
1772806454647095800,4.371095703125,-0.26434768652319907,2.68680221221745,0.11698095030486583
1772806454657027800,4.38102783203125,-0.7268652447849512,2.165488766115904,0.5034922504678369
1772806454666958800,4.390958740234375,-0.8525076404511928,1.5562679039806127,0.7253232760399579
1772806454676891000,4.400890869140625,-0.24081132811307907,1.2640280019253491,0.5486415980100632
1772806454686822000,4.41082177734375,0.8425836278080939,1.2280863354504108,0.0026198271095752715
1772806454696754000,4.42075390625,2.0086527752846477,1.2362410003334283,-0.8083581176012754
1772806454706685000,4.430684814453125,3.213664524617791,1.4102058206200598,-1.542617272029817
1772806454716616000,4.440615966796875,4.333516695320606,1.5042039547443389,-2.226986606390774
1772806454726548000,4.4505478515625,5.199053328692913,1.561858855855465,-2.68793063172549
1772806454736478700,4.460478759765625,5.886972464489936,1.619268842294812,-2.765106518125534
1772806454746410800,4.47041064453125,6.052712477266788,1.6100883414953946,-2.6027432883054016
1772806454756342000,4.480342041015625,5.775609354066848,1.4447054715931416,-2.2246187082156537
1772806454766274000,4.490274169921875,5.157966700544953,1.3108207327604293,-1.5257468012496829
1772806454776204800,4.500204833984375,4.011639195370674,1.301033498239517,-0.7211199791312217
1772806454786135800,4.5101357421875,2.9611504837512967,1.18832598747015,-0.05974778173714876
1772806454796067800,4.52006787109375,2.3973159927845,0.8349848432421684,0.7329498253956437
1772806454805998800,4.529998779296875,2.143015068501234,0.41624738999605176,2.1008365534633398
1772806454815931000,4.539930908203125,0.9078302992224693,0.356337403434515,2.712293796348572
1772806454825862000,4.54986181640625,-0.1896130557954311,0.37447745575904845,2.4955995491430163
1772806454835794000,4.5597939453125,-0.9261229117602109,0.7428735457777976,1.8326175784647463
1772806454845725000,4.569724853515625,-1.2336878087192773,0.9736211605161428,0.7868103026598692
1772806454855657000,4.579656982421875,-0.4934925422400236,1.1179764399588108,-0.055443070280551905
1772806454865588000,4.589587890625,0.2915957589328289,1.2331669997155665,-0.735312170612812
1772806454875518700,4.599518798828125,0.9746317988634109,0.9318220001846551,-1.2329343600034712
1772806454885450800,4.60945068359375,1.6355571292728184,0.7194003157317638,-1.552308060438931
1772806454895382000,4.619382080078125,1.8174737853467464,0.5328501546382903,-1.8347043216109276
1772806454905314000,4.62931396484375,2.0449907476007936,0.2433890696465969,-1.9497160176694392
1772806454915244800,4.639244873046875,1.9609265629917383,-0.07755436432361602,-1.6559347313910722
1772806454925176800,4.6491767578125,1.7260849569380283,-0.3513999470323324,-1.042821830253303
1772806454935107800,4.65910791015625,1.6925117731600998,-0.7232423781126737,-0.4630401208311319
1772806454945038800,4.669038818359375,1.5720459033489227,-1.0591939961224794,-0.08428191901296377
1772806454954971000,4.678970947265625,1.5131331111311912,-1.1401584611505269,-0.012805121037364005
1772806454964902000,4.68890185546875,1.4136293653279541,-1.137647939634323,-0.07313684014230966
1772806454974834000,4.698833984375,1.2167863582789897,-0.9926379956752062,-0.19052388703003525
1772806454984765000,4.708764892578125,0.8943190757423639,-0.6548609158039093,-0.2841726231947541
1772806454994697000,4.718697021484375,0.43369010770618915,-0.3820657189309597,-0.34971667012050744
1772806455004628000,4.7286279296875,-0.2625964589416981,-0.1600514457464218,-0.31340310159325596
1772806455014560000,4.73856005859375,-0.909054288059473,0.05679097775816917,-0.2174725381016731
1772806455024490800,4.74849072265625,-1.399420222711563,0.15683365274369715,-0.12246727276146412
1772806455034422000,4.758422119140625,-1.88923203061223,0.12388941451907157,0.09718684716299175
1772806455044354000,4.76835400390625,-2.2288754888772964,0.08160393197536468,0.3912389132067561
1772806455054284800,4.778284912109375,-2.464290510904789,-0.08505436469018458,0.7214237843833863
1772806455064216800,4.788216796875,-2.6117881800264118,-0.202933140617609,1.1019228385195134
1772806455074147800,4.79814794921875,-2.545040456399321,-0.38733459924459457,1.3274402975194155
1772806455084079900,4.808079833984375,-2.2663258063495157,-0.38762627566754815,1.155443270174414
1772806455094011000,4.818010986328125,-1.9064847787082193,-0.23659517172276973,0.6674626232236623
1772806455103942000,4.82794189453125,-1.4103122036039828,-0.1473766730904579,0.13789090573415158
1772806455113874000,4.8378740234375,-0.8899234711319207,0.04145020076334476,-0.5008724233582615
1772806455123805000,4.847804931640625,-0.41369536742568014,0.18631810590326786,-0.9367534652374684
1772806455133737000,4.857737060546875,-0.14673019188046454,0.18283552448451518,-1.1688280907958746
1772806455143668000,4.86766796875,0.019025602987408637,0.07320552146434783,-1.1702635304264724
1772806455153600000,4.87760009765625,0.018808160844445226,-0.08066928147375584,-0.9720300919324159
1772806455163530800,4.88753076171875,-0.15627426529526708,-0.22758067514002323,-0.7389473122447728
1772806455173462800,4.897462890625,-0.39638358261883255,-0.41526305513381956,-0.46074514176174997
1772806455183394000,4.90739404296875,-0.585222146910429,-0.459893639498949,-0.2983377805389464
1772806455193324800,4.91732470703125,-0.7641548187375068,-0.3722878367602825,-0.15295900326743722
1772806455203256800,4.9272568359375,-0.8846785562157631,-0.4125929591417312,0.05755436334609985
1772806455213187800,4.937187744140625,-1.074872042247653,-0.38847207884192464,0.41578751739934083
1772806455223120000,4.947119873046875,-1.1600351280093193,-0.409905912014842,0.9178836373336613
1772806455233051000,4.95705078125,-1.2479279309958218,-0.500410943326354,1.5026986647479235
1772806455242983000,4.96698291015625,-1.332524030524492,-0.4588490988820791,1.9221068568624555
1772806455252914200,4.9769140625,-1.2482231145501137,-0.12661854722201824,1.920630646830052
1772806455262845000,4.986844970703125,-1.3810194736242294,0.35273967120349403,1.2027952423274517
1772806455272777000,4.99677685546875,-1.813561580339074,0.9370914650201797,0.08748933675214647
1772806455282708200,5.006708251953125,-2.0620318987727164,1.4146698142915963,-0.8251423714026809
1772806455292640000,5.016639892578125,-1.8667063105493782,1.5383341878831385,-1.30031015240103
1772806455302571000,5.026571044921875,-2.0909353371739385,1.630697998803854,-1.5993009900212287
1772806455312503000,5.0365029296875,-2.0416040277719496,1.7985756081312894,-1.8970973571598528
1772806455322434300,5.046434326171875,-1.9192752866983414,1.9593466003239153,-2.2466484614551065
1772806455332366000,5.056365966796875,-1.6183388679683208,2.1146265938848257,-2.628669464461505
1772806455342297000,5.066297119140625,-1.326532096633315,2.0943314093530176,-2.782553327488899
1772806455352228000,5.07622802734375,-1.1318529896199703,1.798466302537918,-2.7037466250166293
1772806455362160000,5.08616015625,-1.2549784340292214,1.615509197500348,-2.527453946304321
1772806455372091100,5.096091064453125,-1.2867583046495914,1.4445055651068686,-2.2226161362215877
1772806455382023200,5.106023193359375,-1.0185463439136744,1.079534773361683,-1.6872119131863117
1772806455391954200,5.1159541015625,-0.46309565041065215,0.8001777337551117,-0.9722194770246744
1772806455401886000,5.125885986328125,0.3215712104797363,0.41790275598764415,-0.06181815827041864
1772806455411817000,5.13581689453125,1.0658417635738848,0.05255728571116924,0.8204588897615671
1772806455421748200,5.145748291015625,1.774021597111225,0.11916706217229366,1.7241618799209593
1772806455431680300,5.15568017578125,2.1514754383325574,0.15542612403333186,2.348396479053795
1772806455441611000,5.165611083984375,2.391341010028124,0.3524105853796005,2.4814082344442605
1772806455451543000,5.17554296875,2.4996909101098774,0.6232780290603638,2.196930783084035
1772806455461474300,5.185474365234375,2.402733926180005,0.9337363093733787,1.4957430003911256
1772806455471406000,5.195406005859375,1.8620950173616408,1.0813538054823875,0.6623001258939504
1772806455481337000,5.205337158203125,1.2815192349523306,1.2742957134395838,-0.13756050473600626
1772806455491268000,5.21526806640625,0.950757586801052,1.1697557270348071,-0.6231316063269973
1772806455501200100,5.2252001953125,0.5500590635925531,0.805128634160757,-0.9189157568603753
1772806455511131100,5.235131103515625,0.15747954943180084,0.477607575365901,-0.9599646833464502
1772806455521063200,5.245063232421875,-0.3270803292900324,0.14827625227868557,-0.6821975432798266
1772806455530994200,5.254994140625,-0.7528110024243593,-0.2888257096976042,-0.336489962670207
1772806455540926000,5.264926025390625,-1.2908575566619633,-0.6180524033665656,-0.06477116285711526
1772806455550857000,5.27485693359375,-1.7321382656276225,-0.8093395298540592,-0.02983049011826515
1772806455560789000,5.2847890625,-1.7550608760535715,-0.9343506418794393,-0.20230419506430625
1772806455570720300,5.29472021484375,-1.383323658913374,-0.9660638770043849,-0.620159312517941
1772806455580651000,5.304651123046875,-0.5979074409604073,-0.9022048605561256,-1.1497586486667395
1772806455590583000,5.3145830078125,0.383385569357872,-0.8393260873168706,-1.6976839151009917
1772806455600514000,5.32451416015625,1.311451431879401,-0.7870236531496048,-2.0447820732861755
1772806455610446000,5.334446044921875,2.0634546250522137,-0.6962146704554557,-2.107770152118802
1772806455620377000,5.344377197265625,2.5247008482038975,-0.7126935115694999,-2.02867001965791
1772806455630309000,5.35430908203125,2.722226576820016,-0.7424006675690412,-1.7034560687616467
1772806455640240000,5.364240234375,2.760688117161393,-0.7276572719454765,-1.23504448402524
1772806455650171100,5.374171142578125,2.5410318052798506,-0.8234925583690405,-0.6858864609256387
1772806455660103200,5.384103271484375,2.1827701557844876,-0.9040420128554105,-0.25784458823949097
1772806455670034200,5.3940341796875,1.8541466887056826,-0.8802952265650034,0.013225684536993503
1772806455679966000,5.403966064453125,1.6443056683957575,-0.8561223238170147,0.24218787716329096
1772806455689897000,5.41389697265625,1.5522224279820918,-0.8756161288380623,0.3929962782680988
1772806455699829000,5.4238291015625,1.4712813438296317,-0.8850275157839059,0.6039379532963037
1772806455709760300,5.43376025390625,1.3936644356638193,-0.8689373817265034,0.8006149561285972
1772806455719691000,5.44369091796875,1.364921740782261,-0.8824608801662921,0.8738602250814438
1772806455729623000,5.453623046875,1.3190221593946219,-0.905346665713191,0.8765990023955702
1772806455739554000,5.463553955078125,1.1601304050773382,-0.9937193611711264,0.7969368521377443
1772806455749486000,5.473486083984375,0.8252168979436159,-1.1176783337950706,0.7030839717030525
1772806455759417000,5.4834169921875,0.3061480158984661,-1.182342821407318,0.6508277147650718
1772806455769349000,5.49334912109375,-0.045402737781405446,-1.131771156555414,0.6512000552088022
1772806455779280100,5.503280029296875,-0.012535071924328803,-1.0919354052513837,0.6201181037247181
1772806455789212000,5.5132119140625,0.28779753569364547,-1.0465765066117048,0.5532102210998535
1772806455799143200,5.52314306640625,0.7287211017847061,-0.9913456177771091,0.3252881851762533
1772806455809074200,5.53307421875,1.351612761875987,-1.0177847118914127,0.0777519327223301
1772806455819006200,5.543006103515625,1.4105039267838,-0.9755050745666026,-0.00658785395771265
1772806455828937000,5.55293701171875,0.9919745633304119,-0.9894289705008268,0.11977817980796097
1772806455838869000,5.562868896484375,0.5622065975040197,-0.8655869022548198,0.47773704696446656
1772806455848800300,5.57280029296875,0.2899900773018598,-0.6722036802709103,0.7477671630382537
1772806455858732000,5.58273193359375,0.14737082787156106,-0.3862468040078878,0.835431125704944
1772806455868663000,5.5926630859375,0.05121346988677978,-0.019775544571876524,0.67231590847373
1772806455878594000,5.602593994140625,-0.19391513690352438,0.3192547502309084,0.4577101579800248
1772806455888526000,5.612526123046875,-0.5436953737795353,0.5181348160654307,0.39018765058815474
1772806455898457000,5.62245703125,-1.0785264731019735,0.5122673853367566,0.5391165215566754
1772806455908389000,5.63238916015625,-1.6026187362670898,0.14380290625691414,1.1357675327152013
1772806455918320000,5.642320068359375,-2.269575748056173,-0.41223172461390495,1.9182824762687085
1772806455928252000,5.652251953125,-3.0441958467066286,-0.9346493325650691,2.4619155984669923
1772806455938183200,5.66218310546875,-3.766996910792589,-1.3689485120803118,2.801841673065722
1772806455948115200,5.672115234375,-4.59951448713839,-1.7120768898516892,2.7445453761339187
1772806455958046200,5.682046142578125,-5.079092485794424,-1.8342483945369719,2.276187275150418
1772806455967977000,5.69197705078125,-4.956801738643646,-1.656220562595129,1.4952715834870933
1772806455977909000,5.701908935546875,-4.2004590549618,-1.3893746295154095,0.6824930190950632
1772806455987840300,5.71184033203125,-3.4239743314832447,-0.9690648123860358,0.1195508007928729
1772806455997772000,5.72177197265625,-2.8086452156007287,-0.4357914638996124,-0.4411360397979617
1772806456007703000,5.731703125,-2.0196488010734317,0.29675299556553364,-0.8662883285224438
1772806456017635000,5.741635009765625,-1.2708359283745287,1.1067770005524158,-1.283467446410656
1772806456027566000,5.751566162109375,-0.6899661314547062,1.7229659481346606,-1.3045461825355886
1772806456037497000,5.7614970703125,-0.07658464250862598,2.0988322279036042,-1.0465729994803668
1772806456047429000,5.77142919921875,0.29111002124249935,2.4737591809958217,-0.5531356945589184
1772806456057360100,5.781360107421875,0.089703067278862,2.630846516239643,0.039591713415086265
1772806456067292000,5.7912919921875,-0.5649468361228704,2.6115128702163695,0.810962454880774
1772806456077223200,5.80122314453125,-1.4808032054126261,2.2609143026947973,1.9408789234802126
1772806456087155200,5.8111552734375,-2.1637492289721965,1.5325877531856298,3.1543326302051544
1772806456097086200,5.821086181640625,-2.050502789020538,0.7458563609808683,3.7534149601638314
1772806456107017000,5.831016845703125,-1.0050222609519959,0.3394511505633592,3.489054998680949
1772806456116949000,5.840948974609375,0.6868693344831466,0.35517069774270055,2.3644442352741954
1772806456126880300,5.85088037109375,2.2162281887501476,0.4323527216225862,0.9561138531371951
1772806456136812000,5.86081201171875,3.5208506513923403,0.6854226428061724,-0.45694005039036273
1772806456146743000,5.870742919921875,4.313076549360156,0.9905027372121811,-1.6264730745851992
1772806456156675000,5.880675048828125,4.312704208916426,1.192960661533475,-2.4454560465753077
1772806456166606000,5.890606201171875,3.9596600018084045,1.3121692247599364,-3.048169426512718
1772806456176538000,5.9005380859375,3.314151436239481,1.341829034486413,-3.1085505377173424
1772806456186469000,5.91046923828125,2.73301685090363,1.2361141590833664,-2.724023689369857
1772806456196400000,5.920400146484375,2.7272774304687974,1.1800111635893582,-2.322685260822624
1772806456206332200,5.930332275390625,2.842507737714052,1.0667688152909278,-2.0417298461087046
1772806456216263200,5.94026318359375,2.8261037154018878,0.7440192086815833,-1.5922364584624766
1772806456226195200,5.9501953125,2.59681565182209,0.46501171316504475,-0.8747003291673958
1772806456236126200,5.960126220703125,1.9383008896857499,0.171815533298254,-0.012100041507929564
1772806456246058000,5.97005810546875,0.9713391870588064,-0.031004210072755813,1.0094247336946427
1772806456255989200,5.9799892578125,0.014780805024504661,-0.1375648886501789,1.857190001924336
1772806456265920300,5.989920166015625,-0.6668377693235874,-0.06580079816579819,2.0317089489623905
1772806456275852300,5.999852294921875,-0.8624842600643634,0.26266192539334293,1.6836235333055256
1772806456285783300,6.009783203125,-0.8682873933851718,0.6104635556727648,0.710871264578402
1772806456295715300,6.01971533203125,-0.4563292250156402,0.8884317712694406,-0.41927170625329013
1772806456305646000,6.02964599609375,0.05446224254965782,0.9796025730133056,-1.3615449578255414
1772806456315578000,6.039578125,0.6867009921789169,0.8947446076780557,-2.005771082368493
1772806456325509400,6.04950927734375,1.3703104480832815,0.7722492778658866,-2.3729808852121232
1772806456335440100,6.059440185546875,2.0391893678456543,0.5049994401603937,-2.442149406245351
1772806456345372200,6.0693720703125,2.7137492558538914,0.055980830419063564,-2.031499982386827
1772806456355303200,6.07930322265625,3.2043910848379134,-0.32947745355963703,-1.3396400000095368
1772806456365235500,6.0892353515625,3.1671184620201585,-0.6974445045113563,-0.5231780709296464
1772806456375166200,6.099166259765625,2.6585797418177126,-1.028670263043046,0.16813932900354264
1772806456385098200,6.10909814453125,2.062337019199133,-1.1952759527385235,0.6558293224446475
1772806456395029200,6.119029296875,1.404097566872835,-1.3309294548094273,1.0346841165050864
1772806456404961300,6.128961181640625,0.9636474635124206,-1.4140478830009697,1.2148862237460911
1772806456414892300,6.138892333984375,0.5908312189638615,-1.376176709768176,1.1959748947881161
1772806456424823300,6.1488232421875,0.17337269961237906,-1.173058860233426,0.8198794824384152
1772806456434755300,6.15875537109375,-0.1397732123494148,-0.9067688074707985,0.27396438678279517
1772806456444686000,6.16868603515625,-0.34762335110306736,-0.5590092627674341,-0.4004952557213604
1772806456454618000,6.1786181640625,-0.35770693822205063,-0.2987678425192833,-0.9412703581400215
1772806456464549400,6.18854931640625,-0.39964170763194556,-0.17877894257009028,-1.2307649070098996
1772806456474481400,6.1984814453125,-0.514732314145565,-0.09528525132536887,-1.1747156875297426
1772806456484412200,6.208412109375,-0.868878345015645,-0.14718611895442008,-0.8464692370697855
1772806456494343200,6.21834326171875,-1.4424848729342221,-0.2578308519750833,-0.6509342438794672
1772806456504275200,6.228275146484375,-2.1574171033412215,-0.417673623406887,-0.43217473470717666
1772806456514206200,6.238206298828125,-2.469370590648055,-0.7208680501967668,0.06052724167704582
1772806456524138200,6.24813818359375,-2.6074212169885636,-0.916536752769351,0.563280364215374
1772806456534069200,6.2580693359375,-2.506944826760888,-0.9540385081678628,0.9273772957354783
1772806456544001300,6.268001220703125,-2.161940718245506,-0.798683111283183,0.9693297469325363
1772806456553932300,6.277932373046875,-1.5710218209981917,-0.3830161515235901,0.5337494415655731
1772806456563863300,6.28786328125,-0.9033926090359687,0.21837211728990077,-0.34045024460330603
1772806456573795300,6.29779541015625,-0.4656371515870094,0.7695306665569543,-1.1845396007992326
1772806456583726000,6.30772607421875,-0.12494038487672805,1.192301905363798,-1.7591998755544422
1772806456593658000,6.317658203125,0.00925999577641487,1.4854671055704354,-1.9022773901462553
1772806456603589400,6.32758935546875,-0.003942600145936012,1.5633353581488132,-1.7699002793975174
1772806456613521400,6.337521484375,-0.1705909599393606,1.4518822313547133,-1.435450444252789
1772806456623452200,6.3474521484375,-0.5780968250751495,1.095472931727767,-0.9217907277747989
1772806456633383200,6.357383056640625,-1.0067746575772762,0.6906628815472126,-0.19376681447401642
1772806456643315200,6.367315185546875,-1.4539660518914461,0.3175391784846783,0.7234944531776011
1772806456653246200,6.37724609375,-1.8774375479221344,-0.01476385388970375,1.5950531233184038
1772806456663178200,6.38717822265625,-1.9174492403149603,-0.1095750579625368,2.3460396867945787
1772806456673109200,6.397109130859375,-1.8702695559889078,0.0887964738279581,2.5532971203520893
1772806456683041300,6.407041259765625,-2.120021146404743,0.5388116933912038,1.9980010328888893
1772806456692972300,6.41697216796875,-2.516854226356745,1.263465107345581,1.042704341353476
1772806456702904300,6.426904296875,-2.8947365221232175,1.8829951820492743,-0.19318506906330585
1772806456712835300,6.43683544921875,-2.741590033459663,2.389680383339524,-1.233601007218659
1772806456722766000,6.44676611328125,-2.017715787184238,2.8595974042028187,-2.0882050354272126
1772806456732698000,6.456697998046875,-1.2348808178961277,3.0472546497553585,-2.856364705891907
1772806456742629400,6.46662939453125,-0.3939069633722305,3.2273236321359873,-3.352529097689688
1772806456752561400,6.4765615234375,0.2312280917316675,3.1069086157292127,-3.622095395644009
1772806456762492200,6.4864921875,-0.04916296709775925,2.5534979036211967,-3.3533030046716332
1772806456772424200,6.496424072265625,0.009245382729172706,2.044892547923326,-2.559215404485166
1772806456782355200,6.506355224609375,0.32776948059797284,1.4956442161917685,-1.5719585173264146
1772806456792286200,6.5162861328125,0.6715104373097419,0.730246703916788,-0.5176671985536814
1772806456802218200,6.52621826171875,1.3924924692749976,0.11918868948221206,0.7485323021918535
1772806456812149200,6.536149169921875,1.9873510440587996,-0.45283962933421135,2.0474825644165278
1772806456822081300,6.546081298828125,2.5009663368731734,-0.9342360755890607,3.2889892301931973
1772806456832012300,6.55601220703125,2.7738620715111493,-1.073133674147725,4.217326603132486
1772806456841944300,6.5659443359375,2.7955238682210446,-0.871080823495984,4.46018083525002
1772806456851875300,6.575875244140625,3.0729782890766857,-0.5038561153441667,4.0280607533395285
1772806456861806000,6.58580615234375,2.7580466627418994,0.026426234632730482,2.820689581398666
1772806456871738000,6.595738037109375,2.0175532900989053,0.6513648903816938,1.249871174018085
1772806456881669400,6.60566943359375,1.6127520077466964,1.158530568665266,-0.037486557829380034
1772806456891601400,6.615601318359375,1.1199591382086276,1.2467401825159787,-0.8480313718199729
1772806456901532200,6.6255322265625,0.7370049460053444,1.0211538960635662,-1.3219488604962826
1772806456911464200,6.635464111328125,0.2163917571276426,0.8465051851660013,-1.528262291201949
1772806456921395200,6.645395263671875,-0.4305915571689605,0.5328922402143478,-1.7663912483632564
1772806456931327200,6.6553271484375,-1.1251964543402195,0.2597743872582912,-1.8363342609003186
1772806456941258200,6.66525830078125,-1.6776134792357682,-0.005177694898843765,-1.7127540584608911
1772806456951189200,6.675189208984375,-1.9652777439385651,-0.3298042012959719,-1.3843559245705603
1772806456961121300,6.685121337890625,-1.836034693431854,-0.59779053658247,-1.1136761124163865
1772806456971052300,6.69505224609375,-1.2766852389246224,-0.7729886980563402,-0.9253910903543233
1772806456980984300,6.704984375,-0.3310696911871433,-0.8693120602577924,-0.8456956223487854
1772806456990915300,6.714915283203125,0.6209112999290227,-0.9921838221669197,-0.8096034414872527
1772806457000847400,6.724847412109375,1.546739028134942,-1.073896475213766,-0.6914607539266348
1772806457010778000,6.734778076171875,2.3917495908290145,-1.054500285348296,-0.5356865471079946
1772806457020709400,6.74470947265625,2.991049362930655,-1.0212211160808802,-0.5030857154935598
1772806457030641400,6.754641357421875,3.39744405195415,-0.9490858541965485,-0.4522054230839014
1772806457040572200,6.764572265625,3.6571120562285184,-0.8822329166293144,-0.32870705370903014
1772806457050504200,6.774504150390625,3.684704996553063,-0.8674304842948913,-0.11791735437214373
1772806457060435200,6.784435302734375,3.465565402022004,-0.8390805881232023,0.09781944597810506
1772806457070367200,6.7943671875,3.152149440947175,-0.9281646467208862,0.4804895605430007
1772806457080298200,6.80429833984375,2.691343362778425,-0.9940765040457248,0.9662117610424756
1772806457090230300,6.814230224609375,2.1759546305507422,-1.0256892014056445,1.457207810291648
1772806457100161300,6.824161376953125,1.7082231370329857,-1.1412649610877037,1.8526400835350154
1772806457110092300,6.83409228515625,1.3614052570939064,-1.1995336101830005,2.1367241516634823
1772806457120024300,6.8440244140625,0.9127613258838653,-1.268299103373289,2.1930445893004533
1772806457129955300,6.853955322265625,0.40978140885233877,-1.3297148183226584,1.9698969281718133
1772806457139887400,6.863887451171875,-0.05593699127733707,-1.2718038966238498,1.6354039845377206
1772806457149818000,6.873818115234375,-0.49912967134416103,-1.2693828069567679,1.1069973653048277
1772806457159750100,6.883750244140625,-0.8234265073955058,-1.2798030786842107,0.4531634544610977
1772806457169681400,6.893681396484375,-0.9755290399640798,-1.267199033176899,-0.20071634135097263
1772806457179612200,6.903612060546875,-0.9810171159863471,-1.2352128263294697,-0.7808847120031714
1772806457189544200,6.913544189453125,-0.8737281231343745,-1.1782067445158957,-1.144338084922731
1772806457199475200,6.92347509765625,-0.6097849257588386,-1.1310773290723561,-1.2391767615243792
1772806457209407200,6.9334072265625,-0.38950025284588335,-1.1943933246850966,-1.0355839879542588
1772806457219338200,6.943338134765625,-0.4589759401321411,-1.2482611084729431,-0.4994356685534119
1772806457229270300,6.953270263671875,-0.4821931495904922,-1.1143547423303126,-0.1575461849272251
1772806457239201300,6.963201171875,-0.36278584892153737,-0.777757812154293,-0.23966858781874179
1772806457249132000,6.973132080078125,-0.2483294486582279,-0.3402981227815151,-0.3926593013986945
1772806457259064600,6.983064697265625,-0.36703883019089695,-0.002731470790505409,-0.5173819518715143
1772806457268995800,6.992995849609375,-0.6080500647902488,0.26685353186428545,-0.5746583750590681
1772806457278928000,7.002927978515625,-1.052360935232043,0.4681698849350214,-0.4963529001072049
1772806457288858600,7.012858642578125,-1.7093121013134718,0.4129267211407423,-0.3315414003521204
1772806457298790700,7.022790771484375,-2.487410689729452,0.24723814629018306,0.037167408877611156
1772806457308721700,7.0327216796875,-3.459709077209234,-0.03751987557709217,0.4132596063569188
1772806457318653700,7.04265380859375,-4.365911482968926,-0.2557709968358278,0.8365180441588163
1772806457328584700,7.052584716796875,-4.9889948662400245,-0.49342882935404775,1.1613774825289844
1772806457338515700,7.062515625,-5.341884175047278,-0.7447773335725069,1.256094578577578
1772806457348447700,7.07244775390625,-5.290944845926761,-0.9602472996801137,1.2307191681720315
1772806457358378800,7.082378662109375,-4.8761236893415445,-1.0043974070519208,1.0882958797052502
1772806457368310800,7.092310791015625,-4.004546022239327,-0.8734107277482748,0.7857010262437164
1772806457378241800,7.10224169921875,-2.966971152728796,-0.639221448123455,0.3353795172102749
1772806457388173800,7.112173828125,-2.0294120701968668,-0.37368484407663344,-0.0512007565356791
1772806457398104600,7.1221044921875,-1.2052870591431855,-0.01007657285630703,-0.2971665448024869
1772806457408035800,7.132035888671875,-0.7713415153712033,0.40731121934652326,-0.43336715936213727
1772806457417967900,7.1419677734375,-0.7340478497654199,0.7173854687780141,-0.26403818218261
1772806457427898600,7.151898681640625,-0.5487777916103601,0.9346855729222298,0.0559641715452075
1772806457437830700,7.16183056640625,-0.14930793341398238,1.11532972484231,0.5907394490271807
1772806457447761700,7.17176171875,0.24250702611505984,1.1533096191465855,1.216516893687844
1772806457457693700,7.181693603515625,0.5796089832037687,1.1653893485188485,1.76561544168517
1772806457467624700,7.191624755859375,0.7951514300256967,1.2197966460108756,2.0863949172653258
1772806457477556700,7.201556640625,1.0129285040318965,1.259054305166006,2.2385805980727076
1772806457487487700,7.21148779296875,1.2877116598516702,1.292685941132903,2.2394806156523526
1772806457497418800,7.221418701171875,1.3587953668564556,1.2335463544219731,2.2079322157002985
1772806457507350800,7.231350830078125,1.1198954253226518,1.1414981853216886,2.2331439599767324
1772806457517281800,7.24128173828125,0.8928139318764209,1.0551111107230187,1.9858933925963937
1772806457527213800,7.2512138671875,0.960892027324438,1.1084925722986458,1.3782334961675107
1772806457537144600,7.26114453125,1.2509195140272378,1.188415419319272,0.6631877223834395
1772806457547076600,7.27107666015625,1.8433394634872673,1.285272450006008,-0.023033669584989546
1772806457557008000,7.2810078125,2.6470021167486903,1.4679577523648737,-0.685408322019875
1772806457566938600,7.290938720703125,3.29061624687314,1.6145242781162261,-1.3467889949813485
1772806457576870700,7.30087060546875,3.849385271143913,1.6843436642736196,-1.6799539048820733
1772806457586801700,7.3108017578125,4.26189289008975,1.7273744122266768,-1.8844260916352271
1772806457596733700,7.320733642578125,4.291049426469207,1.6274661772757768,-1.920234194858372
1772806457606664700,7.330664794921875,4.119825429323315,1.5093553461581468,-1.8409186660811303
1772806457616596700,7.3405966796875,3.8179444232195614,1.3558879549771548,-1.5249923296205699
1772806457626527700,7.35052783203125,3.4120921705096956,1.046304119411111,-0.9325152431458235
1772806457636458800,7.360458740234375,2.8370857126653193,0.8000532305926084,-0.08896481613218783
1772806457646390800,7.370390869140625,2.047580764093995,0.42685003255307674,0.8579635677695274
1772806457656321800,7.38032177734375,1.107471997079253,0.1500567059546709,1.5932522113762795
1772806457666253800,7.39025390625,0.15174129804074762,0.06873042187690734,2.143035526767373
1772806457676184600,7.4001845703125,-0.4586871863186359,0.09643675944805144,2.3217570400618017
1772806457686116600,7.41011669921875,-0.7797375877946615,0.33995500843226906,2.1222662949830293
1772806457696047900,7.4200478515625,-0.8083978650897741,0.6587742898553609,1.5099936440616846
1772806457705980000,7.42997998046875,-0.4965162739753723,0.9666852237731218,0.664540890558064
1772806457715910700,7.43991064453125,0.01757365061342716,1.1926298221439122,-0.194535022367537
1772806457725841700,7.449841552734375,0.6397042632043362,1.2724836955815553,-1.0000132006183267
1772806457735773700,7.459773681640625,1.2659148385852574,1.2979419619649648,-1.6388890501745044
1772806457745704700,7.46970458984375,1.9821903002947567,1.2392623939812182,-2.079678468491882
1772806457755636700,7.47963671875,2.5506150416612625,1.1124784270644188,-2.3874523320265113
1772806457765567700,7.489567626953125,2.905593431702256,0.9028454965472221,-2.564463534271717
1772806457775499800,7.499499755859375,2.9769845972210165,0.6684171474695205,-2.4494737577840686
1772806457785430800,7.5094306640625,2.740413975417614,0.33342005370557304,-2.05464909504503
1772806457795361800,7.51936181640625,2.1797762346655127,-0.0022860651105642317,-1.4024118057429789
1772806457805293800,7.5292939453125,1.5061422293305395,-0.28281039493083954,-0.5856242979705334
1772806457815224600,7.539224609375,0.9950397961199283,-0.5385924976825713,0.22344342920482158
1772806457825156600,7.549156494140625,0.6843968068897723,-0.8146049030363559,1.093907143715769
1772806457835088000,7.559087890625,-0.1133528229355812,-1.1799041960835457,2.0110785411268473
1772806457845020000,7.56902001953125,-1.2101765847504138,-1.159425471678376,2.1186574568361043
1772806457854950700,7.57895068359375,-1.4198919328540562,-0.5791799441367388,1.7705089128151534
1772806457864881700,7.588881591796875,-1.4707073433339595,-0.31657939354181286,1.1214850326016546
1772806457874813700,7.598813720703125,-1.2120657594978808,-0.012996844217181206,0.47187268497571344
1772806457884744700,7.60874462890625,-0.5997159516870975,0.44267420915067196,-0.058562517475336785
1772806457894676700,7.6186767578125,-0.37966684109568594,0.6068021105557679,-0.4918269471153617
1772806457904607700,7.628607666015625,-0.23577041133642196,0.6651403177559375,-0.7761608983516692
1772806457914539800,7.638539794921875,-0.3193593796491623,0.563740967464447,-0.8547478205934166
1772806457924470800,7.648470703125,-0.6045926178127526,0.31394495338499545,-0.8747979443229734
1772806457934401800,7.65840185546875,-0.7340741532504558,0.07112345449328422,-0.7165636310011148
1772806457944333800,7.668333740234375,-0.8346160099297761,-0.21420213812887667,-0.4682489415206015
1772806457954264600,7.6782646484375,-0.8281728251397609,-0.4331166917324066,-0.23130875575244425
1772806457964196600,7.688196533203125,-0.6713081927359104,-0.5686340002030134,-0.09185483848527073
1772806457974127900,7.6981279296875,-0.48267245754003524,-0.6105716922223567,-0.09348784651458263
1772806457984060000,7.708059814453125,-0.311573548078537,-0.45178982802033424,-0.23905951600968836
1772806457993990700,7.71799072265625,-0.13443009775578976,-0.19105331773161888,-0.4624602751165628
1772806458003921700,7.727921630859375,0.02737316009402275,-0.017716858476400376,-0.7263567107409238
1772806458013853700,7.737853759765625,0.1724526621580124,0.1890472386062145,-0.9612813189029693
1772806458023784700,7.74778466796875,0.20483926649987697,0.4188385755330324,-1.1956484393127262
1772806458033716700,7.757716796875,0.18246259951889515,0.4843482817977667,-1.3404067465983331
1772806458043647700,7.767647705078125,-0.058141807845234865,0.47775955105721946,-1.1750251918703316
1772806458053579800,7.777579833984375,-0.3250450240701437,0.4291939653307199,-0.7406551390759647
1772806458063510800,7.7875107421875,-0.550633648610115,0.38834465306997296,-0.26228914655819535
1772806458073441800,7.79744189453125,-0.7305588386058807,0.27243863852024075,0.09103826140537857
1772806458083373800,7.807373779296875,-0.8547674020767212,0.16963994282484054,0.42935266302376984
1772806458093304600,7.8173046875,-0.9545897123098372,0.07102817742526531,0.6771187787108123
1772806458103236600,7.827236572265625,-0.9307698607832193,-0.0028209026396274566,0.9315690483368932
1772806458113168000,7.83716796875,-0.9297662366986275,-0.10028349800407886,1.15405634586066
1772806458123100000,7.847099853515625,-0.9231149621158837,-0.0691769966006279,1.4115261094383895
1772806458133030700,7.85703076171875,-0.6579045212835073,0.13138064705729482,1.5356081239201127
1772806458142961700,7.866961669921875,-0.21819559167921543,0.38261458498537537,1.2666105657644569
1772806458152893700,7.876893798828125,-0.01583995868861675,0.7840478522092104,0.6328650648340582
1772806458162824700,7.88682470703125,-0.06819967600107192,1.1962526888161897,-0.03728548229932785
1772806458172756700,7.8967568359375,-0.39092882434427734,1.4660545490920542,-0.7153497251667081
1772806458182687700,7.906687744140625,-0.923698314961791,1.6782383331358433,-1.2588798253819347
1772806458192619800,7.916619873046875,-1.1725935808092356,1.7565251033872364,-1.6765107786908744
1772806458202550500,7.926550537109375,-1.274628890916705,1.6478911256670952,-1.7667504370644687
1772806458212481800,7.936481689453125,-1.3963070591270923,1.403431796440482,-1.7088206645347177
1772806458222413800,7.946413818359375,-1.2236492297858,1.4302508297830818,-1.5108105134025216
1772806458232344600,7.956344482421875,-0.7912976772069931,1.4679039763510227,-1.224230098413676
1772806458242276600,7.966276611328125,-0.2929284688413143,1.5045540833562612,-0.870742239191383
1772806458252206800,7.976206787109375,0.23281389961838722,1.4497808751612902,-0.5218997215569019
1772806458262139000,7.986138916015625,0.6098199970722198,1.3797130672007798,-0.2459861004024744
1772806458272070000,7.99606982421875,0.7361614809185266,1.3105717264354229,-0.1265393445059657
1772806458282001000,8.0060009765625,0.7335135967582463,1.217630992409587,-0.11157295378148555
1772806458291933000,8.015932861328125,0.654596711909771,1.194002864062786,-0.07445552152544259
1772806458301864000,8.025864013671875,0.6917407399117946,1.0610311484217643,0.11931056229621172
1772806458311796000,8.0357958984375,0.9244593624621629,0.9208382493555545,0.4691586037114262
1772806458321726700,8.045726806640625,1.1998352234780787,0.8091109817951917,0.8521171798288821
1772806458331658800,8.05565869140625,1.6143723024249075,0.7343880415052175,1.048735730472207
1772806458341590000,8.065590087890625,1.99706696690917,0.7793874591827392,1.066850356094539
1772806458351521800,8.075521728515625,2.1299521733105182,0.739099872457981,1.0609276880472898
1772806458361452800,8.085452880859375,2.0515654498159885,0.6964093162447214,0.9874772519111633
1772806458371383800,8.0953837890625,1.7220353892862796,0.6466022060245276,0.9562991465762257
1772806458381315800,8.10531591796875,1.0671744734823703,0.6316296778202056,0.8004834387034178
1772806458391246800,8.115246826171875,0.4375765937507152,0.7316618314117193,0.48857846671342847
1772806458401179000,8.125178955078125,-0.1151782847970724,0.7370382637530565,0.12841565977185965
1772806458411110000,8.13510986328125,-0.5430874710142612,0.7354962950080632,-0.2906359739899635
1772806458421041700,8.145041748046875,-0.8401753976225852,0.8134265069067478,-0.6332298064932227
1772806458430973000,8.154972900390625,-0.8463841891348362,0.805412127277255,-0.9611047932922839
1772806458440904000,8.164904052734375,-0.6108090081095695,0.7470943783432245,-1.1876850592181085
1772806458450836000,8.1748359375,-0.2796007852345705,0.5516933867961168,-1.204008417509496
1772806458460766700,8.1847666015625,0.2639583949446678,0.33315409624576564,-1.074404132474959
1772806458470698800,8.19469873046875,0.7504477804243564,0.1158276886165142,-0.918547215808928
1772806458480630000,8.204630126953125,1.121174359217286,-0.013629881423711776,-0.7309606974050402
1772806458490561800,8.214561767578125,1.3820792118102312,-0.16481354558169842,-0.5636012667328119
1772806458500492800,8.224492919921875,1.7420371438294648,-0.22676818971335885,-0.4042331270754337
1772806458510423800,8.234423828125,1.9379215349793433,-0.3271569016575813,-0.3142363375470042
1772806458520355800,8.24435595703125,2.0598329274237153,-0.38918519554734227,-0.27297172248363494
1772806458530286800,8.254286865234375,2.1897955243766307,-0.3050719110995531,-0.19890169314444064
1772806458540219000,8.264218994140625,2.270306984940171,-0.2508960842758417,-0.10818038873374461
1772806458550150000,8.27414990234375,2.3751345561146735,-0.22841244978904723,0.041541093917191026
1772806458560081700,8.28408154296875,2.4258979441463944,-0.21935002241134643,0.3124418553456664
1772806458570013000,8.294012939453125,2.35166015702486,-0.17038053205907344,0.6280065188869833
1772806458579944000,8.30394384765625,2.0622423266530037,-0.16046645628809927,0.9365978362843393
1772806458589876000,8.3138759765625,1.6797668578773737,-0.12838672593832015,1.156352055582404
1772806458599806700,8.323806640625,1.335588678792119,-0.004049567651748657,1.346571552838385
1772806458609738800,8.33373876953125,0.9594301380783319,0.13590776909291744,1.5320760042712092
1772806458619670000,8.343669921875,0.5602753371804953,0.3208995948284864,1.4887956654712557
1772806458629602000,8.35360205078125,0.17824878121614454,0.5241396094381809,1.3201885728254914
1772806458639532800,8.36353271484375,-0.1336000766724348,0.7294120066583156,0.9979536377400159
1772806458649464800,8.37346484375,-0.19606442389190196,1.0013058707773685,0.5218795555517077
1772806458659395800,8.383395751953126,-0.17901625845730304,1.093611814031005,0.03615209435522556
1772806458669327600,8.39332763671875,-0.16556114907860756,1.134997717386484,-0.36297318818718194
1772806458679259000,8.4032587890625,0.010377017107605933,1.088857312980294,-0.6260726282149552
1772806458689191000,8.41319091796875,0.08730477396547794,0.9103472504794597,-0.687838471776247
1772806458699122000,8.423121826171876,0.07330605922937393,0.6532078878998756,-0.5362815903916954
1772806458709053000,8.433052978515626,0.0214671509206295,0.34933132406473155,-0.17310995702296494
1772806458718985000,8.44298486328125,-0.08237900800108909,0.11731997300088405,0.18129910869747398
1772806458728916000,8.452916015625,-0.20484803432822227,-0.05922843403816223,0.4211535744771361
1772806458738847700,8.46284765625,-0.2092863090366125,-0.1749836419403553,0.577648204524815
1772806458748778800,8.47277880859375,-0.14244213929772376,-0.1954009915471077,0.5153922393590211
1772806458758710800,8.482710693359374,0.014943886631727217,-0.19323241533637045,0.26557956640571356
1772806458768642000,8.49264208984375,0.19542554146647453,-0.10038695837855338,0.07818798605203628
1772806458778572800,8.50257275390625,0.315898425540328,-0.022091420298814772,-0.08624532804042101
1772806458788504800,8.5125048828125,0.4272656276166439,0.04800736732184887,-0.20970979514569044
1772806458798435800,8.522435791015624,0.5917880812972783,0.1614233186215162,-0.3296607011720538
1772806458808367600,8.53236767578125,0.6924789910584688,0.3484644781023264,-0.46318478999882934
1772806458818299000,8.542298828125,0.7235761401116848,0.4514812004625797,-0.506517151246965
1772806458828231000,8.55223095703125,0.8851923509567976,0.5609750098824501,-0.3894979147583246
1772806458838162000,8.562161865234375,0.9756097039848566,0.6382569870054722,-0.1833250615671277
1772806458848092700,8.5720927734375,0.8558189569562673,0.6176642808318138,0.024726152716577052
1772806458858025000,8.58202490234375,1.3784674510538577,0.686344433826208,0.280705823867023
1772806458867956000,8.5919560546875,1.5368459951519966,0.5219231024324894,0.5841410736754536
1772806458877887700,8.6018876953125,1.366708039677143,0.46535599655807014,0.7695978865742683
1772806458887818800,8.61181884765625,0.9633569561332463,0.47292087885439393,0.9348369640916585
1772806458897750800,8.621750732421875,0.5795815106749534,0.4289192400425672,1.0172650719314813
1772806458907682000,8.63168212890625,0.3546872981399298,0.3724135089665651,1.0678270921722053
1772806458917612800,8.64161279296875,0.2586743170619011,0.36282734997570515,0.9847206466794013
1772806458927544800,8.651544921875,0.1716881075263023,0.3680149817466736,0.8176005777209997
1772806458937475800,8.661475830078125,0.09176759859323501,0.4088333143472671,0.5602598473504186
1772806458947407600,8.67140771484375,0.018601240095496175,0.39056291364133355,0.2797568525791168
1772806458957339000,8.6813388671875,0.015920038187503812,0.38318566287159916,0.06346650999933481
