time,seconds_elapsed,z,y,x
1772806450333126700,0.057126708984375,0.5062069892883301,0.07982825487852097,-0.1343546062707901
1772806450343057400,0.067057373046875,0.5108177065849304,0.06677929311990738,-0.15889431536197662
1772806450352989400,0.076989501953125,0.5300827622413635,0.0534304678440094,-0.18863995373249054
1772806450362920400,0.08692041015625,0.5597594380378723,0.03900172933936119,-0.20407643914222717
1772806450372852500,0.0968525390625,0.5996581315994263,0.033002689480781555,-0.2103726863861084
1772806450382783500,0.106783447265625,0.6433608531951904,0.053649112582206726,-0.20488311350345612
1772806450392715500,0.116715576171875,0.6947183012962341,0.08674368262290955,-0.20472118258476257
1772806450402646500,0.126646484375,0.7566538453102112,0.08733783662319183,-0.21316686272621155
1772806450412578600,0.13657861328125,0.8124721050262451,0.07438687980175018,-0.21280574798583984
1772806450422509300,0.14650927734375,0.8483094573020935,0.05499933660030365,-0.19842414557933807
1772806450432440600,0.156440673828125,0.8738592863082886,0.03985900059342384,-0.1783183366060257
1772806450442372600,0.16637255859375,0.884124219417572,0.023380156606435776,-0.1642339527606964
1772806450452303400,0.176303466796875,0.884813666343689,0.029955236241221428,-0.1493556648492813
1772806450462235400,0.1862353515625,0.8867034912109375,0.05193590372800827,-0.14084073901176453
1772806450472166700,0.196166748046875,0.893170177936554,0.06576995551586151,-0.15134291350841522
1772806450482098700,0.2060986328125,0.9034198522567749,0.07117777317762375,-0.17796067893505096
1772806450492029400,0.216029541015625,0.9188047051429749,0.06363623589277267,-0.20861846208572388
1772806450501961500,0.22596142578125,0.9429808855056763,0.030843133106827736,-0.2576214075088501
1772806450511892500,0.235892578125,0.9487838745117188,-0.018556373193860054,-0.3092968761920929
1772806450521823500,0.245823486328125,0.9368164539337158,-0.10579593479633331,-0.3746636211872101
1772806450531755500,0.255755615234375,0.91065514087677,-0.2454635500907898,-0.46716877818107605
1772806450541686500,0.2656865234375,0.8850184679031372,-0.4031469225883484,-0.5794212818145752
1772806450551618600,0.27561865234375,0.8882893919944763,-0.5264025330543518,-0.7016662359237671
1772806450561549300,0.28554931640625,0.9261904358863831,-0.6020491123199463,-0.8286851644515991
1772806450571481300,0.2954814453125,0.9772450923919678,-0.6132855415344238,-0.9041610360145569
1772806450581412600,0.30541259765625,1.023275375366211,-0.5679997801780701,-0.9230135679244995
1772806450591344400,0.315344482421875,1.045371413230896,-0.5010343194007874,-0.9003732204437256
1772806450601275400,0.325275390625,1.0321288108825684,-0.4146254062652588,-0.8518632054328918
1772806450611207400,0.33520751953125,0.9831184148788452,-0.348745733499527,-0.7972614765167236
1772806450621138700,0.345138671875,0.9560409784317017,-0.2865912914276123,-0.7708013653755188
1772806450631069400,0.3550693359375,0.9679551720619202,-0.18350617587566376,-0.7986394166946411
1772806450641001500,0.36500146484375,1.0006822347640991,-0.09616062045097351,-0.892132580280304
1772806450650932500,0.374932373046875,1.0184388160705566,-0.11131586879491806,-1.0322293043136597
1772806450660864300,0.3848642578125,1.0143914222717285,-0.19236092269420624,-1.1971033811569214
1772806450670795500,0.39479541015625,0.9970068335533142,-0.29815205931663513,-1.401711106300354
1772806450680727600,0.4047275390625,1.010934829711914,-0.38130155205726624,-1.6485403776168823
1772806450690658600,0.414658447265625,1.071965217590332,-0.3720231056213379,-1.8983006477355957
1772806450700590300,0.42459033203125,1.1761693954467773,-0.2571132779121399,-2.1084070205688477
1772806450710521300,0.434521240234375,1.3465261459350586,-0.1316714733839035,-2.232389450073242
1772806450720452600,0.44445263671875,1.5875345468521118,0.06475662440061569,-2.2084264755249023
1772806450730384400,0.45438427734375,1.8390541076660156,0.26932546496391296,-2.084829807281494
1772806450740315400,0.4643154296875,2.0274465084075928,0.4278530776500702,-2.0047988891601562
1772806450750247400,0.474247314453125,2.1354942321777344,0.4921923875808716,-2.0357165336608887
1772806450760178700,0.4841787109375,2.2041537761688232,0.4372580349445343,-2.145540237426758
1772806450770110500,0.4941103515625,2.237654685974121,0.3214813470840454,-2.2667572498321533
1772806450780041500,0.50404150390625,2.2471508979797363,0.17440909147262573,-2.3778035640716553
1772806450789973500,0.513973388671875,2.273494243621826,0.020722322165966034,-2.5191617012023926
1772806450799904300,0.523904296875,2.3192412853240967,-0.12241645902395248,-2.6681807041168213
1772806450809835500,0.53383544921875,2.355879783630371,-0.20328520238399506,-2.775789976119995
1772806450819767600,0.543767578125,2.4538142681121826,-0.26505962014198303,-2.9082448482513428
1772806450829698600,0.553698486328125,2.5702736377716064,-0.3730910122394562,-3.0291290283203125
1772806450839630300,0.56363037109375,2.664139747619629,-0.46931955218315125,-3.0924370288848877
1772806450849561300,0.573561279296875,2.7455544471740723,-0.5624899864196777,-3.1153433322906494
1772806450859493400,0.583493408203125,2.7588045597076416,-0.630544900894165,-3.0526463985443115
1772806450869424600,0.593424560546875,2.6778249740600586,-0.6399083137512207,-2.8573336601257324
1772806450879356400,0.6033564453125,2.516720771789551,-0.5778425931930542,-2.557802438735962
1772806450889287400,0.613287353515625,2.313737392425537,-0.40781891345977783,-2.2098124027252197
1772806450899219500,0.623219482421875,2.104417324066162,-0.18773794174194336,-1.894319772720337
1772806450909150500,0.633150390625,1.9212003946304321,-0.03285462036728859,-1.7009865045547485
1772806450919081500,0.64308154296875,1.7958941459655762,0.03775057569146156,-1.6146260499954224
1772806450929013500,0.653013427734375,1.7515980005264282,-0.0003502056933939457,-1.6346911191940308
1772806450938944500,0.662944580078125,1.762664794921875,-0.14381389319896698,-1.6770024299621582
1772806450948876300,0.672876220703125,1.7525373697280884,-0.28628236055374146,-1.7277201414108276
1772806450958807600,0.6828076171875,1.7379906177520752,-0.39478299021720886,-1.7813671827316284
1772806450968739600,0.692739501953125,1.6950242519378662,-0.452449232339859,-1.8046543598175049
1772806450978670300,0.70267041015625,1.6507388353347778,-0.45815956592559814,-1.77579927444458
1772806450988602400,0.712602294921875,1.617842435836792,-0.44575831294059753,-1.6976230144500732
1772806450998533400,0.722533447265625,1.5902392864227295,-0.401646226644516,-1.5471067428588867
1772806451008464600,0.732464599609375,1.5576586723327637,-0.3284788131713867,-1.339153528213501
1772806451018396400,0.742396484375,1.5070074796676636,-0.21087920665740967,-1.0915000438690186
1772806451028327400,0.752327392578125,1.4603201150894165,-0.09548657387495041,-0.8344501256942749
1772806451038259500,0.762259521484375,1.4363034963607788,-0.03849492967128754,-0.6330651044845581
1772806451048190500,0.7721904296875,1.4296948909759521,-0.05927983671426773,-0.5206407904624939
1772806451058122500,0.78212255859375,1.4025872945785522,-0.1434919238090515,-0.4698796272277832
1772806451068053500,0.792053466796875,1.3498274087905884,-0.3396854102611542,-0.4936845600605011
1772806451077985500,0.801985595703125,1.2806867361068726,-0.5854246020317078,-0.5538557171821594
1772806451087916300,0.811916259765625,1.1831284761428833,-0.7992343306541443,-0.6095094084739685
1772806451097847600,0.82184765625,1.077515721321106,-0.9003340601921082,-0.5891010761260986
1772806451107779600,0.831779541015625,0.972361147403717,-0.9423070549964905,-0.5013437867164612
1772806451117710300,0.84171044921875,0.9011663198471069,-0.9234545826911926,-0.3979630768299103
1772806451127642400,0.851642333984375,0.8618220686912537,-0.8592995405197144,-0.2808516323566437
1772806451137573400,0.861573486328125,0.868442177772522,-0.7365392446517944,-0.20010779798030853
1772806451147505400,0.87150537109375,0.9516156315803528,-0.6083293557167053,-0.21280308067798615
1772806451157436400,0.8814365234375,1.0765328407287598,-0.5314913392066956,-0.31328681111335754
1772806451167368400,0.891368408203125,1.1879181861877441,-0.5217622518539429,-0.4644361138343811
1772806451177299500,0.901299560546875,1.2356274127960205,-0.6336445808410645,-0.6904351711273193
1772806451187231500,0.9112314453125,1.2117021083831787,-0.8455355167388916,-0.936882734298706
1772806451197162500,0.92116259765625,1.0983214378356934,-1.0868892669677734,-1.1672706604003906
1772806451207093500,0.931093505859375,0.9498521089553833,-1.2912440299987793,-1.332880973815918
1772806451217025500,0.941025634765625,0.8278055191040039,-1.4405248165130615,-1.3167808055877686
1772806451226956300,0.950956298828125,0.7756043672561646,-1.5091496706008911,-1.0916401147842407
1772806451236888300,0.960888427734375,0.7731497287750244,-1.4694169759750366,-0.7038593292236328
1772806451246820400,0.9708203125,0.7913620471954346,-1.3214250802993774,-0.2536173462867737
1772806451256752000,0.980752197265625,0.7908704280853271,-1.0841175317764282,0.13150396943092346
1772806451266683400,0.990683349609375,0.7704301476478577,-0.8100219964981079,0.39516621828079224
1772806451276615400,1.000615478515625,0.7395486235618591,-0.5482867956161499,0.4981573224067688
1772806451286546200,1.010546142578125,0.7114392518997192,-0.3985316753387451,0.4344332218170166
1772806451296477400,1.0204775390625,0.65751713514328,-0.3604085147380829,0.303205668926239
1772806451306409500,1.030409423828125,0.5601112246513367,-0.3889658451080322,0.17692071199417114
1772806451316340500,1.040340576171875,0.4513211250305176,-0.45128169655799866,0.0663478672504425
1772806451326272300,1.050272216796875,0.3356168866157532,-0.5518192052841187,0.00980362854897976
1772806451336203300,1.060203369140625,0.23905758559703827,-0.641367495059967,-0.020131099969148636
1772806451346135300,1.07013525390625,0.18001024425029755,-0.6799284815788269,-0.058814581483602524
1772806451356066300,1.08006640625,0.15388543903827667,-0.7145473957061768,-0.11293933540582657
1772806451365998300,1.089998291015625,0.15300099551677704,-0.7314931154251099,-0.14269377291202545
1772806451375929300,1.099929443359375,0.1937100738286972,-0.7325953841209412,-0.14055950939655304
1772806451385861400,1.109861328125,0.2543763518333435,-0.7233206629753113,-0.11565389484167099
1772806451395792100,1.119792236328125,0.3407527804374695,-0.734016478061676,-0.07487264275550842
1772806451405723400,1.129723388671875,0.4238831102848053,-0.7667675018310547,-0.02678554132580757
1772806451415655400,1.139655517578125,0.5126089453697205,-0.8133410811424255,0.01696912944316864
1772806451425586200,1.149586181640625,0.5858927965164185,-0.8684192895889282,0.0341758131980896
1772806451435518200,1.159518310546875,0.6179263591766357,-0.9197876453399658,0.03302532806992531
1772806451445449500,1.169449462890625,0.6277334094047546,-0.9365956783294678,0.017890583723783493
1772806451455381500,1.179381591796875,0.6118181347846985,-0.9206177592277527,-0.03251346945762634
1772806451465312300,1.189312255859375,0.5808721780776978,-0.8764018416404724,-0.10360415279865265
1772806451475244300,1.199244384765625,0.5378323197364807,-0.811290979385376,-0.17791247367858887
1772806451485175300,1.20917529296875,0.4900224208831787,-0.722667396068573,-0.21910518407821655
1772806451495106300,1.219106201171875,0.46105843782424927,-0.6527115106582642,-0.21941331028938293
1772806451505038300,1.229038330078125,0.4465971887111664,-0.5736994743347168,-0.179099440574646
1772806451514969300,1.23896923828125,0.4515647888183594,-0.5015115737915039,-0.11264532059431076
1772806451524901400,1.2489013671875,0.4699845314025879,-0.4729939103126526,-0.04994252696633339
1772806451534832000,1.25883203125,0.4890066981315613,-0.45253604650497437,-0.024582041427493095
1772806451544764200,1.26876416015625,0.5062972903251648,-0.4484584927558899,-0.036197684705257416
1772806451554695400,1.2786953125,0.5237867832183838,-0.48295173048973083,-0.08873333036899567
1772806451564627500,1.28862744140625,0.543109118938446,-0.5322290062904358,-0.1476278007030487
1772806451574558200,1.29855810546875,0.5511403679847717,-0.5597434639930725,-0.1868377923965454
1772806451584489500,1.308489501953125,0.5610779523849487,-0.5725881457328796,-0.2053142786026001
1772806451594421500,1.31842138671875,0.5688186883926392,-0.5857226252555847,-0.239340677857399
1772806451604352300,1.328352294921875,0.5787267088890076,-0.606105387210846,-0.3035156726837158
1772806451614284300,1.3382841796875,0.5797206163406372,-0.6380646228790283,-0.3994928002357483
1772806451624215300,1.34821533203125,0.5735458135604858,-0.6679940223693848,-0.4988468289375305
1772806451634147300,1.358147216796875,0.5758292078971863,-0.7227078676223755,-0.6000099182128906
1772806451644078300,1.368078369140625,0.6085991263389587,-0.8113048672676086,-0.7079204320907593
1772806451654010400,1.37801025390625,0.6733411550521851,-0.8988626599311829,-0.784686803817749
1772806451663941400,1.38794140625,0.7044428586959839,-0.8922641277313232,-0.7973464131355286
1772806451673872100,1.3978720703125,0.698006272315979,-0.8020011186599731,-0.726926863193512
1772806451683804200,1.40780419921875,0.7222322225570679,-0.6576825380325317,-0.5174415707588196
1772806451693735400,1.4177353515625,0.7754906415939331,-0.44178831577301025,-0.18068163096904755
1772806451703667500,1.42766748046875,0.8516805171966553,-0.2266712188720703,0.2135000228881836
1772806451713598200,1.43759814453125,0.9789697527885437,-0.10814511030912399,0.558731198310852
1772806451723530200,1.4475302734375,1.1163036823272705,-0.16698898375034332,0.7133052945137024
1772806451733461500,1.45746142578125,1.2266360521316528,-0.4014739394187927,0.6377445459365845
1772806451743393500,1.4673935546875,1.296254277229309,-0.7260935306549072,0.4226580560207367
1772806451753324300,1.47732421875,1.3278132677078247,-1.0504628419876099,0.16447176039218903
1772806451763255300,1.48725537109375,1.3187211751937866,-1.2363996505737305,-0.08497827500104904
1772806451773187300,1.497187255859375,1.2523163557052612,-1.2688771486282349,-0.2547324299812317
1772806451783118300,1.507118408203125,1.1422721147537231,-1.1497377157211304,-0.3521910607814789
1772806451793050400,1.51705029296875,1.0105865001678467,-0.8822234869003296,-0.40262389183044434
1772806451802981400,1.5269814453125,0.8553910851478577,-0.5088461637496948,-0.3752385973930359
1772806451812913400,1.536913330078125,0.7061869502067566,-0.11474921554327011,-0.2871638536453247
1772806451822844200,1.54684423828125,0.5946098566055298,0.1866825371980667,-0.1912221610546112
1772806451832776200,1.556776123046875,0.529153048992157,0.34812361001968384,-0.12962563335895538
1772806451842707500,1.56670751953125,0.5250222086906433,0.35568779706954956,-0.13422544300556183
1772806451852639500,1.576639404296875,0.5787355303764343,0.21228162944316864,-0.15807192027568817
1772806451862570200,1.5865703125,0.6734351515769958,-0.02973153069615364,-0.1726234406232834
1772806451872501200,1.596501220703125,0.7929697632789612,-0.26930710673332214,-0.22130069136619568
1772806451882433500,1.60643359375,0.9130754470825195,-0.48980513215065,-0.2868834435939789
1772806451892364300,1.6163642578125,0.9884250164031982,-0.6325359344482422,-0.35730698704719543
1772806451902296300,1.62629638671875,1.0101159811019897,-0.7168076634407043,-0.4456872045993805
1772806451912227300,1.636227294921875,1.003066062927246,-0.7603002786636353,-0.5465599894523621
1772806451922159400,1.646159423828125,0.9698950052261353,-0.8081149458885193,-0.6340944170951843
1772806451932090400,1.65609033203125,0.9148427248001099,-0.868295431137085,-0.6822001338005066
1772806451942021400,1.666021484375,0.8299789428710938,-0.8921800255775452,-0.6743810772895813
1772806451951953400,1.675953369140625,0.7334430813789368,-0.8873988389968872,-0.6178451180458069
1772806451961884200,1.68588427734375,0.6350054740905762,-0.8333680629730225,-0.5404089093208313
1772806451971816200,1.695816162109375,0.5345842838287354,-0.7692250609397888,-0.48071494698524475
1772806451981747500,1.70574755859375,0.4579707682132721,-0.7109643816947937,-0.47872957587242126
1772806451991679500,1.715679443359375,0.41449040174484253,-0.6818485856056213,-0.5220176577568054
1772806452001610200,1.7256103515625,0.41078513860702515,-0.6797868013381958,-0.6182776093482971
1772806452011542300,1.735542236328125,0.4305063784122467,-0.6807755827903748,-0.7526189088821411
1772806452021473300,1.745473388671875,0.45949143171310425,-0.6763443946838379,-0.9014978408813477
1772806452031404300,1.755404296875,0.4809916615486145,-0.6894439458847046,-1.0237430334091187
1772806452041336300,1.76533642578125,0.49276894330978394,-0.7080937623977661,-1.0665680170059204
1772806452051267300,1.775267333984375,0.5390104651451111,-0.7308565974235535,-1.0172511339187622
1772806452061199400,1.785199462890625,0.6329585313796997,-0.7775927186012268,-0.8908702731132507
1772806452071130400,1.79513037109375,0.7562652826309204,-0.8375135660171509,-0.7127820253372192
1772806452081062400,1.8050625,0.8544877171516418,-0.8723785877227783,-0.5156678557395935
1772806452090993400,1.814993408203125,0.9034507870674133,-0.8778186440467834,-0.3393474519252777
1772806452100925400,1.824925537109375,0.9177175760269165,-0.8616516590118408,-0.22172068059444427
1772806452110856200,1.834856201171875,0.9142083525657654,-0.8254259824752808,-0.1417699158191681
1772806452120788200,1.844788330078125,0.8932825326919556,-0.776085376739502,-0.09165694564580917
1772806452130719500,1.854719482421875,0.8628000020980835,-0.7275713682174683,-0.06735294312238693
1772806452140650200,1.864650146484375,0.8322447538375854,-0.6552444100379944,-0.05318785458803177
1772806452150582300,1.874582275390625,0.7988567352294922,-0.5797416567802429,-0.04639412835240364
1772806452160513300,1.88451318359375,0.7644095420837402,-0.494737833738327,-0.050165966153144836
1772806452170445600,1.894445556640625,0.7355760335922241,-0.4205706715583801,-0.0703229010105133
1772806452180376300,1.904376220703125,0.7036638855934143,-0.3522736132144928,-0.08500144630670547
1772806452190308400,1.914308349609375,0.6791707873344421,-0.2904832363128662,-0.08962389081716537
1772806452200239400,1.9242392578125,0.6571184992790222,-0.2485450953245163,-0.09404847025871277
1772806452210170400,1.93417041015625,0.6532920598983765,-0.23414725065231323,-0.11561421304941177
1772806452220102400,1.944102294921875,0.6776293516159058,-0.2516189217567444,-0.15070189535617828
1772806452230033400,1.954033447265625,0.7309303879737854,-0.28845176100730896,-0.17423970997333527
1772806452239965400,1.96396533203125,0.8083306550979614,-0.34549081325531006,-0.1854201853275299
1772806452249896200,1.973896240234375,0.9077834486961365,-0.39849865436553955,-0.20287294685840607
1772806452259828200,1.983828125,1.0037333965301514,-0.43999335169792175,-0.2337919920682907
1772806452269759500,1.993759521484375,1.0643805265426636,-0.43153223395347595,-0.270626425743103
1772806452279691500,2.00369140625,1.085932970046997,-0.41772931814193726,-0.31857797503471375
1772806452289622300,2.013622314453125,1.0695528984069824,-0.37955477833747864,-0.36343786120414734
1772806452299553300,2.02355322265625,1.0218311548233032,-0.3130386173725128,-0.3938061594963074
1772806452309485300,2.0334853515625,0.962209939956665,-0.27285894751548767,-0.4265286922454834
1772806452319416300,2.043416259765625,0.9005149006843567,-0.2694258689880371,-0.45765331387519836
1772806452329348400,2.053348388671875,0.822934091091156,-0.2615376114845276,-0.4482867121696472
1772806452339279400,2.063279296875,0.7306579351425171,-0.2919546365737915,-0.41817009449005127
1772806452349211400,2.07321142578125,0.6284165382385254,-0.34310248494148254,-0.3947103023529053
1772806452359142400,2.083142333984375,0.5346700549125671,-0.3950226902961731,-0.3710893988609314
1772806452369074400,2.093074462890625,0.4636842906475067,-0.4421001970767975,-0.35235992074012756
1772806452379005400,2.10300537109375,0.4261454641819,-0.48508813977241516,-0.34466469287872314
1772806452388936200,2.112936279296875,0.4542766809463501,-0.5283807516098022,-0.32221052050590515
1772806452398868200,2.1228681640625,0.5568203926086426,-0.5750705003738403,-0.2855137586593628
1772806452408799500,2.132799560546875,0.7045056819915771,-0.6375392079353333,-0.24226510524749756
1772806452418731500,2.1427314453125,0.8649299740791321,-0.7237890958786011,-0.2509067952632904
1772806452428662300,2.152662353515625,1.0221606492996216,-0.828174889087677,-0.2969112992286682
1772806452438594300,2.16259423828125,1.1551623344421387,-0.9158970713615417,-0.33185356855392456
1772806452448525300,2.172525390625,1.2659317255020142,-0.9580865502357483,-0.27997758984565735
1772806452458457300,2.182457275390625,1.3510189056396484,-0.9396098256111145,-0.1560223549604416
1772806452468388400,2.192388427734375,1.401100993156433,-0.830567479133606,-0.008839564397931099
1772806452478319400,2.2023193359375,1.4276484251022339,-0.665729820728302,0.10723218321800232
1772806452488251400,2.21225146484375,1.417077898979187,-0.5123868584632874,0.15469211339950562
1772806452498182400,2.222182373046875,1.3380848169326782,-0.3355463147163391,0.18208245933055878
1772806452508114400,2.232114501953125,1.2103662490844727,-0.13478924334049225,0.26676085591316223
1772806452518045400,2.24204541015625,1.0020297765731812,0.06331958621740341,0.457382470369339
1772806452527977200,2.251977294921875,0.7272073030471802,0.22374653816223145,0.7514582872390747
1772806452537908200,2.261908203125,0.43392428755760193,0.27881351113319397,1.032913088798523
1772806452547840300,2.27184033203125,0.12529613077640533,0.24259479343891144,1.2398098707199097
1772806452557771500,2.281771484375,-0.16386882960796356,0.16068235039710999,1.3675302267074585
1772806452567702300,2.291702392578125,-0.3350256681442261,0.11709306389093399,1.398938775062561
1772806452577634300,2.30163427734375,-0.2965669631958008,0.12632837891578674,1.3273234367370605
1772806452587565300,2.3115654296875,-0.08111828565597534,0.2208937704563141,1.1764644384384155
1772806452597497300,2.321497314453125,0.22867286205291748,0.3766753673553467,0.9256013631820679
1772806452607428400,2.331428466796875,0.5050187110900879,0.48109471797943115,0.5353419780731201
1772806452617360400,2.3413603515625,0.6500701308250427,0.46255698800086975,0.09012988954782486
1772806452627291400,2.35129150390625,0.6247999668121338,0.45330488681793213,-0.259082168340683
1772806452637223200,2.36122314453125,0.48030030727386475,0.3477438688278198,-0.38021764159202576
1772806452647154400,2.371154541015625,0.39132729172706604,0.14364957809448242,-0.2729969024658203
1772806452657085400,2.38108544921875,0.4805261492729187,-0.19965505599975586,-0.06043058633804321
1772806452667017200,2.391017333984375,0.656914234161377,-0.6328719854354858,0.0870097354054451
1772806452676948200,2.4009482421875,0.7896352410316467,-0.9656808376312256,0.08489864319562912
1772806452686880300,2.41088037109375,0.8017619252204895,-1.1269969940185547,0.021649900823831558
1772806452696811500,2.4208115234375,0.7513104677200317,-1.1225626468658447,-0.02370000258088112
1772806452706743300,2.430743408203125,0.6693695783615112,-0.9583728909492493,-0.015220497734844685
1772806452716674300,2.44067431640625,0.5767408013343811,-0.7307128310203552,0.06666664779186249
1772806452726606300,2.4506064453125,0.47410258650779724,-0.4912610650062561,0.18638291954994202
1772806452736537300,2.460537353515625,0.35983380675315857,-0.28020554780960083,0.2863215208053589
1772806452746468400,2.47046826171875,0.23848606646060944,-0.16282619535923004,0.32877469062805176
1772806452756400400,2.480400390625,0.11971335113048553,-0.1413600593805313,0.3212520480155945
1772806452766331400,2.490331298828125,0.023078154772520065,-0.16524408757686615,0.2863529324531555
1772806452776263200,2.50026318359375,-0.05518495664000511,-0.20599576830863953,0.21486464142799377
1772806452786194400,2.5101943359375,-0.10023605823516846,-0.2519124150276184,0.09750285744667053
1772806452796126500,2.52012646484375,-0.12996278703212738,-0.29182547330856323,-0.06904378533363342
1772806452806057500,2.530057373046875,-0.15414269268512726,-0.3195769190788269,-0.24861620366573334
1772806452815989200,2.5399892578125,-0.1680539846420288,-0.32742100954055786,-0.44213321805000305
1772806452825920300,2.549920166015625,-0.18615229427814484,-0.31143537163734436,-0.6003702282905579
1772806452835851500,2.5598515625,-0.2243015468120575,-0.2568451166152954,-0.6884052753448486
1772806452845783300,2.569783203125,-0.2627927362918854,-0.16000857949256897,-0.7024747729301453
1772806452855714300,2.57971435546875,-0.29084888100624084,-0.0049026133492589,-0.6199596524238586
1772806452865646300,2.589646240234375,-0.3077511787414551,0.13614265620708466,-0.41935038566589355
1772806452875577300,2.599577392578125,-0.32513946294784546,0.2346135675907135,-0.19606511294841766
1772806452885509400,2.60950927734375,-0.3261171281337738,0.2756941616535187,-0.012658004648983479
1772806452895440400,2.6194404296875,-0.307087779045105,0.23663757741451263,0.07067949324846268
1772806452905371400,2.629371337890625,-0.2740459442138672,0.16475220024585724,0.04331871122121811
1772806452915303200,2.63930322265625,-0.223348930478096,0.09756436944007874,-0.02436233125627041
1772806452925234400,2.649234375,-0.15654806792736053,0.02629365585744381,-0.11306264251470566
1772806452935166500,2.65916650390625,-0.08093266934156418,-0.02550988644361496,-0.17484824359416962
1772806452945097500,2.669097412109375,-0.03941424936056137,-0.06689194589853287,-0.18001291155815125
1772806452955029200,2.679029296875,-0.036866139620542526,-0.08834744244813919,-0.14148522913455963
1772806452964960300,2.688960205078125,-0.07423854619264603,-0.10761833935976028,-0.08931629359722137
1772806452974892300,2.698892333984375,-0.15729454159736633,-0.1213272288441658,-0.026487533003091812
1772806452984823300,2.7088232421875,-0.2743663191795349,-0.10883833467960358,0.05041923001408577
1772806452994754300,2.71875439453125,-0.38997092843055725,-0.08689495176076889,0.12143934518098831
1772806453004686300,2.728686279296875,-0.4773934483528137,-0.0752289742231369,0.17340508103370667
1772806453014617300,2.738617431640625,-0.5107519626617432,-0.08719854801893234,0.1718122363090515
1772806453024549000,2.748549072265625,-0.4914189875125885,-0.08053026348352432,0.1094394102692604
1772806453034480400,2.75848046875,-0.461456835269928,-0.04958086833357811,-0.007062969263643026
1772806453044412400,2.768412353515625,-0.4710029363632202,-0.001234907773323357,-0.1432969719171524
1772806453054343200,2.77834326171875,-0.5239923596382141,0.11960256099700928,-0.25822383165359497
1772806453064275200,2.788275146484375,-0.6196978688240051,0.27644357085227966,-0.3416665196418762
1772806453074206500,2.79820654296875,-0.7168928384780884,0.41316893696784973,-0.3782053589820862
1772806453084137500,2.808137451171875,-0.7760696411132812,0.5510019063949585,-0.37224945425987244
1772806453094069200,2.8180693359375,-0.7541499733924866,0.616936981678009,-0.32383930683135986
1772806453104000300,2.828000244140625,-0.6444253325462341,0.48910897970199585,-0.2652284801006317
1772806453113932300,2.837932373046875,-0.4530271291732788,0.20667888224124908,-0.19229088723659515
1772806453123863300,2.84786328125,-0.24194152653217316,-0.14844194054603577,-0.17642828822135925
1772806453133795300,2.85779541015625,-0.09616275131702423,-0.38460758328437805,-0.19482621550559998
1772806453143726300,2.867726318359375,-0.04156794771552086,-0.42913031578063965,-0.1661684662103653
1772806453153658400,2.877658447265625,0.0014956312952563167,-0.33102744817733765,-0.08630292862653732
1772806453163589000,2.887589111328125,0.009178584441542625,-0.13702256977558136,0.020562266930937767
1772806453173520400,2.897520263671875,-0.047149136662483215,0.11707229167222977,0.132402241230011
1772806453183452400,2.907452392578125,-0.15018443763256073,0.3401924669742584,0.28412386775016785
1772806453193383400,2.917383544921875,-0.271822988986969,0.4643796682357788,0.4978633224964142
1772806453203315200,2.927315185546875,-0.3951593041419983,0.5643278360366821,0.7351610660552979
1772806453213246500,2.93724658203125,-0.4631359577178955,0.5554794669151306,0.9966928362846375
1772806453223178500,2.947178466796875,-0.4578394591808319,0.4605439007282257,1.2127771377563477
1772806453233109200,2.957109130859375,-0.4273231029510498,0.3327702283859253,1.3265397548675537
1772806453243040300,2.967040283203125,-0.4066990613937378,0.2035621851682663,1.2825016975402832
1772806453252972300,2.97697216796875,-0.4431004524230957,0.10875843465328217,1.0844221115112305
1772806453262903300,2.9869033203125,-0.5219958424568176,0.12446922063827515,0.8014194965362549
1772806453272835300,2.99683544921875,-0.6277148127555847,0.23265774548053741,0.4922163486480713
1772806453282766300,3.006766357421875,-0.7160249352455139,0.39773938059806824,0.1597592979669571
1772806453292698000,3.016697998046875,-0.7454688549041748,0.5836709141731262,-0.1306714564561844
1772806453302629000,3.026629150390625,-0.7103105783462524,0.7194697260856628,-0.341829776763916
1772806453312561200,3.03656103515625,-0.6452309489250183,0.7935937643051147,-0.48407986760139465
1772806453322492400,3.046492431640625,-0.5915850400924683,0.8834030032157898,-0.5492732524871826
1772806453332423200,3.056423095703125,-0.58278489112854,0.955195963382721,-0.5257349014282227
1772806453342355200,3.066355224609375,-0.5663576722145081,0.9704074263572693,-0.40078017115592957
1772806453352286500,3.076286376953125,-0.48730894923210144,0.9008523225784302,-0.2068842053413391
1772806453362218200,3.08621826171875,-0.34475845098495483,0.7350937128067017,-0.02520335651934147
1772806453372149200,3.096149169921875,-0.19304002821445465,0.5357339978218079,0.07001344114542007
1772806453382081300,3.106081298828125,-0.05878927931189537,0.2996807098388672,0.09027210623025894
1772806453392012300,3.11601220703125,0.004836566746234894,0.12055277824401855,0.06776626408100128
1772806453401944000,3.125944091796875,-0.007249657064676285,0.04608946293592453,0.0168484877794981
1772806453411875300,3.135875244140625,-0.07747481763362885,0.06896974891424179,-0.04904397577047348
1772806453421806300,3.145806396484375,-0.17637556791305542,0.1973588764667511,-0.10044218599796295
1772806453431738000,3.155738037109375,-0.2923021614551544,0.4395986795425415,-0.09029820561408997
1772806453441669000,3.165669189453125,-0.4041783809661865,0.6990851163864136,-0.045884400606155396
1772806453451601200,3.17560107421875,-0.4589332342147827,0.8451003432273865,-0.02292102761566639
1772806453461532400,3.185532470703125,-0.436982125043869,0.8265674114227295,-0.038963910192251205
1772806453471464200,3.195464111328125,-0.37832385301589966,0.6819548606872559,-0.12730816006660461
1772806453481395200,3.205395263671875,-0.30672186613082886,0.44822412729263306,-0.30221712589263916
1772806453491326200,3.215326171875,-0.2452278733253479,0.15387319028377533,-0.5381382703781128
1772806453501258500,3.225258544921875,-0.2121759057044983,-0.11424507945775986,-0.7831792235374451
1772806453511189200,3.235189208984375,-0.19741693139076233,-0.339328795671463,-1.0068432092666626
1772806453521121300,3.245121337890625,-0.1868993192911148,-0.4869678020477295,-1.1736979484558105
1772806453531052300,3.25505224609375,-0.16909049451351166,-0.5437794327735901,-1.2593148946762085
1772806453540984000,3.264984130859375,-0.13704973459243774,-0.54073166847229,-1.2777135372161865
1772806453550915300,3.274915283203125,-0.08496762067079544,-0.4899508059024811,-1.222831130027771
1772806453560847400,3.284847412109375,0.001067661214619875,-0.5206748843193054,-1.1740928888320923
1772806453570778400,3.2947783203125,0.1472560316324234,-0.7141966819763184,-1.1400494575500488
1772806453580709000,3.304709228515625,0.30697670578956604,-0.7259151339530945,-0.923880398273468
1772806453590641200,3.31464111328125,0.42140743136405945,-0.5962032079696655,-0.6541168093681335
1772806453600572400,3.324572509765625,0.4986305832862854,-0.37610572576522827,-0.36793673038482666
1772806453610504200,3.334504150390625,0.5496724247932434,-0.17767305672168732,-0.12465431541204453
1772806453620435200,3.344435302734375,0.566729724407196,-0.05690509453415871,0.033729732036590576
1772806453630367200,3.3543671875,0.5402539372444153,0.004575577098876238,0.11287089437246323
1772806453640298200,3.36429833984375,0.4924001097679138,-0.00018455706594977528,0.12105078995227814
1772806453650230300,3.374230224609375,0.4214273989200592,-0.045997850596904755,0.07163690030574799
1772806453660161300,3.384161376953125,0.368920236825943,-0.09475340694189072,-0.0003914846747647971
1772806453670092300,3.39409228515625,0.3482069671154022,-0.17025509476661682,-0.11666882783174515
1772806453680024000,3.404024169921875,0.37924477458000183,-0.23964454233646393,-0.24249839782714844
1772806453689955300,3.413955322265625,0.45980966091156006,-0.29063183069229126,-0.3310253322124481
1772806453699887400,3.423887451171875,0.5601258873939514,-0.3263821005821228,-0.3792929947376251
1772806453709818400,3.433818359375,0.633601188659668,-0.3236161470413208,-0.3819441795349121
1772806453719750100,3.443750244140625,0.6487939953804016,-0.34026995301246643,-0.39000609517097473
1772806453729681200,3.45368115234375,0.6114106774330139,-0.3576976954936981,-0.4063086211681366
1772806453739612400,3.4636123046875,0.5312662720680237,-0.3879551887512207,-0.41351595520973206
1772806453749544200,3.473544189453125,0.4596003592014313,-0.41105759143829346,-0.41610053181648254
1772806453759475200,3.48347509765625,0.42318373918533325,-0.4295138120651245,-0.4018089473247528
1772806453769407200,3.4934072265625,0.4142847955226898,-0.4668979346752167,-0.3710896670818329
1772806453779338200,3.503338134765625,0.4136773347854614,-0.4801602065563202,-0.32098573446273804
1772806453789270300,3.513270263671875,0.4564303755760193,-0.5028255581855774,-0.29917606711387634
1772806453799201300,3.523201171875,0.5439748764038086,-0.541699230670929,-0.32453814148902893
1772806453809133300,3.53313330078125,0.6687575578689575,-0.5570212006568909,-0.37344682216644287
1772806453819064000,3.54306396484375,0.7734853029251099,-0.5170609951019287,-0.39444929361343384
1772806453828995300,3.552995361328125,0.8276151418685913,-0.46473437547683716,-0.3824099600315094
1772806453838927400,3.56292724609375,0.8413181304931641,-0.4145228862762451,-0.356472373008728
1772806453848858400,3.5728583984375,0.8159968256950378,-0.432683527469635,-0.3336932957172394
1772806453858790100,3.5827900390625,0.7756872177124023,-0.4593806266784668,-0.2779645025730133
1772806453868721200,3.59272119140625,0.714141309261322,-0.456525981426239,-0.14275501668453217
1772806453878653200,3.602653076171875,0.6664661765098572,-0.4294152855873108,0.0337451808154583
1772806453888584200,3.612584228515625,0.6062369346618652,-0.3369346261024475,0.2065611630678177
1772806453898516200,3.62251611328125,0.5282055139541626,-0.21357353031635284,0.3600905239582062
1772806453908447200,3.632447265625,0.4378274083137512,-0.07791557163000107,0.4918277859687805
1772806453918378200,3.642378173828125,0.3489052653312683,0.10375489294528961,0.6634522676467896
1772806453928310300,3.652310302734375,0.2674697935581207,0.2980460822582245,0.8025571703910828
1772806453938241300,3.6622412109375,0.19467228651046753,0.4170161485671997,0.8926412463188171
1772806453948173300,3.67217333984375,0.11277315020561218,0.43136072158813477,0.9259179830551147
1772806453958104300,3.682104248046875,0.040943171828985214,0.3797784745693207,0.9085237979888916
1772806453968036000,3.6920361328125,-0.009501359425485134,0.24540071189403534,0.8467057347297668
1772806453977967400,3.70196728515625,-0.02588059939444065,0.1101539358496666,0.7616608738899231
1772806453987898400,3.7118984375,0.004988633096218109,-0.012828979641199112,0.6516342163085938
1772806453997830100,3.721830078125,0.06493319571018219,-0.12944507598876953,0.5415838956832886
1772806454007761200,3.73176123046875,0.14224183559417725,-0.24114763736724854,0.41007113456726074
1772806454017693200,3.741693115234375,0.26304253935813904,-0.35373571515083313,0.2633432149887085
1772806454027624400,3.75162451171875,0.31637874245643616,-0.3980078101158142,0.16673491895198822
1772806454037556200,3.76155615234375,0.3402760922908783,-0.37398451566696167,0.10610992461442947
1772806454047487200,3.7714873046875,0.31239357590675354,-0.41411063075065613,-0.0016466324450448155
1772806454057418200,3.781418212890625,0.22320272028446198,-0.47649145126342773,-0.09849115461111069
1772806454067350300,3.791350341796875,0.10232557356357574,-0.5008191466331482,-0.17418111860752106
1772806454077281300,3.80128125,-0.014198909513652325,-0.46933498978614807,-0.18823222815990448
1772806454087213300,3.81121337890625,-0.1097925454378128,-0.3651297688484192,-0.12467162311077118
1772806454097144300,3.821144287109375,-0.17752951383590698,-0.21531496942043304,0.006031793542206287
1772806454107076000,3.831076171875,-0.2215006947517395,-0.037343643605709076,0.19936689734458923
1772806454117007400,3.84100732421875,-0.2725348472595215,0.11666935682296753,0.4154941439628601
1772806454126939400,3.850939453125,-0.32780584692955017,0.2710930109024048,0.6395338773727417
1772806454136870100,3.8608701171875,-0.38875892758369446,0.4204188585281372,0.8430036902427673
1772806454146801200,3.87080126953125,-0.4388066530227661,0.5504027009010315,1.0002812147140503
1772806454156733200,3.880733154296875,-0.488543301820755,0.6281542181968689,1.0722328424453735
1772806454166664400,3.89066455078125,-0.5263215899467468,0.6401440501213074,1.056196928024292
1772806454176596200,3.90059619140625,-0.5543108582496643,0.5881612300872803,0.9752267003059387
1772806454186527200,3.91052734375,-0.5731303691864014,0.5074355006217957,0.8582968711853027
1772806454196459300,3.920459228515625,-0.5913314819335938,0.4088863134384155,0.7386453151702881
1772806454206390000,3.93039013671875,-0.5952236652374268,0.33222562074661255,0.6105712056159973
1772806454216322300,3.940322265625,-0.5938124656677246,0.29709771275520325,0.5091599225997925
1772806454226253300,3.95025341796875,-0.5863481760025024,0.30022212862968445,0.43025311827659607
1772806454236184300,3.960184326171875,-0.5920425653457642,0.3501524031162262,0.3780599534511566
1772806454246115800,3.97011572265625,-0.6000336408615112,0.4494457244873047,0.35373491048812866
1772806454256046800,3.980046875,-0.6198121309280396,0.560977041721344,0.33057525753974915
1772806454265976800,3.989976806640625,-0.638235867023468,0.6648062467575073,0.28237149119377136
1772806454275908900,3.999908935546875,-0.6329960823059082,0.730743944644928,0.2158510684967041
1772806454285840000,4.00983984375,-0.5964258313179016,0.7222822904586792,0.10664761811494827
1772806454295772000,4.01977197265625,-0.5336596369743347,0.6681245565414429,-0.03734816983342171
1772806454305703000,4.029702880859375,-0.4881627559661865,0.5978213548660278,-0.17502693831920624
1772806454315635000,4.039635009765625,-0.48546043038368225,0.5624854564666748,-0.2620462477207184
1772806454325565700,4.049565673828125,-0.517713189125061,0.5924875736236572,-0.27120912075042725
1772806454335497000,4.0594970703125,-0.5982959270477295,0.6925638318061829,-0.1972036212682724
1772806454345429000,4.069428955078125,-0.7069302201271057,0.8405567407608032,-0.0660242885351181
1772806454355359700,4.07935986328125,-0.7946766018867493,0.9532798528671265,0.025052089244127274
1772806454365291800,4.089291748046875,-0.8352208137512207,0.9735976457595825,0.035648807883262634
1772806454375223000,4.09922314453125,-0.8175963163375854,0.9279811382293701,-0.021494640037417412
1772806454385155000,4.109155029296875,-0.7748389840126038,0.84049391746521,-0.0881279930472374
1772806454395085800,4.1190859375,-0.7207536697387695,0.7421635985374451,-0.1149473562836647
1772806454405017900,4.129017822265625,-0.6591920256614685,0.6447196006774902,-0.08543580770492554
1772806454414948900,4.138948974609375,-0.5974759459495544,0.5364562273025513,-0.060376524925231934
1772806454424879900,4.1488798828125,-0.5784447193145752,0.4343024492263794,-0.06807731837034225
1772806454434812000,4.15881201171875,-0.6096436381340027,0.3730500042438507,-0.11773062497377396
1772806454444743000,4.168742919921875,-0.6737076044082642,0.3493284285068512,-0.20346364378929138
1772806454454675000,4.178675048828125,-0.7459586262702942,0.3240896463394165,-0.35278308391571045
1772806454464605700,4.188605712890625,-0.8130596280097961,0.2243870347738266,-0.5897666215896606
1772806454474537700,4.198537841796875,-0.8337070941925049,0.11166314780712128,-0.7899284362792969
1772806454484469000,4.208468994140625,-0.7494156360626221,0.05169781669974327,-0.8909088969230652
1772806454494399700,4.218399658203125,-0.5660766959190369,0.0194258950650692,-0.9106982946395874
1772806454504331800,4.228331787109375,-0.35768890380859375,-0.0818602442741394,-0.8691385984420776
1772806454514263000,4.238262939453125,-0.22169777750968933,-0.2162659913301468,-0.7472140192985535
1772806454524195000,4.248195068359375,-0.17910850048065186,-0.28965550661087036,-0.5135687589645386
1772806454534125800,4.258125732421875,-0.1655263751745224,-0.23176825046539307,-0.19924812018871307
1772806454544057900,4.268057861328125,-0.14629729092121124,-0.15957394242286682,0.07974782586097717
1772806454553988900,4.27798876953125,-0.10002646595239639,-0.15051519870758057,0.2562834322452545
1772806454563921000,4.2879208984375,-0.0566243976354599,-0.12883786857128143,0.3636173605918884
1772806454573852000,4.297851806640625,-0.03699876368045807,-0.06115363538265228,0.41779831051826477
1772806454583783000,4.307782958984375,-0.07088642567396164,0.07141079753637314,0.43903088569641113
1772806454593715000,4.31771484375,-0.13697676360607147,0.24003523588180542,0.3988315463066101
1772806454603645700,4.327645751953125,-0.22606828808784485,0.3277254104614258,0.31040260195732117
1772806454613577700,4.33757763671875,-0.30193987488746643,0.358195424079895,0.20634332299232483
1772806454623509000,4.347509033203125,-0.3761904239654541,0.3596425950527191,0.1605215072631836
1772806454633441000,4.35744091796875,-0.4059184789657593,0.4103931188583374,0.22959724068641663
1772806454643372800,4.367372802734375,-0.3969241976737976,0.5222117900848389,0.42265084385871887
1772806454653304800,4.377304931640625,-0.32817548513412476,0.646982729434967,0.7107252478599548
1772806454663235800,4.38723583984375,-0.2223270833492279,0.6922290921211243,0.9851586818695068
1772806454673168000,4.39716796875,-0.1349535584449768,0.6604008078575134,1.1766096353530884
1772806454683099000,4.407098876953125,-0.1093592494726181,0.5342093110084534,1.2424269914627075
1772806454693031000,4.417031005859375,-0.16810698807239532,0.3079751431941986,1.1662310361862183
1772806454702962000,4.4269619140625,-0.2928129732608795,0.05247173085808754,0.9671285152435303
1772806454712892700,4.436892578125,-0.45774227380752563,-0.13784149289131165,0.700400710105896
1772806454722824700,4.44682470703125,-0.6177021265029907,-0.1969974935054779,0.3761371374130249
1772806454732756000,4.456755859375,-0.7481865882873535,-0.14019066095352173,0.04430301487445831
1772806454742688000,4.46668798828125,-0.815771758556366,0.04301165044307709,-0.23879100382328033
1772806454752618800,4.47661865234375,-0.7971110343933105,0.29634296894073486,-0.46843671798706055
1772806454762550800,4.48655078125,-0.728052020072937,0.5889080166816711,-0.5903985500335693
1772806454772481800,4.496481689453125,-0.6276737451553345,0.83810955286026,-0.6425408720970154
1772806454782412800,4.506412841796875,-0.5383492112159729,0.8901925086975098,-0.7628476023674011
1772806454792344800,4.5163447265625,-0.4292570948600769,0.5231886506080627,-1.0281822681427002
1772806454802275800,4.52627587890625,-0.28838199377059937,0.04655684903264046,-1.1942836046218872
1772806454812207900,4.536207763671875,-0.11064555495977402,-0.2745189070701599,-1.172832727432251
1772806454822139000,4.546138916015625,0.03500698506832123,-0.40551820397377014,-0.977303683757782
1772806454832071000,4.55607080078125,0.10996458679437637,-0.38009408116340637,-0.6644040942192078
1772806454842002000,4.566001953125,0.1628807932138443,-0.30728670954704285,-0.4482494294643402
1772806454851934000,4.575933837890625,0.1665317267179489,-0.2843611538410187,-0.3231503665447235
1772806454861864700,4.58586474609375,0.16185015439987183,-0.28137388825416565,-0.2877196669578552
1772806454871796000,4.5957958984375,0.1351919025182724,-0.3497561514377594,-0.3414531946182251
1772806454881728000,4.60572802734375,0.0631675198674202,-0.3694038689136505,-0.38188186287879944
1772806454891658800,4.61565869140625,-0.02479136548936367,-0.3490093946456909,-0.4368143379688263
1772806454901590800,4.6255908203125,-0.10485078394412994,-0.3004477024078369,-0.47713300585746765
1772806454911521800,4.635521728515625,-0.13715039193630219,-0.3408382833003998,-0.5088357925415039
1772806454921454000,4.6454541015625,-0.12581785023212433,-0.4982617199420929,-0.5785933136940002
1772806454931384800,4.655384765625,-0.0953478217124939,-0.672753095626831,-0.6624027490615845
1772806454941315800,4.66531591796875,-0.05050072446465492,-0.8084043860435486,-0.7576472163200378
1772806454951248000,4.675247802734375,-0.001589108258485794,-0.859097957611084,-0.8539716005325317
1772806454961179000,4.685178955078125,0.04167900234460831,-0.8759309649467468,-0.9570580720901489
1772806454971111000,4.69511083984375,0.07997286319732666,-0.8839492201805115,-1.0475959777832031
1772806454981042000,4.7050419921875,0.11779214441776276,-0.8854504823684692,-1.1213847398757935
1772806454990974000,4.714973876953125,0.16663798689842224,-0.8585203289985657,-1.130997657775879
1772806455000904700,4.72490478515625,0.22235611081123352,-0.8155680298805237,-1.0827767848968506
1772806455010836700,4.734836669921875,0.26869937777519226,-0.7541092038154602,-0.9977463483810425
1772806455020768000,4.74476806640625,0.31472572684288025,-0.6873858571052551,-0.8910923600196838
1772806455030698800,4.75469873046875,0.35841888189315796,-0.6343167424201965,-0.7560296058654785
1772806455040630800,4.764630859375,0.415058434009552,-0.5600433349609375,-0.6057189702987671
1772806455050561800,4.774561767578125,0.49322274327278137,-0.49939435720443726,-0.44539186358451843
1772806455060493800,4.784493896484375,0.6013523936271667,-0.47835060954093933,-0.29135701060295105
1772806455070424800,4.7944248046875,0.6895374059677124,-0.4590136408805847,-0.15943706035614014
1772806455080356900,4.80435693359375,0.7317042946815491,-0.4452986419200897,-0.050332680344581604
1772806455090287900,4.814287841796875,0.7739585638046265,-0.4557504951953888,0.015150723047554493
1772806455100219000,4.824218994140625,0.7743486762046814,-0.4764155447483063,0.04727803170681
1772806455110151000,4.83415087890625,0.7362516522407532,-0.49127039313316345,0.028373584151268005
1772806455120082000,4.84408203125,0.6684339642524719,-0.5054439902305603,-0.02094416320323944
1772806455130014000,4.854013916015625,0.6011995673179626,-0.5335728526115417,-0.09111233055591583
1772806455139944700,4.86394482421875,0.5451770424842834,-0.5287847518920898,-0.16562411189079285
1772806455149876700,4.873876708984375,0.5148113965988159,-0.5055723786354065,-0.22726084291934967
1772806455159808000,4.88380810546875,0.518235981464386,-0.4878186583518982,-0.2583306133747101
1772806455169740000,4.893739990234375,0.5153520107269287,-0.49536871910095215,-0.27719005942344666
1772806455179670800,4.9036708984375,0.4947521984577179,-0.5312287211418152,-0.2978881597518921
1772806455189601800,4.913601806640625,0.4732048511505127,-0.5627584457397461,-0.31772977113723755
1772806455199533800,4.923533935546875,0.46794962882995605,-0.6003795862197876,-0.32359644770622253
1772806455209464800,4.93346484375,0.4800899028778076,-0.639582097530365,-0.3428835868835449
1772806455219396900,4.94339697265625,0.5311192870140076,-0.6962776184082031,-0.3671678900718689
1772806455229328000,4.953327880859375,0.6311371922492981,-0.7562903165817261,-0.3922860324382782
1772806455239260000,4.963260009765625,0.7966651916503906,-0.8591104745864868,-0.4550758898258209
1772806455249191200,4.973191162109375,0.9391874670982361,-0.9447821974754333,-0.49069780111312866
1772806455259122200,4.9831220703125,0.9826962947845459,-0.8961326479911804,-0.4241885542869568
1772806455269054200,4.99305419921875,0.9706287384033203,-0.7234269380569458,-0.30712825059890747
1772806455278985000,5.00298486328125,0.9419866800308228,-0.6075775623321533,-0.24404488503932953
1772806455288917000,5.0129169921875,0.8933613896369934,-0.5205745100975037,-0.15213866531848907
1772806455298848300,5.02284814453125,0.8404542207717896,-0.4636771082878113,-0.04357224330306053
1772806455308780300,5.0327802734375,0.7859928607940674,-0.383972704410553,0.08648376166820526
1772806455318711000,5.0427109375,0.7159956693649292,-0.2782342731952667,0.21098387241363525
1772806455328643000,5.05264306640625,0.6350403428077698,-0.1621233969926834,0.3128093183040619
1772806455338574000,5.062573974609375,0.5711143612861633,-0.06286205351352692,0.4032587707042694
1772806455348505000,5.072505126953125,0.4731441140174866,0.09472411125898361,0.5520397424697876
1772806455358437000,5.08243701171875,0.38385286927223206,0.3124793469905853,0.7735516428947449
1772806455368368000,5.0923681640625,0.29818961024284363,0.5158907771110535,1.0025299787521362
1772806455378300200,5.102300048828125,0.2014407068490982,0.6221538186073303,1.1783007383346558
1772806455388231000,5.11223095703125,0.12639495730400085,0.583530843257904,1.2336044311523438
1772806455398163200,5.1221630859375,0.05937810614705086,0.4407520890235901,1.1747525930404663
1772806455408094200,5.13209423828125,0.04711638018488884,0.18554535508155823,1.0005320310592651
1772806455418025000,5.14202490234375,0.09100580960512161,-0.056956227868795395,0.803810179233551
1772806455427957000,5.15195703125,0.18812036514282227,-0.2401132583618164,0.5913777947425842
1772806455437888300,5.16188818359375,0.309365838766098,-0.37027740478515625,0.38042962551116943
1772806455447820300,5.1718203125,0.4184289574623108,-0.4696314036846161,0.1898231953382492
1772806455457751000,5.1817509765625,0.46601375937461853,-0.46599647402763367,0.081870898604393
1772806455467683000,5.19168310546875,0.4258469045162201,-0.3864443898200989,0.05383819714188576
1772806455477614000,5.201614013671875,0.344374418258667,-0.3422103524208069,0.020362796261906624
1772806455487545000,5.211545166015625,0.22069455683231354,-0.36593112349510193,-0.026186330243945122
1772806455497477000,5.22147705078125,0.06734468787908554,-0.44313323497772217,-0.08674821257591248
1772806455507408100,5.231408203125,-0.0720430314540863,-0.5877788066864014,-0.1561826765537262
1772806455517340200,5.241340087890625,-0.15598906576633453,-0.7083947062492371,-0.20630256831645966
1772806455527271000,5.25127099609375,-0.19245785474777222,-0.726926326751709,-0.15748949348926544
1772806455537203200,5.261203125,-0.1804286241531372,-0.5880028009414673,0.021852567791938782
1772806455547134200,5.27113427734375,-0.13718794286251068,-0.3292087912559509,0.2953445613384247
1772806455557066200,5.281066162109375,-0.09758248180150986,-0.027781030163168907,0.5908195972442627
1772806455566997000,5.2909970703125,-0.09510574489831924,0.2550661265850067,0.8399825692176819
1772806455576928300,5.30092822265625,-0.14970746636390686,0.45531824231147766,0.9848790168762207
1772806455586860300,5.3108603515625,-0.24458257853984833,0.5528724789619446,1.0191401243209839
1772806455596791000,5.320791015625,-0.3624149560928345,0.5529569387435913,0.9627753496170044
1772806455606723000,5.33072314453125,-0.4812856614589691,0.5071383118629456,0.8406654000282288
1772806455616654000,5.340654052734375,-0.5777245759963989,0.4615074396133423,0.7088953852653503
1772806455626586000,5.350586181640625,-0.6273206472396851,0.4293154180049896,0.570605456829071
1772806455636517000,5.36051708984375,-0.6288724541664124,0.4469364881515503,0.4643426239490509
1772806455646448000,5.3704482421875,-0.6009811758995056,0.48864319920539856,0.4096687436103821
1772806455656380200,5.380380126953125,-0.5684935450553894,0.5718645453453064,0.40275198221206665
1772806455666311000,5.390310791015625,-0.5441639423370361,0.6538686156272888,0.417559415102005
1772806455676243000,5.400242919921875,-0.5321075916290283,0.7191722393035889,0.4280698597431183
1772806455686174200,5.41017431640625,-0.5164458155632019,0.749718189239502,0.4249313175678253
1772806455696106200,5.420106201171875,-0.49342143535614014,0.729832649230957,0.40396612882614136
1772806455706037000,5.430037109375,-0.47017017006874084,0.6502768397331238,0.3544054925441742
1772806455715968300,5.43996826171875,-0.4542652368545532,0.5598441362380981,0.27930086851119995
1772806455725900300,5.449900390625,-0.45441490411758423,0.48439329862594604,0.19444458186626434
1772806455735831000,5.4598310546875,-0.4664369523525238,0.4639277160167694,0.12964294850826263
1772806455745763000,5.46976318359375,-0.4826907515525818,0.5138183236122131,0.13892538845539093
1772806455755694000,5.479694091796875,-0.4829442799091339,0.5965925455093384,0.21351414918899536
1772806455765626000,5.489626220703125,-0.4675024747848511,0.653634786605835,0.2960023581981659
1772806455775557000,5.49955712890625,-0.43974700570106506,0.6614285707473755,0.33652955293655396
1772806455785489200,5.5094892578125,-0.41357266902923584,0.5913117527961731,0.31288841366767883
1772806455795420200,5.519420166015625,-0.41606539487838745,0.44107672572135925,0.1356145590543747
1772806455805351000,5.529350830078125,-0.4461037218570709,0.3021015226840973,-0.047096673399209976
1772806455815283000,5.539282958984375,-0.4762815833091736,0.29521194100379944,-0.16772721707820892
1772806455825214200,5.549214111328125,-0.48389315605163574,0.34716567397117615,-0.21199961006641388
1772806455835146200,5.559146240234375,-0.4536026418209076,0.3739645481109619,-0.24247415363788605
1772806455845077000,5.569076904296875,-0.4112434685230255,0.3676706850528717,-0.2900448739528656
1772806455855009000,5.579009033203125,-0.39269375801086426,0.3158663511276245,-0.3580508232116699
1772806455864940300,5.588940185546875,-0.40930867195129395,0.2717899680137634,-0.4223557710647583
1772806455874871000,5.59887109375,-0.4448176622390747,0.21548141539096832,-0.48431873321533203
1772806455884803000,5.608802978515625,-0.4846484363079071,0.12286972999572754,-0.5223854184150696
1772806455894734000,5.618734130859375,-0.4791351556777954,-0.03977670893073082,-0.5702672004699707
1772806455904666000,5.628666015625,-0.43256473541259766,-0.18341323733329773,-0.5829603672027588
1772806455914597000,5.63859716796875,-0.36570635437965393,-0.2792436182498932,-0.5401039719581604
1772806455924529200,5.648529052734375,-0.28599393367767334,-0.3636961877346039,-0.47334039211273193
1772806455934460200,5.658460205078125,-0.21011541783809662,-0.3711506426334381,-0.33229485154151917
1772806455944392200,5.66839208984375,-0.1450200378894806,-0.27586060762405396,-0.11447624117136002
1772806455954323000,5.678322998046875,-0.09023135900497437,-0.0966503769159317,0.13982340693473816
1772806455964254200,5.688254150390625,-0.0615437887609005,0.01683890074491501,0.2950018048286438
1772806455974186200,5.698186279296875,-0.084963358938694,0.03723418712615967,0.37365269660949707
1772806455984117000,5.708116943359375,-0.13892193138599396,-0.015357917174696922,0.41067567467689514
1772806455994049000,5.718049072265625,-0.2099100947380066,-0.08542115986347198,0.42183804512023926
1772806456003980000,5.72797998046875,-0.3261996805667877,-0.09461092948913574,0.43909239768981934
1772806456013912300,5.737912353515625,-0.4540061056613922,-0.013834855519235134,0.4597635865211487
1772806456023843000,5.747843017578125,-0.5559889078140259,0.08063172549009323,0.4290195405483246
1772806456033774000,5.757774169921875,-0.658266544342041,0.1837887465953827,0.33936527371406555
1772806456043706000,5.7677060546875,-0.7651045918464661,0.287365198135376,0.24946309626102448
1772806456053637000,5.77763720703125,-0.8763254284858704,0.41645899415016174,0.23104546964168549
1772806456063569200,5.787569091796875,-0.9335591197013855,0.5700544118881226,0.3411208391189575
1772806456073500200,5.797500244140625,-0.8366110324859619,0.7259896993637085,0.6125470399856567
1772806456083432200,5.80743212890625,-0.6057594418525696,0.8308372497558594,0.948845386505127
1772806456093363000,5.817363037109375,-0.32960212230682373,0.8129160404205322,1.20009446144104
1772806456103294200,5.827294189453125,-0.11048389971256256,0.6576843857765198,1.2617311477661133
1772806456113226200,5.837226318359375,0.014313159510493279,0.4257286787033081,1.1591616868972778
1772806456123157000,5.847156982421875,0.03861423581838608,0.1467130035161972,0.914614737033844
1772806456133089000,5.857089111328125,-0.023081883788108826,-0.1132487952709198,0.5834924578666687
1772806456143020000,5.86702001953125,-0.13582681119441986,-0.2895961403846741,0.29868975281715393
1772806456152952300,5.876952392578125,-0.2876245975494385,-0.3436516523361206,0.11992746591567993
1772806456162883000,5.886883056640625,-0.4175328016281128,-0.234557643532753,0.06445541977882385
1772806456172815000,5.896815185546875,-0.48785942792892456,-0.09300664067268372,0.12039991468191147
1772806456182746000,5.90674609375,-0.5241268873214722,0.01684342883527279,0.16298413276672363
1772806456192677000,5.916677001953125,-0.5626441836357117,0.14243730902671814,0.1192515566945076
1772806456202609200,5.926609130859375,-0.6096100807189941,0.28482455015182495,0.018570754677057266
1772806456212540200,5.9365400390625,-0.6205386519432068,0.4378111660480499,-0.13924790918827057
1772806456222472200,5.94647216796875,-0.5789235234260559,0.5819363594055176,-0.2890360653400421
1772806456232403000,5.95640283203125,-0.44638681411743164,0.650342583656311,-0.38777250051498413
1772806456242335000,5.9663349609375,-0.23819471895694733,0.6263235807418823,-0.40954411029815674
1772806456252266200,5.976266357421875,-0.018324146047234535,0.5095404982566833,-0.37621837854385376
1772806456262197200,5.986197265625,0.16541026532649994,0.3220573961734772,-0.3185822367668152
1772806456272129300,5.99612939453125,0.2593045234680176,0.19767259061336517,-0.19757646322250366
1772806456282060000,6.00606005859375,0.2634875774383545,0.13339853286743164,-0.06408737599849701
1772806456291992000,6.015991943359375,0.18247154355049133,0.11866433173418045,0.05932138115167618
1772806456301923300,6.02592333984375,0.06059064343571663,0.13187654316425323,0.14837561547756195
1772806456311855400,6.03585546875,-0.08127807825803757,0.14615614712238312,0.18390725553035736
1772806456321786000,6.0457861328125,-0.22238460183143616,0.15527507662773132,0.1587723344564438
1772806456331717400,6.05571728515625,-0.33611276745796204,0.14031264185905457,0.04086274281144142
1772806456341649400,6.0656494140625,-0.40188831090927124,0.07020039111375809,-0.1590876579284668
1772806456351580200,6.075580078125,-0.41013452410697937,-0.022184398025274277,-0.3931443691253662
1772806456361512200,6.08551220703125,-0.36568209528923035,-0.1196526288986206,-0.5691020488739014
1772806456371443200,6.095443115234375,-0.2938545346260071,-0.21470138430595398,-0.6916288137435913
1772806456381375200,6.105375244140625,-0.20347988605499268,-0.30091750621795654,-0.7515139579772949
1772806456391306200,6.11530615234375,-0.09031471610069275,-0.39532148838043213,-0.7842958569526672
1772806456401238300,6.12523828125,0.04868524894118309,-0.5086176991462708,-0.8144042491912842
1772806456411169300,6.135169189453125,0.16144348680973053,-0.5869846940040588,-0.8019835352897644
1772806456421100000,6.14510009765625,0.2504734992980957,-0.6046707034111023,-0.7696053385734558
1772806456431032000,6.155031982421875,0.28013843297958374,-0.58713299036026,-0.7064407467842102
1772806456440963300,6.16496337890625,0.28533825278282166,-0.5227726697921753,-0.6663466095924377
1772806456450895400,6.174895263671875,0.27184242010116577,-0.47826430201530457,-0.6543067097663879
1772806456460826000,6.184826171875,0.2826306223869324,-0.440233051776886,-0.6788690686225891
1772806456470758100,6.194758056640625,0.32302600145339966,-0.4556889533996582,-0.7072336077690125
1772806456480689400,6.204689453125,0.3274438977241516,-0.48469239473342896,-0.6818763017654419
1772806456490620400,6.214620361328125,0.31439387798309326,-0.4366641342639923,-0.5853921175003052
1772806456500552200,6.22455224609375,0.32986152172088623,-0.3673867881298065,-0.45776835083961487
1772806456510483200,6.234483154296875,0.37865862250328064,-0.27667075395584106,-0.30186396837234497
1772806456520415200,6.244415283203125,0.4685107469558716,-0.19372180104255676,-0.1429896503686905
1772806456530346200,6.25434619140625,0.5879223942756653,-0.1391802579164505,0.0008053398923948407
1772806456540278300,6.2642783203125,0.7121873497962952,-0.1083642914891243,0.09052404016256332
1772806456550209300,6.274209228515625,0.7767191529273987,-0.09870021045207977,0.11104662716388702
1772806456560140300,6.284140380859375,0.7718690037727356,-0.09436032176017761,0.0868624597787857
1772806456570072000,6.294072021484375,0.706160843372345,-0.13258734345436096,0.02346990630030632
1772806456580003300,6.30400341796875,0.6248114109039307,-0.19790509343147278,-0.07210028916597366
1772806456589935400,6.313935302734375,0.554327666759491,-0.28679928183555603,-0.18804526329040527
1772806456599866000,6.3238662109375,0.4817240238189697,-0.41349971294403076,-0.3078467845916748
1772806456609798100,6.333798095703125,0.419167697429657,-0.5400770902633667,-0.4070274233818054
1772806456619729400,6.3437294921875,0.39179787039756775,-0.6518803238868713,-0.47350630164146423
1772806456629660400,6.353660400390625,0.4175839126110077,-0.7401902079582214,-0.4953484833240509
1772806456639592200,6.36359228515625,0.5008583068847656,-0.7907007932662964,-0.4619196951389313
1772806456649523200,6.373523193359375,0.6648728251457214,-0.866130530834198,-0.4542956054210663
1772806456659455200,6.383455322265625,0.8564518094062805,-0.9656875133514404,-0.4888533055782318
1772806456669386200,6.39338623046875,1.037097454071045,-0.9890573024749756,-0.4899396002292633
1772806456679318300,6.403318359375,1.1545287370681763,-0.8732380270957947,-0.3899075388908386
1772806456689249300,6.413249267578125,1.2102583646774292,-0.5945139527320862,-0.15126675367355347
1772806456699181300,6.423181396484375,1.2220205068588257,-0.2564166188240051,0.13264726102352142
1772806456709112000,6.433112060546875,1.1840847730636597,-0.0049377670511603355,0.35688143968582153
1772806456719043300,6.443043212890625,1.0632609128952026,0.10948867350816727,0.4702620506286621
1772806456728975400,6.452975341796875,0.8847007751464844,0.10704576224088669,0.4852242171764374
1772806456738906000,6.462906005859375,0.6479334831237793,0.052916210144758224,0.41630133986473083
1772806456748838100,6.472838134765625,0.4204854369163513,0.14131557941436768,0.493586003780365
1772806456758769200,6.48276904296875,0.2738885283470154,0.31233686208724976,0.6199554204940796
1772806456768701400,6.492701416015625,0.17603068053722382,0.4473479390144348,0.7675033211708069
1772806456778632200,6.502632080078125,0.09110567718744278,0.5100584626197815,0.8847686648368835
1772806456788563200,6.512563232421875,0.046414636075496674,0.4324571490287781,0.883827269077301
1772806456798495200,6.5224951171875,0.04259806126356125,0.20513691008090973,0.7789900302886963
1772806456808426200,6.53242626953125,0.12151098251342773,-0.1092149019241333,0.5802958607673645
1772806456818358300,6.542358154296875,0.26379409432411194,-0.4283188581466675,0.35176655650138855
1772806456828289300,6.552289306640625,0.44857513904571533,-0.6731182336807251,0.1305931657552719
1772806456838221300,6.56222119140625,0.7171852588653564,-0.9090444445610046,-0.14545626938343048
1772806456848152000,6.572152099609375,0.9096660614013672,-1.014806866645813,-0.36435186862945557
1772806456858083300,6.582083251953125,0.9804078340530396,-0.8651401400566101,-0.43966153264045715
1772806456868015400,6.592015380859375,0.9432312250137329,-0.6051985621452332,-0.47001197934150696
1772806456877946000,6.601946044921875,0.8494804501533508,-0.34858301281929016,-0.4878641963005066
1772806456887878100,6.611878173828125,0.7006872892379761,-0.27416443824768066,-0.5481765270233154
1772806456897809200,6.62180908203125,0.5386570692062378,-0.3611222505569458,-0.6118268966674805
1772806456907741200,6.6317412109375,0.3705301284790039,-0.501722514629364,-0.6251805424690247
1772806456917672200,6.641672119140625,0.199049711227417,-0.6412308812141418,-0.5598688721656799
1772806456927604200,6.651604248046875,0.053814761340618134,-0.6848989725112915,-0.3825790584087372
1772806456937535200,6.66153515625,-0.036921799182891846,-0.6620839238166809,-0.11735618859529495
1772806456947466500,6.671466552734375,-0.07947618514299393,-0.5784329771995544,0.18733899295330048
1772806456957398300,6.681398193359375,-0.09409453719854355,-0.43358951807022095,0.48414671421051025
1772806456967329300,6.691329345703125,-0.10782712697982788,-0.2428661733865738,0.7144457101821899
1772806456977261300,6.70126123046875,-0.124815434217453,-0.021630726754665375,0.8653904795646667
1772806456987192000,6.711192138671875,-0.14222398400306702,0.1663532853126526,0.9281574487686157
1772806456997124000,6.7211240234375,-0.14959454536437988,0.3044496476650238,0.9003133177757263
1772806457007055400,6.731055419921875,-0.16471251845359802,0.38169437646865845,0.8073465824127197
1772806457016986400,6.740986328125,-0.18284918367862701,0.4085374176502228,0.6625140309333801
1772806457026918100,6.750918212890625,-0.20171847939491272,0.3949023187160492,0.47553589940071106
1772806457036849200,6.76084912109375,-0.22064796090126038,0.3539591431617737,0.27539509534835815
1772806457046781200,6.77078125,-0.2567417621612549,0.3078843355178833,0.09525275230407715
1772806457056712200,6.780712158203125,-0.2850690186023712,0.3022381663322449,-0.06009769067168236
1772806457066644200,6.790644287109375,-0.2924284040927887,0.31013229489326477,-0.18006138503551483
1772806457076575200,6.8005751953125,-0.28032779693603516,0.311086505651474,-0.2676687240600586
1772806457086507300,6.81050732421875,-0.22295771539211273,0.30155080556869507,-0.3289901316165924
1772806457096438300,6.820438232421875,-0.13076120615005493,0.24232181906700134,-0.3946799337863922
1772806457106369300,6.830369384765625,-0.03032701276242733,0.15912653505802155,-0.45373713970184326
1772806457116301300,6.84030126953125,0.05203843489289284,0.08413644880056381,-0.49511653184890747
1772806457126232000,6.850232177734375,0.11014700680971146,0.007196127437055111,-0.5151272416114807
1772806457136164000,6.8601640625,0.14077869057655334,-0.0514376237988472,-0.48132988810539246
1772806457146095400,6.870095458984375,0.14213183522224426,-0.05969369038939476,-0.40303826332092285
1772806457156027400,6.88002734375,0.11180669069290161,-0.031004255637526512,-0.2903788387775421
1772806457165958100,6.889958251953125,0.03309803083539009,0.019755061715841293,-0.16996453702449799
1772806457175889200,6.89988916015625,-0.06698862463235855,0.06959718465805054,-0.06690952181816101
1772806457185821200,6.9098212890625,-0.17717024683952332,0.1003260686993599,-0.023333817720413208
1772806457195752200,6.919752197265625,-0.27843695878982544,0.10087654739618301,-0.04920909181237221
1772806457205684200,6.929684326171875,-0.35208988189697266,0.10258736461400986,-0.08605552464723587
1772806457215615200,6.939615234375,-0.3587472438812256,0.0992131382226944,-0.10559966415166855
1772806457225547300,6.94954736328125,-0.3266982138156891,0.14770929515361786,-0.13258227705955505
1772806457235478300,6.959478271484375,-0.2962345778942108,0.20177680253982544,-0.1824108213186264
1772806457245409300,6.9694091796875,-0.2836626172065735,0.25085458159446716,-0.2444251924753189
1772806457255341800,6.979341796875,-0.284526526927948,0.2692573070526123,-0.3257165849208832
1772806457265272600,6.9892724609375,-0.30536311864852905,0.23749670386314392,-0.40032023191452026
1772806457275204600,6.99920458984375,-0.3424236476421356,0.14564748108386993,-0.45832017064094543
1772806457285136000,7.009135986328125,-0.38334712386131287,-0.02142566256225109,-0.5070413947105408
1772806457295068000,7.01906787109375,-0.43026110529899597,-0.18153277039527893,-0.4966936409473419
1772806457304998700,7.02899853515625,-0.4569252133369446,-0.3301456868648529,-0.41314443945884705
1772806457314930700,7.0389306640625,-0.4660169780254364,-0.47363120317459106,-0.2787674367427826
1772806457324861700,7.04886181640625,-0.46810194849967957,-0.5194181203842163,-0.07880879193544388
1772806457334792700,7.058792724609375,-0.4569507837295532,-0.41014039516448975,0.15917767584323883
1772806457344724700,7.068724853515625,-0.42483755946159363,-0.1628589630126953,0.44189217686653137
1772806457354655700,7.07865576171875,-0.38559484481811523,0.11579184979200363,0.6751915216445923
1772806457364587800,7.088587890625,-0.370712012052536,0.3405884802341461,0.8168365359306335
1772806457374518500,7.0985185546875,-0.40003690123558044,0.49277666211128235,0.8602303266525269
1772806457384450600,7.108450439453125,-0.46200066804885864,0.588700532913208,0.8277173638343811
1772806457394381800,7.1183818359375,-0.5712547302246094,0.6678864359855652,0.788416862487793
1772806457404312600,7.1283125,-0.6861695647239685,0.7293862700462341,0.8041633367538452
1772806457414244600,7.13824462890625,-0.7964542508125305,0.7373470067977905,0.8356051445007324
1772806457424175600,7.148175537109375,-0.8817446827888489,0.6700313687324524,0.8243380784988403
1772806457434108000,7.15810791015625,-0.9266644716262817,0.5307924747467041,0.7724802494049072
1772806457444038700,7.16803857421875,-0.9198558330535889,0.38361796736717224,0.6973239779472351
1772806457453970700,7.177970703125,-0.879277765750885,0.2945099174976349,0.6200312972068787
1772806457463901700,7.187901611328125,-0.8226051926612854,0.2582717537879944,0.546110212802887
1772806457473833700,7.197833740234375,-0.7668729424476624,0.29242199659347534,0.43339723348617554
1772806457483764700,7.2077646484375,-0.7221049666404724,0.3206017017364502,0.3203255534172058
1772806457493695700,7.21769580078125,-0.6437206268310547,0.3276580274105072,0.2598872482776642
1772806457503627800,7.227627685546875,-0.5415229201316833,0.30121710896492004,0.28834205865859985
1772806457513558500,7.23755859375,-0.43437275290489197,0.2420525848865509,0.37513312697410583
1772806457523490600,7.247490478515625,-0.3368115723133087,0.16419106721878052,0.4746946096420288
1772806457533421800,7.257421875,-0.2654194235801697,0.011797270737588406,0.5258408784866333
1772806457543353900,7.267353759765625,-0.2395811676979065,-0.18278180062770844,0.4888074994087219
1772806457553284600,7.27728466796875,-0.2778848707675934,-0.3467180132865906,0.37754249572753906
1772806457563215600,7.287215576171875,-0.3429291248321533,-0.4583348035812378,0.21795496344566345
1772806457573147600,7.297147705078125,-0.41851070523262024,-0.5033387541770935,0.034457843750715256
1772806457583078700,7.30707861328125,-0.4864671230316162,-0.4111521244049072,-0.11298247426748276
1772806457593010700,7.3170107421875,-0.5367454886436462,-0.21789690852165222,-0.21454638242721558
1772806457602941700,7.326941650390625,-0.5693942308425903,0.03569860756397247,-0.28392624855041504
1772806457612873700,7.336873779296875,-0.577720046043396,0.2873827815055847,-0.33450794219970703
1772806457622804700,7.3468046875,-0.5275903344154358,0.5233060717582703,-0.3995670974254608
1772806457632735700,7.35673583984375,-0.4246727228164673,0.6664534211158752,-0.46597009897232056
1772806457642667800,7.366667724609375,-0.2966473698616028,0.7107651829719543,-0.5114728808403015
1772806457652598500,7.3765986328125,-0.15682156383991241,0.687999427318573,-0.5089423060417175
1772806457662530600,7.386530517578125,-0.005949501879513264,0.5685017704963684,-0.47408100962638855
1772806457672461800,7.3964619140625,0.13952752947807312,0.39003485441207886,-0.4083195924758911
1772806457682393900,7.406393798828125,0.2395300269126892,0.21396368741989136,-0.3124942481517792
1772806457692324600,7.41632470703125,0.28197550773620605,0.06648155301809311,-0.20738035440444946
1772806457702256600,7.426256591796875,0.27243977785110474,-0.020238425582647324,-0.09533184766769409
1772806457712187600,7.436187744140625,0.23566286265850067,-0.057617224752902985,0.000526773277670145
1772806457722118700,7.44611865234375,0.16684171557426453,-0.07201560586690903,0.05957597866654396
1772806457732050700,7.45605078125,0.08967742323875427,-0.045223139226436615,0.04683355242013931
1772806457741981700,7.465981689453125,-0.0070283482782542706,-0.02929557114839554,-0.018796324729919434
1772806457751913700,7.475913818359375,-0.12169474363327026,-0.011766377836465836,-0.13426965475082397
1772806457761844700,7.4858447265625,-0.22314147651195526,0.011758388951420784,-0.2791554629802704
1772806457771776800,7.49577685546875,-0.29486092925071716,0.038955386728048325,-0.40652939677238464
1772806457781707800,7.505707763671875,-0.3135366141796112,0.0997241958975792,-0.48981842398643494
1772806457791638500,7.515638427734375,-0.28883472084999084,0.16662973165512085,-0.5309062004089355
1772806457801570600,7.525570556640625,-0.22527307271957397,0.17931249737739563,-0.5715377926826477
1772806457811501800,7.535501708984375,-0.15088805556297302,-0.04795926809310913,-0.7334553599357605
1772806457821433900,7.545433837890625,-0.02605050802230835,-0.38167810440063477,-0.8289437890052795
1772806457831364600,7.555364501953125,0.13922473788261414,-0.47876793146133423,-0.7539960145950317
1772806457841296600,7.565296630859375,0.2992149293422699,-0.47249510884284973,-0.6055370569229126
1772806457851227600,7.5752275390625,0.4267129600048065,-0.424209862947464,-0.43459805846214294
1772806457861158700,7.58515869140625,0.5042021870613098,-0.35328909754753113,-0.2976122498512268
1772806457871090700,7.595090576171875,0.5390248894691467,-0.3517058491706848,-0.2532421052455902
1772806457881021700,7.605021728515625,0.5440848469734192,-0.3427376449108124,-0.24209359288215637
1772806457890953700,7.61495361328125,0.5355656743049622,-0.3431094288825989,-0.25341176986694336
1772806457900884700,7.624884765625,0.5301839709281921,-0.31936973333358765,-0.25233158469200134
1772806457910816800,7.634816650390625,0.5091545581817627,-0.2691981792449951,-0.2141309380531311
1772806457920747800,7.644747802734375,0.4829815626144409,-0.24250371754169464,-0.16286002099514008
1772806457930678500,7.654678466796875,0.45933082699775696,-0.2489325851202011,-0.11413269490003586
1772806457940610600,7.664610595703125,0.44498172402381897,-0.30136170983314514,-0.06581922620534897
1772806457950541800,7.674541748046875,0.45032161474227905,-0.3570558726787567,-0.04231683164834976
1772806457960473900,7.684473876953125,0.48145636916160583,-0.3704827129840851,-0.02214152179658413
1772806457970404600,7.694404541015625,0.5146183371543884,-0.34845730662345886,-0.010671286843717098
1772806457980336600,7.704336669921875,0.5443605184555054,-0.3030855655670166,-0.006107160821557045
1772806457990267600,7.714267578125,0.5866472721099854,-0.26608654856681824,-0.01146783772855997
1772806458000198700,7.72419873046875,0.6121504902839661,-0.2601631283760071,-0.04200417548418045
1772806458010130700,7.734130615234375,0.6022720336914062,-0.2696450650691986,-0.08262456953525543
1772806458020061700,7.744061767578125,0.5441799759864807,-0.299956351518631,-0.13408297300338745
1772806458029993700,7.75399365234375,0.4789508879184723,-0.34590521454811096,-0.17814762890338898
1772806458039924700,7.7639248046875,0.42637714743614197,-0.40207046270370483,-0.19719402492046356
1772806458049856800,7.773856689453125,0.4204886257648468,-0.4544045329093933,-0.20265591144561768
1772806458059787800,7.783787841796875,0.44329461455345154,-0.49116361141204834,-0.19052094221115112
1772806458069718500,7.793718505859375,0.4841720163822174,-0.5097112059593201,-0.1664009541273117
1772806458079650600,7.803650634765625,0.5291178822517395,-0.5114225149154663,-0.13836106657981873
1772806458089581800,7.813581787109375,0.5632407069206238,-0.5295301675796509,-0.1217631846666336
1772806458099513900,7.823513916015625,0.5916987061500549,-0.5742430686950684,-0.1202731505036354
1772806458109444600,7.833444580078125,0.6392174959182739,-0.6394843459129333,-0.10113220661878586
1772806458119376600,7.843376708984375,0.7446675300598145,-0.7208561897277832,-0.10946311056613922
1772806458129307600,7.8533076171875,0.8848379254341125,-0.8206115365028381,-0.17177815735340118
1772806458139238700,7.86323876953125,0.9920927286148071,-0.8596944808959961,-0.24481534957885742
1772806458149170700,7.873170654296875,1.0687153339385986,-0.8173251748085022,-0.29572567343711853
1772806458159101700,7.883101806640625,1.102584958076477,-0.7553198933601379,-0.29460951685905457
1772806458169033700,7.89303369140625,1.092820644378662,-0.6614919304847717,-0.2268344759941101
1772806458178964700,7.90296484375,1.0506846904754639,-0.6218395829200745,-0.1341215819120407
1772806458188896800,7.912896728515625,0.9689328074455261,-0.6180781126022339,-0.0450897142291069
1772806458198827800,7.922827880859375,0.8681473731994629,-0.5548629760742188,0.08015342801809311
1772806458208758800,7.9327587890625,0.7784702181816101,-0.4759441614151001,0.2085265815258026
1772806458218690600,7.942690673828125,0.7205224633216858,-0.3684059977531433,0.3201702833175659
1772806458228621800,7.952621826171875,0.6917680501937866,-0.24484117329120636,0.4032111167907715
1772806458238553900,7.962553955078125,0.6924389004707336,-0.11327249556779861,0.42532145977020264
1772806458248483800,7.97248388671875,0.7154890894889832,0.003028813051059842,0.40888869762420654
1772806458258415900,7.982415771484375,0.7391757965087891,0.09618192911148071,0.39273637533187866
1772806458268345900,7.992345947265625,0.7405758500099182,0.15578480064868927,0.3838123679161072
1772806458278276900,8.00227685546875,0.6878002285957336,0.16259503364562988,0.40332987904548645
1772806458288208600,8.012208740234374,0.6208105683326721,0.13805027306079865,0.4363216459751129
1772806458298140000,8.022139892578124,0.5481573939323425,0.06964299082756042,0.45225268602371216
1772806458308072000,8.032072021484375,0.49532586336135864,-0.03777267783880234,0.43739303946495056
1772806458318003000,8.0420029296875,0.4766395092010498,-0.17805548012256622,0.36869093775749207
1772806458327933700,8.05193359375,0.49832671880722046,-0.30884599685668945,0.26115304231643677
1772806458337865700,8.06186572265625,0.5634327530860901,-0.31393396854400635,0.14040638506412506
1772806458347797000,8.071796875,0.6213002800941467,-0.21670860052108765,0.022054702043533325
1772806458357728800,8.081728759765625,0.691125214099884,-0.09869302064180374,-0.0919317901134491
1772806458367659800,8.09165966796875,0.7465495467185974,0.002377936616539955,-0.15256956219673157
1772806458377590800,8.1015908203125,0.7571774125099182,0.07894674688577652,-0.16456924378871918
1772806458387522800,8.111522705078125,0.7312768697738647,0.12997424602508545,-0.11938897520303726
1772806458397453800,8.121453857421875,0.667445957660675,0.15123532712459564,-0.043416447937488556
1772806458407385900,8.1313857421875,0.5672945976257324,0.13891500234603882,0.06874390691518784
1772806458417316900,8.14131689453125,0.44459661841392517,0.09865813702344894,0.19207516312599182
1772806458427249000,8.151248779296875,0.3131003975868225,0.052323658019304276,0.3045601546764374
1772806458437180000,8.161179931640625,0.20080074667930603,0.06876868009567261,0.412399023771286
1772806458447112000,8.17111181640625,0.10855656862258911,0.11891786754131317,0.48695501685142517
1772806458457043000,8.18104296875,0.042154911905527115,0.1768895536661148,0.5277016162872314
1772806458466973700,8.1909736328125,-0.002064748667180538,0.2355632483959198,0.5418505072593689
1772806458476905700,8.20090576171875,-0.033735860139131546,0.2742787003517151,0.5365675687789917
1772806458486837000,8.2108369140625,-0.054842475801706314,0.25178882479667664,0.49938610196113586
1772806458496769000,8.22076904296875,-0.07328566163778305,0.21637144684791565,0.4476829767227173
1772806458506699800,8.23069970703125,-0.08048366010189056,0.1944456398487091,0.39418938755989075
1772806458516630800,8.240630859375,-0.09201940894126892,0.18390752375125885,0.34898117184638977
1772806458526562800,8.250562744140625,-0.10316340625286102,0.1890583336353302,0.3004370629787445
1772806458536493800,8.260493896484375,-0.1220042034983635,0.1835610419511795,0.24089570343494415
1772806458546425900,8.27042578125,-0.1343916356563568,0.1589459776878357,0.15411819517612457
1772806458556356900,8.28035693359375,-0.14408980309963226,0.10648276656866074,0.047020770609378815
1772806458566289000,8.290288818359375,-0.14440058171749115,0.06576623022556305,-0.05434020236134529
1772806458576220000,8.300219970703125,-0.1380675882101059,0.03712766245007515,-0.13250930607318878
1772806458586152000,8.31015185546875,-0.11085887253284454,-0.022117020562291145,-0.20113177597522736
1772806458596083000,8.3200830078125,-0.05866597592830658,-0.06558327376842499,-0.2629551887512207
1772806458606013700,8.330013671875,0.008527441881597042,-0.1007540374994278,-0.28960439562797546
1772806458615945700,8.33994580078125,0.07826950401067734,-0.11408209800720215,-0.28026121854782104
1772806458625877000,8.349876953125,0.1395384520292282,-0.07716695964336395,-0.2236059308052063
1772806458635809000,8.35980908203125,0.16150127351284027,-0.05064986273646355,-0.17319415509700775
1772806458645739800,8.36973974609375,0.14421071112155914,-0.03322479873895645,-0.12424605339765549
1772806458655671800,8.379671875,0.0939326211810112,-0.014845258556306362,-0.07173197716474533
1772806458665602800,8.389602783203125,0.027541080489754677,-0.02659059874713421,-0.04441193863749504
1772806458675533800,8.399533935546875,-0.04758083447813988,-0.05023334175348282,-0.028569592162966728
1772806458685465900,8.4094658203125,-0.11674525588750839,-0.06313396245241165,-0.023010510951280594
1772806458695396900,8.41939697265625,-0.1623401790857315,-0.05505712702870369,-0.009618006646633148
1772806458705329000,8.429328857421876,-0.17070703208446503,-0.02442837692797184,0.02581828087568283
1772806458715260000,8.439260009765626,-0.14317287504673004,0.02009008824825287,0.0756675973534584
1772806458725191000,8.44919091796875,-0.10158228129148483,0.03610793501138687,0.12761974334716797
1772806458735123000,8.459123046875,-0.05751655623316765,0.062240470200777054,0.17642003297805786
1772806458745053700,8.4690537109375,-0.03506850451231003,0.09539362788200378,0.20575183629989624
1772806458754985700,8.47898583984375,-0.02780473232269287,0.11403123289346695,0.22189751267433167
1772806458764917000,8.4889169921875,-0.03303385153412819,0.11272495239973068,0.22754287719726562
1772806458774849000,8.49884912109375,-0.04352670535445213,0.10939386487007141,0.22449089586734772
1772806458784779800,8.50877978515625,-0.05329704284667969,0.11153851449489594,0.2163565307855606
1772806458794710800,8.518710693359376,-0.08279288560152054,0.135427325963974,0.20915640890598297
1772806458804642800,8.528642822265626,-0.1251768320798874,0.1682814210653305,0.2074943333864212
1772806458814573800,8.53857373046875,-0.17165590822696686,0.18634910881519318,0.19093666970729828
1772806458824505900,8.548505859375,-0.20681416988372803,0.18438927829265594,0.1640927940607071
1772806458834436900,8.558436767578126,-0.23490704596042633,0.30456310510635376,0.22608879208564758
1772806458844369000,8.568368896484374,-0.23968902230262756,0.3271022140979767,0.17246417701244354
1772806458854300000,8.5782998046875,-0.2271503359079361,0.2477722465991974,0.0639084056019783
1772806458864231000,8.58823095703125,-0.21879492700099945,0.11873490363359451,-0.052500493824481964
1772806458874163000,8.598162841796874,-0.19194866716861725,0.03821316733956337,-0.11290737986564636
1772806458884093700,8.60809375,-0.15187129378318787,-0.016766728833317757,-0.13046932220458984
1772806458894025700,8.618025634765624,-0.1024390235543251,-0.06927520781755447,-0.12643331289291382
1772806458903957000,8.62795703125,-0.058507516980171204,-0.11321470886468887,-0.12231792509555817
1772806458913889000,8.637888916015624,-0.026803916320204735,-0.11689092963933945,-0.11283999681472778
1772806458923819800,8.64781982421875,-0.002142513170838356,-0.09228918701410294,-0.09240103513002396
1772806458933750800,8.657750732421874,0.01155652105808258,-0.03818946331739426,-0.05698126181960106
1772806458943682800,8.667682861328124,0.023543410003185272,0.03945579752326012,-0.008298143744468689
1772806458953613800,8.67761376953125,0.021332718431949615,0.07735976576805115,0.021679196506738663
