time,seconds_elapsed,z,y,x
1772806399717821000,0.048821044921875,0.0377960205078125,0.94781494140625,0.0273895263671875
1772806399727753000,0.0587529296875,0.008148193359375,0.906890869140625,0.1134490966796875
1772806399737683700,0.06868359375,-0.0368804931640625,0.909942626953125,0.19769287109375
1772806399747615700,0.07861572265625,-0.0763397216796875,0.958343505859375,0.2519989013671875
1772806399757547000,0.088547119140625,-0.130523681640625,0.98846435546875,0.2648468017578125
1772806399767479000,0.09847900390625,-0.1145172119140625,0.9422607421875,0.24932861328125
1772806399777409800,0.108409912109375,-0.07464599609375,0.8651580810546875,0.2477874755859375
1772806399787340800,0.1183408203125,-0.0748291015625,0.8305511474609375,0.271697998046875
1772806399797272800,0.12827294921875,-0.0857086181640625,0.8471527099609375,0.3057403564453125
1772806399807203800,0.138203857421875,-0.103057861328125,0.892303466796875,0.3195648193359375
1772806399817135900,0.148135986328125,-0.1210479736328125,0.9362335205078125,0.290924072265625
1772806399827067000,0.15806689453125,-0.117889404296875,0.970733642578125,0.2303009033203125
1772806399836999000,0.1679990234375,-0.1055450439453125,1.005279541015625,0.1741180419921875
1772806399846929700,0.1779296875,-0.0987548828125,1.036468505859375,0.1283416748046875
1772806399856862000,0.187862060546875,-0.094482421875,1.0527801513671875,0.074432373046875
1772806399866793000,0.19779296875,-0.0939483642578125,1.0515594482421875,0.0308074951171875
1772806399876725000,0.20772509765625,-0.09344482421875,1.0360260009765625,0.026824951171875
1772806399886655700,0.21765576171875,-0.0921783447265625,1.02117919921875,0.0355987548828125
1772806399896587800,0.227587890625,-0.097625732421875,1.0013275146484375,0.0428314208984375
1772806399906519000,0.23751904296875,-0.0939178466796875,0.9751434326171875,0.0556488037109375
1772806399916451000,0.247451171875,-0.0850830078125,0.9459228515625,0.0598907470703125
1772806399926381800,0.2573818359375,-0.0672149658203125,0.9391326904296875,0.060577392578125
1772806399936313900,0.26731396484375,-0.074920654296875,0.93548583984375,0.0453948974609375
1772806399946244900,0.277244873046875,-0.0944671630859375,0.957061767578125,0.0402984619140625
1772806399956176000,0.28717578125,-0.0857086181640625,0.9597625732421875,0.0361480712890625
1772806399966108000,0.29710791015625,-0.0958251953125,0.9391632080078125,0.0565338134765625
1772806399976039000,0.307038818359375,-0.112548828125,0.939971923828125,0.0768585205078125
1772806399985971000,0.316970947265625,-0.127716064453125,0.9373779296875,0.0778656005859375
1772806399995901700,0.326901611328125,-0.142242431640625,0.910247802734375,0.0665435791015625
1772806400005834000,0.336833984375,-0.1531524658203125,0.9059295654296875,0.0527191162109375
1772806400015765000,0.346764892578125,-0.153228759765625,0.918975830078125,0.0537109375
1772806400025697000,0.356697021484375,-0.136077880859375,0.929901123046875,0.0658721923828125
1772806400035627800,0.366627685546875,-0.1114044189453125,0.93017578125,0.0715789794921875
1772806400045559800,0.376559814453125,-0.1088714599609375,0.941131591796875,0.0857696533203125
1772806400055491000,0.386490966796875,-0.0917205810546875,0.9626312255859375,0.0908966064453125
1772806400065422800,0.3964228515625,-0.06414794921875,0.98858642578125,0.0868377685546875
1772806400075353900,0.406353759765625,-0.0525665283203125,1.010345458984375,0.0850982666015625
1772806400085286000,0.416285888671875,-0.051239013671875,1.0172882080078125,0.0858001708984375
1772806400095217000,0.426216796875,-0.040283203125,1.02008056640625,0.0785369873046875
1772806400105148000,0.43614794921875,-0.0400390625,1.014556884765625,0.093475341796875
1772806400115080000,0.446079833984375,-0.05596923828125,0.996063232421875,0.1090850830078125
1772806400125011000,0.456010986328125,-0.0694122314453125,0.984405517578125,0.11328125
1772806400134942700,0.465942626953125,-0.0655975341796875,0.98236083984375,0.1114349365234375
1772806400144874000,0.4758740234375,-0.0623931884765625,0.97125244140625,0.11224365234375
1772806400154806000,0.485805908203125,-0.065185546875,0.969818115234375,0.1061553955078125
1772806400164737000,0.495737060546875,-0.0687255859375,0.970458984375,0.106353759765625
1772806400174668800,0.505668701171875,-0.07574462890625,0.9788360595703125,0.0999755859375
1772806400184599800,0.515599853515625,-0.07794189453125,0.987213134765625,0.0869140625
1772806400194531800,0.52553173828125,-0.093292236328125,0.9997100830078125,0.07391357421875
1772806400204462800,0.535462890625,-0.0970611572265625,0.990997314453125,0.05267333984375
1772806400214395000,0.545394775390625,-0.09478759765625,0.9905242919921875,0.036376953125
1772806400224326000,0.555325927734375,-0.1011962890625,0.9776458740234375,0.017059326171875
1772806400234258000,0.5652578125,-0.1027374267578125,0.9583282470703125,0.008941650390625
1772806400244188700,0.575188720703125,-0.1017303466796875,0.9551849365234375,-0.005615234375
1772806400254120000,0.585119873046875,-0.09271240234375,0.9593505859375,-0.0149688720703125
1772806400264052000,0.595052001953125,-0.0763702392578125,0.956298828125,-0.0165557861328125
1772806400273982700,0.604982666015625,-0.067779541015625,0.95831298828125,-0.0197906494140625
1772806400283914800,0.614914794921875,-0.07086181640625,0.983489990234375,-0.0251312255859375
1772806400293846000,0.624845947265625,-0.0833892822265625,0.986175537109375,-0.015869140625
1772806400303778000,0.634778076171875,-0.1079559326171875,1.0045928955078125,-0.0265655517578125
1772806400313708800,0.644708740234375,-0.10870361328125,1.0222320556640625,-0.021575927734375
1772806400323640800,0.654640869140625,-0.0941162109375,1.0282745361328125,-0.003173828125
1772806400333571800,0.66457177734375,-0.07171630859375,1.026153564453125,0.020111083984375
1772806400343504000,0.67450390625,-0.0450439453125,1.0080108642578125,0.0462646484375
1772806400353435000,0.684434814453125,-0.0315704345703125,0.9886474609375,0.0583953857421875
1772806400363367000,0.694366943359375,-0.028717041015625,0.984649658203125,0.05279541015625
1772806400373298000,0.7042978515625,-0.0341949462890625,1.0120849609375,0.054443359375
1772806400383230000,0.71422998046875,-0.041412353515625,1.022674560546875,0.07122802734375
1772806400393160700,0.72416064453125,-0.0402069091796875,1.037567138671875,0.0822296142578125
1772806400403092700,0.7340927734375,-0.04180908203125,1.0714263916015625,0.079437255859375
1772806400413024000,0.74402392578125,-0.0253143310546875,1.0528106689453125,0.0728302001953125
1772806400422954800,0.753954833984375,-0.004425048828125,1.04486083984375,0.0535125732421875
1772806400432886800,0.76388671875,-0.0032958984375,1.033782958984375,0.060760498046875
1772806400442818000,0.773818115234375,-0.0175628662109375,1.0182647705078125,0.0673065185546875
1772806400452750000,0.78375,-0.03369140625,0.9986419677734375,0.063140869140625
1772806400462680800,0.793680908203125,-0.043487548828125,0.9967498779296875,0.066131591796875
1772806400472612900,0.80361279296875,-0.0617523193359375,1.0150146484375,0.079803466796875
1772806400482543900,0.8135439453125,-0.0787353515625,1.0360870361328125,0.07586669921875
1772806400492476000,0.823475830078125,-0.0686798095703125,1.06298828125,0.0560455322265625
1772806400502407000,0.833406982421875,-0.0404205322265625,1.0999908447265625,0.0474395751953125
1772806400512339000,0.8433388671875,-0.0116729736328125,1.1170196533203125,0.04864501953125
1772806400522270000,0.85327001953125,-0.0053558349609375,1.133026123046875,0.058258056640625
1772806400532201700,0.86320166015625,-0.0239715576171875,1.1393890380859375,0.0882568359375
1772806400542132700,0.8731328125,-0.0503997802734375,1.1324920654296875,0.09637451171875
1772806400552064800,0.883064697265625,-0.039947509765625,1.125396728515625,0.10357666015625
1772806400561996000,0.89299609375,-0.0012664794921875,1.113677978515625,0.12359619140625
1772806400571927800,0.902927734375,0.0194549560546875,1.120452880859375,0.1267547607421875
1772806400581858800,0.91285888671875,0.0399017333984375,1.12908935546875,0.109130859375
1772806400591790000,0.9227900390625,0.0628509521484375,1.1284942626953125,0.0947265625
1772806400601721900,0.932721923828125,0.06903076171875,1.1189117431640625,0.0803985595703125
1772806400611652900,0.94265283203125,0.0447540283203125,1.0444488525390625,0.08929443359375
1772806400621585000,0.9525849609375,-0.0149993896484375,0.95928955078125,0.1190643310546875
1772806400631516000,0.962515869140625,-0.0745086669921875,0.9648284912109375,0.169677734375
1772806400641447700,0.97244775390625,-0.133148193359375,0.969573974609375,0.219329833984375
1772806400651379000,0.98237890625,-0.187530517578125,0.9781341552734375,0.27587890625
1772806400661311000,0.99231103515625,-0.279296875,0.9870452880859375,0.3708953857421875
1772806400671242000,1.002241943359375,-0.37652587890625,1.031219482421875,0.4764862060546875
1772806400681173800,1.012173828125,-0.2848358154296875,1.1476287841796875,0.398834228515625
1772806400691104800,1.022104736328125,-0.2483062744140625,1.2353515625,0.3185577392578125
1772806400701037000,1.032037109375,-0.2086334228515625,1.2752685546875,0.2757415771484375
1772806400710967800,1.0419677734375,-0.144561767578125,1.2309417724609375,0.17523193359375
1772806400720899800,1.05189990234375,-0.0931243896484375,1.1337738037109375,0.0673065185546875
1772806400730830800,1.061830810546875,-0.0832672119140625,1.0696563720703125,-0.0268707275390625
1772806400740762000,1.07176220703125,-0.09429931640625,1.0589752197265625,-0.0971527099609375
1772806400750694000,1.08169384765625,-0.12298583984375,1.078521728515625,-0.10595703125
1772806400760625000,1.091625,-0.17108154296875,1.0890350341796875,-0.109130859375
1772806400770557000,1.101556884765625,-0.190155029296875,1.1072845458984375,-0.07196044921875
1772806400780487700,1.11148779296875,-0.1677703857421875,1.0592498779296875,0.0246124267578125
1772806400790419700,1.121419677734375,-0.144378662109375,0.9514617919921875,0.0951995849609375
1772806400800351000,1.13135107421875,-0.15478515625,0.86346435546875,0.185699462890625
1772806400810283000,1.141282958984375,-0.1832122802734375,0.8155364990234375,0.292449951171875
1772806400820213800,1.1512138671875,-0.1937408447265625,0.7680816650390625,0.368377685546875
1772806400830145800,1.161145751953125,-0.18695068359375,0.7161407470703125,0.420867919921875
1772806400840076800,1.171076904296875,-0.1685791015625,0.688446044921875,0.4394378662109375
1772806400850009000,1.181009033203125,-0.148468017578125,0.6845245361328125,0.4046478271484375
1772806400859939800,1.19093994140625,-0.1410369873046875,0.6995391845703125,0.34149169921875
1772806400869871900,1.200871826171875,-0.1361236572265625,0.7144012451171875,0.2501678466796875
1772806400879803000,1.210802978515625,-0.1184234619140625,0.744293212890625,0.1677398681640625
1772806400889735000,1.22073486328125,-0.11981201171875,0.782318115234375,0.0782623291015625
1772806400899666000,1.230666015625,-0.118438720703125,0.796783447265625,0.0192108154296875
1772806400909597000,1.240596923828125,-0.14398193359375,0.835113525390625,0.005218505859375
1772806400919529000,1.250529052734375,-0.186981201171875,0.848663330078125,0.0146636962890625
1772806400929459700,1.260459716796875,-0.23895263671875,0.82598876953125,0.0530853271484375
1772806400939391700,1.270391845703125,-0.283447265625,0.8058013916015625,0.0951690673828125
1772806400949323000,1.280322998046875,-0.3211517333984375,0.7921295166015625,0.1519317626953125
1772806400959255000,1.290255126953125,-0.3436737060546875,0.7757110595703125,0.18743896484375
1772806400969185800,1.300185791015625,-0.3479156494140625,0.7615966796875,0.2049407958984375
1772806400979117800,1.310117919921875,-0.344390869140625,0.7609100341796875,0.20587158203125
1772806400989048800,1.320048828125,-0.3364715576171875,0.7712554931640625,0.1846160888671875
1772806400998981000,1.329981201171875,-0.33099365234375,0.7771148681640625,0.1590118408203125
1772806401008912000,1.339911865234375,-0.3302154541015625,0.7683563232421875,0.125244140625
1772806401018844000,1.349843994140625,-0.3301544189453125,0.757354736328125,0.082000732421875
1772806401028775000,1.35977490234375,-0.3222198486328125,0.7622833251953125,0.053985595703125
1772806401038706000,1.369705810546875,-0.318634033203125,0.790679931640625,0.0370941162109375
1772806401048638000,1.379637939453125,-0.329010009765625,0.8269805908203125,0.030364990234375
1772806401058569000,1.38956884765625,-0.3449249267578125,0.850555419921875,0.0419158935546875
1772806401068501000,1.3995009765625,-0.368560791015625,0.8647613525390625,0.0670013427734375
1772806401078431700,1.409431640625,-0.3963470458984375,0.8686676025390625,0.0912017822265625
1772806401088363800,1.41936376953125,-0.4282379150390625,0.8757171630859375,0.0870208740234375
1772806401098295000,1.429294921875,-0.452056884765625,0.8787078857421875,0.0726776123046875
1772806401108226800,1.439226806640625,-0.4622802734375,0.8944244384765625,0.0477447509765625
1772806401118157800,1.44915771484375,-0.4703216552734375,0.9478607177734375,0.0323944091796875
1772806401128089900,1.45908984375,-0.47265625,1.0246124267578125,0.0291290283203125
1772806401138021000,1.469021240234375,-0.475128173828125,1.095550537109375,0.0460205078125
1772806401147953000,1.478952880859375,-0.499267578125,1.1501312255859375,0.0727996826171875
1772806401157884000,1.4888837890625,-0.536041259765625,1.1669158935546875,0.0822906494140625
1772806401167816000,1.49881591796875,-0.57232666015625,1.144439697265625,0.087738037109375
1772806401177746700,1.50874658203125,-0.5937957763671875,1.0882110595703125,0.107818603515625
1772806401187678700,1.5186787109375,-0.5849761962890625,1.007537841796875,0.123382568359375
1772806401197610200,1.5286103515625,-0.5660400390625,0.9374542236328125,0.134002685546875
1772806401207541200,1.538541259765625,-0.5099639892578125,0.8775787353515625,0.1261444091796875
1772806401217473300,1.548473388671875,-0.4577484130859375,0.81146240234375,0.1044769287109375
1772806401227404000,1.558404052734375,-0.4460601806640625,0.77838134765625,0.0933685302734375
1772806401237336000,1.568336181640625,-0.481781005859375,0.77978515625,0.093170166015625
1772806401247267300,1.578267333984375,-0.4987030029296875,0.814117431640625,0.083892822265625
1772806401257199400,1.588199462890625,-0.5517120361328125,0.881927490234375,0.08447265625
1772806401267130000,1.598130126953125,-0.5914459228515625,0.9845428466796875,0.1627655029296875
1772806401277062100,1.608062255859375,-0.4360809326171875,1.091766357421875,0.233551025390625
1772806401286993200,1.6179931640625,-0.3247222900390625,1.175140380859375,0.2353668212890625
1772806401296925200,1.62792529296875,-0.349456787109375,1.229156494140625,0.247314453125
1772806401306856200,1.637856201171875,-0.272979736328125,1.3205413818359375,0.296051025390625
1772806401316788200,1.647788330078125,-0.1939544677734375,1.5069122314453125,0.3403472900390625
1772806401326719200,1.65771923828125,-0.33770751953125,1.6409149169921875,0.3231201171875
1772806401336651000,1.667651123046875,-0.272186279296875,1.449493408203125,0.258331298828125
1772806401346582300,1.677582275390625,-0.126983642578125,0.9907379150390625,0.3392791748046875
1772806401356513300,1.68751318359375,-0.1915740966796875,0.639923095703125,0.3965301513671875
1772806401366445000,1.697445068359375,-0.1825103759765625,0.4777374267578125,0.3354644775390625
1772806401376376000,1.7073759765625,-0.1095733642578125,0.4318084716796875,0.285003662109375
1772806401386308000,1.71730810546875,0.0495147705078125,0.5069580078125,0.2718353271484375
1772806401396239400,1.7272392578125,0.209930419921875,0.69329833984375,0.2597808837890625
1772806401406171100,1.737171142578125,0.3006439208984375,0.95184326171875,0.211395263671875
1772806401416102100,1.74710205078125,0.3333282470703125,1.0934600830078125,0.11859130859375
1772806401426034200,1.7570341796875,0.3226318359375,1.1034393310546875,0.0337677001953125
1772806401435965200,1.766965087890625,0.2783203125,1.0410614013671875,-0.003692626953125
1772806401445897200,1.776897216796875,0.2237548828125,0.9836273193359375,0.025604248046875
1772806401455828200,1.786828125,0.144622802734375,0.94964599609375,0.1304931640625
1772806401465760300,1.79676025390625,0.083587646484375,0.9154815673828125,0.2572021484375
1772806401475691000,1.80669091796875,0.0077056884765625,0.8626708984375,0.336761474609375
1772806401485623000,1.816623046875,-0.08001708984375,0.85693359375,0.3831329345703125
1772806401495554300,1.82655419921875,-0.1166534423828125,0.8752288818359375,0.3488006591796875
1772806401505485000,1.836485107421875,-0.1059112548828125,0.8759918212890625,0.2657470703125
1772806401515417000,1.8464169921875,-0.04644775390625,0.8905181884765625,0.2273712158203125
1772806401525348000,1.85634814453125,0.028594970703125,0.9155426025390625,0.218841552734375
1772806401535280000,1.866280029296875,0.110260009765625,0.929412841796875,0.1504669189453125
1772806401545211100,1.876211181640625,0.182647705078125,0.9394073486328125,0.10699462890625
1772806401555143200,1.88614306640625,0.22088623046875,0.949462890625,0.0869140625
1772806401565074200,1.89607421875,0.1909027099609375,0.9366302490234375,0.0133819580078125
1772806401575006200,1.906006103515625,0.1478729248046875,0.9340972900390625,-0.026092529296875
1772806401584937200,1.915937255859375,0.13629150390625,0.962890625,-0.015228271484375
1772806401594869200,1.925869140625,0.13360595703125,0.974761962890625,0.01861572265625
1772806401604800300,1.93580029296875,0.1136932373046875,0.9746551513671875,0.0528717041015625
1772806401614732300,1.945732177734375,0.064727783203125,1.01068115234375,0.1059417724609375
1772806401624663000,1.9556630859375,-0.006591796875,1.051666259765625,0.1558990478515625
1772806401634594300,1.96559423828125,-0.05096435546875,1.0522308349609375,0.144805908203125
1772806401644526300,1.9755263671875,-0.0982208251953125,1.0337677001953125,0.1456756591796875
1772806401654457000,1.98545703125,-0.0939788818359375,1.030517578125,0.12847900390625
1772806401664389000,1.99538916015625,-0.048065185546875,1.028717041015625,0.0947265625
1772806401674320100,2.005320068359375,-0.0042572021484375,1.0057373046875,0.0833740234375
1772806401684252200,2.015252197265625,0.02508544921875,0.98870849609375,0.09356689453125
1772806401694183200,2.02518310546875,0.0308990478515625,0.993927001953125,0.091552734375
1772806401704115200,2.035115234375,0.0210723876953125,1.0143585205078125,0.0578765869140625
1772806401714046200,2.045046142578125,0.0065460205078125,1.025848388671875,0.02117919921875
1772806401723978200,2.054978271484375,0.0008544921875,1.0541534423828125,-0.0335540771484375
1772806401733909200,2.0649091796875,-0.0022430419921875,1.061187744140625,-0.05908203125
1772806401743841300,2.07484130859375,-0.01568603515625,1.03973388671875,-0.0605316162109375
1772806401753772300,2.084772216796875,-0.026885986328125,0.9954986572265625,-0.042999267578125
1772806401763704000,2.0947041015625,-0.0322723388671875,0.9636993408203125,-0.0186920166015625
1772806401773635000,2.104635009765625,-0.0303955078125,0.9570159912109375,0.0028076171875
1772806401783566300,2.11456640625,-0.013671875,0.964080810546875,0.027984619140625
1772806401793498400,2.124498291015625,-0.0007476806640625,0.9757843017578125,0.0552520751953125
1772806401803429000,2.13442919921875,-0.0003662109375,0.9891357421875,0.068328857421875
1772806401813361200,2.144361083984375,-0.009429931640625,0.99652099609375,0.0765380859375
1772806401823292200,2.154292236328125,-0.0157318115234375,1.0038909912109375,0.082061767578125
1772806401833224000,2.164223876953125,-0.01220703125,1.0092620849609375,0.08392333984375
1772806401843155200,2.1741552734375,0.0142822265625,1.0168609619140625,0.074310302734375
1772806401853087200,2.184087158203125,0.0645294189453125,1.019683837890625,0.0682525634765625
1772806401863018200,2.194018310546875,0.1156463623046875,1.0135040283203125,0.0673980712890625
1772806401872950000,2.203949951171875,0.1519012451171875,1.0177001953125,0.0955963134765625
1772806401882881300,2.21388134765625,0.1578521728515625,1.0489959716796875,0.115692138671875
1772806401892813300,2.223813232421875,0.1308135986328125,1.070281982421875,0.1161651611328125
1772806401902744000,2.233744140625,0.093780517578125,1.090545654296875,0.12945556640625
1772806401912676000,2.243676025390625,0.050079345703125,1.100494384765625,0.13043212890625
1772806401922607000,2.253607177734375,0.017730712890625,1.078887939453125,0.1405181884765625
1772806401932538400,2.263538330078125,-0.0175933837890625,1.063690185546875,0.1503143310546875
1772806401942470100,2.27347021484375,-0.063140869140625,1.0873870849609375,0.155914306640625
1772806401952401200,2.283401123046875,-0.1067962646484375,1.14019775390625,0.1353302001953125
1772806401962333200,2.293333251953125,-0.12139892578125,1.1976776123046875,0.0815277099609375
1772806401972264200,2.30326416015625,-0.100982666015625,1.2282562255859375,0.0515289306640625
1772806401982196000,2.313196044921875,-0.05218505859375,1.252655029296875,0.0337066650390625
1772806401992127200,2.323127197265625,0.025726318359375,1.281829833984375,0.0268096923828125
1772806402002059300,2.333059326171875,0.11309814453125,1.328338623046875,0.0288543701171875
1772806402011990000,2.342989990234375,0.1378936767578125,1.382904052734375,0.0186614990234375
1772806402021922000,2.352922119140625,0.10626220703125,1.391571044921875,-0.0266571044921875
1772806402031853300,2.362853271484375,0.0937347412109375,1.29876708984375,-0.015960693359375
1772806402041785300,2.372785400390625,0.09710693359375,1.1356964111328125,0.0702362060546875
1772806402051716000,2.382716064453125,0.0650787353515625,0.966339111328125,0.188507080078125
1772806402061648100,2.392648193359375,-0.0149078369140625,0.8230743408203125,0.25433349609375
1772806402071579100,2.4025791015625,-0.02960205078125,0.745269775390625,0.2796630859375
1772806402081510100,2.41251025390625,-0.0619964599609375,0.6807861328125,0.2855377197265625
1772806402091442200,2.422442138671875,-0.123382568359375,0.7237548828125,0.373687744140625
1772806402101373200,2.432373291015625,-0.118560791015625,0.8747711181640625,0.4702301025390625
1772806402111305200,2.44230517578125,-0.10009765625,1.016998291015625,0.5467529296875
1772806402121236000,2.452236083984375,-0.140106201171875,1.12982177734375,0.5974273681640625
1772806402131168000,2.46216796875,-0.12103271484375,1.223052978515625,0.4993438720703125
1772806402141099300,2.472099365234375,-0.124755859375,1.2295989990234375,0.3955841064453125
1772806402151031300,2.48203125,-0.0977935791015625,1.186248779296875,0.3860626220703125
1772806402160962000,2.491962158203125,-0.0666656494140625,1.1493988037109375,0.34820556640625
1772806402170894000,2.50189404296875,-0.0760650634765625,1.1145172119140625,0.26983642578125
1772806402180825300,2.511825439453125,-0.0716400146484375,1.1052093505859375,0.1818084716796875
1772806402190757600,2.521757568359375,-0.05328369140625,1.117889404296875,0.14434814453125
1772806402200688600,2.531688720703125,-0.093170166015625,1.1109161376953125,0.0560455322265625
1772806402210620400,2.541620361328125,-0.1126861572265625,1.05206298828125,-0.029205322265625
1772806402220551400,2.551551513671875,-0.0792236328125,0.95648193359375,-0.0225067138671875
1772806402230482700,2.561482666015625,-0.105438232421875,0.855194091796875,-0.002960205078125
1772806402240414700,2.571414794921875,-0.1626129150390625,0.8129730224609375,0.04400634765625
1772806402250345500,2.581345458984375,-0.1865081787109375,0.7784423828125,0.1485595703125
1772806402260277500,2.591277587890625,-0.142822265625,0.7279052734375,0.192230224609375
1772806402270208500,2.60120849609375,-0.1476287841796875,0.6992645263671875,0.257415771484375
1772806402280140300,2.611140380859375,-0.148712158203125,0.6635589599609375,0.2881011962890625
1772806402290071600,2.621071533203125,-0.154876708984375,0.6401214599609375,0.28594970703125
1772806402300003600,2.631003662109375,-0.1633148193359375,0.6276092529296875,0.2446746826171875
1772806402309934600,2.6409345703125,-0.1802520751953125,0.656768798828125,0.19110107421875
1772806402319866400,2.650866455078125,-0.19427490234375,0.703887939453125,0.151275634765625
1772806402329797600,2.660797607421875,-0.1692962646484375,0.740020751953125,0.1211700439453125
1772806402339729700,2.670729736328125,-0.121978759765625,0.76153564453125,0.1289215087890625
1772806402349660400,2.680660400390625,-0.1127471923828125,0.7631683349609375,0.131744384765625
1772806402359591400,2.69059130859375,-0.1286468505859375,0.752655029296875,0.1569976806640625
1772806402369523500,2.7005234375,-0.17962646484375,0.7411956787109375,0.1761627197265625
1772806402379454700,2.710454833984375,-0.2310028076171875,0.7333984375,0.1932525634765625
1772806402389386500,2.720386474609375,-0.27783203125,0.7256317138671875,0.2028656005859375
1772806402399317500,2.7303173828125,-0.3168182373046875,0.7418060302734375,0.217742919921875
1772806402409249500,2.74024951171875,-0.352294921875,0.7575225830078125,0.218170166015625
1772806402419180300,2.75018017578125,-0.35675048828125,0.7629547119140625,0.223175048828125
1772806402429112300,2.7601123046875,-0.3617706298828125,0.78558349609375,0.198944091796875
1772806402439043600,2.770043701171875,-0.3665924072265625,0.7902069091796875,0.1470947265625
1772806402448975600,2.7799755859375,-0.373321533203125,0.7872467041015625,0.112396240234375
1772806402458906400,2.78990625,-0.3706512451171875,0.7767181396484375,0.0607757568359375
1772806402468838400,2.79983837890625,-0.3594970703125,0.7759857177734375,0.01007080078125
1772806402478769700,2.809769775390625,-0.3426361083984375,0.7940673828125,-0.02593994140625
1772806402488701700,2.81970166015625,-0.3462371826171875,0.814300537109375,-0.054901123046875
1772806402498632400,2.829632568359375,-0.35888671875,0.846405029296875,-0.071014404296875
1772806402508563500,2.8395634765625,-0.34893798828125,0.8906402587890625,-0.073394775390625
1772806402518495500,2.84949560546875,-0.33447265625,0.954315185546875,-0.0732269287109375
1772806402528426500,2.859426513671875,-0.3435516357421875,1.02850341796875,-0.05633544921875
1772806402538358500,2.869358642578125,-0.35711669921875,1.0870208740234375,-0.043701171875
1772806402548289500,2.87928955078125,-0.3763275146484375,1.1466064453125,-0.0217132568359375
1772806402558221600,2.8892216796875,-0.4159698486328125,1.225006103515625,0.016021728515625
1772806402568152300,2.89915234375,-0.4828643798828125,1.2823638916015625,0.034210205078125
1772806402578084400,2.90908447265625,-0.559661865234375,1.294097900390625,0.0401153564453125
1772806402588015600,2.919015625,-0.6185455322265625,1.265655517578125,0.0739898681640625
1772806402597947600,2.92894775390625,-0.6202239990234375,1.182952880859375,0.134918212890625
1772806402607878400,2.93887841796875,-0.564483642578125,1.0522003173828125,0.19354248046875
1772806402617810400,2.948810546875,-0.5027313232421875,0.933013916015625,0.2068939208984375
1772806402627741700,2.95874169921875,-0.488433837890625,0.8419036865234375,0.1568145751953125
1772806402637672400,2.96867236328125,-0.51617431640625,0.8149871826171875,0.1160125732421875
1772806402647604500,2.9786044921875,-0.5467071533203125,0.8522796630859375,0.07916259765625
1772806402657535500,2.988535400390625,-0.55743408203125,0.9167633056640625,0.0874786376953125
1772806402667467500,2.998467529296875,-0.530181884765625,0.9975128173828125,0.13153076171875
1772806402677398500,3.0083984375,-0.464508056640625,1.04827880859375,0.1746826171875
1772806402687330600,3.01833056640625,-0.4350433349609375,1.0501861572265625,0.2254486083984375
1772806402697261600,3.028261474609375,-0.43328857421875,1.0546722412109375,0.2830963134765625
1772806402707193600,3.038193603515625,-0.3980865478515625,1.1392822265625,0.3365325927734375
1772806402717124400,3.048124267578125,-0.281280517578125,1.3281707763671875,0.336639404296875
1772806402727056400,3.058056396484375,-0.21905517578125,1.5110626220703125,0.2898406982421875
1772806402736987600,3.067987548828125,-0.31768798828125,1.543731689453125,0.203460693359375
1772806402746919400,3.07791943359375,-0.3672943115234375,1.296142578125,0.150909423828125
1772806402756850400,3.087850341796875,-0.22161865234375,0.9084625244140625,0.216583251953125
1772806402766782500,3.097782470703125,-0.14947509765625,0.6035003662109375,0.275299072265625
1772806402776713700,3.107713623046875,-0.1409912109375,0.4136199951171875,0.3312530517578125
1772806402786645500,3.1176455078125,-0.0822601318359375,0.346893310546875,0.3236236572265625
1772806402796576500,3.127576416015625,0.0015869140625,0.427764892578125,0.2761993408203125
1772806402806507500,3.137507568359375,0.1251220703125,0.6336517333984375,0.2322845458984375
1772806402816439300,3.147439208984375,0.232269287109375,0.9241180419921875,0.167633056640625
1772806402826370600,3.15737060546875,0.318878173828125,1.175048828125,0.085906982421875
1772806402836302600,3.167302490234375,0.36474609375,1.2210693359375,0.002166748046875
1772806402846233600,3.177233642578125,0.306060791015625,1.1474609375,-0.03973388671875
1772806402856165400,3.187165283203125,0.1825103759765625,1.0243377685546875,-0.025665283203125
1772806402866096400,3.197096435546875,0.0847320556640625,0.9279937744140625,0.0874481201171875
1772806402876028400,3.2070283203125,0.027008056640625,0.858978271484375,0.2171478271484375
1772806402885959400,3.21695947265625,-0.0626678466796875,0.87030029296875,0.321807861328125
1772806402895891500,3.226891357421875,-0.0918426513671875,0.8787841796875,0.359893798828125
1772806402905822500,3.236822509765625,-0.0942840576171875,0.8787841796875,0.3549652099609375
1772806402915754500,3.24675439453125,-0.1248321533203125,0.9145660400390625,0.3391571044921875
1772806402925685500,3.256685546875,-0.120208740234375,0.967132568359375,0.3122406005859375
1772806402935616500,3.266616455078125,-0.04345703125,0.9966888427734375,0.279144287109375
1772806402945548500,3.276548583984375,0.023651123046875,1.0045166015625,0.2365875244140625
1772806402955479600,3.2864794921875,0.079742431640625,0.98919677734375,0.1734161376953125
1772806402965411300,3.296411376953125,0.109588623046875,0.95330810546875,0.111358642578125
1772806402975342600,3.306342529296875,0.1360321044921875,0.923675537109375,0.051910400390625
1772806402985274600,3.316274658203125,0.1419219970703125,0.9195556640625,-0.00030517578125
1772806402995205400,3.326205322265625,0.139312744140625,0.9373931884765625,-0.0346832275390625
1772806403005137400,3.336137451171875,0.1593780517578125,0.9580841064453125,-0.0715789794921875
1772806403015068400,3.346068359375,0.151947021484375,0.9483795166015625,-0.076446533203125
1772806403025000400,3.35600048828125,0.1096954345703125,0.95794677734375,-0.01910400390625
1772806403034931500,3.365931396484375,0.091217041015625,0.9694061279296875,0.0337066650390625
1772806403044863500,3.375863525390625,0.0581207275390625,0.9655303955078125,0.1234893798828125
1772806403054794500,3.38579443359375,0.0345306396484375,0.960052490234375,0.195220947265625
1772806403064726500,3.3957265625,0.00958251953125,0.9378814697265625,0.2192535400390625
1772806403074657500,3.405657470703125,-0.013763427734375,0.90509033203125,0.2197113037109375
1772806403084588500,3.415588623046875,-0.023162841796875,0.8961181640625,0.187591552734375
1772806403094520600,3.4255205078125,-0.0253448486328125,0.911834716796875,0.13909912109375
1772806403104451300,3.435451416015625,-0.0012054443359375,0.919189453125,0.1215972900390625
1772806403114383400,3.44538330078125,0.023101806640625,0.935699462890625,0.107421875
1772806403124314600,3.455314697265625,0.04559326171875,0.956817626953125,0.084564208984375
1772806403134246700,3.46524658203125,0.06146240234375,0.9591522216796875,0.046630859375
1772806403144177400,3.475177490234375,0.0526580810546875,0.9846343994140625,0.0113372802734375
1772806403154109400,3.485109375,0.0112457275390625,1.030731201171875,0.000030517578125
1772806403164040400,3.49504052734375,-0.0366973876953125,1.05328369140625,-0.005401611328125
1772806403173972500,3.504972412109375,-0.0761566162109375,1.03399658203125,0.0101318359375
1772806403183903500,3.514903564453125,-0.0932464599609375,0.9988250732421875,0.0361328125
1772806403193835300,3.524835205078125,-0.080322265625,0.9791717529296875,0.0662841796875
1772806403203766000,3.53476611328125,-0.068878173828125,0.9932098388671875,0.091156005859375
1772806403213697300,3.544697265625,-0.0478057861328125,1.0355224609375,0.08172607421875
1772806403223629300,3.55462939453125,0.0035247802734375,1.0561370849609375,0.0211029052734375
1772806403233560000,3.56456005859375,0.084625244140625,1.0603485107421875,-0.0421142578125
1772806403243492000,3.5744921875,0.16326904296875,1.0972442626953125,-0.047515869140625
1772806403253423000,3.584423095703125,0.198760986328125,1.14630126953125,-0.0212249755859375
1772806403263355100,3.594355224609375,0.194976806640625,1.18133544921875,-0.016845703125
1772806403273286100,3.6042861328125,0.16473388671875,1.2035369873046875,-0.0076904296875
1772806403283218200,3.61421826171875,0.139434814453125,1.1896514892578125,0.0163116455078125
1772806403293149200,3.624149169921875,0.120697021484375,1.1636810302734375,0.053985595703125
1772806403303081200,3.634081298828125,0.0979156494140625,1.139251708984375,0.1114044189453125
1772806403313012200,3.64401220703125,0.0522613525390625,1.1129302978515625,0.1535797119140625
1772806403322944300,3.6539443359375,-0.022918701171875,1.114593505859375,0.1963043212890625
1772806403332875300,3.663875244140625,-0.0960845947265625,1.1581878662109375,0.2378692626953125
1772806403342807000,3.67380712890625,-0.1461029052734375,1.193817138671875,0.261688232421875
1772806403352738000,3.683738037109375,-0.12554931640625,1.211761474609375,0.2421417236328125
1772806403362669300,3.69366943359375,-0.043609619140625,1.20843505859375,0.197784423828125
1772806403372601300,3.703601318359375,0.056304931640625,1.230926513671875,0.1615753173828125
1772806403382532000,3.713531982421875,0.1185455322265625,1.2948760986328125,0.149566650390625
1772806403392464100,3.723464111328125,0.1243743896484375,1.3345184326171875,0.164093017578125
1772806403402395100,3.73339501953125,0.131256103515625,1.2997894287109375,0.1773223876953125
1772806403412327200,3.7433271484375,0.1451263427734375,1.1967315673828125,0.21771240234375
1772806403422258200,3.753258056640625,0.1199188232421875,1.0247039794921875,0.2504730224609375
1772806403432190200,3.763190185546875,0.0489349365234375,0.8657073974609375,0.2643280029296875
1772806403442121200,3.773121337890625,-0.0102996826171875,0.7590179443359375,0.294403076171875
1772806403452053000,3.783052978515625,-0.06976318359375,0.7298431396484375,0.365997314453125
1772806403461984300,3.792984375,-0.1212615966796875,0.7987823486328125,0.426116943359375
1772806403471916300,3.802916259765625,-0.1379241943359375,0.9509735107421875,0.4747161865234375
1772806403481847300,3.812847412109375,-0.143218994140625,1.0709686279296875,0.522430419921875
1772806403491779000,3.822779052734375,-0.2195892333984375,1.098785400390625,0.570648193359375
1772806403501710000,3.8327099609375,-0.19915771484375,1.1523590087890625,0.558685302734375
1772806403511641300,3.842641357421875,-0.148193359375,1.1565704345703125,0.4384765625
1772806403521573000,3.852572998046875,-0.1324005126953125,1.1392364501953125,0.395294189453125
1772806403531504000,3.862504150390625,-0.0889739990234375,1.1402435302734375,0.381988525390625
1772806403541436200,3.872436279296875,-0.0417022705078125,1.14056396484375,0.35784912109375
1772806403551367200,3.8823671875,-0.0383148193359375,1.1638031005859375,0.336181640625
1772806403561299200,3.89229931640625,-0.046173095703125,1.143585205078125,0.2859344482421875
1772806403571230200,3.902230224609375,-0.0381011962890625,1.0553131103515625,0.1780853271484375
1772806403581162200,3.912162353515625,-0.0429840087890625,0.95941162109375,0.106689453125
1772806403591093000,3.922093017578125,-0.012969970703125,0.8629302978515625,0.1221466064453125
1772806403601025000,3.93202490234375,-0.0935516357421875,0.7837371826171875,0.133575439453125
1772806403610956300,3.941956298828125,-0.1840057373046875,0.760772705078125,0.17120361328125
1772806403620888300,3.951888427734375,-0.2134857177734375,0.767608642578125,0.214111328125
1772806403630819000,3.961819091796875,-0.221435546875,0.7733154296875,0.2498626708984375
1772806403640749300,3.971749267578125,-0.2432861328125,0.7497711181640625,0.2363433837890625
1772806403650681300,3.981681396484375,-0.25738525390625,0.7128448486328125,0.2152099609375
1772806403660612000,3.991612060546875,-0.277740478515625,0.6963653564453125,0.188323974609375
1772806403670544100,4.001544189453125,-0.2785797119140625,0.681060791015625,0.175506591796875
1772806403680475100,4.01147509765625,-0.2535552978515625,0.67279052734375,0.1794281005859375
1772806403690407200,4.0214072265625,-0.245697021484375,0.65966796875,0.1491546630859375
1772806403700338200,4.031338134765625,-0.2283477783203125,0.6497955322265625,0.1416473388671875
1772806403710269200,4.041269287109375,-0.2431793212890625,0.6731414794921875,0.111480712890625
1772806403720201200,4.051201171875,-0.248443603515625,0.6910858154296875,0.0841827392578125
1772806403730132200,4.06113232421875,-0.253326416015625,0.7059173583984375,0.0897064208984375
1772806403740064300,4.071064208984375,-0.269287109375,0.73187255859375,0.112060546875
1772806403749995300,4.080995361328125,-0.2736053466796875,0.743408203125,0.1468353271484375
1772806403759927300,4.09092724609375,-0.27239990234375,0.7347259521484375,0.158905029296875
1772806403769858000,4.100858154296875,-0.2726593017578125,0.72589111328125,0.172393798828125
1772806403779790000,4.1107900390625,-0.2840728759765625,0.7208251953125,0.174896240234375
1772806403789721300,4.120721435546875,-0.3015289306640625,0.71527099609375,0.175506591796875
1772806403799653000,4.130653076171875,-0.329254150390625,0.7206268310546875,0.16302490234375
1772806403809584000,4.140584228515625,-0.3542938232421875,0.734527587890625,0.1380767822265625
1772806403819516200,4.15051611328125,-0.3692474365234375,0.733062744140625,0.093414306640625
1772806403829447200,4.160447265625,-0.3674163818359375,0.73992919921875,0.074005126953125
1772806403839379200,4.170379150390625,-0.3636016845703125,0.778167724609375,0.055999755859375
1772806403849310200,4.180310302734375,-0.3705291748046875,0.8314208984375,0.05426025390625
1772806403859241200,4.1902412109375,-0.391815185546875,0.8750457763671875,0.055572509765625
1772806403869173200,4.20017333984375,-0.4147186279296875,0.9085540771484375,0.0575714111328125
1772806403879104300,4.210104248046875,-0.43939208984375,0.9635162353515625,0.05108642578125
1772806403889036300,4.220036376953125,-0.4681549072265625,0.982879638671875,0.0074615478515625
1772806403898967300,4.22996728515625,-0.481201171875,0.991607666015625,-0.0261383056640625
1772806403908899000,4.239899169921875,-0.4736480712890625,1.006378173828125,-0.051605224609375
1772806403918830000,4.249830078125,-0.458648681640625,1.0288848876953125,-0.088134765625
1772806403928762000,4.25976220703125,-0.4447479248046875,1.0521392822265625,-0.1227569580078125
1772806403938693400,4.269693359375,-0.45465087890625,1.061767578125,-0.131591796875
1772806403948625200,4.279625244140625,-0.4809112548828125,1.0514068603515625,-0.1024169921875
1772806403958556200,4.28955615234375,-0.525482177734375,1.0361328125,-0.030487060546875
1772806403968488200,4.29948828125,-0.557220458984375,1.02349853515625,0.0489349365234375
1772806403978419000,4.3094189453125,-0.5569305419921875,1.005706787109375,0.1098480224609375
1772806403988351200,4.319351318359375,-0.545318603515625,0.97235107421875,0.164703369140625
1772806403998282200,4.3292822265625,-0.53143310546875,0.941131591796875,0.187255859375
1772806404008213200,4.339213134765625,-0.5102691650390625,0.907562255859375,0.1944427490234375
1772806404018146300,4.349146240234375,-0.5066986083984375,0.8651580810546875,0.2028961181640625
1772806404028077000,4.3590771484375,-0.5380096435546875,0.8561248779296875,0.20587158203125
1772806404038009000,4.369009033203125,-0.56011962890625,0.8656158447265625,0.22479248046875
1772806404047940400,4.3789404296875,-0.5544586181640625,0.896728515625,0.2725677490234375
1772806404057872100,4.3888720703125,-0.5333709716796875,0.942230224609375,0.3031005859375
1772806404067803100,4.39880322265625,-0.50103759765625,0.9810791015625,0.339263916015625
1772806404077735200,4.408735107421875,-0.4333953857421875,1.0113983154296875,0.3791961669921875
1772806404087666200,4.418666259765625,-0.393310546875,1.0174560546875,0.4136505126953125
1772806404097597200,4.42859716796875,-0.364349365234375,1.0608367919921875,0.447509765625
1772806404107529200,4.438529296875,-0.2809600830078125,1.2222137451171875,0.4100341796875
1772806404117460200,4.448460205078125,-0.263214111328125,1.42535400390625,0.308074951171875
1772806404127392000,4.45839208984375,-0.317657470703125,1.5829925537109375,0.234771728515625
1772806404137323300,4.4683232421875,-0.349700927734375,1.5708770751953125,0.227142333984375
1772806404147255300,4.47825537109375,-0.241790771484375,1.34893798828125,0.30511474609375
1772806404157186300,4.488186279296875,-0.07940673828125,1.0038604736328125,0.404144287109375
1772806404167118000,4.4981181640625,0.026092529296875,0.7105712890625,0.4339752197265625
1772806404177049000,4.508049072265625,0.0985870361328125,0.4922332763671875,0.342926025390625
1772806404186981000,4.517981201171875,0.1185760498046875,0.458251953125,0.2371826171875
1772806404196912400,4.527912353515625,0.1512908935546875,0.646728515625,0.1636199951171875
1772806404206844400,4.537844482421875,0.186370849609375,0.859100341796875,0.098114013671875
1772806404216775200,4.547775146484375,0.167327880859375,1.027496337890625,0.07696533203125
1772806404226707200,4.557707275390625,0.085693359375,1.1687164306640625,0.08544921875
1772806404236638200,4.56763818359375,0.002044677734375,1.2403106689453125,0.1094512939453125
1772806404246570200,4.5775703125,-0.0445556640625,1.210601806640625,0.182281494140625
1772806404256501200,4.587501220703125,-0.090972900390625,1.0427703857421875,0.2483673095703125
1772806404266432300,4.597432373046875,-0.13330078125,0.9028167724609375,0.3018798828125
1772806404276364300,4.6073642578125,-0.1788330078125,0.8624725341796875,0.3067626953125
1772806404286295300,4.61729541015625,-0.2318878173828125,0.8698883056640625,0.293792724609375
1772806404296227300,4.627227294921875,-0.2701873779296875,0.9046783447265625,0.293304443359375
1772806404306158300,4.637158447265625,-0.271575927734375,0.9449615478515625,0.277069091796875
1772806404316090400,4.64709033203125,-0.19683837890625,0.95916748046875,0.2215728759765625
1772806404326021000,4.657021240234375,-0.1280975341796875,0.961822509765625,0.15460205078125
1772806404335953200,4.666953125,-0.094696044921875,0.9720001220703125,0.080596923828125
1772806404345884400,4.676884521484375,-0.0886688232421875,0.99517822265625,0.0208587646484375
1772806404355816400,4.68681640625,-0.0965118408203125,1.0237884521484375,-0.041229248046875
1772806404365747200,4.696747314453125,-0.105682373046875,1.02557373046875,-0.090667724609375
1772806404375679200,4.70667919921875,-0.120452880859375,0.9984283447265625,-0.1060638427734375
1772806404385610200,4.7166103515625,-0.15667724609375,0.9560546875,-0.081878662109375
1772806404395541200,4.726541259765625,-0.1956787109375,0.9338226318359375,-0.0301513671875
1772806404405473300,4.736473388671875,-0.22760009765625,0.919189453125,0.0390777587890625
1772806404415404300,4.746404296875,-0.246917724609375,0.907928466796875,0.099395751953125
1772806404425336300,4.75633642578125,-0.252685546875,0.9046173095703125,0.127685546875
1772806404435267300,4.766267333984375,-0.2536163330078125,0.911224365234375,0.1298828125
1772806404445199400,4.776199462890625,-0.2402801513671875,0.9219207763671875,0.10186767578125
1772806404455130400,4.78613037109375,-0.21087646484375,0.93914794921875,0.058074951171875
1772806404465062100,4.796062255859375,-0.2032928466796875,0.969451904296875,0.03759765625
1772806404474993200,4.8059931640625,-0.2032928466796875,0.9925994873046875,0.0032501220703125
1772806404484925200,4.81592529296875,-0.20587158203125,1.0005950927734375,-0.017578125
1772806404494856400,4.8258564453125,-0.2139739990234375,0.9965057373046875,-0.00592041015625
1772806404504788200,4.835788330078125,-0.213592529296875,0.990936279296875,0.0247802734375
1772806404514719200,4.84571923828125,-0.2063140869140625,0.97296142578125,0.0516357421875
1772806404524651300,4.8556513671875,-0.197998046875,0.89984130859375,0.0788421630859375
1772806404534582000,4.86558203125,-0.1986846923828125,0.8787078857421875,0.103851318359375
1772806404544514300,4.875514404296875,-0.204254150390625,0.9355316162109375,0.100677490234375
1772806404554445300,4.8854453125,-0.193511962890625,0.96270751953125,0.068695068359375
1772806404564376300,4.895376220703125,-0.18597412109375,0.9925994873046875,0.05694580078125
1772806404574308000,4.90530810546875,-0.1728057861328125,1.0153045654296875,0.05908203125
1772806404584239400,4.9152392578125,-0.1602020263671875,1.0223236083984375,0.0543060302734375
1772806404594171400,4.92517138671875,-0.16693115234375,1.012939453125,0.0422515869140625
1772806404604102400,4.935102294921875,-0.1598663330078125,0.984466552734375,0.026275634765625
1772806404614034200,4.9450341796875,-0.153900146484375,0.95184326171875,0.0206146240234375
1772806404623965200,4.954965087890625,-0.1469573974609375,0.9408416748046875,0.0272979736328125
1772806404633897200,4.964897216796875,-0.1552734375,0.927215576171875,0.0355377197265625
1772806404643828200,4.974828125,-0.170745849609375,0.9129486083984375,0.0535888671875
1772806404653760300,4.98476025390625,-0.168914794921875,0.9085540771484375,0.0518951416015625
1772806404663691300,4.994691162109375,-0.1417083740234375,0.931976318359375,0.03240966796875
1772806404673623300,5.004623291015625,-0.1211090087890625,0.9560699462890625,0.0123291015625
1772806404683554000,5.014553955078125,-0.11578369140625,0.9746246337890625,0.0012664794921875
1772806404693485300,5.0244853515625,-0.0975189208984375,1.016448974609375,-0.0133514404296875
1772806404703417300,5.034417236328125,-0.113525390625,1.0230865478515625,-0.0229644775390625
1772806404713348000,5.04434814453125,-0.1266021728515625,1.009246826171875,-0.010040283203125
1772806404723280100,5.054280029296875,-0.12371826171875,1.00604248046875,0.0074920654296875
1772806404733211400,5.06421142578125,-0.1383209228515625,1,0.022796630859375
1772806404743143400,5.074143310546875,-0.1470947265625,0.98321533203125,0.043670654296875
1772806404753074200,5.08407421875,-0.1484832763671875,0.9673309326171875,0.05426025390625
1772806404763006200,5.094006103515625,-0.1513824462890625,0.9578399658203125,0.0671844482421875
1772806404772937200,5.103937255859375,-0.1468505859375,0.98004150390625,0.0599822998046875
1772806404782869200,5.113869140625,-0.1363067626953125,1.00927734375,0.043121337890625
1772806404792800300,5.12380029296875,-0.1306304931640625,1.0277099609375,0.0294647216796875
1772806404802732300,5.133732177734375,-0.1234283447265625,1.02197265625,0.0294189453125
1772806404812663300,5.143663330078125,-0.100189208984375,0.9997406005859375,0.04156494140625
1772806404822595300,5.15359521484375,-0.065765380859375,0.997344970703125,0.046173095703125
1772806404832526000,5.163526123046875,-0.0332489013671875,1.0081329345703125,0.0569305419921875
1772806404842457300,5.173457275390625,-0.0162811279296875,1.0330047607421875,0.087982177734375
1772806404852389400,5.183389404296875,-0.027130126953125,1.03912353515625,0.0978851318359375
1772806404862320000,5.193320068359375,-0.043731689453125,1.015228271484375,0.1188812255859375
1772806404872252200,5.203252197265625,-0.0714569091796875,0.997467041015625,0.1313934326171875
1772806404882183400,5.213183349609375,-0.1053619384765625,0.99041748046875,0.1328125
1772806404892115500,5.223115478515625,-0.11444091796875,0.99005126953125,0.1302032470703125
1772806404902046200,5.233046142578125,-0.0977020263671875,1.0033111572265625,0.1356964111328125
1772806404911978200,5.242978271484375,-0.0754241943359375,1.0301666259765625,0.1489410400390625
1772806404921909200,5.2529091796875,-0.0507659912109375,1.0733642578125,0.1632843017578125
1772806404931841300,5.26284130859375,-0.020660400390625,1.136322021484375,0.1691436767578125
1772806404941772300,5.272772216796875,-0.0106201171875,1.19732666015625,0.1653289794921875
1772806404951704300,5.282704345703125,-0.0273590087890625,1.2470245361328125,0.152252197265625
1772806404961635300,5.29263525390625,-0.0753326416015625,1.2525482177734375,0.1154937744140625
1772806404971567000,5.302567138671875,-0.1476287841796875,1.2131805419921875,0.077392578125
1772806404981498400,5.312498291015625,-0.1788787841796875,1.17437744140625,0.0514984130859375
1772806404991430400,5.322430419921875,-0.274078369140625,1.1609039306640625,0.07666015625
1772806405001361400,5.332361328125,-0.4223480224609375,1.1087799072265625,0.14569091796875
1772806405011292200,5.342292236328125,-0.52569580078125,1.0779876708984375,0.1418304443359375
1772806405021224200,5.35222412109375,-0.5693511962890625,1.045074462890625,0.140106201171875
1772806405031155500,5.362155517578125,-0.5472564697265625,1.02020263671875,0.1503143310546875
1772806405041087200,5.372087158203125,-0.4722442626953125,1.001617431640625,0.151947021484375
1772806405051018200,5.382018310546875,-0.409027099609375,0.9538726806640625,0.1381378173828125
1772806405060950300,5.3919501953125,-0.3690948486328125,0.91021728515625,0.099456787109375
1772806405070881300,5.40188134765625,-0.2642822265625,0.891143798828125,0.0652923583984375
1772806405080813000,5.41181298828125,-0.178985595703125,0.857818603515625,0.084442138671875
1772806405090744300,5.421744384765625,-0.145111083984375,0.85137939453125,0.09033203125
1772806405100676400,5.43167626953125,-0.1371002197265625,0.892852783203125,0.1350555419921875
1772806405110607000,5.441607177734375,-0.16949462890625,0.9052276611328125,0.1737060546875
1772806405120539100,5.4515390625,-0.2322540283203125,0.9044189453125,0.178466796875
1772806405130470400,5.461470458984375,-0.3218994140625,0.8910675048828125,0.1725616455078125
1772806405140401400,5.4714013671875,-0.4196929931640625,0.8614044189453125,0.1754302978515625
1772806405150333200,5.481333251953125,-0.4867095947265625,0.8416748046875,0.190460205078125
1772806405160264200,5.49126416015625,-0.5047607421875,0.8287506103515625,0.226715087890625
1772806405170196200,5.5011962890625,-0.4752960205078125,0.7818145751953125,0.25115966796875
1772806405180127200,5.511127197265625,-0.4232330322265625,0.72967529296875,0.251495361328125
1772806405190059300,5.521059326171875,-0.381744384765625,0.6986236572265625,0.2480316162109375
1772806405199990500,5.530990478515625,-0.3466033935546875,0.711212158203125,0.2306060791015625
1772806405209922600,5.540922607421875,-0.3236541748046875,0.729095458984375,0.2100982666015625
1772806405219853600,5.550853515625,-0.3278045654296875,0.756317138671875,0.1806640625
1772806405229785600,5.56078564453125,-0.3387908935546875,0.7739105224609375,0.143310546875
1772806405239716600,5.570716552734375,-0.3583831787109375,0.7726898193359375,0.1108245849609375
1772806405249648600,5.580648681640625,-0.3791656494140625,0.762176513671875,0.0808868408203125
1772806405259579600,5.59057958984375,-0.38165283203125,0.744842529296875,0.0704498291015625
1772806405269511700,5.60051171875,-0.3842010498046875,0.739837646484375,0.075592041015625
1772806405279442400,5.6104423828125,-0.3972625732421875,0.7410430908203125,0.0983123779296875
1772806405289374500,5.62037451171875,-0.4041748046875,0.7384185791015625,0.109649658203125
1772806405299305700,5.6303056640625,-0.41400146484375,0.7462005615234375,0.1088104248046875
1772806405309236500,5.640236572265625,-0.4342803955078125,0.76593017578125,0.1068115234375
1772806405319168500,5.65016845703125,-0.4549713134765625,0.7864532470703125,0.109222412109375
1772806405329099800,5.660099853515625,-0.470245361328125,0.8032989501953125,0.11456298828125
1772806405339031800,5.67003173828125,-0.4876861572265625,0.805877685546875,0.1162567138671875
1772806405348962600,5.679962646484375,-0.50079345703125,0.8003387451171875,0.120880126953125
1772806405358894600,5.68989453125,-0.4970245361328125,0.79998779296875,0.12152099609375
1772806405368825600,5.69982568359375,-0.493072509765625,0.78973388671875,0.10736083984375
1772806405378757600,5.709757568359375,-0.4921722412109375,0.7822723388671875,0.09124755859375
1772806405388688600,5.719688720703125,-0.4828338623046875,0.7883148193359375,0.0867462158203125
1772806405398620700,5.72962060546875,-0.4777069091796875,0.791473388671875,0.0765838623046875
1772806405408551700,5.7395517578125,-0.48358154296875,0.7890625,0.0730743408203125
1772806405418483700,5.749483642578125,-0.478179931640625,0.7834625244140625,0.0746612548828125
1772806405428414500,5.75941455078125,-0.4776611328125,0.7907257080078125,0.083099365234375
1772806405438345700,5.769345703125,-0.4850006103515625,0.8125457763671875,0.100189208984375
1772806405448277800,5.77927783203125,-0.498443603515625,0.8196258544921875,0.1222076416015625
1772806405458208500,5.78920849609375,-0.508331298828125,0.8261566162109375,0.121490478515625
1772806405468140500,5.799140625,-0.5264739990234375,0.8437042236328125,0.1103057861328125
1772806405478071800,5.80907177734375,-0.5471343994140625,0.8492889404296875,0.103057861328125
1772806405488003800,5.81900390625,-0.5562286376953125,0.8537445068359375,0.1020660400390625
1772806405497934600,5.8289345703125,-0.5485687255859375,0.854705810546875,0.0915374755859375
1772806405507866600,5.83886669921875,-0.5480499267578125,0.8582763671875,0.074615478515625
1772806405517797600,5.848797607421875,-0.563385009765625,0.858428955078125,0.0767822265625
1772806405527729400,5.8587294921875,-0.5779266357421875,0.855621337890625,0.0836181640625
1772806405537660700,5.86866064453125,-0.580657958984375,0.8592529296875,0.0824432373046875
1772806405547592700,5.8785927734375,-0.5770111083984375,0.86572265625,0.0701751708984375
1772806405557523700,5.888523681640625,-0.5697784423828125,0.8772735595703125,0.06317138671875
1772806405567455500,5.89845556640625,-0.55841064453125,0.895904541015625,0.0623016357421875
1772806405577386500,5.908386474609375,-0.5468902587890625,0.903656005859375,0.071990966796875
1772806405587317800,5.91831787109375,-0.5487518310546875,0.8905487060546875,0.1016387939453125
1772806405597249800,5.928249755859375,-0.5636749267578125,0.8621673583984375,0.133514404296875
1772806405607180500,5.9381806640625,-0.5887298583984375,0.8345184326171875,0.156829833984375
1772806405617112600,5.948112548828125,-0.599273681640625,0.8443756103515625,0.1740264892578125
1772806405627043800,5.9580439453125,-0.575469970703125,0.896820068359375,0.1727294921875
1772806405636975600,5.9679755859375,-0.5363311767578125,0.9458770751953125,0.1919708251953125
1772806405646906600,5.97790673828125,-0.4896392822265625,1.0107574462890625,0.2007904052734375
1772806405656838700,5.987838623046875,-0.4563751220703125,1.0625762939453125,0.2076568603515625
1772806405666769700,5.997769775390625,-0.4293060302734375,1.04339599609375,0.254852294921875
1772806405676701400,6.007701416015625,-0.4090576171875,1.040191650390625,0.3304595947265625
1772806405686632700,6.0176328125,-0.4364471435546875,1.085418701171875,0.36614990234375
1772806405696564700,6.027564697265625,-0.547271728515625,1.141693115234375,0.3645477294921875
1772806405706495500,6.03749560546875,-0.65484619140625,1.172332763671875,0.369964599609375
1772806405716427500,6.047427490234375,-0.588836669921875,1.1393585205078125,0.4481658935546875
1772806405726358500,6.057358642578125,-0.41400146484375,1.0904693603515625,0.5448760986328125
1772806405736290800,6.067290771484375,-0.333282470703125,1.0816650390625,0.4806976318359375
1772806405746221600,6.0772216796875,-0.33306884765625,1.0492706298828125,0.2749176025390625
1772806405756152600,6.087152587890625,-0.2533111572265625,0.98895263671875,0.081146240234375
1772806405766084600,6.097084716796875,-0.0975799560546875,0.9212493896484375,-0.00830078125
1772806405776015600,6.107015625,0.021484375,0.831451416015625,-0.0268402099609375
1772806405785947600,6.11694775390625,0.0230560302734375,0.76177978515625,0.012481689453125
1772806405795878700,6.126878662109375,-0.0493316650390625,0.806793212890625,0.007171630859375
1772806405805810700,6.136810791015625,-0.0750885009765625,0.9548187255859375,-0.03509521484375
1772806405815741400,6.146741455078125,-0.05322265625,1.09564208984375,-0.09783935546875
1772806405825673500,6.156673583984375,-0.0703887939453125,1.0537567138671875,-0.0094451904296875
1772806405835604700,6.166604736328125,-0.1105804443359375,1.03167724609375,0.11737060546875
1772806405845536800,6.176536865234375,-0.1237335205078125,0.961334228515625,0.2581329345703125
1772806405855467500,6.186467529296875,-0.1401824951171875,0.879302978515625,0.3653106689453125
1772806405865399600,6.196399658203125,-0.13055419921875,0.886383056640625,0.3581390380859375
1772806405875330600,6.20633056640625,-0.0871124267578125,0.8973541259765625,0.2271881103515625
1772806405885261600,6.216261474609375,-0.077972412109375,0.9090576171875,0.148162841796875
1772806405895193600,6.226193603515625,-0.0921173095703125,0.9785919189453125,0.103271484375
1772806405905124600,6.23612451171875,-0.1125030517578125,1.0156402587890625,0.075897216796875
1772806405915056600,6.246056640625,-0.1442413330078125,1.02667236328125,0.0761566162109375
1772806405924987600,6.255987548828125,-0.1551666259765625,1.048614501953125,0.06768798828125
1772806405934919700,6.265919677734375,-0.115631103515625,1.0361328125,0.0227508544921875
1772806405944850700,6.2758505859375,-0.07275390625,0.9998779296875,-0.008209228515625
1772806405954782700,6.28578271484375,-0.03997802734375,0.9640655517578125,-0.0164337158203125
1772806405964713500,6.29571337890625,-0.03118896484375,0.934600830078125,-0.0093994140625
1772806405974645500,6.3056455078125,-0.0475311279296875,0.9148712158203125,0.002227783203125
1772806405984576800,6.31557666015625,-0.0686187744140625,0.90960693359375,0.026214599609375
1772806405994508800,6.3255087890625,-0.0921630859375,0.9132232666015625,0.0612335205078125
1772806406004439600,6.335439453125,-0.109405517578125,0.9195404052734375,0.0814971923828125
1772806406014371600,6.34537158203125,-0.1124725341796875,0.93524169921875,0.1019744873046875
1772806406024302800,6.355302734375,-0.1200408935546875,0.9373779296875,0.108642578125
1772806406034233600,6.365233642578125,-0.1293792724609375,0.935760498046875,0.1075439453125
1772806406044165600,6.37516552734375,-0.1250457763671875,0.944122314453125,0.0970306396484375
1772806406054096600,6.3850966796875,-0.1318206787109375,0.9515533447265625,0.084320068359375
1772806406064028700,6.395028564453125,-0.1290740966796875,0.9639129638671875,0.0760650634765625
1772806406073959700,6.404959716796875,-0.121490478515625,0.9675445556640625,0.0702667236328125
1772806406083891700,6.4148916015625,-0.12286376953125,0.9708099365234375,0.05841064453125
1772806406093822700,6.42482275390625,-0.126190185546875,0.9814300537109375,0.0454559326171875
1772806406103754500,6.43475439453125,-0.130523681640625,0.9852447509765625,0.0336456298828125
1772806406113685500,6.444685546875,-0.1314544677734375,0.9679107666015625,0.027984619140625
1772806406123617500,6.454617431640625,-0.1335601806640625,0.963165283203125,0.02923583984375
1772806406133548800,6.464548828125,-0.1298370361328125,0.950408935546875,0.0340576171875
1772806406143480600,6.47448046875,-0.1368408203125,0.9502105712890625,0.0404052734375
1772806406153411600,6.48441162109375,-0.1308135986328125,0.9606781005859375,0.0411834716796875
1772806406163343600,6.494343505859375,-0.1219482421875,0.959625244140625,0.03082275390625
1772806406173274600,6.504274658203125,-0.1280975341796875,0.9662322998046875,0.02996826171875
1772806406183206700,6.51420654296875,-0.1329193115234375,0.981903076171875,0.0265960693359375
1772806406193137700,6.5241376953125,-0.140960693359375,0.994415283203125,0.0166015625
1772806406203068700,6.534068603515625,-0.1390228271484375,0.9964141845703125,0.0119781494140625
1772806406213000700,6.544000732421875,-0.1360321044921875,0.9889678955078125,0.020233154296875
1772806406222932000,6.553931884765625,-0.1263275146484375,0.9705810546875,0.02874755859375
1772806406232863700,6.56386376953125,-0.1057281494140625,0.9617156982421875,0.0385589599609375
1772806406242794800,6.573794677734375,-0.0859832763671875,0.9625244140625,0.0478363037109375
1772806406252726800,6.583726806640625,-0.07647705078125,0.9654083251953125,0.0540008544921875
1772806406262657500,6.593657470703125,-0.0859527587890625,0.972930908203125,0.0635528564453125
1772806406272589600,6.603589599609375,-0.0898590087890625,0.972503662109375,0.0769500732421875
1772806406282520800,6.613520751953125,-0.0974273681640625,0.9759063720703125,0.0773773193359375
1772806406292452900,6.623452880859375,-0.0943450927734375,0.9855194091796875,0.070556640625
1772806406302383600,6.633383544921875,-0.09765625,1.000762939453125,0.0609588623046875
1772806406312315600,6.643315673828125,-0.1026458740234375,1.0078125,0.0507354736328125
1772806406322247000,6.653246826171875,-0.06341552734375,1.008056640625,0.0331878662109375
1772806406332179000,6.663178955078125,-0.0305328369140625,1.0228118896484375,0.0459442138671875
1772806406342109700,6.673109619140625,-0.0322418212890625,1.009613037109375,0.05120849609375
1772806406352040700,6.683040771484375,-0.0566864013671875,1.004180908203125,0.0537109375
1772806406361972700,6.69297265625,-0.07916259765625,1.0320281982421875,0.075286865234375
1772806406371903700,6.70290380859375,-0.0789794921875,1.054412841796875,0.090728759765625
1772806406381835800,6.712835693359375,-0.0824127197265625,1.0709686279296875,0.0860595703125
1772806406391766800,6.722766845703125,-0.11468505859375,1.0777435302734375,0.082305908203125
1772806406401698800,6.73269873046875,-0.175994873046875,1.093353271484375,0.076934814453125
1772806406411629600,6.742629638671875,-0.182159423828125,1.10064697265625,0.0637664794921875
1772806406421561600,6.7525615234375,-0.147216796875,1.0831298828125,0.07421875
1772806406431492900,6.762492919921875,-0.0943603515625,1.0465545654296875,0.0743560791015625
1772806406441425000,6.7724248046875,0.0074310302734375,1.0311126708984375,0.0839691162109375
1772806406451355600,6.782355712890625,0.067047119140625,1.034393310546875,0.099700927734375
1772806406461287700,6.79228759765625,0.0587921142578125,1.0504150390625,0.11834716796875
1772806406471219000,6.802218994140625,0.010009765625,1.08740234375,0.1297454833984375
1772806406481151000,6.81215087890625,-0.0567779541015625,1.16290283203125,0.1646728515625
1772806406491081700,6.822081787109375,-0.1323394775390625,1.260284423828125,0.18402099609375
1772806406501012700,6.8320126953125,-0.1829376220703125,1.29107666015625,0.1896514892578125
1772806406510944800,6.84194482421875,-0.2479705810546875,1.2155303955078125,0.16973876953125
1772806406520875800,6.851875732421875,-0.2707366943359375,1.1185302734375,0.1681060791015625
1772806406530807800,6.861807861328125,-0.2462921142578125,1.070465087890625,0.194122314453125
1772806406540738800,6.87173876953125,-0.240875244140625,1.0826568603515625,0.1865386962890625
1772806406550670800,6.8816708984375,-0.243255615234375,1.1173858642578125,0.1558074951171875
1772806406560601600,6.8916015625,-0.23760986328125,1.146209716796875,0.1325531005859375
1772806406570533600,6.90153369140625,-0.2218170166015625,1.144500732421875,0.119171142578125
1772806406580465000,6.91146484375,-0.196258544921875,1.114532470703125,0.1087646484375
1772806406590396700,6.921396728515625,-0.1676177978515625,1.078857421875,0.0979156494140625
1772806406600327700,6.93132763671875,-0.1413116455078125,1.046295166015625,0.08038330078125
1772806406610259700,6.941259765625,-0.1139984130859375,0.9909820556640625,0.068939208984375
1772806406620191000,6.95119091796875,-0.0891876220703125,0.9389801025390625,0.0604095458984375
1772806406630122800,6.961122802734375,-0.1005401611328125,0.93511962890625,0.0579986572265625
1772806406640053800,6.9710537109375,-0.1371002197265625,0.9803009033203125,0.074249267578125
1772806406649984800,6.98098486328125,-0.1980133056640625,0.9984130859375,0.0836944580078125
1772806406659916500,6.99091650390625,-0.244842529296875,0.9885101318359375,0.1312408447265625
1772806406669847800,7.000847900390625,-0.26116943359375,0.9381256103515625,0.150421142578125
1772806406679779800,7.01077978515625,-0.2634429931640625,0.87310791015625,0.16595458984375
1772806406689710800,7.0207109375,-0.267852783203125,0.8161773681640625,0.191650390625
1772806406699642600,7.030642578125,-0.2585906982421875,0.7849578857421875,0.2232208251953125
1772806406709573600,7.04057373046875,-0.2457275390625,0.769775390625,0.2436370849609375
1772806406719505700,7.050505615234375,-0.2330780029296875,0.7367401123046875,0.2411346435546875
1772806406729436700,7.060436767578125,-0.2120513916015625,0.7447509765625,0.218109130859375
1772806406739368700,7.07036865234375,-0.20941162109375,0.728759765625,0.189788818359375
1772806406749299700,7.0802998046875,-0.2244720458984375,0.73553466796875,0.193115234375
1772806406759231700,7.090231689453125,-0.2176971435546875,0.7366943359375,0.1890411376953125
1772806406769162800,7.100162841796875,-0.2254180908203125,0.7592620849609375,0.1849822998046875
1772806406779094800,7.1100947265625,-0.2374267578125,0.761474609375,0.189788818359375
1772806406789025800,7.12002587890625,-0.2443695068359375,0.7890625,0.194671630859375
1772806406798956800,7.129956787109375,-0.2533721923828125,0.787384033203125,0.1903076171875
1772806406808888600,7.139888671875,-0.2616119384765625,0.7975616455078125,0.202728271484375
1772806406818819800,7.14981982421875,-0.2680206298828125,0.810546875,0.2042999267578125
1772806406828752000,7.159751953125,-0.2773590087890625,0.8220062255859375,0.2004547119140625
1772806406838682600,7.1696826171875,-0.286346435546875,0.830657958984375,0.19842529296875
1772806406848614700,7.17961474609375,-0.2982940673828125,0.8395538330078125,0.1861724853515625
1772806406858545700,7.189545654296875,-0.3184356689453125,0.8371734619140625,0.1759185791015625
1772806406868477700,7.199477783203125,-0.3402099609375,0.8508148193359375,0.164642333984375
1772806406878408700,7.20940869140625,-0.356475830078125,0.85888671875,0.14764404296875
1772806406888340700,7.2193408203125,-0.3555450439453125,0.8523406982421875,0.1269989013671875
1772806406898271700,7.229271728515625,-0.337432861328125,0.8498687744140625,0.11083984375
1772806406908203800,7.239203857421875,-0.3132476806640625,0.8607025146484375,0.09930419921875
1772806406918134800,7.249134765625,-0.286712646484375,0.8702239990234375,0.0967254638671875
1772806406928066800,7.25906689453125,-0.284027099609375,0.8708343505859375,0.1019287109375
1772806406937997800,7.268997802734375,-0.299652099609375,0.8606109619140625,0.1016845703125
1772806406947928600,7.278928466796875,-0.319061279296875,0.8510894775390625,0.09979248046875
1772806406957860600,7.288860595703125,-0.3338775634765625,0.840789794921875,0.09844970703125
1772806406967791900,7.2987919921875,-0.3289031982421875,0.8429412841796875,0.09051513671875
1772806406977724000,7.308723876953125,-0.3244476318359375,0.85272216796875,0.09185791015625
1772806406987654700,7.318654541015625,-0.3299560546875,0.882110595703125,0.1060943603515625
1772806406997586700,7.328586669921875,-0.353729248046875,0.932525634765625,0.1212310791015625
1772806407007517700,7.338517578125,-0.393646240234375,0.9780426025390625,0.131103515625
1772806407017449700,7.34844970703125,-0.4357452392578125,1.013031005859375,0.13470458984375
1772806407027380700,7.358380615234375,-0.45404052734375,1.038482666015625,0.127288818359375
1772806407037312800,7.368312744140625,-0.436553955078125,1.0554351806640625,0.12066650390625
1772806407047243800,7.378243896484375,-0.4082183837890625,1.0519866943359375,0.12274169921875
1772806407057175600,7.388175537109375,-0.3947906494140625,1.0328216552734375,0.1213531494140625
1772806407067106800,7.39810693359375,-0.38751220703125,1.0120849609375,0.104248046875
1772806407077037800,7.408037841796875,-0.3934478759765625,1.006561279296875,0.0894775390625
1772806407086969900,7.417969970703125,-0.40924072265625,0.999114990234375,0.0803375244140625
1772806407096900600,7.427900634765625,-0.418853759765625,0.9853057861328125,0.07305908203125
1772806407106832600,7.43783251953125,-0.4324188232421875,0.96380615234375,0.06500244140625
1772806407116764000,7.447763916015625,-0.43450927734375,0.95623779296875,0.056854248046875
1772806407126696000,7.457696044921875,-0.420745849609375,0.9761810302734375,0.0573577880859375
1772806407136626700,7.467626708984375,-0.39154052734375,0.9819488525390625,0.071929931640625
1772806407146558700,7.477558837890625,-0.3564453125,0.9751739501953125,0.0911865234375
1772806407156489700,7.48748974609375,-0.328582763671875,0.9936981201171875,0.1065673828125
1772806407166421800,7.497421875,-0.2942352294921875,1.005218505859375,0.1220550537109375
1772806407176352800,7.507352783203125,-0.26605224609375,0.99853515625,0.1447296142578125
1772806407186284800,7.517284912109375,-0.2533111572265625,0.9833831787109375,0.17803955078125
1772806407196215600,7.527215576171875,-0.2554779052734375,1.0002593994140625,0.2102203369140625
1772806407206147300,7.537147216796875,-0.307769775390625,1.02886962890625,0.209503173828125
1772806407216078600,7.54707861328125,-0.407135009765625,1.0527191162109375,0.1845550537109375
1772806407226009600,7.557009521484375,-0.4879913330078125,1.0579376220703125,0.1829833984375
1772806407235941600,7.566941650390625,-0.488067626953125,1.0374908447265625,0.240203857421875
1772806407245872400,7.576872314453125,-0.412689208984375,1.0281982421875,0.3038482666015625
1772806407255804400,7.586804443359375,-0.3007965087890625,1.0457611083984375,0.3035430908203125
1772806407265735700,7.596735595703125,-0.2268524169921875,1.0725860595703125,0.2446441650390625
1772806407275667500,7.60666748046875,-0.1484222412109375,1.0776214599609375,0.1623077392578125
1772806407285598500,7.616598388671875,-0.0208740234375,1.04705810546875,0.1122283935546875
1772806407295530500,7.626530517578125,0.0739898681640625,0.9817047119140625,0.107177734375
1772806407305461800,7.636461669921875,0.06121826171875,0.920013427734375,0.1130218505859375
1772806407315393500,7.6463935546875,0.0051116943359375,0.9286651611328125,0.0857696533203125
1772806407325324500,7.656324462890625,-0.0365447998046875,0.959136962890625,0.0602569580078125
1772806407335256600,7.666256591796875,-0.047698974609375,1.0469970703125,0.0606231689453125
1772806407345187600,7.6761875,-0.0249786376953125,1.0619049072265625,0.0826873779296875
1772806407355119400,7.686119384765625,0.006988525390625,1.044403076171875,0.1356658935546875
1772806407365050600,7.696050537109375,0.0231781005859375,0.985076904296875,0.1899871826171875
1772806407374982700,7.705982666015625,-0.00518798828125,0.924102783203125,0.2604217529296875
1772806407384913400,7.715913330078125,-0.03387451171875,0.872955322265625,0.2968902587890625
1772806407394844400,7.725844482421875,-0.046661376953125,0.8594512939453125,0.277923583984375
1772806407404776400,7.7357763671875,-0.0421600341796875,0.9121551513671875,0.1966400146484375
1772806407414707700,7.745707763671875,-0.024261474609375,0.926971435546875,0.14398193359375
1772806407424639500,7.755639404296875,-0.0090789794921875,0.9588470458984375,0.142181396484375
1772806407434570500,7.765570556640625,-0.0000152587890625,1.009307861328125,0.1648712158203125
1772806407444502500,7.77550244140625,0.0064239501953125,1.0418548583984375,0.160491943359375
1772806407454433500,7.78543359375,0.0121307373046875,1.0503997802734375,0.09771728515625
1772806407464365600,7.795365478515625,-0.0072784423828125,1.0338592529296875,0.0391387939453125
1772806407474296600,7.805296630859375,-0.0364532470703125,1.011962890625,0.0067291259765625
1772806407484228600,7.815228515625,-0.0536956787109375,0.9965057373046875,0.006134033203125
1772806407494159400,7.825159423828125,-0.0575714111328125,1.0016632080078125,0.0287933349609375
1772806407504091400,7.83509130859375,-0.07769775390625,1.0092010498046875,0.0518798828125
1772806407514022700,7.845022705078125,-0.095062255859375,1.0017852783203125,0.0529022216796875
1772806407523954700,7.85495458984375,-0.0927886962890625,0.98870849609375,0.0463409423828125
1772806407533885400,7.864885498046875,-0.075469970703125,0.97613525390625,0.0380706787109375
1772806407543816400,7.87481640625,-0.0597991943359375,0.9640350341796875,0.0395355224609375
1772806407553748500,7.88474853515625,-0.057525634765625,0.959503173828125,0.055206298828125
1772806407563679500,7.894679443359375,-0.052001953125,0.957611083984375,0.0721588134765625
1772806407573611500,7.904611572265625,-0.0475311279296875,0.96490478515625,0.07574462890625
1772806407583542500,7.91454248046875,-0.0427093505859375,0.969085693359375,0.0696258544921875
1772806407593474600,7.924474609375,-0.032806396484375,0.9709930419921875,0.0644989013671875
1772806407603405600,7.934405517578125,-0.020294189453125,0.974639892578125,0.069061279296875
1772806407613337600,7.944337646484375,-0.0149078369140625,0.9769439697265625,0.092041015625
1772806407623268600,7.9542685546875,-0.0174713134765625,0.983428955078125,0.1212615966796875
1772806407633200600,7.96420068359375,-0.019866943359375,0.983062744140625,0.1281585693359375
1772806407643130600,7.974130615234375,-0.011474609375,0.9813232421875,0.1221771240234375
1772806407653062700,7.984062744140625,-0.0121917724609375,0.983795166015625,0.1150054931640625
1772806407662993400,7.993993408203125,-0.0047760009765625,0.98443603515625,0.1058349609375
1772806407672925400,8.003925537109374,0.005035400390625,0.991851806640625,0.0935516357421875
1772806407682856400,8.0138564453125,0.0186309814453125,1.0078582763671875,0.0849761962890625
1772806407692788500,8.02378857421875,0.034820556640625,1.01910400390625,0.08062744140625
1772806407702719500,8.033719482421875,0.0410919189453125,1.0276336669921875,0.080078125
1772806407712651500,8.043651611328125,0.025482177734375,1.0296630859375,0.0773468017578125
1772806407722582500,8.05358251953125,0.0099945068359375,1.02520751953125,0.072509765625
1772806407732513500,8.063513427734375,0.005523681640625,1.0098876953125,0.0615386962890625
1772806407742445600,8.073445556640625,-0.0010833740234375,0.988037109375,0.0589141845703125
1772806407752376600,8.08337646484375,-0.008544921875,0.979095458984375,0.061614990234375
1772806407762308600,8.09330859375,-0.01165771484375,0.9903411865234375,0.064453125
1772806407772239400,8.1032392578125,-0.002349853515625,1.0067901611328125,0.0660247802734375
1772806407782171400,8.11317138671875,0.0039215087890625,1.0196533203125,0.0659027099609375
1772806407792102700,8.1231025390625,0.0030517578125,1.0214385986328125,0.0625457763671875
1772806407802034700,8.13303466796875,-0.003692626953125,1.0111236572265625,0.075225830078125
1772806407811965400,8.14296533203125,-0.0258941650390625,1.0131988525390625,0.090087890625
1772806407821897500,8.1528974609375,-0.0437469482421875,1.0212860107421875,0.09686279296875
1772806407831828500,8.162828369140625,-0.0382537841796875,1.0096893310546875,0.090850830078125
1772806407841760500,8.172760498046875,-0.0254669189453125,0.989990234375,0.072845458984375
1772806407851691500,8.18269140625,-0.0309906005859375,0.980682373046875,0.050445556640625
1772806407861622500,8.19262255859375,-0.01019287109375,0.969482421875,0.0327606201171875
1772806407871554600,8.202554443359375,0.0123443603515625,0.971099853515625,0.033660888671875
1772806407881485600,8.212485595703125,0.0140380859375,0.9877777099609375,0.033782958984375
1772806407891417600,8.22241748046875,0.0079498291015625,1.00189208984375,0.022369384765625
1772806407901348600,8.2323486328125,0.0096282958984375,1.0062103271484375,0.0166778564453125
1772806407911280600,8.24228076171875,0.0105743408203125,1.004852294921875,0.0150146484375
1772806407921211400,8.25221142578125,0.01092529296875,1.0037841796875,0.0168609619140625
1772806407931143400,8.262143310546875,0.0157928466796875,1.003570556640625,0.0209197998046875
1772806407941074700,8.27207470703125,0.0209197998046875,0.998077392578125,0.0263214111328125
1772806407951006700,8.2820068359375,0.0215911865234375,0.989959716796875,0.0380859375
1772806407960937500,8.2919375,0.01812744140625,0.9794158935546875,0.0711822509765625
1772806407970869500,8.301869384765626,0.019775390625,0.958343505859375,0.1141204833984375
