time,seconds_elapsed,z,y,x
1772806399717821000,0.048821044921875,-0.23421064019203186,0.1387522965669632,-0.4971056580543518
1772806399727753000,0.0587529296875,-0.22609278559684753,0.1552010327577591,-0.511451005935669
1772806399737683700,0.06868359375,-0.18319831788539886,0.19847874343395233,-0.5352551341056824
1772806399747615700,0.07861572265625,-0.13590456545352936,0.19646058976650238,-0.5387750864028931
1772806399757547000,0.088547119140625,-0.10918108373880386,0.14179681241512299,-0.5238214135169983
1772806399767479000,0.09847900390625,-0.048711612820625305,0.2507784366607666,-0.5429341197013855
1772806399777409800,0.108409912109375,0.03315369039773941,0.27200886607170105,-0.5255972146987915
1772806399787340800,0.1183408203125,0.12786395847797394,0.2049342393875122,-0.4511687755584717
1772806399797272800,0.12827294921875,0.22194518148899078,0.18205209076404572,-0.35601910948753357
1772806399807203800,0.138203857421875,0.30252203345298767,0.12599974870681763,-0.2836199998855591
1772806399817135900,0.148135986328125,0.3267940878868103,-0.01738005504012108,-0.273990273475647
1772806399827067000,0.15806689453125,0.3104449510574341,-0.1806805580854416,-0.3513055741786957
1772806399836999000,0.1679990234375,0.2695766091346741,-0.32639622688293457,-0.45860034227371216
1772806399846929700,0.1779296875,0.1960265040397644,-0.503515899181366,-0.552018404006958
1772806399856862000,0.187862060546875,0.11452258378267288,-0.6569275259971619,-0.6270476579666138
1772806399866793000,0.19779296875,0.07285609841346741,-0.6757276058197021,-0.6944988965988159
1772806399876725000,0.20772509765625,0.05355670303106308,-0.6315465569496155,-0.7516031861305237
1772806399886655700,0.21765576171875,0.07357940822839737,-0.560978889465332,-0.7941040396690369
1772806399896587800,0.227587890625,0.10448087006807327,-0.45655661821365356,-0.8296689391136169
1772806399906519000,0.23751904296875,0.1492379605770111,-0.417815625667572,-0.8400153517723083
1772806399916451000,0.247451171875,0.22344453632831573,-0.3446279466152191,-0.8043137788772583
1772806399926381800,0.2573818359375,0.2918888330459595,-0.2558456361293793,-0.7435867786407471
1772806399936313900,0.26731396484375,0.33984890580177307,-0.2573516368865967,-0.6548447012901306
1772806399946244900,0.277244873046875,0.35804176330566406,-0.3009622395038605,-0.5907975435256958
1772806399956176000,0.28717578125,0.2765956521034241,-0.34024733304977417,-0.5658604502677917
1772806399966108000,0.29710791015625,0.12552383542060852,-0.3863067030906677,-0.5654772520065308
1772806399976039000,0.307038818359375,0.0029755497816950083,-0.4126456081867218,-0.5423234701156616
1772806399985971000,0.316970947265625,-0.05566352978348732,-0.42905789613723755,-0.4658758342266083
1772806399995901700,0.326901611328125,-0.04559837654232979,-0.45867010951042175,-0.38682815432548523
1772806400005834000,0.336833984375,0.0004546015989035368,-0.47806644439697266,-0.3183915615081787
1772806400015765000,0.346764892578125,0.04837125912308693,-0.4729859232902527,-0.26258528232574463
1772806400025697000,0.356697021484375,0.055800147354602814,-0.43279457092285156,-0.22820813953876495
1772806400035627800,0.366627685546875,0.047873515635728836,-0.45940008759498596,-0.19798098504543304
1772806400045559800,0.376559814453125,0.03081170842051506,-0.48122307658195496,-0.1926054060459137
1772806400055491000,0.386490966796875,0.024444356560707092,-0.4554538130760193,-0.2457708865404129
1772806400065422800,0.3964228515625,0.02468217723071575,-0.4404490292072296,-0.34023240208625793
1772806400075353900,0.406353759765625,0.03918308764696121,-0.44341790676116943,-0.42737877368927
1772806400085286000,0.416285888671875,0.04500928521156311,-0.4607630968093872,-0.5092512369155884
1772806400095217000,0.426216796875,0.039628103375434875,-0.4540271461009979,-0.577709436416626
1772806400105148000,0.43614794921875,0.05295296385884285,-0.48446041345596313,-0.6238457560539246
1772806400115080000,0.446079833984375,0.08886249363422394,-0.5363041758537292,-0.6694779396057129
1772806400125011000,0.456010986328125,0.12382233887910843,-0.5274385213851929,-0.7182832956314087
1772806400134942700,0.465942626953125,0.15087100863456726,-0.49843883514404297,-0.7503554821014404
1772806400144874000,0.4758740234375,0.16351968050003052,-0.4925124943256378,-0.7613500952720642
1772806400154806000,0.485805908203125,0.17177602648735046,-0.5063180327415466,-0.7637287974357605
1772806400164737000,0.495737060546875,0.18175780773162842,-0.526685357093811,-0.750832736492157
1772806400174668800,0.505668701171875,0.2162627875804901,-0.5127741098403931,-0.7341781258583069
1772806400184599800,0.515599853515625,0.2408168762922287,-0.4871448874473572,-0.6919952630996704
1772806400194531800,0.52553173828125,0.25739771127700806,-0.5371600985527039,-0.6376909613609314
1772806400204462800,0.535462890625,0.2574853301048279,-0.6112679243087769,-0.5903463959693909
1772806400214395000,0.545394775390625,0.24186748266220093,-0.6533898115158081,-0.5477033257484436
1772806400224326000,0.555325927734375,0.23561066389083862,-0.6941425204277039,-0.5264469981193542
1772806400234258000,0.5652578125,0.25442615151405334,-0.7427340745925903,-0.5288864970207214
1772806400244188700,0.575188720703125,0.25967738032341003,-0.7381395697593689,-0.555587887763977
1772806400254120000,0.585119873046875,0.26947489380836487,-0.7460198402404785,-0.6123539209365845
1772806400264052000,0.595052001953125,0.28689461946487427,-0.7462955117225647,-0.6706534624099731
1772806400273982700,0.604982666015625,0.2870565354824066,-0.6756806969642639,-0.703981876373291
1772806400283914800,0.614914794921875,0.2986074686050415,-0.606326699256897,-0.6997522115707397
1772806400293846000,0.624845947265625,0.3038586974143982,-0.5277005434036255,-0.6637484431266785
1772806400303778000,0.634778076171875,0.30602648854255676,-0.4832889139652252,-0.6172618865966797
1772806400313708800,0.644708740234375,0.2908683121204376,-0.5122544765472412,-0.5867079496383667
1772806400323640800,0.654640869140625,0.27316388487815857,-0.5178306102752686,-0.5655786991119385
1772806400333571800,0.66457177734375,0.2527177333831787,-0.4829072654247284,-0.5420216917991638
1772806400343504000,0.67450390625,0.24239106476306915,-0.425552099943161,-0.5009070634841919
1772806400353435000,0.684434814453125,0.2529771327972412,-0.41884759068489075,-0.44677484035491943
1772806400363367000,0.694366943359375,0.24485662579536438,-0.386251300573349,-0.39789116382598877
1772806400373298000,0.7042978515625,0.23927757143974304,-0.42753881216049194,-0.3753981292247772
1772806400383230000,0.71422998046875,0.26602742075920105,-0.47511565685272217,-0.38630616664886475
1772806400393160700,0.72416064453125,0.25546932220458984,-0.42551854252815247,-0.4069427251815796
1772806400403092700,0.7340927734375,0.23729057610034943,-0.46361878514289856,-0.4212513566017151
1772806400413024000,0.74402392578125,0.22111374139785767,-0.5146580338478088,-0.43466517329216003
1772806400422954800,0.753954833984375,0.20400479435920715,-0.5135181546211243,-0.42016318440437317
1772806400432886800,0.76388671875,0.220920130610466,-0.5229148864746094,-0.38316628336906433
1772806400442818000,0.773818115234375,0.26598986983299255,-0.5365289449691772,-0.33985504508018494
1772806400452750000,0.78375,0.29852038621902466,-0.5395109057426453,-0.2920409142971039
1772806400462680800,0.793680908203125,0.32867294549942017,-0.5527598261833191,-0.24727770686149597
1772806400472612900,0.80361279296875,0.3450612425804138,-0.578987717628479,-0.21093539893627167
1772806400482543900,0.8135439453125,0.33755406737327576,-0.6120790839195251,-0.18801863491535187
1772806400492476000,0.823475830078125,0.2990434169769287,-0.6209461092948914,-0.17459283769130707
1772806400502407000,0.833406982421875,0.2618270814418793,-0.5976058840751648,-0.14165087044239044
1772806400512339000,0.8433388671875,0.2219771444797516,-0.5644735097885132,-0.07153064012527466
1772806400522270000,0.85327001953125,0.19680121541023254,-0.5518176555633545,0.06235498562455177
1772806400532201700,0.86320166015625,0.2357528656721115,-0.5734915137290955,0.21778053045272827
1772806400542132700,0.8731328125,0.23421116173267365,-0.5204256176948547,0.3735029995441437
1772806400552064800,0.883064697265625,0.2162787765264511,-0.4760879874229431,0.5077385902404785
1772806400561996000,0.89299609375,0.16424593329429626,-0.44218939542770386,0.654527485370636
1772806400571927800,0.902927734375,0.08992403000593185,-0.3759850859642029,0.846247673034668
1772806400581858800,0.91285888671875,0.007738080807030201,-0.3331774175167084,1.0641157627105713
1772806400591790000,0.9227900390625,-0.062420766800642014,-0.3149435520172119,1.2922080755233765
1772806400601721900,0.932721923828125,-0.1319630891084671,-0.3200203478336334,1.532021164894104
1772806400611652900,0.94265283203125,-0.17256352305412292,-0.4899135231971741,1.768637776374817
1772806400621585000,0.9525849609375,-0.20384527742862701,-0.7106642723083496,2.0140206813812256
1772806400631516000,0.962515869140625,-0.22454921901226044,-0.926642894744873,2.2558765411376953
1772806400641447700,0.97244775390625,-0.25588342547416687,-1.1447137594223022,2.5210254192352295
1772806400651379000,0.98237890625,-0.40675976872444153,-0.9315156936645508,2.417325496673584
1772806400661311000,0.99231103515625,-0.6447206735610962,-0.40972015261650085,1.8994379043579102
1772806400671242000,1.002241943359375,-0.6690438389778137,-0.9121132493019104,1.6691579818725586
1772806400681173800,1.012173828125,-0.6778509020805359,-1.3990516662597656,1.5616602897644043
1772806400691104800,1.022104736328125,-0.6631335020065308,-1.4344334602355957,1.4831775426864624
1772806400701037000,1.032037109375,-0.6331284642219543,-1.2073230743408203,1.4141428470611572
1772806400710967800,1.0419677734375,-0.5782990455627441,-0.7641922235488892,1.3583970069885254
1772806400720899800,1.05189990234375,-0.46663668751716614,-0.3547024428844452,1.2999526262283325
1772806400730830800,1.061830810546875,-0.3505803942680359,0.10222863405942917,1.1990704536437988
1772806400740762000,1.07176220703125,-0.21513840556144714,0.5113815069198608,1.1037659645080566
1772806400750694000,1.08169384765625,-0.10186005383729935,0.7095675468444824,1.0610555410385132
1772806400760625000,1.091625,-0.03951172158122063,0.8392046689987183,1.0460283756256104
1772806400770557000,1.101556884765625,-0.04755526781082153,0.8689428567886353,1.0482385158538818
1772806400780487700,1.11148779296875,-0.11394467949867249,0.7847027778625488,1.0338658094406128
1772806400790419700,1.121419677734375,-0.18389420211315155,0.6013162136077881,0.9725837707519531
1772806400800351000,1.13135107421875,-0.22273534536361694,0.3784583508968353,0.8786937594413757
1772806400810283000,1.141282958984375,-0.25640514492988586,0.13611416518688202,0.7615785598754883
1772806400820213800,1.1512138671875,-0.3195013105869293,0.00012223910016473383,0.6334038376808167
1772806400830145800,1.161145751953125,-0.41305363178253174,0.0019771307706832886,0.5338407754898071
1772806400840076800,1.171076904296875,-0.5275405049324036,0.12804532051086426,0.49625104665756226
1772806400850009000,1.181009033203125,-0.6145632863044739,0.29587987065315247,0.5081636309623718
1772806400859939800,1.19093994140625,-0.6620583534240723,0.4748384356498718,0.5351294875144958
1772806400869871900,1.200871826171875,-0.6670552492141724,0.650717556476593,0.5436595678329468
1772806400879803000,1.210802978515625,-0.6452437043190002,0.8133181929588318,0.5314271450042725
1772806400889735000,1.22073486328125,-0.6054946780204773,0.9096261262893677,0.48935770988464355
1772806400899666000,1.230666015625,-0.5230030417442322,0.9466118216514587,0.42722269892692566
1772806400909597000,1.240596923828125,-0.4167058765888214,1.012719750404358,0.3505393862724304
1772806400919529000,1.250529052734375,-0.325504869222641,1.0160268545150757,0.3049335479736328
1772806400929459700,1.260459716796875,-0.28521549701690674,1.005840539932251,0.2675643265247345
1772806400939391700,1.270391845703125,-0.26159191131591797,0.9974502325057983,0.217126727104187
1772806400949323000,1.280322998046875,-0.24950729310512543,0.9283811450004578,0.17116428911685944
1772806400959255000,1.290255126953125,-0.21992996335029602,0.8181041479110718,0.09523224085569382
1772806400969185800,1.300185791015625,-0.1701805144548416,0.7162891030311584,0.007414240390062332
1772806400979117800,1.310117919921875,-0.13101953268051147,0.6444471478462219,-0.06738489866256714
1772806400989048800,1.320048828125,-0.08947528898715973,0.6160866022109985,-0.11185489594936371
1772806400998981000,1.329981201171875,-0.048743836581707,0.6356944441795349,-0.13522812724113464
1772806401008912000,1.339911865234375,-0.024044882506132126,0.675299346446991,-0.17296458780765533
1772806401018844000,1.349843994140625,-0.023087209090590477,0.7276861071586609,-0.24447712302207947
1772806401028775000,1.35977490234375,-0.03309856355190277,0.7621005773544312,-0.3070451617240906
1772806401038706000,1.369705810546875,-0.018573418259620667,0.8043574690818787,-0.38953524827957153
1772806401048638000,1.379637939453125,-0.0018815232906490564,0.8648751378059387,-0.47541287541389465
1772806401058569000,1.38956884765625,-0.007452856283634901,0.91207355260849,-0.5647784471511841
1772806401068501000,1.3995009765625,-0.006974818650633097,0.9310437440872192,-0.649594247341156
1772806401078431700,1.409431640625,-0.0025212145410478115,0.9150757193565369,-0.701076090335846
1772806401088363800,1.41936376953125,-0.011916047893464565,0.8894025683403015,-0.6907898783683777
1772806401098295000,1.429294921875,-0.03231905773282051,0.881747305393219,-0.6175540089607239
1772806401108226800,1.439226806640625,-0.08251218497753143,0.8607504367828369,-0.5160516500473022
1772806401118157800,1.44915771484375,-0.15258075296878815,0.7674242258071899,-0.39441922307014465
1772806401128089900,1.45908984375,-0.2389659732580185,0.6309747695922852,-0.2840847074985504
1772806401138021000,1.469021240234375,-0.34247025847435,0.5203939080238342,-0.18677254021167755
1772806401147953000,1.478952880859375,-0.4297979772090912,0.4435412287712097,-0.07270562648773193
1772806401157884000,1.4888837890625,-0.4838268458843231,0.3911648392677307,0.05101045221090317
1772806401167816000,1.49881591796875,-0.5140193700790405,0.3761456608772278,0.17728637158870697
1772806401177746700,1.50874658203125,-0.5083657503128052,0.41248849034309387,0.3016597032546997
1772806401187678700,1.5186787109375,-0.4616270065307617,0.5361441373825073,0.424581378698349
1772806401197610200,1.5286103515625,-0.3848414123058319,0.7410120368003845,0.5265429019927979
1772806401207541200,1.538541259765625,-0.29745912551879883,0.9249635338783264,0.567935049533844
1772806401217473300,1.548473388671875,-0.22661316394805908,1.0753670930862427,0.5675480961799622
1772806401227404000,1.558404052734375,-0.1750037670135498,1.1440069675445557,0.5486772060394287
1772806401237336000,1.568336181640625,-0.15628467500209808,1.1447880268096924,0.47756895422935486
1772806401247267300,1.578267333984375,-0.18927724659442902,1.0917242765426636,0.3625100255012512
1772806401257199400,1.588199462890625,-0.23201699554920197,1.0302387475967407,0.36144953966140747
1772806401267130000,1.598130126953125,-0.31089529395103455,0.884645402431488,0.24463504552841187
1772806401277062100,1.608062255859375,-0.4082101285457611,0.5763389468193054,-0.05836157873272896
1772806401286993200,1.6179931640625,-0.45130062103271484,0.266031414270401,-0.22961242496967316
1772806401296925200,1.62792529296875,-0.31651055812835693,-0.04574218764901161,-0.15217222273349762
1772806401306856200,1.637856201171875,-0.10495863854885101,-0.17049238085746765,-0.1383482813835144
1772806401316788200,1.647788330078125,0.015343536622822285,-0.09499762207269669,-0.12284176796674728
1772806401326719200,1.65771923828125,-0.1869906634092331,-0.02557460218667984,-0.1359807401895523
1772806401336651000,1.667651123046875,-0.4072316884994507,-0.14438088238239288,-0.4440363049507141
1772806401346582300,1.677582275390625,-0.36839720606803894,0.2880229949951172,-0.692035436630249
1772806401356513300,1.68751318359375,-0.15217062830924988,0.6236984729766846,-0.7756738662719727
1772806401366445000,1.697445068359375,0.1590421199798584,0.5138865113258362,-0.7659245729446411
1772806401376376000,1.7073759765625,0.4750829041004181,0.2236083298921585,-0.8246584534645081
1772806401386308000,1.71730810546875,0.7498617172241211,0.18172985315322876,-1.0278136730194092
1772806401396239400,1.7272392578125,0.8849319219589233,0.36645814776420593,-1.2401829957962036
1772806401406171100,1.737171142578125,0.8299448490142822,0.4214968979358673,-1.2947369813919067
1772806401416102100,1.74710205078125,0.6629878282546997,0.45920008420944214,-1.2027088403701782
1772806401426034200,1.7570341796875,0.4925175607204437,0.5221081972122192,-1.0442416667938232
1772806401435965200,1.766965087890625,0.3465864360332489,0.3826909065246582,-0.9357791543006897
1772806401445897200,1.776897216796875,0.24425821006298065,0.15266092121601105,-0.9018132090568542
1772806401455828200,1.786828125,0.19564752280712128,0.0460420586168766,-0.9456091523170471
1772806401465760300,1.79676025390625,0.15072932839393616,0.0637933611869812,-1.082749366760254
1772806401475691000,1.80669091796875,0.1448831558227539,0.10006587952375412,-1.2774778604507446
1772806401485623000,1.816623046875,0.09325191378593445,-0.038310371339321136,-1.4975851774215698
1772806401495554300,1.82655419921875,-0.04802105575799942,-0.3494408130645752,-1.692121148109436
1772806401505485000,1.836485107421875,-0.24297749996185303,-0.7027621269226074,-1.810631275177002
1772806401515417000,1.8464169921875,-0.3556326627731323,-1.050226092338562,-1.8999558687210083
1772806401525348000,1.85634814453125,-0.42344632744789124,-1.206018328666687,-1.964468240737915
1772806401535280000,1.866280029296875,-0.48542875051498413,-1.0586718320846558,-1.9868710041046143
1772806401545211100,1.876211181640625,-0.4640166759490967,-0.7536141276359558,-1.9403663873672485
1772806401555143200,1.88614306640625,-0.38033241033554077,-0.49949848651885986,-1.793126106262207
1772806401565074200,1.89607421875,-0.23681680858135223,-0.3984192907810211,-1.536994457244873
1772806401575006200,1.906006103515625,-0.05403979867696762,-0.5121359825134277,-1.232216715812683
1772806401584937200,1.915937255859375,0.1448432058095932,-0.6269464492797852,-0.9543839693069458
1772806401594869200,1.925869140625,0.3000756800174713,-0.6580591201782227,-0.7358018159866333
1772806401604800300,1.93580029296875,0.4137692153453827,-0.5409018397331238,-0.5926388502120972
1772806401614732300,1.945732177734375,0.4614291489124298,-0.5653020143508911,-0.48609480261802673
1772806401624663000,1.9556630859375,0.35781165957450867,-0.592515230178833,-0.48203641176223755
1772806401634594300,1.96559423828125,0.18205368518829346,-0.5247337818145752,-0.5604497194290161
1772806401644526300,1.9755263671875,0.028534704819321632,-0.4890173673629761,-0.6848247051239014
1772806401654457000,1.98545703125,-0.06790714710950851,-0.5540347099304199,-0.8175470232963562
1772806401664389000,1.99538916015625,-0.09955482184886932,-0.5710824131965637,-0.8838096857070923
1772806401674320100,2.005320068359375,-0.07977472245693207,-0.5001152753829956,-0.8568366765975952
1772806401684252200,2.015252197265625,-0.017888719215989113,-0.41328078508377075,-0.7510085105895996
1772806401694183200,2.02518310546875,0.04117140546441078,-0.34664663672447205,-0.5956771969795227
1772806401704115200,2.035115234375,0.10020436346530914,-0.3346445560455322,-0.4355067312717438
1772806401714046200,2.045046142578125,0.16572585701942444,-0.41519108414649963,-0.31514278054237366
1772806401723978200,2.054978271484375,0.20497845113277435,-0.48366838693618774,-0.24947507679462433
1772806401733909200,2.0649091796875,0.21721966564655304,-0.5157666802406311,-0.24464888870716095
1772806401743841300,2.07484130859375,0.21215912699699402,-0.5160636305809021,-0.2897298336029053
1772806401753772300,2.084772216796875,0.22156301140785217,-0.4751380383968353,-0.362673282623291
1772806401763704000,2.0947041015625,0.24304860830307007,-0.3952557146549225,-0.42080074548721313
1772806401773635000,2.104635009765625,0.2684623599052429,-0.37068724632263184,-0.43472084403038025
1772806401783566300,2.11456640625,0.29909828305244446,-0.3916332721710205,-0.4126022160053253
1772806401793498400,2.124498291015625,0.3322937786579132,-0.4190680980682373,-0.3724516034126282
1772806401803429000,2.13442919921875,0.350834459066391,-0.45938488841056824,-0.3310199975967407
1772806401813361200,2.144361083984375,0.3376411497592926,-0.5061199069023132,-0.30203041434288025
1772806401823292200,2.154292236328125,0.29881784319877625,-0.5428033471107483,-0.28668609261512756
1772806401833224000,2.164223876953125,0.24588912725448608,-0.5664045810699463,-0.2741692364215851
1772806401843155200,2.1741552734375,0.2100943773984909,-0.5469677448272705,-0.24624332785606384
1772806401853087200,2.184087158203125,0.20025639235973358,-0.5204373598098755,-0.18481352925300598
1772806401863018200,2.194018310546875,0.22706963121891022,-0.5155709385871887,-0.10492321848869324
1772806401872950000,2.203949951171875,0.2650865316390991,-0.4727047085762024,-0.03305622190237045
1772806401882881300,2.21388134765625,0.2963767945766449,-0.4911212623119354,0.025589516386389732
1772806401892813300,2.223813232421875,0.34739017486572266,-0.6354672312736511,0.08235666155815125
1772806401902744000,2.233744140625,0.3592391312122345,-0.7704695463180542,0.12579254806041718
1772806401912676000,2.243676025390625,0.33275237679481506,-0.8444274067878723,0.14720329642295837
1772806401922607000,2.253607177734375,0.28448259830474854,-0.8854224681854248,0.12767913937568665
1772806401932538400,2.263538330078125,0.23006781935691833,-0.8934588432312012,0.07818534970283508
1772806401942470100,2.27347021484375,0.2008444219827652,-0.844901978969574,0.01059405505657196
1772806401952401200,2.283401123046875,0.17764855921268463,-0.7684974670410156,-0.034066092222929
1772806401962333200,2.293333251953125,0.1695658564567566,-0.7094274759292603,-0.021021395921707153
1772806401972264200,2.30326416015625,0.16422195732593536,-0.6860726475715637,0.05771363154053688
1772806401982196000,2.313196044921875,0.15297569334506989,-0.638153076171875,0.19336147606372833
1772806401992127200,2.323127197265625,0.1309843808412552,-0.5308018326759338,0.36684510111808777
1772806402002059300,2.333059326171875,0.09150088578462601,-0.37453657388687134,0.5813837647438049
1772806402011990000,2.342989990234375,-0.005941778887063265,-0.2111058533191681,0.8554773926734924
1772806402021922000,2.352922119140625,-0.13565689325332642,-0.31778329610824585,1.1629390716552734
1772806402031853300,2.362853271484375,-0.22711864113807678,-0.5525593161582947,1.412613034248352
1772806402041785300,2.372785400390625,-0.18710944056510925,-0.8425288200378418,1.5438706874847412
1772806402051716000,2.382716064453125,-0.11139017343521118,-1.1491180658340454,1.6085284948349
1772806402061648100,2.392648193359375,-0.05283764749765396,-1.267286777496338,1.652671217918396
1772806402071579100,2.4025791015625,-0.11898790299892426,-1.0843271017074585,1.6690810918807983
1772806402081510100,2.41251025390625,-0.22198486328125,-0.8055428266525269,1.8138502836227417
1772806402091442200,2.422442138671875,-0.31138426065444946,-0.6724804043769836,2.0959439277648926
1772806402101373200,2.432373291015625,-0.47771063446998596,-0.6238726377487183,2.285278558731079
1772806402111305200,2.44230517578125,-0.764802098274231,-0.1324041187763214,1.9956133365631104
1772806402121236000,2.452236083984375,-0.9108737707138062,-0.4180355966091156,1.8616074323654175
1772806402131168000,2.46216796875,-0.9755755662918091,-0.7424821257591248,1.8303791284561157
1772806402141099300,2.472099365234375,-0.9770970344543457,-0.8776612281799316,1.780880093574524
1772806402151031300,2.48203125,-0.8976011276245117,-0.9368622303009033,1.6739157438278198
1772806402160962000,2.491962158203125,-0.7850247621536255,-0.8474774956703186,1.5460355281829834
1772806402170894000,2.50189404296875,-0.7101247310638428,-0.620682418346405,1.4391506910324097
1772806402180825300,2.511825439453125,-0.6215549111366272,-0.3488813042640686,1.3406482934951782
1772806402190757600,2.521757568359375,-0.48242631554603577,-0.1830582320690155,1.26900315284729
1772806402200688600,2.531688720703125,-0.418340265750885,0.15072426199913025,1.2469120025634766
1772806402210620400,2.541620361328125,-0.35698556900024414,0.3852321207523346,1.2284581661224365
1772806402220551400,2.551551513671875,-0.3248819410800934,0.4492523670196533,1.217238187789917
1772806402230482700,2.561482666015625,-0.37552380561828613,0.5518362522125244,1.200111746788025
1772806402240414700,2.571414794921875,-0.3893440365791321,0.4912932813167572,1.1547141075134277
1772806402250345500,2.581345458984375,-0.3965547978878021,0.5071564316749573,1.0226801633834839
1772806402260277500,2.591277587890625,-0.3857189416885376,0.5682189464569092,0.9340267777442932
1772806402270208500,2.60120849609375,-0.37138286232948303,0.6481215357780457,0.8784937262535095
1772806402280140300,2.611140380859375,-0.3817977011203766,0.7135684490203857,0.8295885324478149
1772806402290071600,2.621071533203125,-0.43982183933258057,0.7979738712310791,0.7789197564125061
1772806402300003600,2.631003662109375,-0.5099670886993408,0.8337156176567078,0.7125718593597412
1772806402309934600,2.6409345703125,-0.5404749512672424,0.84206622838974,0.6305614113807678
1772806402319866400,2.650866455078125,-0.544846773147583,0.8840424418449402,0.5260712504386902
1772806402329797600,2.660797607421875,-0.5359252095222473,0.8923107385635376,0.3948860764503479
1772806402339729700,2.670729736328125,-0.5176516771316528,0.8566587567329407,0.23039725422859192
1772806402349660400,2.680660400390625,-0.5014852285385132,0.8713476657867432,0.05264643207192421
1772806402359591400,2.69059130859375,-0.49093350768089294,0.8463355302810669,-0.09566793590784073
1772806402369523500,2.7005234375,-0.4885800778865814,0.7495453357696533,-0.23641493916511536
1772806402379454700,2.710454833984375,-0.4879007041454315,0.6113483309745789,-0.36561232805252075
1772806402389386500,2.720386474609375,-0.4590410888195038,0.47958630323410034,-0.4914184510707855
1772806402399317500,2.7303173828125,-0.41646698117256165,0.3370334208011627,-0.5550498962402344
1772806402409249500,2.74024951171875,-0.37006035447120667,0.2041185200214386,-0.5453000664710999
1772806402419180300,2.75018017578125,-0.25488102436065674,0.1696912944316864,-0.5328303575515747
1772806402429112300,2.7601123046875,-0.14114195108413696,0.2492676079273224,-0.5202926993370056
1772806402439043600,2.770043701171875,-0.0341302715241909,0.3664941191673279,-0.5616005063056946
1772806402448975600,2.7799755859375,0.04091813787817955,0.4660119116306305,-0.6477556228637695
1772806402458906400,2.78990625,0.10057268291711807,0.5214706659317017,-0.674543559551239
1772806402468838400,2.79983837890625,0.15850655734539032,0.6337409615516663,-0.6801106333732605
1772806402478769700,2.809769775390625,0.18681462109088898,0.7150685787200928,-0.6815487146377563
1772806402488701700,2.81970166015625,0.1882106512784958,0.73341965675354,-0.6709061861038208
1772806402498632400,2.829632568359375,0.17743150889873505,0.700263261795044,-0.6694518327713013
1772806402508563500,2.8395634765625,0.1776440292596817,0.6873847842216492,-0.6696694493293762
1772806402518495500,2.84949560546875,0.20024999976158142,0.7555289268493652,-0.6447393298149109
1772806402528426500,2.859426513671875,0.1792222112417221,0.8403927087783813,-0.6118862628936768
1772806402538358500,2.869358642578125,0.07055086642503738,0.8168628811836243,-0.5276244282722473
1772806402548289500,2.87928955078125,-0.09294671565294266,0.6506043672561646,-0.3784532845020294
1772806402558221600,2.8892216796875,-0.27115321159362793,0.4847091734409332,-0.180926114320755
1772806402568152300,2.89915234375,-0.4652060270309448,0.39697104692459106,0.037335652858018875
1772806402578084400,2.90908447265625,-0.6169750690460205,0.36325889825820923,0.21055111289024353
1772806402588015600,2.919015625,-0.6664981245994568,0.3738931715488434,0.2830426096916199
1772806402597947600,2.92894775390625,-0.6082950234413147,0.517646074295044,0.3045063614845276
1772806402607878400,2.93887841796875,-0.47748878598213196,0.7488017678260803,0.3564630448818207
1772806402617810400,2.948810546875,-0.33242934942245483,1.0156729221343994,0.4363914430141449
1772806402627741700,2.95874169921875,-0.1506877839565277,1.1721941232681274,0.4920845329761505
1772806402637672400,2.96867236328125,0.015660451725125313,1.1911683082580566,0.4569944441318512
1772806402647604500,2.9786044921875,0.09658992290496826,1.174492597579956,0.36551564931869507
1772806402657535500,2.988535400390625,0.08932535350322723,1.0716406106948853,0.28471189737319946
1772806402667467500,2.998467529296875,0.1129196286201477,0.9768142104148865,0.230767160654068
1772806402677398500,3.0083984375,0.14415717124938965,0.8393625617027283,0.23238371312618256
1772806402687330600,3.01833056640625,0.11248846352100372,0.6718593239784241,0.2752438187599182
1772806402697261600,3.028261474609375,0.02251516282558441,0.5412632822990417,0.29513683915138245
1772806402707193600,3.038193603515625,-0.07077350467443466,0.32931825518608093,0.2655075788497925
1772806402717124400,3.048124267578125,-0.14966778457164764,0.14211267232894897,0.19076356291770935
1772806402727056400,3.058056396484375,-0.30533114075660706,0.06353290379047394,0.20027104020118713
1772806402736987600,3.067987548828125,-0.6099861264228821,0.03408180549740791,0.2331152707338333
1772806402746919400,3.07791943359375,-0.7712780833244324,-0.1620703935623169,-0.03828081116080284
1772806402756850400,3.087850341796875,-0.7033872008323669,-0.6207724809646606,-0.3458916246891022
1772806402766782500,3.097782470703125,-0.43136951327323914,-0.1881355494260788,-0.49773895740509033
1772806402776713700,3.107713623046875,-0.05392927676439285,0.35959839820861816,-0.58338862657547
1772806402786645500,3.1176455078125,0.28279948234558105,0.45068860054016113,-0.656545102596283
1772806402796576500,3.127576416015625,0.5829837918281555,0.40799760818481445,-0.8324562311172485
1772806402806507500,3.137507568359375,0.8249335885047913,0.28078824281692505,-1.0516458749771118
1772806402816439300,3.147439208984375,0.936962366104126,0.405529648065567,-1.2228593826293945
1772806402826370600,3.15737060546875,0.8634687066078186,0.6590220928192139,-1.2754027843475342
1772806402836302600,3.167302490234375,0.6193969249725342,0.7335392236709595,-1.15858793258667
1772806402846233600,3.177233642578125,0.27477458119392395,0.4491541087627411,-0.931511402130127
1772806402856165400,3.187165283203125,-0.025053154677152634,0.14499340951442719,-0.7334215044975281
1772806402866096400,3.197096435546875,-0.1291409432888031,0.12120924890041351,-0.6556305885314941
1772806402876028400,3.2070283203125,-0.10907721519470215,0.21767453849315643,-0.6582790613174438
1772806402885959400,3.21695947265625,-0.09328014403581619,0.24191676080226898,-0.7371121048927307
1772806402895891500,3.226891357421875,-0.1166887953877449,0.10033805668354034,-0.9347471594810486
1772806402905822500,3.236822509765625,-0.17713376879692078,-0.11987553536891937,-1.1643385887145996
1772806402915754500,3.24675439453125,-0.28904086351394653,-0.600653886795044,-1.3241125345230103
1772806402925685500,3.256685546875,-0.38867664337158203,-1.153944730758667,-1.4607752561569214
1772806402935616500,3.266616455078125,-0.4916214048862457,-1.3028898239135742,-1.5713523626327515
1772806402945548500,3.276548583984375,-0.6004746556282043,-1.1743628978729248,-1.6273560523986816
1772806402955479600,3.2864794921875,-0.6958054304122925,-0.9435305595397949,-1.602221131324768
1772806402965411300,3.296411376953125,-0.6737874746322632,-0.7728312611579895,-1.5017911195755005
1772806402975342600,3.306342529296875,-0.508523166179657,-0.7309343814849854,-1.3583050966262817
1772806402985274600,3.316274658203125,-0.2535443902015686,-0.6968483328819275,-1.1823793649673462
1772806402995205400,3.326205322265625,0.03484000638127327,-0.3992216885089874,-1.0275969505310059
1772806403005137400,3.336137451171875,0.2808876037597656,-0.102102130651474,-0.8701140880584717
1772806403015068400,3.346068359375,0.4459942579269409,-0.24613094329833984,-0.6826563477516174
1772806403025000400,3.35600048828125,0.4722287952899933,-0.48409077525138855,-0.5305163264274597
1772806403034931500,3.365931396484375,0.4235347509384155,-0.5072911977767944,-0.44896048307418823
1772806403044863500,3.375863525390625,0.36483362317085266,-0.5398808121681213,-0.4550442099571228
1772806403054794500,3.38579443359375,0.28053179383277893,-0.5425964593887329,-0.5364030003547668
1772806403064726500,3.3957265625,0.2137274593114853,-0.5140537619590759,-0.6558473706245422
1772806403074657500,3.405657470703125,0.18271948397159576,-0.5312979817390442,-0.7845762968063354
1772806403084588500,3.415588623046875,0.19569173455238342,-0.5446515679359436,-0.8768971562385559
1772806403094520600,3.4255205078125,0.24300439655780792,-0.48138925433158875,-0.9250987768173218
1772806403104451300,3.435451416015625,0.31692788004875183,-0.37984293699264526,-0.9220739603042603
1772806403114383400,3.44538330078125,0.37541863322257996,-0.2832929491996765,-0.8813042044639587
1772806403124314600,3.455314697265625,0.4160909652709961,-0.22783929109573364,-0.830548882484436
1772806403134246700,3.46524658203125,0.4516873061656952,-0.24333222210407257,-0.7707699537277222
1772806403144177400,3.475177490234375,0.5057103037834167,-0.32104647159576416,-0.6736385822296143
1772806403154109400,3.485109375,0.5553271174430847,-0.44538599252700806,-0.5610979199409485
1772806403164040400,3.49504052734375,0.5755621194839478,-0.5693231225013733,-0.48156583309173584
1772806403173972500,3.504972412109375,0.5546131730079651,-0.6557834148406982,-0.4627934694290161
1772806403183903500,3.514903564453125,0.5014894604682922,-0.7034955620765686,-0.5336610078811646
1772806403193835300,3.524835205078125,0.44516468048095703,-0.7021530866622925,-0.6798434853553772
1772806403203766000,3.53476611328125,0.41968169808387756,-0.6857373714447021,-0.8415706157684326
1772806403213697300,3.544697265625,0.4122197926044464,-0.6810019612312317,-0.9348734021186829
1772806403223629300,3.55462939453125,0.39438486099243164,-0.6765869855880737,-0.9220039248466492
1772806403233560000,3.56456005859375,0.3673281967639923,-0.5610010027885437,-0.8123184442520142
1772806403243492000,3.5744921875,0.3414670526981354,-0.3249322772026062,-0.6349585652351379
1772806403253423000,3.584423095703125,0.31070247292518616,-0.20940755307674408,-0.4145561754703522
1772806403263355100,3.594355224609375,0.2935224175453186,-0.28171050548553467,-0.16086184978485107
1772806403273286100,3.6042861328125,0.3210690915584564,-0.4687325954437256,0.09566847234964371
1772806403283218200,3.61421826171875,0.3959180414676666,-0.7715854048728943,0.2982098460197449
1772806403293149200,3.624149169921875,0.4936257004737854,-1.015178918838501,0.42856812477111816
1772806403303081200,3.634081298828125,0.5435362458229065,-1.131224513053894,0.476398766040802
1772806403313012200,3.64401220703125,0.5255125164985657,-1.0908986330032349,0.46411439776420593
1772806403322944300,3.6539443359375,0.40596508979797363,-0.9516475796699524,0.3882273733615875
1772806403332875300,3.663875244140625,0.1567392796278,-0.8101186752319336,0.260949045419693
1772806403342807000,3.67380712890625,-0.08034783601760864,-0.7742658853530884,0.13258413970470428
1772806403352738000,3.683738037109375,-0.2323560118675232,-0.760988712310791,0.052978262305259705
1772806403362669300,3.69366943359375,-0.33228474855422974,-0.6734707951545715,0.06431480497121811
1772806403372601300,3.703601318359375,-0.421215683221817,-0.5700099468231201,0.1774996817111969
1772806403382532000,3.713531982421875,-0.48341992497444153,-0.514205813407898,0.4201970100402832
1772806403392464100,3.723464111328125,-0.5334375500679016,-0.6085120439529419,0.7723846435546875
1772806403402395100,3.73339501953125,-0.5616870522499084,-0.8709559440612793,1.133899450302124
1772806403412327200,3.7433271484375,-0.5260584950447083,-1.3778660297393799,1.3915650844573975
1772806403422258200,3.753258056640625,-0.4970603585243225,-1.764914870262146,1.5656023025512695
1772806403432190200,3.763190185546875,-0.5203121900558472,-1.8472223281860352,1.67621910572052
1772806403442121200,3.773121337890625,-0.531913161277771,-1.7188513278961182,1.7789322137832642
1772806403452053000,3.783052978515625,-0.509419858455658,-1.5349267721176147,1.938079833984375
1772806403461984300,3.792984375,-0.49048662185668945,-1.4150474071502686,2.1578474044799805
1772806403471916300,3.802916259765625,-0.5156154036521912,-1.4119230508804321,2.3628897666931152
1772806403481847300,3.812847412109375,-0.6664632558822632,-0.7247345447540283,2.2392466068267822
1772806403491779000,3.822779052734375,-0.7298102378845215,-0.22370126843452454,1.9344030618667603
1772806403501710000,3.8327099609375,-0.6903989315032959,-0.9123049974441528,1.8688207864761353
1772806403511641300,3.842641357421875,-0.7016726136207581,-1.4453766345977783,1.7817405462265015
1772806403521573000,3.852572998046875,-0.7016987204551697,-1.492120623588562,1.673673152923584
1772806403531504000,3.862504150390625,-0.6345409750938416,-1.2979415655136108,1.5763700008392334
1772806403541436200,3.872436279296875,-0.504560649394989,-1.0547902584075928,1.4882495403289795
1772806403551367200,3.8823671875,-0.3657814562320709,-0.8718478083610535,1.4335061311721802
1772806403561299200,3.89229931640625,-0.3009023070335388,-0.7070444822311401,1.3531745672225952
1772806403571230200,3.902230224609375,-0.3072824478149414,-0.5308713316917419,1.3248757123947144
1772806403581162200,3.912162353515625,-0.25293397903442383,-0.22506587207317352,1.2661794424057007
1772806403591093000,3.922093017578125,-0.1903076320886612,-0.018034927546977997,1.2658380270004272
1772806403601025000,3.93202490234375,-0.1518782079219818,-0.06367911398410797,1.318253755569458
1772806403610956300,3.941956298828125,-0.10464438796043396,-0.09360478818416595,1.2954515218734741
1772806403620888300,3.951888427734375,-0.04722077399492264,-0.08120883256196976,1.1952581405639648
1772806403630819000,3.961819091796875,-0.023011576384305954,-0.07883889228105545,1.0998444557189941
1772806403640749300,3.971749267578125,-0.035707928240299225,-0.04451979696750641,1.0356532335281372
1772806403650681300,3.981681396484375,-0.08614527434110641,-0.04957740753889084,0.9988126754760742
1772806403660612000,3.991612060546875,-0.14640115201473236,-0.08804703503847122,0.9430298805236816
1772806403670544100,4.001544189453125,-0.16318918764591217,-0.07895100861787796,0.8190852999687195
1772806403680475100,4.01147509765625,-0.13580922782421112,-0.050935354083776474,0.6685455441474915
1772806403690407200,4.0214072265625,-0.08326586335897446,-0.08648988604545593,0.5178173184394836
1772806403700338200,4.031338134765625,0.037043239921331406,-0.09020179510116577,0.39486902952194214
1772806403710269200,4.041269287109375,0.14693725109100342,-0.05287759751081467,0.3079437017440796
1772806403720201200,4.051201171875,0.23585674166679382,-0.045945387333631516,0.2261468470096588
1772806403730132200,4.06113232421875,0.2968851923942566,-0.05130899325013161,0.11180323362350464
1772806403740064300,4.071064208984375,0.3209353983402252,-0.07924182713031769,-0.03434332460165024
1772806403749995300,4.080995361328125,0.3138551414012909,-0.15703809261322021,-0.1992390751838684
1772806403759927300,4.09092724609375,0.31520986557006836,-0.19802626967430115,-0.3462391793727875
1772806403769858000,4.100858154296875,0.3359583020210266,-0.21117588877677917,-0.4470323622226715
1772806403779790000,4.1107900390625,0.33782410621643066,-0.19919300079345703,-0.5285801887512207
1772806403789721300,4.120721435546875,0.2960875928401947,-0.17499497532844543,-0.5801390409469604
1772806403799653000,4.130653076171875,0.2654481828212738,-0.14108975231647491,-0.6209617853164673
1772806403809584000,4.140584228515625,0.2547111213207245,-0.15715180337429047,-0.6786418557167053
1772806403819516200,4.15051611328125,0.24477539956569672,-0.20628978312015533,-0.7153375744819641
1772806403829447200,4.160447265625,0.26242896914482117,-0.19938261806964874,-0.7412397265434265
1772806403839379200,4.170379150390625,0.2724997103214264,-0.18671156466007233,-0.749947726726532
1772806403849310200,4.180310302734375,0.26688656210899353,-0.19277530908584595,-0.7791503667831421
1772806403859241200,4.1902412109375,0.2087460160255432,-0.22022904455661774,-0.822938084602356
1772806403869173200,4.20017333984375,0.12119194120168686,-0.2624121904373169,-0.8615818619728088
1772806403879104300,4.210104248046875,0.004350007511675358,-0.2846570312976837,-0.851176381111145
1772806403889036300,4.220036376953125,-0.1293819546699524,-0.2662883996963501,-0.7879494428634644
1772806403898967300,4.22996728515625,-0.26411953568458557,-0.2717662751674652,-0.7067334651947021
1772806403908899000,4.239899169921875,-0.36667439341545105,-0.28079676628112793,-0.6248822212219238
1772806403918830000,4.249830078125,-0.429402232170105,-0.29356610774993896,-0.5279911160469055
1772806403928762000,4.25976220703125,-0.4395025372505188,-0.30954694747924805,-0.4043125808238983
1772806403938693400,4.269693359375,-0.4256599545478821,-0.3146311640739441,-0.24254952371120453
1772806403948625200,4.279625244140625,-0.40708494186401367,-0.25167137384414673,-0.09564662724733353
1772806403958556200,4.28955615234375,-0.3543548882007599,-0.0947110652923584,0.0062818643637001514
1772806403968488200,4.29948828125,-0.2630920708179474,0.09594889730215073,0.07574775815010071
1772806403978419000,4.3094189453125,-0.126011461019516,0.3579099476337433,0.11727523058652878
1772806403988351200,4.319351318359375,0.013696370646357536,0.6114034652709961,0.17955617606639862
1772806403998282200,4.3292822265625,0.1170981302857399,0.7598201036453247,0.25501418113708496
1772806404008213200,4.339213134765625,0.16244031488895416,0.6799399256706238,0.3151710033416748
1772806404018146300,4.349146240234375,0.16886252164840698,0.6030962467193604,0.36521366238594055
1772806404028077000,4.3590771484375,0.20577313005924225,0.5486247539520264,0.3771022856235504
1772806404038009000,4.369009033203125,0.24596476554870605,0.5082557797431946,0.38047462701797485
1772806404047940400,4.3789404296875,0.26582980155944824,0.4378516376018524,0.3590806722640991
1772806404057872100,4.3888720703125,0.29552513360977173,0.27253592014312744,0.29914116859436035
1772806404067803100,4.39880322265625,0.31306442618370056,0.03574547916650772,0.22181814908981323
1772806404077735200,4.408735107421875,0.270736426115036,-0.15259140729904175,0.16573597490787506
1772806404087666200,4.418666259765625,0.1868034452199936,-0.24081633985042572,0.13986548781394958
1772806404097597200,4.42859716796875,0.04647162929177284,-0.31482717394828796,0.09026491641998291
1772806404107529200,4.438529296875,-0.14241281151771545,-0.41668856143951416,0.11409248411655426
1772806404117460200,4.448460205078125,-0.31381386518478394,-0.5152375102043152,0.22436866164207458
1772806404127392000,4.45839208984375,-0.4798680543899536,-0.6711387038230896,0.38943350315093994
1772806404137323300,4.4683232421875,-0.5418329238891602,-0.8285243511199951,0.49769127368927
1772806404147255300,4.47825537109375,-0.45581281185150146,-0.7488534450531006,0.4312853515148163
1772806404157186300,4.488186279296875,-0.25819534063339233,-0.5163336396217346,0.2508271634578705
1772806404167118000,4.4981181640625,0.003626959165558219,-0.1302296370267868,0.05343126505613327
1772806404177049000,4.508049072265625,0.26045742630958557,0.005680522415786982,-0.06160770356655121
1772806404186981000,4.517981201171875,0.44007113575935364,-0.07259271293878555,-0.1787436455488205
1772806404196912400,4.527912353515625,0.46642550826072693,0.045349638909101486,-0.38985270261764526
1772806404206844400,4.537844482421875,0.41365575790405273,0.3427845239639282,-0.5757330656051636
1772806404216775200,4.547775146484375,0.33543819189071655,0.3368680477142334,-0.6110934615135193
1772806404226707200,4.557707275390625,0.21342679858207703,0.15929777920246124,-0.5008732080459595
1772806404236638200,4.56763818359375,0.06653748452663422,-0.14020158350467682,-0.34491851925849915
1772806404246570200,4.5775703125,-0.11812637001276016,-0.38682201504707336,-0.28995272517204285
1772806404256501200,4.587501220703125,-0.2931157648563385,-0.4752482771873474,-0.4203355014324188
1772806404266432300,4.597432373046875,-0.3629204034805298,-0.5949286222457886,-0.6115560531616211
1772806404276364300,4.6073642578125,-0.32551419734954834,-0.8006886839866638,-0.7375264763832092
1772806404286295300,4.61729541015625,-0.2307964563369751,-0.9702889323234558,-0.7508071660995483
1772806404296227300,4.627227294921875,-0.1548585593700409,-1.129377841949463,-0.6293523907661438
1772806404306158300,4.637158447265625,-0.12267451733350754,-1.2850847244262695,-0.5112632513046265
1772806404316090400,4.64709033203125,-0.11317609250545502,-1.4512054920196533,-0.5049129724502563
1772806404326021000,4.657021240234375,-0.12602078914642334,-1.5130339860916138,-0.614932656288147
1772806404335953200,4.666953125,-0.12804292142391205,-1.4791678190231323,-0.7473644614219666
1772806404345884400,4.676884521484375,-0.12372513860464096,-1.3909285068511963,-0.805525004863739
1772806404355816400,4.68681640625,-0.10142968595027924,-1.233968734741211,-0.7851446270942688
1772806404365747200,4.696747314453125,-0.03122023679316044,-1.0603277683258057,-0.7200862765312195
1772806404375679200,4.70667919921875,0.10393492132425308,-0.9037961959838867,-0.6334310173988342
1772806404385610200,4.7166103515625,0.20303726196289062,-0.8440194129943848,-0.5518642067909241
1772806404395541200,4.726541259765625,0.24443423748016357,-0.7526940107345581,-0.513392448425293
1772806404405473300,4.736473388671875,0.25304877758026123,-0.6799750328063965,-0.5219454765319824
1772806404415404300,4.746404296875,0.25516146421432495,-0.6738500595092773,-0.558434247970581
1772806404425336300,4.75633642578125,0.24778476357460022,-0.7181256413459778,-0.579739511013031
1772806404435267300,4.766267333984375,0.24727876484394073,-0.7462688684463501,-0.5628615021705627
1772806404445199400,4.776199462890625,0.25097230076789856,-0.7565252184867859,-0.5365869998931885
1772806404455130400,4.78613037109375,0.2561204731464386,-0.7390596866607666,-0.5039531588554382
1772806404465062100,4.796062255859375,0.27529361844062805,-0.7717316150665283,-0.4574865996837616
1772806404474993200,4.8059931640625,0.2714349627494812,-0.8063226342201233,-0.4448224604129791
1772806404484925200,4.81592529296875,0.2658926546573639,-0.8262225389480591,-0.45417600870132446
1772806404494856400,4.8258564453125,0.25764724612236023,-0.8677694797515869,-0.46153193712234497
1772806404504788200,4.835788330078125,0.24346645176410675,-0.8913370966911316,-0.469705194234848
1772806404514719200,4.84571923828125,0.2509339451789856,-0.8602649569511414,-0.4977376163005829
1772806404524651300,4.8556513671875,0.26105797290802,-0.8246986865997314,-0.49814853072166443
1772806404534582000,4.86558203125,0.2842157483100891,-0.8520081043243408,-0.5077207684516907
1772806404544514300,4.875514404296875,0.3029148578643799,-0.9195376038551331,-0.5481472611427307
1772806404554445300,4.8854453125,0.294649213552475,-0.9795204997062683,-0.5972838997840881
1772806404564376300,4.895376220703125,0.26856115460395813,-0.9809151887893677,-0.6063075065612793
1772806404574308000,4.90530810546875,0.19866248965263367,-0.9691376090049744,-0.5767557621002197
1772806404584239400,4.9152392578125,0.1299542635679245,-0.9785628318786621,-0.5428624749183655
1772806404594171400,4.92517138671875,0.09394806623458862,-1.0091854333877563,-0.5032972097396851
1772806404604102400,4.935102294921875,0.0960351824760437,-1.0177946090698242,-0.4669589400291443
1772806404614034200,4.9450341796875,0.12691853940486908,-1.0064927339553833,-0.4504167139530182
1772806404623965200,4.954965087890625,0.17274141311645508,-0.9582532644271851,-0.4254370629787445
1772806404633897200,4.964897216796875,0.22420354187488556,-0.9166456460952759,-0.3764359652996063
1772806404643828200,4.974828125,0.263717919588089,-0.8812288045883179,-0.31151315569877625
1772806404653760300,4.98476025390625,0.2746315598487854,-0.881368100643158,-0.28102394938468933
1772806404663691300,4.994691162109375,0.2670607268810272,-0.8746177554130554,-0.3061005473136902
1772806404673623300,5.004623291015625,0.24971716105937958,-0.818684458732605,-0.3558172285556793
1772806404683554000,5.014553955078125,0.26923811435699463,-0.7602238059043884,-0.3478575646877289
1772806404693485300,5.0244853515625,0.3032751977443695,-0.8409588932991028,-0.38803455233573914
1772806404703417300,5.034417236328125,0.28286391496658325,-0.863131046295166,-0.41535672545433044
1772806404713348000,5.04434814453125,0.24486088752746582,-0.9055469632148743,-0.4342321455478668
1772806404723280100,5.054280029296875,0.2213483601808548,-0.9414242506027222,-0.42465195059776306
1772806404733211400,5.06421142578125,0.2243151217699051,-0.96617192029953,-0.41957277059555054
1772806404743143400,5.074143310546875,0.24204884469509125,-0.9633607268333435,-0.41996505856513977
1772806404753074200,5.08407421875,0.26848551630973816,-0.9403877258300781,-0.4256564974784851
1772806404763006200,5.094006103515625,0.30072522163391113,-0.9475580453872681,-0.4514870345592499
1772806404772937200,5.103937255859375,0.3183894157409668,-0.9932368397712708,-0.5288358926773071
1772806404782869200,5.113869140625,0.3036259412765503,-0.9828038811683655,-0.6187942624092102
1772806404792800300,5.12380029296875,0.2655182182788849,-0.9754804968833923,-0.6752080321311951
1772806404802732300,5.133732177734375,0.24970464408397675,-0.9695205688476562,-0.6622706055641174
1772806404812663300,5.143663330078125,0.29075887799263,-0.9837096333503723,-0.5966495275497437
1772806404822595300,5.15359521484375,0.33510610461235046,-0.985828697681427,-0.5318713784217834
1772806404832526000,5.163526123046875,0.3631076216697693,-0.9533224701881409,-0.4274756908416748
1772806404842457300,5.173457275390625,0.3424127399921417,-0.9969943165779114,-0.2674980163574219
1772806404852389400,5.183389404296875,0.28369057178497314,-1.1074038743972778,-0.07595175504684448
1772806404862320000,5.193320068359375,0.23184175789356232,-1.1831620931625366,0.1109321117401123
1772806404872252200,5.203252197265625,0.18313546478748322,-1.2184624671936035,0.2513531446456909
1772806404882183400,5.213183349609375,0.1332818865776062,-1.260428547859192,0.3462972342967987
1772806404892115500,5.223115478515625,0.0707245022058487,-1.2901235818862915,0.3915632367134094
1772806404902046200,5.233046142578125,-0.006237922236323357,-1.266526460647583,0.4269462525844574
1772806404911978200,5.242978271484375,-0.08134731650352478,-1.1660200357437134,0.5299277901649475
1772806404921909200,5.2529091796875,-0.14744964241981506,-1.0383046865463257,0.7002686262130737
1772806404931841300,5.26284130859375,-0.20408868789672852,-0.9624797105789185,0.9830262660980225
1772806404941772300,5.272772216796875,-0.2503166198730469,-0.9925974011421204,1.3710511922836304
1772806404951704300,5.282704345703125,-0.25961264967918396,-1.1444886922836304,1.8101228475570679
1772806404961635300,5.29263525390625,-0.2233758270740509,-1.2221815586090088,2.1789660453796387
1772806404971567000,5.302567138671875,-0.16563370823860168,-1.0537742376327515,2.3543944358825684
1772806404981498400,5.312498291015625,-0.1416170448064804,-0.711984395980835,2.4156315326690674
1772806404991430400,5.322430419921875,-0.1576324999332428,-0.23904506862163544,2.1135666370391846
1772806405001361400,5.332361328125,-0.14949281513690948,-0.5203230977058411,1.7924405336380005
1772806405011292200,5.342292236328125,-0.12435977160930634,-0.9661285281181335,1.6642277240753174
1772806405021224200,5.35222412109375,-0.08026980608701706,-1.015954613685608,1.660967469215393
1772806405031155500,5.362155517578125,-0.036917272955179214,-0.8667241930961609,1.741970181465149
1772806405041087200,5.372087158203125,0.038724225014448166,-0.7214370369911194,1.7920823097229004
1772806405051018200,5.382018310546875,0.09284525364637375,-0.6006080508232117,1.7844129800796509
1772806405060950300,5.3919501953125,0.11877299100160599,-0.49768781661987305,1.6981511116027832
1772806405070881300,5.40188134765625,0.15419036149978638,-0.3911621570587158,1.5216271877288818
1772806405080813000,5.41181298828125,0.15129631757736206,-0.2909362316131592,1.2666009664535522
1772806405090744300,5.421744384765625,0.17374968528747559,-0.14066444337368011,1.0699028968811035
1772806405100676400,5.43167626953125,0.19012999534606934,-0.08599453419446945,0.915879487991333
1772806405110607000,5.441607177734375,0.1972789764404297,-0.02028210274875164,0.7652750611305237
1772806405120539100,5.4515390625,0.16784359514713287,0.03322000429034233,0.626952052116394
1772806405130470400,5.461470458984375,0.1245400607585907,-0.024227840825915337,0.5568174719810486
1772806405140401400,5.4714013671875,0.08064131438732147,-0.18430966138839722,0.560461163520813
1772806405150333200,5.481333251953125,0.07493709027767181,-0.3438551127910614,0.6015239357948303
1772806405160264200,5.49126416015625,0.10916483402252197,-0.45661041140556335,0.6389959454536438
1772806405170196200,5.5011962890625,0.15028804540634155,-0.5190293192863464,0.657285213470459
1772806405180127200,5.511127197265625,0.15525244176387787,-0.5929272174835205,0.6284767389297485
1772806405190059300,5.521059326171875,0.16288664937019348,-0.6402412056922913,0.5603210926055908
1772806405199990500,5.530990478515625,0.18837976455688477,-0.6505072116851807,0.47963663935661316
1772806405209922600,5.540922607421875,0.20985762774944305,-0.6152967214584351,0.3877061903476715
1772806405219853600,5.550853515625,0.22122879326343536,-0.5436047315597534,0.2965608239173889
1772806405229785600,5.56078564453125,0.22790533304214478,-0.4766658842563629,0.2353358268737793
1772806405239716600,5.570716552734375,0.22419661283493042,-0.4244591295719147,0.1685677021741867
1772806405249648600,5.580648681640625,0.2228011190891266,-0.37059056758880615,0.0977204367518425
1772806405259579600,5.59057958984375,0.21862448751926422,-0.3131169080734253,0.02141767367720604
1772806405269511700,5.60051171875,0.227610781788826,-0.2687526345252991,-0.04689027741551399
1772806405279442400,5.6104423828125,0.25293371081352234,-0.22523072361946106,-0.10741753876209259
1772806405289374500,5.62037451171875,0.28233101963996887,-0.17034457623958588,-0.1666875183582306
1772806405299305700,5.6303056640625,0.30199500918388367,-0.13595250248908997,-0.20257814228534698
1772806405309236500,5.640236572265625,0.2981363534927368,-0.1354672759771347,-0.22385306656360626
1772806405319168500,5.65016845703125,0.27332180738449097,-0.16209650039672852,-0.2520522177219391
1772806405329099800,5.660099853515625,0.24179264903068542,-0.21805642545223236,-0.28846216201782227
1772806405339031800,5.67003173828125,0.20351850986480713,-0.265850305557251,-0.3166879415512085
1772806405348962600,5.679962646484375,0.16456817090511322,-0.30908992886543274,-0.34090858697891235
1772806405358894600,5.68989453125,0.1346542239189148,-0.3481433391571045,-0.36554229259490967
1772806405368825600,5.69982568359375,0.10303796827793121,-0.3559458553791046,-0.37713131308555603
1772806405378757600,5.709757568359375,0.08067727088928223,-0.3246486485004425,-0.37464550137519836
1772806405388688600,5.719688720703125,0.07126645743846893,-0.2820122539997101,-0.37758857011795044
1772806405398620700,5.72962060546875,0.08070895820856094,-0.24087120592594147,-0.38354259729385376
1772806405408551700,5.7395517578125,0.09743760526180267,-0.2114427387714386,-0.4071057140827179
1772806405418483700,5.749483642578125,0.11987154185771942,-0.18452270328998566,-0.4288823902606964
1772806405428414500,5.75941455078125,0.15152667462825775,-0.1526571810245514,-0.4290919601917267
1772806405438345700,5.769345703125,0.18600928783416748,-0.06521894782781601,-0.4191879332065582
1772806405448277800,5.77927783203125,0.19847926497459412,0.01519067119807005,-0.4256061613559723
1772806405458208500,5.78920849609375,0.19021467864513397,0.03191452473402023,-0.4317293167114258
1772806405468140500,5.799140625,0.18053968250751495,0.03356514871120453,-0.42273953557014465
1772806405478071800,5.80907177734375,0.18668200075626373,0.042519763112068176,-0.4032214879989624
1772806405488003800,5.81900390625,0.18729932606220245,0.051290884613990784,-0.3931629955768585
1772806405497934600,5.8289345703125,0.1748964488506317,0.08150338381528854,-0.3708276152610779
1772806405507866600,5.83886669921875,0.15345267951488495,0.14857615530490875,-0.33159124851226807
1772806405517797600,5.848797607421875,0.1471087634563446,0.21555732190608978,-0.3148743212223053
1772806405527729400,5.8587294921875,0.13697409629821777,0.2637466788291931,-0.316275954246521
1772806405537660700,5.86866064453125,0.13187281787395477,0.28918972611427307,-0.31377124786376953
1772806405547592700,5.8785927734375,0.10519752651453018,0.286240816116333,-0.29435014724731445
1772806405557523700,5.888523681640625,0.06498832255601883,0.25863954424858093,-0.23897770047187805
1772806405567455500,5.89845556640625,0.0260465145111084,0.223967045545578,-0.1762717068195343
1772806405577386500,5.908386474609375,-0.005691175349056721,0.22971521317958832,-0.13579724729061127
1772806405587317800,5.91831787109375,-0.022129271179437637,0.2789381444454193,-0.11911147832870483
1772806405597249800,5.928249755859375,-0.0335017666220665,0.3540286421775818,-0.11335798352956772
1772806405607180500,5.9381806640625,-0.03543362393975258,0.4047815799713135,-0.11889229714870453
1772806405617112600,5.948112548828125,-0.013220730237662792,0.41006022691726685,-0.13045388460159302
1772806405627043800,5.9580439453125,0.01901603490114212,0.4133950471878052,-0.16629444062709808
1772806405636975600,5.9679755859375,0.07372482120990753,0.4090538024902344,-0.2081950157880783
1772806405646906600,5.97790673828125,0.0965193510055542,0.36890745162963867,-0.26421913504600525
1772806405656838700,5.987838623046875,0.05434606224298477,0.2590917646884918,-0.3134745657444
1772806405666769700,5.997769775390625,0.020911673083901405,0.09641601890325546,-0.36115553975105286
1772806405676701400,6.007701416015625,0.004757470916956663,0.043540552258491516,-0.3914950489997864
1772806405686632700,6.0176328125,-0.031321436166763306,0.11270391196012497,-0.30672505497932434
1772806405696564700,6.027564697265625,-0.09619497507810593,0.1296227127313614,-0.06422718614339828
1772806405706495500,6.03749560546875,-0.10680607706308365,0.12105052173137665,0.12880538403987885
1772806405716427500,6.047427490234375,0.019300194457173347,0.22726324200630188,0.1284109652042389
1772806405726358500,6.057358642578125,0.1360771507024765,0.5437306761741638,0.02340013161301613
1772806405736290800,6.067290771484375,0.08872267603874207,0.745904266834259,-0.0022857910953462124
1772806405746221600,6.0772216796875,-0.09169343113899231,0.5817171931266785,0.045460693538188934
1772806405756152600,6.087152587890625,-0.2665451467037201,0.21373039484024048,-0.012750416062772274
1772806405766084600,6.097084716796875,-0.38727954030036926,0.03984488546848297,-0.1923113912343979
1772806405776015600,6.107015625,-0.4313575327396393,0.07123423367738724,-0.3796605169773102
1772806405785947600,6.11694775390625,-0.3912109136581421,0.020617926493287086,-0.46259719133377075
1772806405795878700,6.126878662109375,-0.37752464413642883,-0.05586513131856918,-0.5219473242759705
1772806405805810700,6.136810791015625,-0.04879363998770714,-0.008440889418125153,-0.6267682909965515
1772806405815741400,6.146741455078125,0.11161468178033829,-0.054735150188207626,-0.7592488527297974
1772806405825673500,6.156673583984375,0.15979818999767303,-0.19374310970306396,-0.8372456431388855
1772806405835604700,6.166604736328125,0.08388504385948181,-0.16153323650360107,-0.9122133851051331
1772806405845536800,6.176536865234375,-0.10245020687580109,-0.08479265123605728,-0.9711616039276123
1772806405855467500,6.186467529296875,-0.2952992916107178,-0.04840082302689552,-0.979915201663971
1772806405865399600,6.196399658203125,-0.1285901963710785,-0.19324056804180145,-0.8476921319961548
1772806405875330600,6.20633056640625,0.024835042655467987,-0.43663883209228516,-0.678881824016571
1772806405885261600,6.216261474609375,0.06448285281658173,-0.5540501475334167,-0.5328170657157898
1772806405895193600,6.226193603515625,0.04007178544998169,-0.5906787514686584,-0.4631090760231018
1772806405905124600,6.23612451171875,-0.08028152585029602,-0.6409381628036499,-0.500523567199707
1772806405915056600,6.246056640625,-0.2326129972934723,-0.6665111780166626,-0.6078391075134277
1772806405924987600,6.255987548828125,-0.336859792470932,-0.6925832629203796,-0.7257468104362488
1772806405934919700,6.265919677734375,-0.3691064119338989,-0.6593244075775146,-0.8247594237327576
1772806405944850700,6.2758505859375,-0.34073522686958313,-0.5727655291557312,-0.8890771269798279
1772806405954782700,6.28578271484375,-0.24097506701946259,-0.46082380414009094,-0.9214827418327332
1772806405964713500,6.29571337890625,-0.10692485421895981,-0.30742520093917847,-0.9197660684585571
1772806405974645500,6.3056455078125,0.018267687410116196,-0.19444671273231506,-0.8965036273002625
1772806405984576800,6.31557666015625,0.1029338389635086,-0.12564021348953247,-0.8452495336532593
1772806405994508800,6.3255087890625,0.12266040593385696,-0.11343681067228317,-0.7734541296958923
1772806406004439600,6.335439453125,0.11887285858392715,-0.13598740100860596,-0.715639591217041
1772806406014371600,6.34537158203125,0.10410456359386444,-0.2241249829530716,-0.6799700260162354
1772806406024302800,6.355302734375,0.08896875381469727,-0.29100093245506287,-0.6699514389038086
1772806406034233600,6.365233642578125,0.09981154650449753,-0.3468881845474243,-0.6630458831787109
1772806406044165600,6.37516552734375,0.12186118960380554,-0.3858020305633545,-0.637852668762207
1772806406054096600,6.3850966796875,0.12906956672668457,-0.36267539858818054,-0.5788646936416626
1772806406064028700,6.395028564453125,0.12414378672838211,-0.3392784595489502,-0.5170795917510986
1772806406073959700,6.404959716796875,0.09989117830991745,-0.3456977605819702,-0.46466222405433655
1772806406083891700,6.4148916015625,0.06741126626729965,-0.37162867188453674,-0.4340324103832245
1772806406093822700,6.42482275390625,0.05976879224181175,-0.405826598405838,-0.45576539635658264
1772806406103754500,6.43475439453125,0.05570746958255768,-0.4268892705440521,-0.5025827288627625
1772806406113685500,6.444685546875,0.0605834536254406,-0.4341815412044525,-0.548791766166687
1772806406123617500,6.454617431640625,0.07424786686897278,-0.41785502433776855,-0.571372389793396
1772806406133548800,6.464548828125,0.10096682608127594,-0.4155673682689667,-0.5842788815498352
1772806406143480600,6.47448046875,0.12771588563919067,-0.40567585825920105,-0.578826367855072
1772806406153411600,6.48441162109375,0.14764058589935303,-0.45936810970306396,-0.5789176821708679
1772806406163343600,6.494343505859375,0.16437137126922607,-0.5052953958511353,-0.5742843151092529
1772806406173274600,6.504274658203125,0.18281002342700958,-0.5323153138160706,-0.5689675807952881
1772806406183206700,6.51420654296875,0.19669336080551147,-0.5365651845932007,-0.5571692585945129
1772806406193137700,6.5241376953125,0.2087196558713913,-0.5492029190063477,-0.5466225743293762
1772806406203068700,6.534068603515625,0.23852042853832245,-0.5575886964797974,-0.5348730087280273
1772806406213000700,6.544000732421875,0.2670769691467285,-0.5440409183502197,-0.5048924684524536
1772806406222932000,6.553931884765625,0.2915029525756836,-0.5388872027397156,-0.4690963923931122
1772806406232863700,6.56386376953125,0.3054587244987488,-0.5265581011772156,-0.43161797523498535
1772806406242794800,6.573794677734375,0.3077479600906372,-0.5305360555648804,-0.4031067192554474
1772806406252726800,6.583726806640625,0.3036386966705322,-0.5096749663352966,-0.3612031936645508
1772806406262657500,6.593657470703125,0.2817339599132538,-0.5080919861793518,-0.32311466336250305
1772806406272589600,6.603589599609375,0.23919713497161865,-0.5288134813308716,-0.2899324893951416
1772806406282520800,6.613520751953125,0.18941013514995575,-0.5578083992004395,-0.2701971232891083
1772806406292452900,6.623452880859375,0.15194159746170044,-0.5693745017051697,-0.256952702999115
1772806406302383600,6.633383544921875,0.1289750337600708,-0.5643454194068909,-0.241301029920578
1772806406312315600,6.643315673828125,0.10484065860509872,-0.5485086441040039,-0.25277578830718994
1772806406322247000,6.653246826171875,0.09682987630367279,-0.5349432826042175,-0.2983139753341675
1772806406332179000,6.663178955078125,0.1123446524143219,-0.5287807583808899,-0.33171749114990234
1772806406342109700,6.673109619140625,0.1415747106075287,-0.5583274364471436,-0.3297925591468811
1772806406352040700,6.683040771484375,0.15855927765369415,-0.6158773303031921,-0.2930888533592224
1772806406361972700,6.69297265625,0.17322823405265808,-0.6519750952720642,-0.24358202517032623
1772806406371903700,6.70290380859375,0.16636021435260773,-0.6828898787498474,-0.1706516295671463
1772806406381835800,6.712835693359375,0.12849299609661102,-0.7388316988945007,-0.05980714038014412
1772806406391766800,6.722766845703125,0.12339942902326584,-0.7282304763793945,0.11492712050676346
1772806406401698800,6.73269873046875,0.13332290947437286,-0.6969087719917297,0.3432641625404358
1772806406411629600,6.742629638671875,0.13241583108901978,-0.7378756403923035,0.5275996327400208
1772806406421561600,6.7525615234375,0.1778528243303299,-0.8554478287696838,0.6272050738334656
1772806406431492900,6.762492919921875,0.2186601758003235,-0.8552707433700562,0.6147880554199219
1772806406441425000,6.7724248046875,0.24715758860111237,-0.634275496006012,0.5717878937721252
1772806406451355600,6.782355712890625,0.22143065929412842,-0.3335718512535095,0.5852416157722473
1772806406461287700,6.79228759765625,0.13422678411006927,-0.22284719347953796,0.691439151763916
1772806406471219000,6.802218994140625,-0.004057858604937792,-0.25568103790283203,0.8630644679069519
1772806406481151000,6.81215087890625,-0.16521479189395905,-0.4019612967967987,1.107743740081787
1772806406491081700,6.822081787109375,-0.34712812304496765,-0.5965858697891235,1.322202205657959
1772806406501012700,6.8320126953125,-0.43557918071746826,-0.8359108567237854,1.4536784887313843
1772806406510944800,6.84194482421875,-0.45410943031311035,-1.0707907676696777,1.5501997470855713
1772806406520875800,6.851875732421875,-0.4495706260204315,-1.160586953163147,1.5959086418151855
1772806406530807800,6.861807861328125,-0.4433257579803467,-1.095152497291565,1.6108119487762451
1772806406540738800,6.87173876953125,-0.4557217061519623,-1.0202999114990234,1.6001414060592651
1772806406550670800,6.8816708984375,-0.45249423384666443,-0.889061450958252,1.5633552074432373
1772806406560601600,6.8916015625,-0.4437337815761566,-0.6811109185218811,1.5050582885742188
1772806406570533600,6.90153369140625,-0.41557803750038147,-0.45440852642059326,1.430983543395996
1772806406580465000,6.91146484375,-0.38586780428886414,-0.19970911741256714,1.3307455778121948
1772806406590396700,6.921396728515625,-0.3388688564300537,-0.0054821171797811985,1.19354248046875
1772806406600327700,6.93132763671875,-0.2683771252632141,0.17527887225151062,1.038122534751892
1772806406610259700,6.941259765625,-0.17213767766952515,0.2943277657032013,0.8611147403717041
1772806406620191000,6.95119091796875,-0.04207661375403404,0.3911730945110321,0.7100898027420044
1772806406630122800,6.961122802734375,0.06296432018280029,0.4402759075164795,0.5765323042869568
1772806406640053800,6.9710537109375,0.1068127304315567,0.30155956745147705,0.5088688135147095
1772806406649984800,6.98098486328125,0.0651414543390274,0.09453529119491577,0.49176815152168274
1772806406659916500,6.99091650390625,-0.01441329438239336,-0.08570318669080734,0.5129958987236023
1772806406669847800,7.000847900390625,-0.08695673942565918,-0.25693458318710327,0.5498886704444885
1772806406679779800,7.01077978515625,-0.12095944583415985,-0.403288871049881,0.5833685994148254
1772806406689710800,7.0207109375,-0.12001828104257584,-0.48328304290771484,0.5944883823394775
1772806406699642600,7.030642578125,-0.08152708411216736,-0.45480427145957947,0.5831145644187927
1772806406709573600,7.04057373046875,-0.06549325585365295,-0.31328094005584717,0.5446034073829651
1772806406719505700,7.050505615234375,-0.018639197573065758,-0.1190267875790596,0.5053539872169495
1772806406729436700,7.060436767578125,0.04484257102012634,0.011094196699559689,0.44211697578430176
1772806406739368700,7.07036865234375,0.056476324796676636,0.1186254471540451,0.39585545659065247
1772806406749299700,7.0802998046875,0.036074113100767136,0.2044663280248642,0.3427163362503052
1772806406759231700,7.090231689453125,0.02906494028866291,0.30001121759414673,0.2492779940366745
1772806406769162800,7.100162841796875,0.018254371359944344,0.38003042340278625,0.11928697675466537
1772806406779094800,7.1100947265625,0.042268361896276474,0.4323152005672455,0.006256830412894487
1772806406789025800,7.12002587890625,0.06697690486907959,0.421662300825119,-0.10006481409072876
1772806406798956800,7.129956787109375,0.08933227509260178,0.40881332755088806,-0.1876782923936844
1772806406808888600,7.139888671875,0.10427553951740265,0.372769832611084,-0.2530445158481598
1772806406818819800,7.14981982421875,0.09488896280527115,0.3247937858104706,-0.2795008718967438
1772806406828752000,7.159751953125,0.060936588793992996,0.26939526200294495,-0.2788952887058258
1772806406838682600,7.1696826171875,0.048769671469926834,0.21085125207901,-0.2909412980079651
1772806406848614700,7.17961474609375,0.053410228341817856,0.19147835671901703,-0.32838931679725647
1772806406858545700,7.189545654296875,0.06509298086166382,0.21016602218151093,-0.3698646128177643
1772806406868477700,7.199477783203125,0.06835375726222992,0.21551364660263062,-0.3835678994655609
1772806406878408700,7.20940869140625,0.06990718096494675,0.1932075470685959,-0.3780895173549652
1772806406888340700,7.2193408203125,0.057785533368587494,0.14918069541454315,-0.38235270977020264
1772806406898271700,7.229271728515625,0.04102279990911484,0.11825153976678848,-0.40337222814559937
1772806406908203800,7.239203857421875,0.02871020883321762,0.11287994682788849,-0.4362465441226959
1772806406918134800,7.249134765625,0.021855497732758522,0.12318078428506851,-0.48205265402793884
1772806406928066800,7.25906689453125,0.012919261120259762,0.1570522040128708,-0.5143690705299377
1772806406937997800,7.268997802734375,0.01330089196562767,0.20695877075195312,-0.5384293794631958
1772806406947928600,7.278928466796875,0.009645703248679638,0.2360016107559204,-0.5652865767478943
1772806406957860600,7.288860595703125,0.0000476705827168189,0.25756576657295227,-0.5966351628303528
1772806406967791900,7.2987919921875,-0.018854115158319473,0.28960543870925903,-0.612755537033081
1772806406977724000,7.308723876953125,-0.04589984565973282,0.2962052822113037,-0.6210289001464844
1772806406987654700,7.318654541015625,-0.07116924971342087,0.29994091391563416,-0.6182382106781006
1772806406997586700,7.328586669921875,-0.10497727990150452,0.3120013177394867,-0.572179913520813
1772806407007517700,7.338517578125,-0.1522499918937683,0.32980772852897644,-0.4703291654586792
1772806407017449700,7.34844970703125,-0.2182772159576416,0.29944849014282227,-0.34431663155555725
1772806407027380700,7.358380615234375,-0.2861268222332001,0.21830064058303833,-0.21515785157680511
1772806407037312800,7.368312744140625,-0.3401831388473511,0.11753195524215698,-0.10762979090213776
1772806407047243800,7.378243896484375,-0.3816445767879486,0.09241754561662674,-0.025318140164017677
1772806407057175600,7.388175537109375,-0.41366615891456604,0.16917410492897034,0.01107608713209629
1772806407067106800,7.39810693359375,-0.4260197579860687,0.2576267421245575,0.026077672839164734
1772806407077037800,7.408037841796875,-0.42755985260009766,0.3091919422149658,0.051290351897478104
1772806407086969900,7.417969970703125,-0.4141409993171692,0.34934282302856445,0.09198957681655884
1772806407096900600,7.427900634765625,-0.38795599341392517,0.39642831683158875,0.13912460207939148
1772806407106832600,7.43783251953125,-0.34587618708610535,0.3980365991592407,0.18880826234817505
1772806407116764000,7.447763916015625,-0.3062936067581177,0.396148145198822,0.19808059930801392
1772806407126696000,7.457696044921875,-0.2704322934150696,0.41042959690093994,0.17408950626850128
1772806407136626700,7.467626708984375,-0.22389355301856995,0.4642574191093445,0.12543728947639465
1772806407146558700,7.477558837890625,-0.1941191405057907,0.5000231266021729,0.09071259200572968
1772806407156489700,7.48748974609375,-0.1839943379163742,0.48322683572769165,0.06326126307249069
1772806407166421800,7.497421875,-0.17724162340164185,0.46436607837677,0.032335035502910614
1772806407176352800,7.507352783203125,-0.14827735722064972,0.4419712722301483,0.018433069810271263
1772806407186284800,7.517284912109375,-0.09699525684118271,0.42441120743751526,0.012034825049340725
1772806407196215600,7.527215576171875,-0.06580724567174911,0.43793952465057373,-0.022593725472688675
1772806407206147300,7.537147216796875,-0.06139358505606651,0.44113612174987793,-0.009221727959811687
1772806407216078600,7.54707861328125,-0.0751299038529396,0.37369102239608765,0.09503223747015
1772806407226009600,7.557009521484375,-0.058277953416109085,0.35602015256881714,0.21303583681583405
1772806407235941600,7.566941650390625,0.021922342479228973,0.4565819203853607,0.2726307213306427
1772806407245872400,7.576872314453125,0.08650453388690948,0.5873050689697266,0.24188825488090515
1772806407255804400,7.586804443359375,0.06474863737821579,0.6665511131286621,0.17113952338695526
1772806407265735700,7.596735595703125,-0.04211975634098053,0.583234429359436,0.09576008468866348
1772806407275667500,7.60666748046875,-0.183564230799675,0.3962685167789459,-0.02093244530260563
1772806407285598500,7.616598388671875,-0.28961318731307983,0.25314411520957947,-0.19381821155548096
1772806407295530500,7.626530517578125,-0.32549554109573364,0.21995952725410461,-0.3483675718307495
1772806407305461800,7.636461669921875,-0.20427776873111725,0.3304056227207184,-0.4046960771083832
1772806407315393500,7.6463935546875,-0.05734451487660408,0.3666735887527466,-0.4362092614173889
1772806407325324500,7.656324462890625,0.06737611442804337,0.35940665006637573,-0.46249333024024963
1772806407335256600,7.666256591796875,0.11450926959514618,0.28723496198654175,-0.5041715502738953
1772806407345187600,7.6761875,0.1345788538455963,0.19518440961837769,-0.5339800119400024
1772806407355119400,7.686119384765625,0.12311234325170517,0.06723017245531082,-0.5592635869979858
1772806407365050600,7.696050537109375,0.07162705063819885,-0.02977866865694523,-0.5826277136802673
1772806407374982700,7.705982666015625,0.06633295118808746,-0.07899308204650879,-0.5820820331573486
1772806407384913400,7.715913330078125,0.07264597713947296,-0.10516077280044556,-0.6046896576881409
1772806407394844400,7.725844482421875,0.1423313170671463,-0.17658887803554535,-0.5999204516410828
1772806407404776400,7.7357763671875,0.2020050287246704,-0.344818115234375,-0.5626358985900879
1772806407414707700,7.745707763671875,0.1997666358947754,-0.465377539396286,-0.5385153889656067
1772806407424639500,7.755639404296875,0.0663800910115242,-0.5109924077987671,-0.5498713850975037
1772806407434570500,7.765570556640625,-0.09824135154485703,-0.4678651988506317,-0.5873540639877319
1772806407444502500,7.77550244140625,-0.1686478704214096,-0.46417567133903503,-0.6062291860580444
1772806407454433500,7.78543359375,-0.14921025931835175,-0.5045505166053772,-0.6190139651298523
1772806407464365600,7.795365478515625,-0.08823159337043762,-0.5559881329536438,-0.6345138549804688
1772806407474296600,7.805296630859375,-0.04908525571227074,-0.5845393538475037,-0.6486144661903381
1772806407484228600,7.815228515625,-0.04428277537226677,-0.5574278235435486,-0.6649564504623413
1772806407494159400,7.825159423828125,-0.052250687032938004,-0.4641066789627075,-0.6834275722503662
1772806407504091400,7.83509130859375,-0.05825718119740486,-0.38053029775619507,-0.6713836789131165
1772806407514022700,7.845022705078125,-0.05116704851388931,-0.33937060832977295,-0.646681010723114
1772806407523954700,7.85495458984375,-0.017076987773180008,-0.322522908449173,-0.6139222979545593
1772806407533885400,7.864885498046875,0.015320632606744766,-0.3353995680809021,-0.5891287922859192
1772806407543816400,7.87481640625,0.03298458084464073,-0.33382776379585266,-0.5764119029045105
1772806407553748500,7.88474853515625,0.04722343757748604,-0.3109898269176483,-0.5580427646636963
1772806407563679500,7.894679443359375,0.06597129255533218,-0.27245017886161804,-0.5290449261665344
1772806407573611500,7.904611572265625,0.08261817693710327,-0.24849796295166016,-0.4855014681816101
1772806407583542500,7.91454248046875,0.09196614474058151,-0.25429567694664,-0.43337753415107727
1772806407593474600,7.924474609375,0.0860147774219513,-0.2825339734554291,-0.3918854892253876
1772806407603405600,7.934405517578125,0.058285944163799286,-0.3054768145084381,-0.3795603811740875
1772806407613337600,7.944337646484375,0.03163302689790726,-0.3124612271785736,-0.37146463990211487
1772806407623268600,7.9542685546875,0.02328401803970337,-0.3190232515335083,-0.3515947759151459
1772806407633200600,7.96420068359375,0.00848403200507164,-0.3522112965583801,-0.3226150572299957
1772806407643130600,7.974130615234375,-0.007389206904917955,-0.38148531317710876,-0.2954292595386505
1772806407653062700,7.984062744140625,-0.01967703178524971,-0.4100937843322754,-0.27031323313713074
1772806407662993400,7.993993408203125,-0.029886793345212936,-0.43767908215522766,-0.24852192401885986
1772806407672925400,8.003925537109374,-0.04550596699118614,-0.4790302515029907,-0.22527919709682465
1772806407682856400,8.0138564453125,-0.06712577491998672,-0.5009669661521912,-0.2010849118232727
1772806407692788500,8.02378857421875,-0.09000525623559952,-0.49293753504753113,-0.1899542212486267
1772806407702719500,8.033719482421875,-0.09911327064037323,-0.49851420521736145,-0.19422300159931183
1772806407712651500,8.043651611328125,-0.10267524421215057,-0.5094882845878601,-0.20771165192127228
1772806407722582500,8.05358251953125,-0.10325581580400467,-0.526454508304596,-0.22125887870788574
1772806407732513500,8.063513427734375,-0.09221647679805756,-0.549025297164917,-0.23094213008880615
1772806407742445600,8.073445556640625,-0.06516089290380478,-0.5493685603141785,-0.23483487963676453
1772806407752376600,8.08337646484375,-0.04898059368133545,-0.5266097187995911,-0.24395647644996643
1772806407762308600,8.09330859375,-0.04784928262233734,-0.4910930395126343,-0.2448747307062149
1772806407772239400,8.1032392578125,-0.05453221872448921,-0.47981560230255127,-0.24333356320858002
1772806407782171400,8.11317138671875,-0.05602838099002838,-0.47029373049736023,-0.22119496762752533
1772806407792102700,8.1231025390625,-0.07684950530529022,-0.4826396107673645,-0.16690349578857422
1772806407802034700,8.13303466796875,-0.09422104060649872,-0.5107431411743164,-0.1189841777086258
1772806407811965400,8.14296533203125,-0.09502477943897247,-0.5124792456626892,-0.08583874255418777
1772806407821897500,8.1528974609375,-0.08260086923837662,-0.4501565098762512,-0.043186087161302567
1772806407831828500,8.162828369140625,-0.081806980073452,-0.44289514422416687,0.005681854207068682
1772806407841760500,8.172760498046875,-0.0636809766292572,-0.41503581404685974,0.030000776052474976
1772806407851691500,8.18269140625,-0.043426837772130966,-0.3983322083950043,0.04013916477560997
1772806407861622500,8.19262255859375,-0.03350389748811722,-0.38131192326545715,0.05372501537203789
1772806407871554600,8.202554443359375,-0.03692685812711716,-0.3735341727733612,0.06089823693037033
1772806407881485600,8.212485595703125,-0.046475887298583984,-0.35422199964523315,0.04340366646647453
1772806407891417600,8.22241748046875,-0.05005331337451935,-0.3413322865962982,-0.004295146092772484
1772806407901348600,8.2323486328125,-0.055144745856523514,-0.31230971217155457,-0.0801805928349495
1772806407911280600,8.24228076171875,-0.05061843618750572,-0.28326764702796936,-0.1563539206981659
1772806407921211400,8.25221142578125,-0.047017041593790054,-0.27642467617988586,-0.22258087992668152
1772806407931143400,8.262143310546875,-0.03735243156552315,-0.27909740805625916,-0.28258776664733887
1772806407941074700,8.27207470703125,-0.028008731082081795,-0.26410436630249023,-0.32646891474723816
1772806407951006700,8.2820068359375,-0.03316620737314224,-0.18546706438064575,-0.29256102442741394
1772806407960937500,8.2919375,-0.06791220605373383,-0.1691432148218155,-0.15876488387584686
1772806407970869500,8.301869384765626,-0.07184383273124695,-0.18428222835063934,-0.005082643125206232
