time,seconds_elapsed,z,y,x
1772876977893528000,0.073528076171875,0.22357260854244232,-0.18051497258245944,0.033095410198345776
1772876977903460900,0.0834609375,0.31152211015224457,-0.23069968394339083,0.112160544411093
1772876977913394000,0.093393798828125,0.4106394869863987,-0.18894202466607093,0.1395665838614106
1772876977923325700,0.10332568359375,0.5936059443742037,-0.21187369518131016,0.0858214035399258
1772876977933258800,0.1132587890625,0.7006769105613231,-0.24697598822265862,0.07674787024632096
1772876977943191800,0.12319189453125,0.640689182588458,-0.21126725372076033,0.18822445098124443
1772876977953124900,0.133124755859375,0.6030167467981576,-0.27966479038149117,0.17322123537771403
1772876977963057000,0.143056884765625,0.48727264481186866,-0.37361528597176075,0.32207587206624444
1772876977972989700,0.15298974609375,0.5208282929331064,-0.32778380138427016,0.5230165967576206
1772876977982922800,0.1629228515625,0.6454068587601185,-0.316045725056529,0.48615956900343293
1772876977992854800,0.172854736328125,0.654568654859066,-0.2892649778977036,0.4632533251903951
1772876978002787800,0.182787841796875,0.6219289525389671,-0.20859949581623077,0.4367940650708973
1772876978012721000,0.192720947265625,0.7803168489873409,0.10809300271123647,0.5196070075098425
1772876978022653700,0.20265380859375,0.6588374182194471,0.28918197578936816,0.5130666459556669
1772876978032586000,0.2125859375,0.3586503565520048,-0.7180573766902089,0.3625325317475945
1772876978042518800,0.222518798828125,0.4279460110962391,-0.8799778311789035,0.2596189775008708
1772876978052451800,0.232451904296875,0.6483259610772133,-0.17990677755624054,0.4436748740931973
1772876978062385000,0.242385009765625,0.4420803349107504,-0.34543460888713595,0.6102076081503183
1772876978072317000,0.25231689453125,0.03250993846058845,-0.3548462880939245,0.7943647366274148
1772876978082250000,0.26225,-0.037329321441054344,-0.3238338947147131,1.0505857422530651
1772876978092182800,0.272182861328125,0.08248889811635017,-0.329555779492855,1.3612562040120362
1772876978102114800,0.28211474609375,0.25562194375395775,-0.5832660444065928,1.3402080091558397
1772876978112047900,0.2920478515625,0.42187692031562324,-0.7337666947364807,1.2720846132613717
1772876978121981000,0.30198095703125,0.755609108710289,-0.678808193102479,1.086819742738083
1772876978131914000,0.3119140625,1.2719330759614704,-0.7821545858085155,0.7333392631046474
1772876978141846000,0.321845947265625,1.7647633549004793,-0.9850751592054963,0.8537675773844122
1772876978151778800,0.33177880859375,2.274108130788803,-1.1861825457006692,0.9769265587370842
1772876978161711900,0.3417119140625,2.9383050302147864,-0.8431079439431428,1.1304071747258304
1772876978171644000,0.351643798828125,4.115826715075969,-0.7220829789444804,0.9316601606864482
1772876978181577000,0.361576904296875,4.873496847969293,-2.103047799772024,1.070567623052001
1772876978191510000,0.371510009765625,5.644665929383039,-1.7423159607708454,2.1521546527683735
1772876978201443000,0.381443115234375,7.03754476762712,-1.155847028669715,2.547171038687229
1772876978211374800,0.391374755859375,8.023038152244686,-1.3626952969044446,2.007704973040521
1772876978221308000,0.401307861328125,7.872336134123802,-1.4312044772461057,1.9853173462741076
1772876978231241000,0.411240966796875,7.561184610849619,-1.4000889157533645,2.532514152303338
1772876978241174000,0.421174072265625,6.74302113854885,-1.2975012324601412,2.034091752445698
1772876978251105800,0.431105712890625,5.302507857948541,-1.081222288057208,0.884560044402629
1772876978261038800,0.441038818359375,3.5076965707868335,0.02486526892632246,0.9114473206758499
1772876978270971600,0.4509716796875,1.725555964627862,0.9961609091043472,0.3724721438186243
1772876978280904000,0.460904052734375,0.21056115127801894,2.034452402451634,-0.09329415057338773
1772876978290836700,0.470836669921875,-1.0243833795040844,2.6746891650974747,-0.15961305432915687
1772876978300769800,0.480769775390625,-1.8585668432354927,2.7948031527310606,0.06084960549920797
1772876978310702800,0.490702880859375,-2.359216271492839,2.6741262705177067,-0.14517477913200855
1772876978320635000,0.500634765625,-3.2436458213835953,2.3991578212589024,-0.9395046636417508
1772876978330568000,0.51056787109375,-4.495364376834035,3.226172708535194,-0.8436370823837817
1772876978340500700,0.520500732421875,-4.999852944862842,4.072015045878291,-1.4842298188604413
1772876978350433800,0.530433837890625,-5.4832583928525445,4.099522646006942,-2.481442721235752
1772876978360365800,0.54036572265625,-5.324415738373995,4.035432158890366,-2.7288299206078053
1772876978370299000,0.550298828125,-5.139238034677505,4.2294910881787535,-2.460037821896374
1772876978380232000,0.56023193359375,-5.656636353161931,1.891791067445278,-4.778360649725794
1772876978390164000,0.5701640625,-4.046842026177049,1.2662994539886712,-4.117297664411366
1772876978400096800,0.5800966796875,-1.9041238947957753,0.07179740823209285,-4.011766621142626
1772876978410029800,0.59002978515625,-0.8846037374138832,-2.0524206053406,-4.338625416636467
1772876978419963000,0.599962890625,0.2875426841497421,-3.024393998649716,-3.789124571448564
1772876978429895000,0.60989501953125,1.2136334472060202,-3.5353994012266394,-3.4219121382564306
1772876978439828000,0.619827880859375,1.8041648064404725,-3.7389094649493693,-3.1510368035301566
1772876978449761000,0.629760986328125,2.1351544181287285,-3.0708418615698814,-2.2398262142196295
1772876978459693000,0.639693115234375,1.275613810300827,-2.7853566944718358,-1.5236647342786191
1772876978469625900,0.6496259765625,1.4021709827244282,-2.453568625882268,-0.8647025937009603
1772876978479559000,0.659558837890625,1.7760007882297038,-1.7469874597132204,-1.0982375741355122
1772876978489492000,0.669491943359375,0.7507423794567585,-2.4716952342033385,-1.6366893481731415
1772876978499424000,0.679424072265625,0.43474283162951466,-1.3686784629672766,-1.547346930900216
1772876978509357000,0.689357177734375,-0.6682388682931661,0.2168359937638044,-0.9219991098284721
1772876978519289900,0.699289794921875,-3.1512510308027264,0.9901134456336498,-0.8216925962749868
1772876978529223000,0.709222900390625,-5.864390045803785,2.74495337241292,-1.3867258685722947
1772876978539154700,0.71915478515625,-8.504665484645962,4.869765844747424,-0.9117660312362015
1772876978549087700,0.729087646484375,-11.156402228701115,6.425238214436173,-0.29817491812743246
1772876978559021000,0.73902099609375,-12.454393875026701,7.268000705942511,-0.03205971047505736
1772876978568952800,0.748952880859375,-11.994410219156741,7.611400301870703,0.3966767934117466
1772876978578886000,0.758885986328125,-10.774245324355363,6.693418610990047,1.1019788795556873
1772876978588818700,0.768818603515625,-10.192400544923544,4.74636625957191,2.6049495661780235
1772876978598751700,0.778751708984375,-9.811415022444724,3.1579367921769617,4.5551428459703915
1772876978608683800,0.788683837890625,-8.959191459631919,2.066079712858796,6.444511070182919
1772876978618616800,0.798616943359375,-7.827178311014175,1.8862796105474233,7.609338693165778
1772876978628550000,0.8085498046875,-6.446092786416411,2.6107348715811964,7.625306077626347
1772876978638482700,0.818482666015625,-5.371170475286245,4.0472652200251815,6.656345310136675
1772876978648415000,0.8284150390625,-4.9794350107342,6.172911220574378,5.105090850403904
1772876978658347800,0.83834765625,-4.905665425646305,8.767658833950758,3.289691533243656
1772876978668280800,0.84828076171875,-5.0524610839784145,10.81399398189783,1.8308605056643485
1772876978678212900,0.858212890625,-5.36655450592339,11.82507188962698,0.37416035263389347
1772876978688146000,0.86814599609375,-6.174328686156868,12.174765617263317,-0.17433219229429958
1772876978698079000,0.878078857421875,-7.60295805221796,11.82740062483549,0.17371362200453877
1772876978708011800,0.88801171875,-6.744345080628991,10.312226363265514,-0.28750980479344723
1772876978717943800,0.89794384765625,-4.028796081876754,7.993592862051725,-0.5271580804765225
1772876978727876900,0.907876953125,0.8669850786149501,4.12791053610146,-0.014533260004222393
1772876978737810000,0.917809814453125,-1.531459041416645,-0.26297522912621496,0.04437441764697432
1772876978747743000,0.927742919921875,-4.609615609914064,0.6970844390273093,-1.9657640661507845
1772876978757675000,0.937675048828125,-3.3200808262884616,0.510114591217041,-2.963464313651621
1772876978767607800,0.94760791015625,-1.517900471663475,-3.2181805407375097,-3.7138960197240114
1772876978777540900,0.957540771484375,3.171228235426545,-4.682849188429117,-4.089520307430624
1772876978787473000,0.967472900390625,7.0231029852986335,-6.272021583145857,-4.158612256096303
1772876978797406000,0.977406005859375,10.600746368014812,-6.857988410943746,-3.8786350387647746
1772876978807339000,0.987339111328125,12.446243301796912,-7.643961093735695,-3.694652974593639
1772876978817272000,0.99727197265625,13.544190514683722,-8.145793594297766,-3.4506352516546843
1772876978827204000,1.0072041015625,15.666272685271501,-8.045906986656785,-2.950307018175721
1772876978837137000,1.017136962890625,16.140910304915906,-8.82932823140025,-2.8870243403106928
1772876978847070000,1.027070068359375,15.881113705825804,-8.87257875958383,-2.6680995575740933
1772876978857001700,1.037001708984375,15.183394476026296,-8.040566794672609,-2.432403526648134
1772876978866934800,1.046934814453125,13.048780156123637,-7.166414308646321,-1.7070573081240057
1772876978876867800,1.056867919921875,10.338765995144843,-6.607831746858358,-0.4411443692348897
1772876978886800600,1.066800537109375,6.60366878196001,-6.779951231539249,1.423515968570113
1772876978896733000,1.07673291015625,2.500890933549404,-6.867665755349397,3.371736779245734
1772876978906665700,1.086665771484375,0.11870236726999282,-6.961575626668334,4.7920279405504465
1772876978916598800,1.096598876953125,-0.45210371627509593,-7.356995332691073,5.215196654242277
1772876978926531800,1.10653173828125,0.15810732594132423,-7.61142485179007,4.76799941470921
1772876978936464000,1.1164638671875,1.48831197360754,-7.270650343668461,3.6735961580395697
1772876978946397000,1.12639697265625,3.351082113751769,-7.030859590774774,1.9008222229018805
1772876978956329700,1.136329833984375,5.066627556496858,-6.876337137582897,-0.4189147825744003
1772876978966261800,1.14626171875,6.256528830459714,-6.197067756709456,-2.5347581318378447
1772876978976194800,1.15619482421875,6.520010255542397,-6.080059918397665,-4.013387792603671
1772876978986128000,1.1661279296875,6.244825533184409,-6.279660115200281,-4.604459542325139
1772876978996061000,1.17606103515625,5.58681287535131,-6.594383651742339,-4.382292708927393
1772876979005993000,1.185992919921875,4.655237543404102,-7.028351991868019,-3.3756896085247394
1772876979015925800,1.19592578125,3.6761119402527807,-7.799875293546915,-2.1083447371363637
1772876979025858800,1.20585888671875,2.6711668361902237,-8.654612885007262,-0.9517996431998907
1772876979035790800,1.215790771484375,1.8868425051271915,-9.189452167636155,0.11642353561781346
1772876979045724000,1.225723876953125,1.076110059610009,-9.59372270411253,0.9522427107922732
1772876979055657000,1.235656982421875,-0.23433774818480013,-9.66276350711286,1.464788766939938
1772876979065590000,1.245590087890625,-1.8689608114778995,-8.713996801868081,1.7439508684962988
1772876979075522000,1.25552197265625,-2.011602857261896,-5.58147794406414,0.32813612195327874
1772876979085454800,1.265454833984375,-0.2911637972563505,-1.6624521504610776,-1.2454654864050447
1772876979095388000,1.275387939453125,1.95115043438673,1.1481465372949837,-1.4428481532886623
1772876979105320000,1.28531982421875,5.045489491400122,3.904704422783851,-1.5299176571935413
1772876979115253000,1.2952529296875,6.2376353294193745,6.249625626942515,-1.3437988732546566
1772876979125186000,1.30518603515625,4.394723735955357,9.275698956981302,-2.168307915189862
1772876979135118800,1.315118896484375,-0.9961287604004144,13.42297119615674,-3.6712539788275955
1772876979145051000,1.32505078125,-15.48292570413351,15.9456507676661,-2.0998165627658367
1772876979154983700,1.334983642578125,-36.86452366290092,16.759381225955487,4.242109746733307
1772876979164917000,1.3449169921875,-35.94195639779568,18.349912049543857,6.557562279823422
1772876979174850000,1.35485009765625,-21.50674175726175,16.275263830304144,1.165748975611478
1772876979184781800,1.36478173828125,-9.178590581882,12.472736171925067,-4.139141831950843
1772876979194715000,1.37471484375,0.5954150396227836,11.511947020453213,-7.227845805686711
1772876979204647700,1.384647705078125,3.518914130371809,10.745813010597228,-7.276084643676876
1772876979214580700,1.394580810546875,1.7073428470671177,9.005784283980727,-4.404979464770853
1772876979224512800,1.4045126953125,-0.9357593396335839,7.30013596587181,-0.3857370278548449
1772876979234445800,1.41444580078125,-4.000212376949191,6.13883476344943,3.2806063095122573
1772876979244379000,1.42437890625,-7.48376468656063,5.62566020013988,6.224661281555891
1772876979254311000,1.434310791015625,-10.595034420108794,6.276067643666267,7.815043052062392
1772876979264244000,1.444243896484375,-12.795007639628649,7.847881491824984,7.188016484123468
1772876979274176800,1.4541767578125,-12.877079189115761,9.325600759747624,4.713129468141496
1772876979284109800,1.46410986328125,-10.078740263473987,10.736300501364468,1.755535800088942
1772876979294041900,1.474041748046875,-7.5763897787660355,11.094147140318155,-1.1897813739102332
1772876979303975000,1.483974853515625,-6.086888303112984,10.624410152196884,-2.8177038435861466
1772876979313908500,1.493908447265625,-5.109219328510761,9.829149416577815,-2.820886857536435
1772876979323840500,1.503840576171875,-4.122323091357946,8.340937396213413,-1.883938454248756
1772876979333773600,1.513773681640625,-2.9235061050117013,6.340141764169931,-0.6478516946289687
1772876979343706600,1.52370654296875,-3.5376042177945375,4.688183535194397,-0.0997854853540659
1772876979353639700,1.5336396484375,-3.616379063823819,4.244122840121388,-0.7683884377192706
1772876979363571500,1.543571533203125,-2.7283295698702332,2.7055665339201687,-1.216982319242507
1772876979373504500,1.55350439453125,-0.5919552545577287,0.31827450702190396,-1.6372224321365356
1772876979383437300,1.563437255859375,2.372946106159687,-1.36621002702713,-1.9837937899686395
1772876979393369300,1.573369384765625,4.493059022501111,-2.354581012907624,-3.1897973268181086
1772876979403302400,1.583302490234375,7.271171737194061,-3.071263886374235,-3.801680978421867
1772876979413235500,1.5932353515625,10.644535240858792,-4.5150516586005685,-3.162143596217036
1772876979423168500,1.60316845703125,13.166537936019896,-5.8655099897444245,-2.1988579517543316
1772876979433100500,1.6131005859375,14.704755219525097,-5.876058856287599,-1.7558543645188212
1772876979443033300,1.623033447265625,15.880653102576732,-5.447179948255419,-1.3416969325393437
1772876979452966400,1.63296630859375,16.536396646434067,-5.643500977256894,-0.9166758689790964
1772876979462899500,1.6428994140625,16.77616051132083,-5.968580488118529,0.32984354692567136
1772876979472831500,1.65283154296875,16.86494587923288,-8.018303524938226,0.35044491132982075
1772876979482764500,1.6627646484375,16.00865053693652,-8.615476806405185,2.0645767609499392
1772876979492697600,1.672697509765625,14.479777420359849,-8.813315838754177,3.603660159765184
1772876979502629600,1.682629638671875,11.462649613320826,-9.263096665039658,4.758397181366384
1772876979512562400,1.6925625,8.084741451963781,-9.284097952014207,5.180877620533108
1772876979522495500,1.70249560546875,5.963118715581298,-8.341776185125113,5.225270889011025
1772876979532428500,1.712428466796875,4.830710430166125,-7.163923076352477,4.62527144420743
1772876979542360600,1.722360595703125,4.252710051202774,-6.173779235580563,3.16092369903326
1772876979552293600,1.732293701171875,3.992798885822296,-5.192257092681527,1.4484480191223323
1772876979562226400,1.742226318359375,4.044280066734552,-4.413913589593768,-0.279985656366311
1772876979572158500,1.752158447265625,4.232454614159464,-4.2104368436187505,-1.7214952910602093
1772876979582091500,1.762091552734375,4.608664592799544,-4.390106013026833,-2.445226767864078
1772876979592024600,1.772024658203125,5.464712682336568,-4.72570107268393,-2.784844945557415
1772876979601957600,1.78195751953125,6.399117100229859,-5.2662756840944285,-2.9200013117611405
1772876979611889700,1.7918896484375,6.863934167605638,-5.972362929266691,-3.0315871250241995
1772876979621822700,1.80182275390625,6.68453621635437,-6.485050001320243,-3.1488679350584743
1772876979631755500,1.811755615234375,5.899233395648002,-6.646230158835649,-2.8836896429300305
1772876979641687300,1.821687255859375,5.008976162517071,-6.237974352115392,-2.1104566147238013
1772876979651620400,1.831620361328125,4.1010535088360305,-5.917146653479337,-1.2353884751573205
1772876979661553700,1.8415537109375,3.598973170992732,-5.982646422871947,-0.2535923010898754
1772876979671486700,1.85148681640625,3.6627637983798977,-6.0369245410263535,0.6869114931244402
1772876979681418500,1.86141845703125,4.102762066319585,-5.709371333527565,0.8148112392634153
1772876979691351300,1.871351318359375,4.738863336595893,-4.740391276815533,0.0822483856250532
1772876979701284400,1.881284423828125,5.07361843829751,-3.4386201119512316,-0.6069529902685433
1772876979711217400,1.891217529296875,5.006058229243755,-2.059741157487035,-1.0087990760769694
1772876979721149400,1.9011494140625,3.7408822263270616,-0.31875907566845413,-0.7860864453647285
1772876979731082500,1.91108251953125,1.9351853880137204,2.1208353853970765,-0.9638887249223888
1772876979741015600,1.921015625,0.019890110862255096,5.036491945952177,-1.0805736148901284
1772876979750947600,1.930947509765625,-3.5400434276401995,7.295577279654145,-0.3623485534828156
1772876979760880400,1.94088037109375,-8.969077478352188,9.01235957071781,0.8905458408139646
1772876979770813400,1.9508134765625,-14.852930349516868,11.61094983099699,2.4456504001036286
1772876979780746500,1.96074658203125,-20.579360369873047,14.584554138129949,2.895681109496951
1772876979790678500,1.970678466796875,-24.86561730136871,17.387364656227827,1.9128034603357313
1772876979800611600,1.980611572265625,-25.224623631751538,19.687686255681513,0.21309918185565618
1772876979810544400,1.99054443359375,-21.505635841846466,19.46169021938443,-1.9486000192515551
1772876979820477400,2.0004775390625,-16.21806953244209,16.436492503136396,-3.3684193252608177
1772876979830409500,2.010409423828125,-11.892337499648331,13.062095564770697,-3.6366929530560967
1772876979840342500,2.020342529296875,-9.959958401226997,10.447470700013637,-2.769362129743397
1772876979850275600,2.030275634765625,-10.96103163229227,9.028280777949094,-1.7529548436850309
1772876979860207600,2.04020751953125,-13.244149583488703,8.527804952692986,-0.9185806066218763
1772876979870140700,2.050140625,-14.393547582149505,8.387024609127641,-0.6002500585637986
1772876979880073500,2.060073486328125,-13.788265813028811,8.52126824440062,-0.8777858740925788
1772876979890006500,2.070006591796875,-11.025610779708623,8.499882342022657,-1.5372535530395806
1772876979899938600,2.0799384765625,-7.213453707718849,7.493473010626435,-2.456226446914673
1772876979909871600,2.08987158203125,-3.985788130277395,5.6384431093454355,-3.308248349675536
1772876979919804700,2.0998046875,-1.803147738352418,3.5078847868353127,-3.165812347857654
1772876979929736700,2.10973681640625,-0.5706178674966097,1.4679139132231473,-2.0338602817773817
1772876979939669500,2.11966943359375,0.4202396745026111,-1.0010264693140982,0.17890514449933542
1772876979949602600,2.1296025390625,-0.6884346841037273,-2.2034517092853783,1.7472374889515339
1772876979959535600,2.13953564453125,-2.6829350153952833,-0.8910089282810687,0.6032561815772205
1772876979969467400,2.14946728515625,-2.3101298767626286,-0.09507891509830951,-0.6747744806069881
1772876979979400400,2.159400390625,-0.2669733588516712,-0.32247195871174333,-2.4529814736440776
1772876979989333500,2.16933349609375,3.10103826239109,-0.8464940792500972,-4.221064328356087
1772876979999265500,2.179265625,6.641854427969455,-1.7070932562202215,-4.911398416340351
1772876980009198300,2.1891982421875,9.41481107507348,-3.493344220307469,-4.580821769367158
1772876980019131400,2.19913134765625,11.412291883480549,-5.401935031384229,-2.910755929031968
1772876980029064400,2.209064453125,12.622766574394703,-7.379038822194934,-0.1893526330272667
1772876980038996500,2.21899658203125,13.4474404515028,-9.440722930443286,2.561533618299663
1772876980048929500,2.228929443359375,13.937751441097259,-10.001596233516931,4.671099421663582
1772876980058862300,2.2388623046875,13.769288725358248,-9.128103088182211,5.257559878197312
1772876980068794400,2.24879443359375,13.202453299009798,-8.343908520978689,4.503615780089795
1772876980078727400,2.2587275390625,12.798428261727095,-7.599978744146227,3.897864347630739
1772876980088660500,2.268660400390625,11.513264532792567,-6.978830712851882,3.457620580497384
1772876980098593500,2.278593505859375,9.871894333326816,-6.554199525392055,3.151013130393624
1772876980108525600,2.288525634765625,8.369682429182529,-6.267785553011298,2.579530462761223
1772876980118458600,2.298458740234375,6.988733098185062,-6.0423939123481505,1.7650725669801235
1772876980128391400,2.308391357421875,5.770546225458383,-6.035146425437927,0.8036677678279578
1772876980138323500,2.318323486328125,4.998134450507163,-5.971349952831864,-0.32689368414413184
1772876980148256500,2.328256591796875,4.703876778888702,-5.94793283688724,-1.8550100275367498
1772876980158189600,2.338189453125,4.41111314522028,-6.115399527326226,-3.169156397588551
1772876980168122600,2.34812255859375,4.143451219582557,-6.06768617451489,-3.955069751408696
1772876980178054700,2.3580546875,3.9546225921630858,-5.972728839969634,-4.180433919543027
1772876980187987500,2.367987548828125,3.6294314376205206,-6.117859195438027,-4.167455195504426
1772876980197920500,2.37792041015625,3.426750810459256,-6.322356516632437,-3.9532986500829455
1772876980207853600,2.387853515625,3.4690368775248523,-6.268786254486441,-3.779171917232871
1772876980217785600,2.39778564453125,3.4479099183440205,-6.112827631011605,-3.575107726758718
1772876980227718700,2.40771875,3.411400096592307,-5.97861205278933,-3.478705746363103
1772876980237651700,2.417651611328125,3.8297944354891773,-5.698344912600517,-3.4603014901444316
1772876980247583500,2.42758349609375,4.386275641083717,-5.393319763252139,-3.2775194494128224
1772876980257516300,2.437516357421875,4.669899690485001,-5.209384168571233,-2.768435078026354
1772876980267449600,2.44744970703125,4.6577731993615625,-5.2620682955324645,-1.6920296887315809
1772876980277382700,2.457382568359375,4.56808883678317,-4.816844986420869,-0.7610990844286978
1772876980287314400,2.467314453125,5.327611904066801,-3.236620452791452,-0.3468281090721488
1772876980297247500,2.47724755859375,6.042802493149042,-1.7983558279007672,0.367866440121457
1772876980307180300,2.48718017578125,5.806238301086426,0.15756547414958477,0.8073756093699485
1772876980317112600,2.497112548828125,4.849923664680123,2.6971365592271086,1.75030330626294
1772876980327045600,2.507045654296875,2.3178660239726305,4.765871170508861,2.9554727303758264
1772876980336978700,2.516978759765625,-2.7578023325920102,6.381450510635972,4.511802885937691
1772876980346911700,2.526911865234375,-10.217104778069258,8.306829374906421,6.146951434409618
1772876980356843800,2.53684375,-18.330502415674925,10.882513975894451,7.751268791288137
1772876980366776800,2.54677685546875,-24.76098788311481,13.990627291238306,8.890957881361246
1772876980376709600,2.556709716796875,-26.64287948783636,17.39660828539133,7.334172090986371
1772876980386642700,2.566642578125,-23.81198620007038,17.89465834480524,3.998527784863114
1772876980396574700,2.57657470703125,-18.201480898964405,16.71830570372343,1.5365443818569182
1772876980406507800,2.5865078125,-13.657410066628456,14.955885697078704,0.5521826316177845
1772876980416440800,2.59644091796875,-11.876758822244405,14.57039467987418,0.26989005001597105
1772876980426372600,2.60637255859375,-11.25307396594882,14.683609555643796,-0.7108580397706479
1772876980436305400,2.616305419921875,-11.71089372178316,13.73918234090805,-1.9431337166696785
1772876980446238500,2.626238525390625,-13.302121295464039,12.69901160968542,-2.3568616711907087
1772876980456171500,2.636171630859375,-14.473946229988336,11.892089662367106,-1.7626161137387155
1772876980466103600,2.646103515625,-14.445159695965051,10.859093352818489,-1.4817840331435204
1772876980476036600,2.65603662109375,-12.681753016370534,9.623699324703216,-1.8729983964309096
1772876980485969700,2.6659697265625,-9.843097277909516,8.541326113045216,-2.625987970292568
1772876980495901700,2.675901611328125,-6.865972395434976,6.933238005456328,-3.2535645733296867
1772876980505834500,2.68583447265625,-3.5074855583846567,5.356848519945144,-3.351529272997379
1772876980515767600,2.695767578125,-0.5266846177458763,3.9389024604618545,-3.437027289801836
1772876980525700600,2.70570068359375,1.6297276924669741,1.8249428060531616,-3.055114715605974
1772876980535632600,2.715632568359375,3.7212598264902828,-0.7174760696709156,-1.8786735194578765
1772876980545565700,2.725565673828125,5.84880786126852,-1.8747651138424872,-0.8642954011395573
1772876980555498500,2.73549853515625,7.890332978585362,-2.2559791843801738,-1.2001251463353633
1772876980565430500,2.745430419921875,10.362335086780785,-3.0653058547526597,-1.62371120865643
1772876980575363600,2.755363525390625,15.750206521499155,-6.365727456325292,0.19521314082480967
1772876980585296600,2.765296630859375,19.757592735600472,-8.245847959721088,2.1772852946326133
1772876980595229700,2.775229736328125,19.918018275356292,-7.602740610074997,2.0818851847559214
1772876980605161700,2.78516162109375,19.774253947544096,-8.40934691557288,2.6254557631120083
1772876980615094800,2.7950947265625,18.985392557573316,-8.397145021125674,2.7297540497153996
1772876980625027600,2.805027587890625,16.797566871964932,-6.408243825015425,2.6825489386871455
1772876980634960600,2.814960693359375,13.066899165660143,-6.198546597090363,2.7826684783011673
1772876980644892700,2.824892578125,10.160248333859442,-6.018707916334271,3.380770857311785
1772876980654825700,2.83482568359375,7.948203568273782,-5.411246465086936,4.041880019855499
1772876980664758800,2.8447587890625,6.072531276458501,-5.174395272776485,4.447846838855743
1772876980674690800,2.85469091796875,5.780860698723792,-5.126131300345063,3.6688805276945233
1772876980684623600,2.86462353515625,6.23956425165534,-6.585588350868225,1.9304370244428515
1772876980694556700,2.874556640625,6.110771283003688,-6.276045431834459,0.729652318220213
1772876980704489700,2.88448974609375,6.618399318102002,-5.813304001688957,-0.18306027315109968
1772876980714421500,2.89442138671875,6.131272219240665,-6.309298297616839,-0.8681897782295942
1772876980724354800,2.904354736328125,4.798260697460174,-6.236197405570745,-1.1227250957906245
1772876980734287600,2.91428759765625,3.3444413605630396,-6.060408292466402,-0.9933133376535027
1772876980744219600,2.9242197265625,1.8775790022194385,-6.396119087457657,-0.866110268541798
1772876980754152400,2.93415234375,0.6473708523094653,-6.835492501497268,-0.693843849670887
1772876980764085500,2.94408544921875,0.3928174145698547,-7.056646942982077,-0.6029345484074204
1772876980774018600,2.9540185546875,1.3850462449222802,-7.33560884579122,-0.6886996186502278
1772876980783950600,2.96395068359375,2.9830665474832054,-7.682695605799555,-0.896595057850331
1772876980793883600,2.973883544921875,4.766695930895209,-7.9066206810414785,-1.136836988577619
1772876980803816400,2.98381640625,6.337339566230773,-7.835569707262516,-1.446393132419139
1772876980813748500,2.99374853515625,7.285491354447603,-7.647143230903148,-2.0819816308677197
1772876980823681500,3.003681640625,7.001956736895441,-7.269162150937318,-2.160461877864599
1772876980833614600,3.013614501953125,5.397611907488107,-6.545328236672282,-1.395234315329045
1772876980843547600,3.023547607421875,3.6601632604926824,-5.444279550638795,-0.5632451467715204
1772876980853479700,3.033479736328125,2.7927339452415705,-4.150079697811603,0.04574621745683253
1772876980863412700,3.043412841796875,2.0502461839109656,-2.5980922476291655,0.07282821258455514
1772876980873345500,3.053345458984375,2.2478210123658178,0.4609755895167589,-0.6384932069141417
1772876980883277600,3.063277587890625,2.54959388191998,3.975867040243745,-2.4934821185976266
1772876980893210600,3.073210693359375,-0.08995499621331692,6.211229553052783,-3.232532306694984
1772876980903143700,3.083143798828125,-4.2566099812507625,10.855282270097732,-3.080447309783101
1772876980913076700,3.09307666015625,-11.94344107941985,15.134377639400958,-1.247941521129757
1772876980923008800,3.1030087890625,-23.326692746376988,18.589397682011125,2.886520482441783
1772876980932941600,3.112941650390625,-32.409929103350635,22.4637396997571,7.149405306178331
1772876980942874600,3.12287451171875,-33.47394598958492,23.001443724167345,9.168714500033856
1772876980952807700,3.1328076171875,-26.87063025884628,19.21767220418453,7.594675377041101
1772876980962739700,3.14273974609375,-17.78736350673437,15.486783548605441,4.297158849260211
1772876980972672800,3.1526728515625,-10.824627604115008,13.362425249779223,1.5096201345741749
1772876980982605600,3.16260546875,-6.6865048860788345,12.112906834721565,-0.7454547944426536
1772876980992537900,3.172537841796875,-4.6842006030380725,11.122020651149748,-1.6131759322471915
1772876981002470700,3.182470703125,-3.941491892433166,9.974281525611877,-1.4073920783735812
1772876981012403700,3.19240380859375,-3.2717262529641387,8.013923117896914,-0.5982208908237516
1772876981022336800,3.202336669921875,-2.533054835051298,5.2263434866786,1.0764841536194085
1772876981032268500,3.2122685546875,-3.23429347114861,3.480228133624792,2.823229036748409
1772876981042201600,3.22220166015625,-6.147211546650529,4.274234485268592,2.695824892106652
1772876981052134400,3.232134521484375,-8.052668151354789,5.130964127328991,1.3963834853641688
1772876981062066400,3.24206640625,-9.144185623455048,4.659446685531735,0.643239597723633
1772876981071999500,3.25199951171875,-8.954535158258675,4.614741866886615,-0.0935720176666975
1772876981081932500,3.2619326171875,-7.202371172690391,4.837196869575977,-0.5436791532970965
1772876981091865600,3.271865478515625,-4.90765163102746,3.5106454837203023,-0.7114378124199807
1772876981101797600,3.281797607421875,-2.157602981302142,1.608030239921808,-0.9358604619204998
1772876981111730700,3.291730712890625,0.17461013245284557,0.1984808373838663,-1.1781851172059774
1772876981121663500,3.30166357421875,2.1805232536405326,-0.5040343945205211,-1.6831548928804694
1772876981131596500,3.311596435546875,4.787326630991697,-0.9645815294921397,-2.7066996296033263
1772876981141528600,3.321528564453125,7.76629509550631,-1.7962030337810515,-3.8977895288288593
1772876981151461600,3.331461669921875,10.462810892486571,-3.4769314301669594,-4.673137357231974
1772876981161394700,3.341394775390625,13.342260413628816,-4.601770157110691,-4.476176861283183
1772876981171326700,3.35132666015625,15.080335083568094,-5.339239213496446,-3.816632171577215
1772876981181259500,3.361259521484375,15.313656348186731,-6.727305098500848,-2.203575774056464
1772876981191192600,3.371192626953125,16.549639574366807,-8.97349471027255,0.07854819766655564
1772876981201125600,3.381125732421875,17.70248742122054,-11.022471897161006,2.822632239899039
1772876981211057700,3.3910576171875,14.941472556322813,-9.837292975544928,4.2425054680526255
1772876981220990700,3.40099072265625,11.506493431222438,-8.12623958352208,4.224899668735265
1772876981230923800,3.410923828125,9.490562189367413,-6.497182922184467,3.884033390676975
1772876981240855800,3.420855712890625,8.203909683179855,-5.867096966674923,2.61604349938333
1772876981250788600,3.43078857421875,7.271399700731038,-5.419152123644948,1.370435389637202
1772876981260721700,3.4407216796875,6.785765470775962,-5.231726933282613,0.5277047545738518
1772876981270654700,3.45065478515625,6.826658622178435,-5.677433057475089,-0.14992942631319164
1772876981280586800,3.460586669921875,7.164741991519928,-6.449402349355816,-0.82906042162925
1772876981290519800,3.470519775390625,7.2916124676764005,-6.945252268376946,-1.3738457826025783
1772876981300452600,3.48045263671875,6.8374898127943275,-7.109649634373188,-1.9533350849494338
1772876981310384600,3.490384521484375,5.7599558578610415,-6.853786867600679,-2.35388923125118
1772876981320317700,3.500317626953125,4.37573320428133,-6.280744987827539,-2.5183909344047306
1772876981330250800,3.510250732421875,3.1546079400151967,-5.712144889894128,-2.651085878930986
1772876981340183800,3.520183837890625,2.4181805016368627,-5.201338809281587,-2.9976807637691496
1772876981350115800,3.53011572265625,2.5480571738719937,-4.85211094559133,-3.3813200156271455
1772876981360049000,3.540048828125,3.5776422136723993,-4.7567590587705375,-3.7365497500807043
1772876981369981700,3.549981689453125,5.041866624727845,-4.904844172391295,-4.066927951872349
1772876981379913700,3.559913818359375,6.394730263447761,-5.223351319125294,-4.121140019053221
1772876981389846800,3.5698466796875,7.448244460368156,-5.5697518504351375,-4.0591622863069174
1772876981399779800,3.57977978515625,7.962348998004198,-5.738068435701727,-3.9720296540379523
1772876981409713000,3.589712890625,7.695111435258388,-5.812294532385468,-3.955800988292694
1772876981419645000,3.59964501953125,6.65753013600707,-5.951501927545666,-3.6793966610118747
1772876981429577700,3.60957763671875,5.682336027085781,-4.838104047548771,-3.721019003471732
1772876981439510800,3.6195107421875,5.337613073599338,-3.357597779256105,-3.5301626696169373
1772876981449442800,3.62944287109375,4.488256006133556,-2.4628929190665483,-2.349053627788275
1772876981459375900,3.6393759765625,3.5535832926928994,-0.2911953614383936,-0.8369330547004937
1772876981469309000,3.649308837890625,2.449196986669302,2.386922024542093,1.3758023234978318
1772876981479241700,3.65924169921875,0.24973171667158603,5.001510064420104,3.6521091333746907
1772876981489174000,3.669174072265625,-4.133346589675545,7.838702744591235,5.670602919194102
1772876981499106800,3.67910693359375,-9.84081647349596,13.051924883890152,6.573496931058168
1772876981509039900,3.689039794921875,-18.077127374064922,17.622375189107654,7.205402503210306
1772876981518973000,3.698972900390625,-28.282133718061445,19.809802230787277,8.52234902537465
1772876981528904700,3.70890478515625,-32.09389916038513,22.226851682567595,9.227330355131626
1772876981538838000,3.718838134765625,-30.183765796041488,20.909750846624373,8.801326125752926
1772876981548770800,3.728770751953125,-24.500253710913658,16.100695198905466,8.01090932303369
1772876981558702600,3.73870263671875,-17.060191387957335,13.326355573010444,6.267846927809715
1772876981568635600,3.7486357421875,-11.732269687289,12.166339149701594,4.046685374310613
1772876981578568700,3.758568603515625,-9.10958426567316,11.911410448908805,1.7286365411169826
1772876981588501800,3.768501708984375,-8.106592049244046,11.77286940870285,0.22341946380734443
1772876981598433800,3.778433837890625,-7.979513483294844,10.986327401590346,-0.4252702160157263
1772876981608366800,3.788366943359375,-8.24286163738668,9.75733797982037,-0.5576048027969897
1772876981618299600,3.798299560546875,-8.068511032652854,7.957208712506294,-0.4194666443035006
1772876981628232700,3.808232666015625,-7.648354360258579,5.818362454122305,0.5145889601521194
1772876981638164700,3.818164794921875,-7.409004921391606,4.16370198045075,1.5779118727728723
1772876981648097800,3.828097900390625,-7.22318716622591,3.321049963581562,2.186942326902598
1772876981658030800,3.83803076171875,-6.59119274674654,2.9624679960906506,2.233410940349847
1772876981667963000,3.847962890625,-5.573236185419559,2.5823925741940736,1.4202205802865326
1772876981677895700,3.857895751953125,-3.9004800830870865,2.22528827804029,-0.08858283107727766
1772876981687828700,3.867828857421875,-1.2562030073881147,1.8331582612127064,-1.5973549705199896
1772876981697761800,3.87776171875,2.322572009706497,1.3282359779417514,-2.8460090238332745
1772876981707693800,3.88769384765625,5.682772080415487,0.22487901496589183,-3.985836645594239
1772876981717627000,3.897626953125,8.482817809975147,-1.392836752668023,-4.947969612890482
1772876981727559700,3.9075595703125,10.775119769102334,-3.295529153355956,-5.232452324947714
1772876981737492000,3.917491943359375,12.133463300538063,-4.555611048004031,-4.878019878351688
1772876981747424800,3.9274248046875,12.339430109763144,-6.040340486949682,-3.911650588659942
1772876981757357800,3.93735791015625,12.51980304352641,-7.899059305876493,-2.461222355505824
1772876981767291000,3.947290771484375,13.232584233379363,-9.200993552348017,-0.4055871720328927
1772876981777223000,3.957222900390625,14.14653564583063,-9.264553878110647,1.0975377553030847
1772876981787156000,3.967156005859375,14.50517723455429,-8.688810922685265,1.7708701473429798
1772876981797088800,3.9770888671875,14.366480711525679,-8.186077089369297,1.8519436257034538
1772876981807020800,3.987020751953125,13.922881204223632,-7.768367225605249,1.648578377278894
1772876981816953900,3.996953857421875,13.167208967149257,-7.012645304170251,1.2700744424827397
1772876981826887000,4.006886962890625,12.134265264570713,-6.0081081963866945,0.769531251078844
1772876981836820000,4.016820068359375,10.766495733141898,-5.203093543994426,0.2809478159293532
1772876981846751700,4.026751708984375,9.12489347848594,-4.154617341241241,-0.3886012581795454
1772876981856684800,4.036684814453125,7.316395026755332,-3.1672470568358895,-1.1640481630429624
1772876981866617600,4.04661767578125,5.459448478198051,-3.039886751335859,-1.7203937595590948
1772876981876549600,4.056549560546875,4.097028491103649,-3.7355361891239878,-1.6203654053598642
1772876981886482700,4.066482666015625,3.1820529963016506,-5.0869735944330685,-1.0895517249852418
1772876981896415700,4.076415771484375,2.669634804317355,-6.606227818793058,-0.5124621772564947
1772876981906348800,4.086348876953125,2.2973300164222716,-7.723370730537176,-0.1852915393345058
1772876981916280800,4.09628076171875,2.0631921747237443,-8.408271395295857,-0.4195772650711238
1772876981926213600,4.106213623046875,2.1687755327016114,-8.927986174029112,-0.7735336185880005
1772876981936146700,4.116146728515625,2.44312029710412,-9.04490574953556,-1.2363169881790876
1772876981946079700,4.126079833984375,2.75552737339735,-8.692835940417647,-1.8406421872273087
1772876981956011800,4.13601171875,2.931418193310499,-8.24461403401196,-2.4989912374079224
1772876981965944800,4.14594482421875,2.6335259645819664,-7.995370393118262,-3.1117081249654293
1772876981975878000,4.1558779296875,1.9667688592791557,-7.9506264115065335,-3.6145354817837476
1772876981985810000,4.165809814453125,1.3281284259140491,-8.147553589707613,-3.3940286905527115
1772876981995742700,4.17574267578125,0.414904158693552,-8.63669378195703,-2.4404203904956576
1772876982005675800,4.18567578125,-1.3972732738107443,-9.038927259647846,-1.0629514489598573
1772876982015608800,4.19560888671875,-3.063647566151619,-7.794730331873893,-0.630002661140263
1772876982025540900,4.205540771484375,-3.11107216514945,-4.8531905575215815,-1.9678027323715388
1772876982035474000,4.215473876953125,-2.7845219972133637,-1.9228806177139282,-3.042491965398192
1772876982045406700,4.22540673828125,-1.0347264943420886,1.6380156283408402,-3.975670933149755
1772876982055338800,4.2353388671875,1.4033189837157725,5.552929310449957,-3.50852366926074
1772876982065271800,4.245271728515625,1.1751771675616502,8.605578512725234,-1.8279735520511864
1772876982075204900,4.255204833984375,-2.271575981962681,11.288796436715126,1.0611968603774904
1772876982085138000,4.265137939453125,-7.8835946102410555,13.801705140316486,4.43979680339098
1772876982095070000,4.275070068359375,-15.09910525048971,14.663027370864151,7.235398413023352
1772876982105003000,4.2850029296875,-20.172619643890858,15.507688389468193,8.712368323883414
1772876982114935800,4.294935791015625,-20.231927572906017,16.72869148865938,8.158322821003198
1772876982124867600,4.30486767578125,-17.012857974374292,16.58247450699806,5.159327467504143
1772876982134801000,4.31480078125,-13.938407274657488,14.570641348111629,2.2300452633090315
1772876982144734000,4.32473388671875,-10.773792904412746,12.858335910201072,1.024907549508661
1772876982154667000,4.3346669921875,-8.01782713959813,11.649542304241656,0.44599984644204377
1772876982164598800,4.344598876953125,-5.950885841473936,9.743744923275708,0.6711909960970283
1772876982174531600,4.354531494140625,-4.730243392288685,7.570424148359894,2.2883517601966856
1772876982184464600,4.364464599609375,-5.64481381342113,6.306176950725913,4.422503723284602
1772876982194397700,4.374397705078125,-8.03860397016704,7.04782066244781,4.5860716527193786
1772876982204329700,4.384329833984375,-9.724052965334057,8.185552188712357,3.348530675703287
1772876982214262800,4.3942626953125,-10.162317541348934,8.542509769871831,1.8412137035049496
1772876982224195800,4.40419580078125,-9.735428930351137,9.255665638256072,-0.1861111851543188
1772876982234128000,4.4141279296875,-8.994668431204557,9.722637253317236,-2.3416706779301166
1772876982244060700,4.424060791015625,-7.880971276000142,8.497088911911845,-3.2355846800029275
1772876982253993700,4.43399365234375,-6.4731579034745685,6.336939753258228,-2.9539994429528713
1772876982263926800,4.4439267578125,-5.091897606831789,3.8905712680131193,-2.3267355591267345
1772876982273858800,4.45385888671875,-3.4001340216904876,1.8319331033319233,-1.6609309322431682
1772876982283792000,4.4637919921875,-0.7141881340414286,0.7462573429971933,-1.132419245200604
1772876982293724700,4.473724609375,2.3635715440928933,0.05159808529019355,-0.7407167330700903
1772876982303657700,4.48365771484375,4.9919543005675076,-0.6026999359339476,-0.6452169622112065
1772876982313589200,4.49358935546875,6.844023013955354,-1.5620090779811142,-0.9018526861175894
1772876982323522300,4.503522216796875,8.253519225001334,-2.2890035021036863,-1.5399312478162348
1772876982333455400,4.513455322265625,9.36822351142168,-3.4487118823766707,-1.7568724555201827
1772876982343387400,4.523387451171875,10.89570078972578,-4.896475572496652,-0.8996342794157565
1772876982353320400,4.533320556640625,12.68698214919567,-6.239784031885862,0.15698475165218115
1772876982363253200,4.543253173828125,14.911141715466975,-7.699643817991018,0.9527657117530703
1772876982373186300,4.553186279296875,17.876241229104995,-9.30718364404738,1.4651079158917069
1772876982383118300,4.563118408203125,18.755911601769924,-9.94650387637019,0.829235778196156
1772876982393051400,4.573051513671875,17.605518746852873,-9.024383185988665,-0.4695607547715306
1772876982402984400,4.582984375,14.740229853010177,-8.011819423615933,-0.7537722486719489
1772876982412916200,4.592916259765625,11.408628100275992,-7.265911624708771,-0.04937631758749485
1772876982422849300,4.602849365234375,7.710342906659841,-6.454688180804252,0.7308516110073775
1772876982432782300,4.6127822265625,4.107975417053699,-5.626096253469586,1.0401453775856644
1772876982442715400,4.62271533203125,1.476224645450711,-5.694723799493908,1.1685042656689881
1772876982452647200,4.632647216796875,0.5648468828797341,-5.405293109640478,0.8068862914830446
1772876982462580200,4.642580322265625,0.8695078750908374,-4.862605451598763,-0.01636712436787784
1772876982472513300,4.65251318359375,1.6662977199733255,-5.301568531271815,-0.9014205783106386
1772876982482445300,4.6624453125,3.0927608479112383,-6.0002931387215845,-1.5450523902222513
1772876982492378000,4.672378173828125,4.711889404952526,-6.4508730064302675,-2.149551046141237
1772876982502311200,4.682311279296875,5.939078499302267,-6.902882614681125,-2.6617840908169743
1772876982512244200,4.692244140625,6.820110223448276,-6.972969711863994,-2.9518001793429254
1772876982522176300,4.70217626953125,7.297609662264585,-6.9046835266232485,-2.8483038567721843
1772876982532109300,4.712109375,6.834049901473522,-6.63891778999567,-2.6661235813260076
1772876982542042400,4.72204248046875,5.892954461508989,-6.1690767569780345,-2.4250740605428813
1772876982551975200,4.73197509765625,5.342497923031449,-5.567421946182847,-1.9701123244881629
1772876982561907200,4.7419072265625,4.898032154288888,-5.409726123651862,-1.4666057532340286
1772876982571840300,4.75184033203125,4.956513569352031,-5.698551833349466,-0.9335352338433265
1772876982581773300,4.761773193359375,5.3754667111754415,-6.009283669906854,-0.3615389176003635
1772876982591705300,4.771705322265625,5.596982971709966,-6.3004229172438375,-0.10987535608336328
1772876982601638400,4.781638427734375,5.84261602089107,-5.916278638473153,-0.2921548541203141
1772876982611571200,4.7915712890625,6.081633451324701,-4.315352677598596,-0.7141438565082847
1772876982621504300,4.801504150390625,5.369616231581569,-2.4319699575364586,-0.7714696717955172
1772876982631436300,4.811436279296875,4.082640484789014,-0.27558687341809274,-0.525787230514735
1772876982641369300,4.821369384765625,1.8603578183054923,2.3524095140874386,0.24899010452404616
1772876982651302400,4.831302490234375,-2.545174896433949,5.103302797943353,1.2399465768530964
1772876982661234400,4.841234375,-8.312968608313799,8.933871724936365,1.6422069425508379
1772876982671167500,4.85116748046875,-13.590759373635052,15.019644175761938,1.1643376475088298
1772876982681100300,4.861100341796875,-19.329774150276183,19.29158967331052,1.2066029640473426
1772876982691033300,4.871033447265625,-25.083625261521338,19.18801940872073,3.9475101298093795
1772876982700965400,4.88096533203125,-26.78247032935619,18.678430887204406,7.069963520672917
1772876982710898400,4.8908984375,-25.024466970109938,16.176110213112832,8.864435785138607
1772876982720831500,4.90083154296875,-20.812874526715277,12.319211497598886,9.027875704279541
1772876982730763300,4.91076318359375,-15.317590180504322,9.88041081725955,8.256485089069605
1772876982740696000,4.920696044921875,-10.153197830826043,8.510808225184679,6.982478713965415
1772876982750629000,4.930629150390625,-6.085741471165418,6.611487931278347,5.943267767685652
1772876982760562200,4.940562255859375,-3.0701848589658733,4.881654435461759,4.836701487274468
1772876982770494200,4.950494140625,-1.996459064143896,5.138316828179359,2.731595878189802
1772876982780427300,4.96042724609375,-3.0684932526171207,6.139523330235481,0.5786774014420807
1772876982790360300,4.9703603515625,-5.886522382634878,7.014538570570945,-0.9803171510234474
1772876982800293000,4.980293212890625,-8.859081564629077,8.165115549883247,-1.839911096473783
1772876982810225200,4.99022509765625,-11.479380967891215,8.173751276281475,-1.6680701364733277
1772876982820158200,5.000158203125,-12.033157006180286,7.337775083914399,-1.2700886171385646
1772876982830091300,5.01009130859375,-10.534067617970704,6.337811275395751,-0.572100653400272
1772876982840023300,5.020023193359375,-7.697232080674171,5.226879493251443,0.13102145835608242
1772876982849956400,5.029956298828125,-4.549789209982753,3.5220687950104472,-0.14087722806856035
1772876982859889200,5.03988916015625,-1.3560954602479933,2.0115753847330806,-1.0394817260451614
1772876982869822200,5.049822265625,1.6022738683521747,0.8520622347712516,-1.8064814128197728
1772876982879754200,5.059754150390625,4.012804732018709,-0.27623452367186546,-2.442979865720123
1772876982889687300,5.069687255859375,6.116726976537704,-1.0433172125548125,-3.1301696643292902
1772876982899620400,5.079620361328125,8.191544122603535,-1.7478712568104267,-3.9130408739745612
1772876982909552400,5.089552490234375,10.627068557751178,-2.621549111062288,-4.201791180348396
1772876982919485400,5.0994853515625,13.133832767248153,-3.7719004649251695,-3.7435681044101714
1772876982929418200,5.109418212890625,14.710751245069503,-5.483046795928478,-2.7173756296575067
1772876982939351300,5.119351318359375,15.584685119909047,-6.8355503691643476,-0.999998441440612
1772876982949283300,5.129283447265625,16.105904457986355,-7.92399968586564,0.21809256969615815
1772876982959216400,5.13921630859375,16.265130558824538,-9.126451813843845,0.3015862609408796
1772876982969149400,5.1491494140625,15.781920341145991,-9.130496120798588,0.1069610760718584
1772876982979082200,5.159082275390625,14.05903038085699,-7.6401348134458065,-0.6935830067776143
1772876982989014300,5.16901416015625,11.321821923482418,-6.834939543789625,-1.0384769329167902
1772876982998947300,5.178947265625,9.27961700720787,-6.058140347534418,-0.796696175249666
1772876983008880400,5.18888037109375,7.065213695797324,-5.7588581257522105,-0.39145197143554683
1772876983018812200,5.198812255859375,5.388677490404248,-5.709091932064294,-0.11336977407038211
1772876983028745500,5.208745361328125,4.49477634781301,-5.671234787356853,0.23185966763347385
1772876983038678500,5.218678466796875,3.6597108405500647,-5.733640682387351,0.22574337671026587
1772876983048611300,5.228611328125,3.252225433680415,-5.9476242093294855,0.18976488535627722
1772876983058543000,5.238543212890625,3.3499171616256236,-6.287205708274245,-0.011223404803872107
1772876983068476200,5.24847607421875,3.5391485246270893,-6.413135688710212,-0.7373056825175881
1772876983078409200,5.2584091796875,3.6780145590037105,-6.266572085568308,-1.7240351848013697
1772876983088341200,5.26834130859375,4.140342147651315,-6.060367960456014,-2.2974258780121803
1772876983098274300,5.2782744140625,4.642251805102825,-6.031604222786426,-2.548537943126261
1772876983108207000,5.28820703125,5.13848283239603,-6.1415796782433985,-2.4356549296595156
1772876983118140200,5.29814013671875,5.498137397554516,-6.314938933852314,-1.9940110864698886
1772876983128072200,5.308072265625,5.68485473190844,-6.623221623691916,-1.8277764220438897
1772876983138005200,5.318005126953125,5.709617417243122,-7.104307688823342,-1.682172896105796
1772876983147938300,5.327938232421875,5.578809017115831,-7.5741522289723155,-1.4949993424169719
1772876983157870300,5.337870361328125,4.815358547255396,-7.819805151897668,-0.9561674830205737
1772876983167803400,5.347803466796875,3.0026994687139985,-7.336586750912666,-0.22092881603538989
1772876983177736200,5.357736083984375,1.6441116071283817,-5.41407496651113,-0.77245283761397
1772876983187669200,5.367669189453125,0.5301566777706146,-3.07300693064928,-1.0262240389347075
1772876983197601300,5.377601318359375,-1.0786825404465197,-0.9594722236543893,-1.416459766448289
1772876983207534300,5.387534423828125,-1.8681968413680792,2.6874919480472803,-1.7398558542676268
1772876983217467400,5.39746728515625,-2.570304661515355,7.027937565848231,-1.1697617183841764
1772876983227400200,5.407400146484375,-4.566977076148986,10.113105474412441,0.37995588717013595
1772876983237332200,5.417332275390625,-7.4242346392273895,12.78702190157175,2.1699653270080685
1772876983247265300,5.427265380859375,-10.999254687702654,14.511598792034386,3.2365745678231117
1772876983257198300,5.4371982421875,-15.878469328796863,13.657267443287372,4.320936030688881
1772876983267130400,5.44713037109375,-20.86941416006088,12.752870625644922,5.759794529819488
1772876983277063400,5.4570634765625,-24.327476054584977,11.840449491500854,7.145054125231504
1772876983286996500,5.46699658203125,-23.59789921275377,10.554230116033553,8.037649445921183
1772876983296929300,5.47692919921875,-18.60643532605171,9.17791662814319,7.157471708256006
1772876983306861300,5.486861328125,-11.749379812043905,7.534869435375929,4.692760341590643
1772876983316793900,5.4967939453125,-5.911682542854547,6.141005677747726,2.2582683182306584
1772876983326727000,5.506726806640625,-4.0272009216398,6.96202980017662,0.2785422160923481
1772876983336659000,5.516658935546875,-4.227881314894557,8.395290917691588,-0.6609723844215274
1772876983346592000,5.526592041015625,-4.893335520905256,8.290469776257872,-0.514829344779253
1772876983356525000,5.536525146484375,-5.765861867034435,7.98492907860279,0.15965660120993852
1772876983366457900,5.546457763671875,-8.369982288911938,8.380819324746728,0.4818763387262821
1772876983376390000,5.556389892578125,-11.986769349014759,8.433934244340657,0.017453385234624145
1772876983386323000,5.566322998046875,-14.038988294303417,7.771557546079158,-0.15144289961606264
1772876983396256000,5.576256103515625,-13.303767309105396,6.361373352769017,0.2730390886314213
1772876983406189000,5.58618896484375,-10.509113209456205,4.6505426635861395,0.9692420686490834
1772876983416121000,5.59612109375,-6.685444563370942,3.030603374683857,0.8861666028164327
1772876983426054000,5.606053955078125,-2.3959762686133383,1.9001795410841702,-0.15386106667369603
1772876983435987000,5.615987060546875,1.8427046727150678,1.1573527570575475,-1.643095269692689
1772876983445919000,5.6259189453125,5.209523284780979,0.4728180030018091,-2.8038790241122244
1772876983455852000,5.63585205078125,7.459094940206408,-0.03660392977595329,-3.2117367714256044
1772876983465785000,5.64578515625,9.089370914205908,-0.41295770080089567,-3.213860339450836
1772876983475718100,5.65571826171875,10.465380450713633,-1.1677402955591678,-3.27114582272768
1772876983485650200,5.665650146484375,11.697850700336694,-2.56149182498455,-2.744285263893008
1772876983495583000,5.6755830078125,13.124952710700034,-3.826197872301936,-1.8402803681775926
1772876983505516000,5.68551611328125,14.483874918806553,-5.050550866442919,-0.8647204946838318
1772876983515448000,5.695447998046875,15.270975728845595,-6.138261347475647,0.055525780127942556
1772876983525381000,5.705381103515625,15.453094044971465,-7.0746806123226875,0.9078126174353063
1772876983535314200,5.715314208984375,14.948845715439319,-7.833458414196968,1.6907909407168626
1772876983545247000,5.7252470703125,13.828840984523296,-7.903625006356835,2.3870308917440473
1772876983555179000,5.735178955078125,12.092839029204844,-7.576275796997547,2.6323893617674705
1772876983565112000,5.745112060546875,9.969787721323966,-7.383620889288187,2.681828223197162
1772876983575045000,5.755045166015625,8.22441529559195,-6.977295758369564,2.601228207567334
1772876983584978200,5.764978271484375,6.649908555087447,-6.666713559415936,2.125337519121915
1772876983594910000,5.774909912109375,5.504015934199095,-6.388531993329525,1.5118050773978233
1772876983604843000,5.784843017578125,4.785198971313238,-6.120978788763284,0.6792321176029741
1772876983614775800,5.79477587890625,4.275643183022737,-5.790402434051036,-0.4779350537545979
1772876983624707800,5.804707763671875,4.086505928045511,-5.631005652821064,-1.5284557679474353
1772876983634641000,5.814640869140625,4.055376630288363,-5.731319545963406,-2.4631571229606863
1772876983644574000,5.824573974609375,4.130707473343611,-5.781867829939722,-3.303101049914956
1772876983654507000,5.834507080078125,4.279837712103128,-5.828116955417395,-3.780251529163122
1772876983664439000,5.84443896484375,4.389136291211843,-6.016903497260809,-4.0861180977717035
1772876983674371800,5.854371826171875,4.225444443136453,-6.329113589677214,-4.183912409308553
1772876983684305000,5.864304931640625,3.822978910255432,-6.533117574396729,-3.859318636137247
1772876983694237000,5.87423681640625,3.6129689631193873,-6.71618573859334,-3.5665804291710255
1772876983704170000,5.884169921875,3.601977028983831,-6.811838654187321,-3.390511914603412
1772876983714103000,5.89410302734375,3.6429841621547934,-6.69900780929923,-3.25040757060349
1772876983724036000,5.9040361328125,3.6929011624902484,-6.458566483542323,-3.0966078787282107
1772876983733968100,5.913968017578125,3.565346211200952,-5.963726033824682,-3.2865219632968303
1772876983743901000,5.92390087890625,3.5274417202204464,-5.724105376800894,-3.2034301308512685
1772876983753834000,5.933833984375,2.723642873358726,-5.173741192781925,-2.2717783726669847
1772876983763766000,5.94376611328125,1.454848095422983,-3.232529384085536,-1.8958935343280434
1772876983773699000,5.953698974609375,0.5295189643889665,-0.05453881491720676,-1.60044577614218
1772876983783632100,5.963632080078125,-0.21957272525131702,3.0048446640491484,-0.4348537446580827
1772876983793565000,5.97356494140625,-1.07370241394639,6.070229429256916,1.6052726117767393
1772876983803497000,5.9834970703125,-2.835215242618322,9.254631034511327,3.1993668269351123
1772876983813430000,5.993429931640625,-5.689761793172359,12.417659012347459,3.2942116410166022
1772876983823363000,6.003363037109375,-9.15822350115776,14.160457788199185,3.10979469255954
1772876983833296100,6.013296142578125,-13.680436721950768,13.580671694862842,5.006729260373115
1772876983843228200,6.023228271484375,-18.18201398195028,12.97378132150173,8.205717609384655
1772876983853161200,6.0331611328125,-20.303674127733707,12.762881147527693,9.21430603838563
1772876983863094000,6.043093994140625,-21.045738695216176,10.852380703437328,8.58631851646006
1772876983873025800,6.05302587890625,-19.420805251288414,9.761502113762498,7.292592710885405
1772876983882958800,6.062958740234375,-16.698772151213884,10.083085599201917,4.756405423027276
1772876983892892000,6.072891845703125,-14.896339283132551,10.223580111563205,1.781606645412743
1772876983902825200,6.0828251953125,-13.035623737430571,10.092732548469304,-0.7488649682123214
1772876983912757000,6.092757080078125,-10.65280154942274,9.391150798022746,-2.5969638281211256
1772876983922689800,6.102689697265625,-8.055355783003568,8.10587776349485,-3.1540427073478696
1772876983932622800,6.112622802734375,-6.087635906609893,7.115642737308145,-2.719699396429956
1772876983942555000,6.122554931640625,-4.870587682524323,6.187192843905091,-0.8810210566215216
1772876983952488000,6.132488037109375,-4.812445874679089,5.009420983675122,1.8870435806572436
1772876983962421000,6.1424208984375,-5.398535452073812,5.084660056793689,3.8258611876934765
1772876983972354000,6.15235400390625,-5.772148399958014,5.268931751561165,4.108177953888475
1772876983982286000,6.1622861328125,-5.312537084531784,4.6730911800026895,3.457010339644551
1772876983992219000,6.172218994140625,-4.15036611353755,3.1892695035517216,2.2876820442415773
1772876984002152000,6.18215185546875,-2.057073984104395,1.9336019182145594,1.0343919286254792
1772876984012085000,6.1920849609375,0.5738730699002742,0.7557727748394012,-0.7188260229751468
1772876984022017000,6.20201708984375,3.6835219242483377,-0.3803606685787439,-2.936123594522476
1772876984031950000,6.2119501953125,6.885171601423621,-1.8538561813265084,-4.888665775528549
1772876984041883000,6.2218828125,9.621254854160547,-3.4238124189198014,-6.039260290497541
1772876984051815000,6.23181494140625,11.638339357703924,-4.8954146652668715,-5.876571481984853
1772876984061748000,6.241748046875,12.796857066887616,-6.551458702251315,-4.40245812959969
1772876984071681000,6.251680908203125,13.41271049890518,-7.982168966239691,-2.33171480884403
1772876984081614000,6.261614013671875,13.24415309062004,-8.863681751900911,-0.09468012503907083
1772876984091546000,6.271546142578125,12.377234647500515,-8.75903888964355,1.7854460774451493
1772876984101479200,6.281479248046875,11.371485241317748,-8.089838482841849,2.9583944630414245
1772876984111412000,6.291411865234375,10.591644193148612,-7.500474413821101,3.307586378635466
1772876984121344000,6.301343994140625,10.00109471373558,-6.7763745420962564,2.7730682907849546
1772876984131277000,6.311277099609375,9.352111750054359,-5.972301554468274,1.9253435006961226
1772876984141210000,6.321210205078125,8.465872520393132,-5.529782243618369,0.7852529902152716
1772876984151143200,6.33114306640625,7.701531239172816,-5.300986931991577,-0.33131986655592915
1772876984161075200,6.3410751953125,6.997710769888759,-5.140847223439812,-1.0469659443207084
1772876984171008000,6.351008056640625,6.351462199607491,-5.170898078310489,-1.5301488356009125
1772876984180941000,6.360941162109375,5.8673079790771006,-5.254053331381082,-2.0512829796127976
1772876984190872800,6.370872802734375,5.6288592884421345,-5.344763529875874,-2.5638582618549464
1772876984200806000,6.380805908203125,5.476680183506011,-5.742177624586224,-2.55992589084208
1772876984210739000,6.390739013671875,5.386456891745328,-6.460370318093895,-1.8612971449822187
1772876984220672000,6.400672119140625,5.264105938839912,-7.183509820353985,-0.9982515977732836
1772876984230604000,6.41060400390625,4.998581025230885,-7.457224470159411,-0.46210006350204347
1772876984240536800,6.420536865234375,4.792872574681043,-7.6244257876604795,-0.3730528297834098
1772876984250470000,6.430469970703125,4.93861024839282,-7.223117608121037,-0.5986608896762132
1772876984260403000,6.44040283203125,5.062672096869349,-6.139557817026972,-1.1951703004069625
1772876984270335000,6.4503349609375,5.020039992845058,-4.946061733442544,-2.0250852930389343
1772876984280268000,6.46026806640625,5.0745793922841544,-4.323686790701747,-2.6507249366641044
1772876984290200800,6.470200927734375,5.18859447852075,-3.9118975491583345,-2.8918659351229667
1772876984300132900,6.4801328125,4.447805922323465,-3.9863744057327506,-2.2892037008509036
1772876984310066000,6.49006591796875,3.788534204339981,-3.09939692492485,-1.609214773531258
1772876984319999500,6.49999951171875,3.994725469970703,-2.16633573833406,-1.3874448304966092
1772876984329932500,6.5099326171875,3.218136701595783,-1.8251245923608541,0.1015570250712335
1772876984339864600,6.519864501953125,2.0907120498120784,0.5695271496504545,1.465267344237119
1772876984349797400,6.52979736328125,0.6096551618993282,2.7565596390545366,2.1957827820926905
1772876984359730400,6.53973046875,-2.135177799004316,4.787105681717396,3.314984964454174
1772876984369662500,6.549662353515625,-7.173343231126665,7.777966244077682,4.673040911120176
1772876984379595500,6.559595458984375,-12.687569009172917,10.69944405813217,4.463908331340551
1772876984389528600,6.569528564453125,-18.109285430347917,12.231373055148124,3.42322760476917
1772876984399461600,6.579461669921875,-22.189465662503242,13.158713526004552,2.981691751998663
1772876984409393700,6.5893935546875,-22.75257067015171,14.396699324178694,1.4675057708136736
1772876984419326500,6.599326416015625,-21.198923177802563,13.381466634857654,-0.7454051831472664
1772876984429259500,6.609259521484375,-18.60821344164014,11.169163510596752,-1.7110998615130781
1772876984439192600,6.619192626953125,-15.359512090432643,9.047788026973604,-1.554110287555307
1772876984449124600,6.62912451171875,-13.385616740274429,6.799515179187059,-1.04726171239689
1772876984459057700,6.6390576171875,-12.738220169001817,5.381389086961746,-0.7851463149704039
1772876984468990500,6.648990478515625,-11.76943475807905,4.6162914344161745,-0.9975042134720832
1772876984478922500,6.658922607421875,-10.019237104147672,4.5862768199026585,-1.7746670554079114
1772876984488855600,6.66885546875,-8.314297226569057,5.324843608397245,-2.8548060782730578
1772876984498788600,6.67878857421875,-7.587318000015616,6.148800277146696,-3.710852998766303
1772876984508721700,6.6887216796875,-7.741606059929728,6.406080509501695,-3.972602485489845
1772876984518653700,6.69865380859375,-8.732194721859694,6.7824015473008155,-3.7606548482894895
1772876984528586800,6.708586669921875,-10.348501791739464,7.0284221344947815,-3.0445857228070494
1772876984538519600,6.71851953125,-11.461501612329482,6.108903735566139,-1.553239642200619
1772876984548451600,6.72845166015625,-10.311630150938033,4.982924606415629,0.351810500594601
1772876984558384600,6.738384521484375,-6.8398419288784265,4.022978920030593,0.9080689302839339
1772876984568317700,6.748317626953125,-1.602567882862687,3.0061849727422,-0.5812480556476861
1772876984578250800,6.758250732421875,3.7815386463642118,1.7040239317774772,-3.119686264237761
1772876984588182500,6.7681826171875,8.17484491673708,0.5381833323597908,-4.681432599629462
1772876984598115300,6.778115234375,10.785741700881719,-0.311476517444849,-4.943399820756912
1772876984608048400,6.78804833984375,12.46996904529929,-1.1081073723733426,-3.926439284729957
1772876984617980400,6.79798046875,14.30480079268217,-1.6370464910477398,-2.4057502052612603
1772876984627913500,6.80791357421875,16.05383992422819,-2.3564374544292686,-1.3037811895124614
1772876984637846500,6.817846435546875,17.27347641124129,-3.111056967580318,-0.048839288101345295
1772876984647779600,6.827779541015625,17.46526271942258,-4.198480448365212,1.2630711395919323
1772876984657711600,6.837711669921875,16.696083350521324,-5.636641612881422,3.258685277344286
1772876984667644400,6.84764453125,15.373903019356726,-6.676835724979639,5.5559454434007405
1772876984677577500,6.857577392578125,13.580257853364945,-7.3935729589819905,6.765578422793745
1772876984687510500,6.867510498046875,11.418575493794679,-7.675113772368431,6.851295635306835
1772876984697442600,6.877442626953125,9.24753844590187,-7.405540460151434,6.187931095051765
1772876984707375600,6.887375732421875,7.549695833107829,-7.080908693057299,4.454335031831264
1772876984717308400,6.897308349609375,6.130786481550335,-6.367549411055445,2.2004254933319984
1772876984727240400,6.907240478515625,4.628191715568303,-5.495649672392011,0.2441182607039809
1772876984737173500,6.917173583984375,3.0003181265354155,-4.936325936847925,-1.057765278493613
1772876984747106600,6.9271064453125,1.5853741714775562,-5.0253258242934935,-1.7744275475636124
1772876984757039600,6.93703955078125,0.6439665968239306,-5.622623024401069,-2.643698691289127
1772876984766971600,6.9469716796875,0.628714082634449,-6.264353240475058,-3.3182717310398817
1772876984776904700,6.95690478515625,1.345254917281866,-6.822691472113132,-3.9594180097460745
1772876984786837500,6.96683740234375,2.044688549783826,-7.049640863612294,-4.803606442402303
1772876984796769500,6.97676953125,2.8589631979525088,-6.934565454667807,-5.659906753134727
1772876984806702600,6.98670263671875,4.000709220555424,-6.900006766983866,-6.293937646877765
1772876984816635600,6.9966357421875,5.04001193677187,-7.216046646821498,-6.353652403128147
1772876984826568700,7.006568603515625,5.728404535299539,-7.516056598356366,-5.577592042541504
1772876984836500700,7.016500732421875,5.13049943242669,-7.769716886648535,-3.9375452006340024
1772876984846433500,7.02643359375,3.616550328737497,-8.351244855216144,-1.7133727748811245
1772876984856366600,7.03636669921875,2.102986424973607,-8.77397693105638,0.6621518034644425
1772876984866299600,7.046299560546875,0.2614583948224783,-8.588716225251554,2.5871426913306115
1772876984876231400,7.0562314453125,-0.8159872973054647,-6.616096886378526,2.16984111610651
1772876984886164500,7.06616455078125,-1.0042892705023287,-3.4873306591063735,0.3625559856884181
1772876984896097500,7.07609765625,-0.5996060615718365,0.5215682976454497,-2.2546941130056974
1772876984906029600,7.086029541015625,1.1714198608547448,4.616227721530199,-5.066574949526786
1772876984915962400,7.09596240234375,2.562050627911091,7.752702623483538,-6.463187129080295
1772876984925895400,7.1058955078125,1.2848422418951988,9.777635502439736,-5.612983673918247
1772876984935828500,7.115828369140625,-3.0265491308569907,11.392684681212902,-2.134645007301867
1772876984945760500,7.125760498046875,-10.303845488411188,12.04556991302967,3.0425974715992807
1772876984955693600,7.135693603515625,-17.947336626547575,12.273491364431381,8.364358603811263
1772876984965626400,7.14562646484375,-23.43206567647457,13.276064478665589,11.767886944115162
1772876984975558400,7.155558349609375,-25.18308516818285,14.23070445985794,12.148904030776023
1772876984985491500,7.165491455078125,-22.73052951873541,14.714286433458327,9.880214417904615
1772876984995424500,7.175424560546875,-18.14177549506426,13.88414844572544,6.4695350368022915
1772876985005357600,7.185357666015625,-13.079669799906014,13.251774087017774,3.438402085286379
1772876985015289600,7.19528955078125,-9.260691941985487,13.017309497582911,1.0846012629710138
1772876985025222700,7.20522265625,-6.818267225930095,12.524288664507866,-0.5199919882394373
1772876985035155500,7.215155517578125,-5.103227394619584,11.19460657941103,-0.6905339944705366
1772876985045088500,7.225088623046875,-3.904543094742298,8.937627862599491,0.45893473133891816
1772876985055020500,7.2350205078125,-3.260277222710848,6.793324507853389,1.9352907480843364
1772876985064953600,7.24495361328125,-3.1258558927834033,5.3057110379040235,2.7260110637947914
1772876985074886700,7.25488671875,-3.622943829166889,4.6522594043761485,2.371176173877716
1772876985084818700,7.264818603515625,-4.0099692163318394,4.047027319616079,1.7160240200422703
1772876985094751500,7.27475146484375,-3.9353368769347665,2.8301065213024614,0.8728222603358328
1772876985104684500,7.2846845703125,-3.0160400118023154,1.8360241720378399,0.29437501438781616
1772876985114617600,7.29461767578125,-1.8485890545785426,1.2755769854217767,-0.6324535614237189
1772876985124549600,7.304549560546875,-0.7157108135640621,1.031221116569638,-2.0845424212664363
1772876985134482700,7.314482666015625,0.5842892499744892,0.9096727122187613,-3.063744012263417
1772876985144415700,7.324415771484375,2.220246776741743,0.2296341005384922,-2.634479904305935
1772876985154347800,7.33434765625,4.172193914464116,-1.590113474959135,-1.8695494250208138
1772876985164280600,7.344280517578125,7.043572941875457,-3.1381793677836654,-1.7555065739944575
1772876985174213600,7.354213623046875,10.31985905010104,-3.9514690965682266,-2.6495406953155993
1772876985184146700,7.364146728515625,12.865049728626012,-5.067832256111503,-3.609791502127051
1772876985194078500,7.374078369140625,14.622572610878944,-6.217393920901418,-3.8772383237093684
1772876985204011500,7.384011474609375,15.298452933835982,-6.8274880587399,-3.1399922624245282
1772876985213944300,7.3939443359375,14.778079983454942,-6.950853157123923,-2.160949953642487
1772876985223876400,7.40387646484375,13.482926775425671,-6.646878393611312,-0.9003015111528336
1772876985233809400,7.413809326171875,11.299675558125973,-6.534560758942365,0.46105435384139415
1772876985243742500,7.423742431640625,9.494429970711469,-6.430825074657798,1.5303822059653698
1772876985253675500,7.433675537109375,8.286193998634815,-6.576445843991637,2.25430686725378
1772876985263607600,7.443607666015625,7.104075633633136,-6.703706196248531,2.3482427497968077
1772876985273540600,7.45354052734375,6.095704646775126,-6.428130428746342,2.143397345817089
1772876985283473400,7.463473388671875,5.87661473660469,-6.064315236777067,1.2242170928016305
1772876985293406500,7.473406494140625,6.590040069580078,-5.938081889480352,-0.3945886620260775
1772876985303338500,7.48333837890625,7.9310864292562,-5.9609238358855245,-1.7727305343873798
1772876985313271300,7.493271240234375,8.493820850026607,-6.023387014061212,-2.714514395007491
1772876985323204400,7.503204345703125,8.110980055069923,-5.904297693300247,-3.4823251059040423
1772876985333136400,7.513136474609375,6.841812352168559,-5.661961347576976,-3.7243642222464084
1772876985343069400,7.5230693359375,5.03288719945848,-5.606151197549701,-3.4938600608751176
1772876985353002200,7.533002197265625,3.414990814560652,-5.505226479032635,-3.2437142104446886
1772876985362935300,7.542935302734375,2.361215336355567,-5.683740633186698,-3.229640092384815
1772876985372867300,7.552867431640625,1.9900141257882118,-6.006413667428493,-3.3783266790300606
1772876985382800400,7.56280029296875,2.387494271472096,-6.0556654818534845,-3.6962078028202057
1772876985392733400,7.5727333984375,2.9574376007080074,-6.051247665411234,-3.8964147333443164
1772876985402665500,7.58266552734375,3.271137054899335,-6.048952832472324,-3.6652754889398813
1772876985412598300,7.592598388671875,3.7565871604591607,-5.015432206788659,-3.4823511171281334
1772876985422531300,7.60253125,5.184793917194009,-2.8031179766118526,-4.200191636197268
1772876985432464400,7.61246435546875,5.5871723563134665,-1.9803689300864933,-4.208478110766411
1772876985442396400,7.622396484375,4.494334449264407,-0.8761012820065021,-3.0315681280627844
1772876985452329500,7.63232958984375,2.32840436912179,1.1186854650110005,-0.7919856594711542
1772876985462262300,7.64226220703125,0.1579904215633869,3.285045753264427,2.1661963298633693
1772876985472194600,7.652194580078125,-2.4796529152095315,6.162132636928558,5.124758842948078
1772876985482127400,7.66212744140625,-5.655099060592055,9.209709942767024,6.918738939982652
1772876985492060400,7.672060302734375,-8.75370454287827,12.077491822469234,6.869089650672674
1772876985501993500,7.681993408203125,-12.090863345217704,13.17729313879013,6.955824515795707
1772876985511925500,7.691925537109375,-14.884513236260414,13.737007919478415,7.859496526294946
1772876985521858600,7.701858642578125,-15.629726038640737,14.079056100797652,7.947818368348479
1772876985531791400,7.711791259765625,-15.727809980773925,12.204080559074878,7.904125941616297
1772876985541724400,7.721724365234375,-16.02013756111264,9.646890230676531,8.621330793130397
1772876985551656400,7.731656494140625,-15.918637673056125,8.83923412386477,8.805462202644348
1772876985561589500,7.741589599609375,-14.497625211739539,8.724373818975687,7.002123910155892
1772876985571522600,7.7515224609375,-13.086827854967117,8.86292128892243,4.288360041254759
1772876985581454300,7.761454345703125,-11.720949836373329,10.00585155287385,1.9922432000145316
1772876985591387400,7.771387451171875,-10.685731174600123,10.944712950176,0.05046922739073634
1772876985601320200,7.7813203125,-10.235733490693569,10.939430041337012,-1.3184138182379304
1772876985611253200,7.791253173828125,-9.738889884459972,10.019973601728678,-2.0174018989294766
1772876985621185300,7.801185302734375,-8.797405152916907,8.296156005200743,-2.288493652885407
1772876985631118300,7.811118408203125,-7.810932109612226,6.389365521544217,-1.7496907273225486
1772876985641051400,7.821051513671875,-6.846468653541803,4.6834927470296615,-0.9089103495441376
1772876985650983400,7.8309833984375,-5.3100534510225055,2.7869933557629585,0.2533895085267722
1772876985660916200,7.840916259765625,-2.912781881901622,1.193784837397933,0.9422544007413088
1772876985670849300,7.850849365234375,0.14668985987007618,0.10833411799073218,0.9602679040767252
1772876985680782300,7.8607822265625,3.3808535671591757,-0.8252975619643926,0.7044399163566529
1772876985690714400,7.87071435546875,6.273298763474822,-1.5971324138104914,0.3985261476054787
1772876985700647400,7.8806474609375,8.06126471478641,-2.4754087017685173,-0.17198197590634226
1772876985710580200,7.890580322265625,8.80959886405766,-3.3953929646432397,-0.7066377186618745
1772876985720513300,7.90051318359375,8.901447126671671,-4.13669531558156,-1.1213329107798635
1772876985730445300,7.9104453125,8.978113017722963,-5.088431392025948,-1.6527768518820405
1772876985740378400,7.92037841796875,9.31882089034915,-6.4564353167325255,-1.7975203999899327
1772876985750311400,7.9303115234375,9.725238960248232,-7.925919255751371,-1.6377357884861528
1772876985760243500,7.940243408203125,10.045357049310207,-8.943640254756808,-1.4206506422668694
1772876985770176500,7.950176513671875,10.142435613793134,-9.46955038099885,-1.127277498397976
1772876985780109300,7.960109375,9.73381857254505,-9.344522317838669,-1.0803501813977956
1772876985790042400,7.97004248046875,8.636859201651811,-8.134733271101117,-1.6331725722238422
1772876985799974400,7.979974365234375,7.537429056730866,-6.819125304064154,-2.151772667713463
1772876985809907500,7.989907470703125,6.520039481636881,-5.712673297682405,-2.3832585335984824
1772876985819840500,7.999840576171875,5.6243537937164305,-5.028730079779028,-2.394609948696196
1772876985829772500,8.0097724609375,5.490395405125618,-4.743747016984224,-2.2943803728364407
1772876985839705300,8.019705322265626,5.947403260055184,-4.870571315911412,-1.9772030134014784
1772876985849638400,8.029638427734374,6.483903169372677,-5.45540417124331,-1.7648482567049562
1772876985859571500,8.039571533203125,7.043533194386959,-6.057898355472087,-1.8565027503125369
1772876985869503200,8.049503173828125,7.538637263476848,-6.514253299450874,-2.1147592803537845
1772876985879436500,8.0594365234375,7.827125119522213,-6.543934736487269,-2.5014070663779973
1772876985889369600,8.06936962890625,7.706932805955409,-6.323462432047724,-3.1692449526548385
1772876985899301400,8.07930126953125,7.188570026353001,-6.090812783080339,-3.4909579096928236
1772876985909234200,8.089234130859374,6.078250823149085,-5.908988481464982,-3.3218677097052334
1772876985919167200,8.099167236328125,4.913183546191454,-5.745455623343586,-2.831571333158016
1772876985929100300,8.109100341796875,4.313500327730178,-5.611707078111172,-2.139793329975754
1772876985939032300,8.1190322265625,4.061072211581468,-5.587402073416113,-1.6042166729830205
1772876985948965400,8.12896533203125,4.147409601819515,-5.503032768380642,-1.4673340675085782
1772876985958898400,8.1388984375,4.365488873642683,-5.065085587751865,-1.7702528922274707
1772876985968831200,8.148831298828124,4.51913337495625,-4.099235645759105,-2.4342735583037136
1772876985978763300,8.15876318359375,4.358995419970155,-1.7485709295123815,-3.2743066248461603
1772876985988696300,8.1686962890625,4.972842772862315,1.3708143059521913,-4.697621810147166
1772876985998629400,8.17862939453125,4.870843118590116,2.665472423940897,-5.061885330405831
1772876986008561400,8.1885615234375,3.596605857339501,3.0803859349846836,-3.102941173402965
1772876986018494500,8.198494384765626,1.723780187126994,4.797302666082978,0.8187760512411594
1772876986028427300,8.20842724609375,-2.5129385142177343,6.363301105961203,4.9674727702617645
1772876986038360300,8.2183603515625,-8.542514446046948,7.236321373087168,9.625088148713111
1772876986048292400,8.228292236328125,-14.610700971299408,6.412089979049563,13.343341779124737
1772876986058225400,8.238225341796875,-19.928672940361498,5.848587496516108,15.32387729794979
1772876986068158500,8.248158447265626,-21.055465139460562,8.975944441512226,13.171093699628114
1772876986078091300,8.25809130859375,-18.117439510709048,11.75369475263357,7.219058103597164
1772876986088023600,8.2680234375,-14.6815520385921,12.514865002602338,0.864442554525286
1772876986097956400,8.277956298828125,-12.781231627732515,12.704758628904818,-3.1841368168383837
1772876986107889400,8.287889404296875,-13.111935408216715,12.84062255885601,-4.332537328894436
1772876986117821400,8.297821533203125,-15.328495020878314,11.966218728417157,-3.0032378133743998
1772876986127754500,8.30775439453125,-17.78493657184839,10.505946269857883,0.25031170851662754
1772876986137687600,8.3176875,-18.709248050272464,9.328580652341246,4.142367515999078
1772876986147620400,8.327620361328124,-16.785754853618144,8.267445459023117,6.08079641597867
1772876986157552400,8.337552490234375,-12.306919002258777,7.741543516087532,5.426336482191085
1772876986167485400,8.3474853515625,-7.9234362067639825,7.318249714711308,3.768572197285294
1772876986177419500,8.35741943359375,-2.775977456229925,5.899466035360097,0.6115975281387567
1772876986187352300,8.367352294921876,-1.3731114769786597,4.823741760197281,-0.35068946067541834
1772876986197284400,8.377284423828126,-0.6359264982312918,3.7110236791580915,-1.1724240694612265
1772876986207217400,8.387217529296874,-0.1466968741327524,2.6656208925008773,-1.8625974139258263
1772876986217150500,8.397150390625,0.10671499235630034,1.689197534045577,-2.3279390896975993
1772876986227083500,8.40708349609375,0.1890086601614952,0.6741279263317584,-2.979313916951418
1772876986237015600,8.417015625,0.3801560859173536,-0.11991992636620998,-3.6383214310407634
1772876986246948600,8.426948486328126,1.3818448185324668,-1.1522522190481423,-4.21744087716192
1772876986256881400,8.43688134765625,3.333695510143041,-2.9483611448049545,-4.424685451237857
1772876986266813200,8.446813232421874,5.8822477740556,-5.457841043001413,-4.129121957717835
1772876986276746200,8.456746337890625,8.616188169544936,-7.468911985343694,-3.649437576077878
1772876986286679300,8.46667919921875,10.917117671763897,-8.847509200257063,-2.8407708309188484
1772876986296612400,8.4766123046875,12.614485068261622,-9.406203990247844,-1.6284087188228964
1772876986306544400,8.48654443359375,13.377419405293464,-8.881200457456707,-0.7516454657763242
1772876986316477000,8.496476806640626,13.134328441810608,-8.057790901196002,-0.2788400299951434
1772876986326409700,8.50640966796875,12.45172845520973,-6.799764185512066,-0.0715878571346402
1772876986336341800,8.516341796875,11.353236467921732,-5.532686148366332,-0.5082768543958663
1772876986346274800,8.52627490234375,9.884648600959776,-4.385703394153714,-0.9331979647129773
1772876986356207900,8.536207763671875,8.219682421851157,-3.726476099833846,-0.9927402870059012
1772876986366141000,8.546140869140626,6.58574617177844,-4.116141772374511,-0.3999307537063956
1772876986376073000,8.556072998046876,5.416012072053551,-4.866520579215884,0.18359072676599025
1772876986386005800,8.566005859375,5.24296144400239,-5.609768803524971,0.29149492890685796
1772876986395938800,8.575938720703125,6.044984513363242,-6.77823390622735,-0.3959416840702295
1772876986405871900,8.585871826171875,7.182966214996576,-7.868182521575688,-1.110838258641958
1772876986415804000,8.595803955078125,7.886435386624932,-8.592185947188735,-1.7621072874337433
1772876986425737000,8.605737060546875,7.9421619500219816,-8.752942326334118,-2.4840271847710014
1772876986435670000,8.615669921875,7.192067220818996,-8.200484969428182,-3.3856820102289316
1772876986445602000,8.62560205078125,5.891947330293059,-7.496071794947982,-4.291571989038586
1772876986455534800,8.635534912109375,4.551083925968408,-6.850519390237331,-4.88387152698934
1772876986465468000,8.645468017578125,3.232114373543858,-6.18566548820734,-4.987972537454962
1772876986475401000,8.65540087890625,2.062804636710882,-5.634459008145332,-4.699200311510265
1772876986485333000,8.6653330078125,1.4636217689871787,-5.2893385797739025,-4.191054390017688
1772876986495266000,8.67526611328125,1.12510234631598,-5.091847337949275,-4.013341030852496
1772876986505198800,8.68519873046875,0.9763023624241352,-4.919648358291387,-3.991761651729047
1772876986515131000,8.695130859375,1.316069154807925,-4.5444320668637745,-3.8773870845302936
1772876986525064000,8.70506396484375,2.354525483328104,-3.3412171378195286,-4.241669601750374
1772876986534997000,8.7149970703125,4.702385079026222,-1.8048124566942452,-5.132880774605274
1772876986544930000,8.724929931640625,6.196067639756202,-0.4926368021935224,-5.203678650406003
1772876986554861800,8.73486181640625,6.00556143451333,1.538243586990237,-4.200239566992223
1772876986564795000,8.744794921875,4.364506876868009,4.008801341596246,-2.038990630403161
1772876986574727700,8.754727783203125,2.034131499934196,6.208712601795792,1.3809487464755772
1772876986584659700,8.76465966796875,-2.936978165525198,8.08082866243422,6.140714001324772
1772876986594592800,8.7745927734375,-11.1000671780169,10.615637647676467,10.671385838383436
1772876986604525800,8.78452587890625,-19.86203510684967,12.571885112941265,13.196422202152013
1772876986614459000,8.794458984375,-25.150288813996312,12.125420279335975,15.048888974946736
1772876986624391000,8.804390869140626,-24.36663668310642,9.776049110031128,14.193285706567764
1772876986634323700,8.81432373046875,-18.765272135311363,8.33043938307464,9.26037103946805
1772876986644256800,8.8242568359375,-12.570442512917518,7.086199785202742,4.040054557994008
1772876986654189800,8.83418994140625,-8.32273713813424,6.545625758314133,0.12679828770309687
1772876986664121900,8.844121826171875,-6.100879419064522,6.514576540055871,-1.9377175368398427
1772876986674055000,8.854054931640626,-5.520499451488256,6.285625161084532,-2.252095620945096
1772876986683988000,8.863988037109374,-6.661338880640268,5.7049055862903595,-0.7901634124800563
1772876986693920000,8.873919921875,-9.69088777783513,5.979156242668628,1.9563459572032094
1772876986703852800,8.883852783203125,-13.34458681074977,7.006981287059188,4.139260197633504
1772876986713785900,8.893785888671875,-15.581218905103206,8.336743451654911,5.018697930586338
1772876986723719000,8.903718994140625,-15.507833350896835,9.805501999008655,4.488940481266379
1772876986733651000,8.91365087890625,-14.175981520545482,10.292394704592228,2.747571445956826
1772876986743584000,8.923583984375,-11.930636542904375,9.421292838308215,1.349805420193076
1772876986753516800,8.933516845703124,-8.610749193361402,7.682341385534405,0.6079679394647479
1772876986763449900,8.943449951171875,-4.71022234852314,5.256961327782273,0.4531257527992129
1772876986773382000,8.9533818359375,-1.15512865126729,2.9759336268633603,0.23186083667725324
1772876986783315000,8.96331494140625,1.7630641497671604,1.3560574663251637,-0.28619156180173155
1772876986793248000,8.973248046875,3.926865401187539,0.40872751588523387,-0.9821092951372266
1772876986803180000,8.983179931640626,5.316519432166219,-0.428805842795968,-1.8721940943107007
1772876986813113000,8.993113037109374,6.594178484559059,-1.6236580171644686,-3.0017256552457807
1772876986823046000,9.0030458984375,8.04076787020266,-2.651865338870883,-3.9446529868125912
1772876986832979000,9.01297900390625,9.423300670999287,-3.7181460783839224,-4.708129467897117
1772876986842910700,9.02291064453125,10.827732584393024,-4.74925613579452,-5.047217922627926
1772876986852843800,9.03284375,11.869045471388102,-5.433236763098836,-5.023733002144098
1772876986862777000,9.042777099609374,12.441558943372964,-5.7083548499614,-4.289469171540439
1772876986872708900,9.052708984375,12.417035912013054,-6.127902450546622,-2.7879662924483415
1772876986882642000,9.062641845703125,11.65669685217142,-6.492908313605189,-0.9212415694594382
1772876986892574700,9.07257470703125,10.428476076686382,-6.335889367422461,0.7727250786840916
1772876986902507800,9.0825078125,9.088785807794332,-5.7628948339223856,1.4473092243507504
1772876986912439800,9.092439697265625,8.105720527106524,-5.214307011926174,0.8093170257613063
1772876986922372900,9.102372802734376,7.789233488023281,-4.833234395685792,-0.2119184111058712
1772876986932306000,9.112305908203124,7.722333788704872,-4.836880643233656,-0.9787287127882242
1772876986942238000,9.122238037109375,7.801011604100466,-5.27912230618596,-1.520543095126748
1772876986952170800,9.132170654296875,8.002439016330241,-5.961569148051739,-1.6774243864044547
1772876986962103800,9.142103759765625,7.701371664696931,-6.7333630833655596,-1.7398969169303773
1772876986972036900,9.152036865234376,7.053035182225703,-7.244443889266252,-1.808283639936149
1772876986981969000,9.161968994140626,6.356606576758622,-7.4778265286833046,-1.7552637051492928
1772876986991902000,9.17190185546875,5.5113411625206465,-7.366201552453637,-1.9067647646933792
1772876987001834800,9.181834716796875,4.561186802309751,-6.963963983109593,-2.577026663246751
1772876987011767800,9.191767822265625,3.7003427106678486,-6.5276680768191815,-3.480414596107602
1772876987021699800,9.201699951171875,2.963766803729534,-6.364798066520691,-4.314824562071264
1772876987031633000,9.2116328125,2.6881659017860886,-6.250030700612068,-4.881854341948032
1772876987041566000,9.22156591796875,2.68107682030797,-6.1028153555631635,-4.982766785505413
1772876987051498000,9.231498046875,2.723251828214526,-6.02648673364222,-4.694074639059603
1772876987061431000,9.24143115234375,2.604808988663554,-6.10772767752409,-4.154996111425757
1772876987071363800,9.25136376953125,2.529789695775509,-6.348216934075952,-3.3889766678601503
1772876987081297000,9.261296875,2.2177508682727813,-6.511088697940111,-2.4533102672070264
1772876987091229000,9.27122900390625,1.5262065277159214,-5.943977377259731,-1.9585402523770927
1772876987101162000,9.281161865234376,2.0046178206801413,-3.1296529469788075,-2.5126953531116247
1772876987111095000,9.291094970703124,1.3751497048079966,-0.1288859076321125,-2.7679230368509886
1772876987121027000,9.301027099609374,0.908097425726056,2.5911335145324466,-2.3774179908767343
1772876987130960000,9.3109599609375,1.5623533613741396,4.5155520093381405,-0.6234691677182912
1772876987140893000,9.320892822265625,1.871785221248865,5.963237373524904,2.017630446988344
1772876987150826000,9.330825927734375,0.02435235096812248,7.595419473406672,4.123954491952062
1772876987160757800,9.3407578125,-4.4957273649275304,8.84171366572082,5.220241662672162
1772876987170690800,9.35069091796875,-9.442146241244673,8.670333016708494,7.00966248896718
1772876987180624000,9.360623779296875,-12.635027505552769,7.142927050074935,10.238127692353725
1772876987190556000,9.370555908203125,-13.638720563727617,6.583778086575865,11.16864679324627
1772876987200488700,9.38048876953125,-11.639158857393264,7.635909889227151,7.819339287951588
1772876987210421800,9.390421875,-8.16260970454216,7.7432707782715555,2.9847789043590423
1772876987220354800,9.400354736328126,-5.5796425453305245,6.640089171862602,-0.003545125260949135
1772876987230286800,9.410286865234376,-4.674819026708603,5.364703909620642,-0.8457146193102002
1772876987240220000,9.420219970703124,-5.1142427096307275,4.327399089223146,-0.7757213378906249
1772876987250152700,9.430152587890625,-6.205773625734448,3.679237378796935,-0.4398974379137158
1772876987260085800,9.440085693359375,-7.597025155037641,3.4319197375297543,-0.10409691881239413
1772876987270017800,9.450017822265625,-9.278709829235076,3.871878842502832,0.4147477990880608
1772876987279950800,9.459950927734376,-10.24047045608759,4.9330865165352815,0.9248010155066847
1772876987289884000,9.4698837890625,-9.972958168053626,5.905218899798393,1.053592230592668
1772876987299816000,9.47981591796875,-8.771523692685365,6.6261255284398795,0.6953872797206044
1772876987309749000,9.4897490234375,-7.278569446229934,6.7551639962852,0.17556348765492438
1772876987319682300,9.499682373046875,-5.7329591298639775,6.1148541684031485,0.3116539198383689
1772876987329615400,9.509615478515625,-3.9976095009744164,4.9476200688004495,0.9022495764806866
1772876987339547400,9.51954736328125,-2.0644038886010647,3.4090824672996995,1.4618465760082004
1772876987349480400,9.52948046875,-0.18353344362080096,1.9347358906805514,1.748982140661776
1772876987359413500,9.53941357421875,1.3214865036815404,1.058627594411373,1.996925512611866
1772876987369345500,9.549345458984375,2.3413655575037002,0.8425158232688903,1.994981977328658
1772876987379278300,9.5592783203125,2.549103468054533,1.0183552052557467,1.915976537413895
1772876987389211400,9.56921142578125,2.3867069204866884,1.311076753348112,1.7801728132173418
1772876987399144400,9.57914453125,2.278313765785098,1.479356513735652,1.5027207304492591
1772876987409076500,9.589076416015626,2.1867092487990853,1.304651688736677,1.362345752814412
1772876987419009500,9.599009521484374,2.2822312314897775,0.7342179456353187,1.5294886181265115
1772876987428942300,9.6089423828125,2.4384382767677306,-0.13160685702860356,1.4762933267727494
1772876987438875400,9.61887548828125,2.810196536695957,-0.9828390707165002,1.031935986840725
1772876987448807400,9.628807373046875,3.1612627217292784,-1.5513795474171637,0.25537089160233734
1772876987458740500,9.638740478515626,3.53841962583065,-2.241986899384856,-0.5123071328252554
1772876987468673500,9.648673583984374,3.599558861926198,-2.9284949993401765,-1.1314900015264748
1772876987478605600,9.65860546875,3.35617096132338,-3.572224864798784,-1.4394883214667438
1772876987488538600,9.66853857421875,3.2361481591045855,-4.351135938641429,-1.2868576733708381
1772876987498471400,9.678471435546875,3.3327515072911975,-5.024675251430272,-1.0092825487449764
1772876987508404500,9.688404541015625,3.3931752885937687,-5.304608629620075,-0.9399652668908238
1772876987518336500,9.69833642578125,3.60171867030859,-5.328092381060123,-0.9937114701256156
1772876987528269600,9.70826953125,4.032822853174806,-5.168894921794533,-1.398163500648737
1772876987538202600,9.71820263671875,4.384696262937784,-4.8102264450639485,-2.0479954823747275
1772876987548134400,9.728134521484375,4.381062874871492,-4.44863594340682,-2.5636899195507166
1772876987558067200,9.738067138671875,4.14562739457786,-4.1186674914598465,-2.8386890562087297
1772876987568000300,9.748000244140625,3.7751428078472613,-3.9752643981754776,-2.781999492998421
1772876987577933300,9.757933349609376,3.2993659550398586,-3.933998321807384,-2.4787784704625606
1772876987587865300,9.767865234375,2.964311578130722,-4.081748504385352,-2.091543824461102
1772876987597798400,9.77779833984375,3.123610744205117,-4.052850326681137,-1.7088456528455018
1772876987607731500,9.7877314453125,3.507298511379957,-3.6143028420716523,-1.325931500391662
1772876987617663500,9.79766357421875,3.561113103675842,-2.466865914350748,-1.3221665949001908
1772876987627596300,9.80759619140625,3.1778502839148044,-0.9950918185681104,-1.3695996694654224
1772876987637529300,9.817529296875,2.4947277347445485,0.5169979209899902,-0.9799275671839713
1772876987647462400,9.82746240234375,1.483908770212531,1.5942548125475644,-0.4281193218365311
1772876987657394400,9.83739453125,0.8137415642052889,1.662221848836541,0.1469499721109867
1772876987667327500,9.847327392578125,0.3545633794993162,1.0541711995244025,0.7863043989643455
1772876987677260300,9.85726025390625,-0.07294833183288574,0.7200865444302559,1.2552379617482423
1772876987687192300,9.8671923828125,-0.32997838881909847,0.7274819153785705,1.349898651434481
1772876987697125400,9.87712548828125,-0.5732108065992594,1.0764186871677637,0.9069719288274646
1772876987707058400,9.887058349609376,-0.814675630185008,1.766136396819353,0.321493469068408
1772876987716991500,9.896991455078124,-1.074493272063136,2.344865674579143,0.17297142533510923
1772876987726923500,9.906923583984375,-1.4435790979117153,2.5333260532081128,0.7355167532742023
1772876987736856600,9.916856689453125,-1.8096195647150277,2.8620670091867444,1.4074185279890894
1772876987746789400,9.926789306640625,-2.063389743122458,3.215678787049651,1.9462612010404468
