time,seconds_elapsed,z,y,x
1772876977879871700,0.059871826171875,-0.9410247802734375,0.2399139404296875,0.125244140625
1772876977889804800,0.0698046875,-0.9336090087890625,0.2247314453125,0.1301116943359375
1772876977899737900,0.07973779296875,-0.9240875244140625,0.2301025390625,0.1322784423828125
1772876977909671000,0.0896708984375,-0.909698486328125,0.235565185546875,0.1260986328125
1772876977919603000,0.09960302734375,-0.8909912109375,0.2354888916015625,0.1134185791015625
1772876977929535700,0.10953564453125,-0.8889923095703125,0.243011474609375,0.1155853271484375
1772876977939468800,0.11946875,-0.8939361572265625,0.2490386962890625,0.113983154296875
1772876977949401900,0.12940185546875,-0.8996124267578125,0.2440643310546875,0.106964111328125
1772876977959334000,0.139333984375,-0.9072113037109375,0.2482147216796875,0.12872314453125
1772876977969267000,0.149266845703125,-0.8939056396484375,0.259490966796875,0.1292572021484375
1772876977979200000,0.159199951171875,-0.8844146728515625,0.265228271484375,0.1227569580078125
1772876977989132000,0.169132080078125,-0.8867645263671875,0.278594970703125,0.1147613525390625
1772876977999064800,0.17906494140625,-0.878143310546875,0.294769287109375,0.1121063232421875
1772876978008998000,0.188997802734375,-0.8665008544921875,0.35821533203125,0.1216278076171875
1772876978018931000,0.198930908203125,-0.8950958251953125,0.3033905029296875,0.0993804931640625
1772876978028863000,0.208863037109375,-0.9065704345703125,0.2292633056640625,0.075103759765625
1772876978038796000,0.218796142578125,-0.882080078125,0.2978668212890625,0.0756072998046875
1772876978048728800,0.228728759765625,-0.8713836669921875,0.3339080810546875,0.083526611328125
1772876978058662000,0.238661865234375,-0.9095611572265625,0.325042724609375,0.097015380859375
1772876978068594000,0.248593994140625,-0.9322052001953125,0.338775634765625,0.11260986328125
1772876978078527000,0.25852685546875,-0.9232940673828125,0.3478240966796875,0.14251708984375
1772876978088460000,0.2684599609375,-0.9068756103515625,0.3409881591796875,0.160003662109375
1772876978098391800,0.278391845703125,-0.88690185546875,0.3160858154296875,0.1483612060546875
1772876978108324900,0.288324951171875,-0.865020751953125,0.3194122314453125,0.1441650390625
1772876978118257700,0.298257568359375,-0.8156585693359375,0.3202056884765625,0.1068878173828125
1772876978128191000,0.30819091796875,-0.764892578125,0.304351806640625,0.0989532470703125
1772876978138122800,0.318122802734375,-0.7150115966796875,0.278472900390625,0.1210174560546875
1772876978148055800,0.328055908203125,-0.6575927734375,0.2691497802734375,0.1383056640625
1772876978157988900,0.33798876953125,-0.569610595703125,0.333740234375,0.1600494384765625
1772876978167921000,0.3479208984375,-0.4563446044921875,0.22784423828125,0.1387481689453125
1772876978177853700,0.357853759765625,-0.399200439453125,0.151275634765625,0.22100830078125
1772876978187786800,0.367786865234375,-0.2821502685546875,0.24163818359375,0.3204345703125
1772876978197719800,0.3777197265625,-0.14288330078125,0.2476959228515625,0.302520751953125
1772876978207651800,0.38765185546875,-0.0994873046875,0.243438720703125,0.2536468505859375
1772876978217585000,0.3975849609375,-0.1298065185546875,0.2521209716796875,0.2899627685546875
1772876978227518000,0.40751806640625,-0.1630401611328125,0.2865753173828125,0.3141632080078125
1772876978237450800,0.41745068359375,-0.2766571044921875,0.314178466796875,0.183685302734375
1772876978247382800,0.4273828125,-0.427459716796875,0.4076080322265625,0.1392364501953125
1772876978257315800,0.43731591796875,-0.6064453125,0.551300048828125,0.1309967041015625
1772876978267249000,0.447248779296875,-0.757415771484375,0.6663665771484375,0.0713348388671875
1772876978277181000,0.457180908203125,-0.8892822265625,0.7874298095703125,0.0684967041015625
1772876978287114000,0.467114013671875,-0.977783203125,0.8309173583984375,0.09930419921875
1772876978297046800,0.477046875,-1.0335693359375,0.8521881103515625,0.140655517578125
1772876978306979800,0.486979736328125,-1.0727081298828125,0.82781982421875,0.0895538330078125
1772876978316911900,0.496911865234375,-1.1928253173828125,0.8668212890625,0.07000732421875
1772876978326845000,0.506844970703125,-1.2642669677734375,0.986236572265625,0.08502197265625
1772876978336778000,0.516778076171875,-1.3025665283203125,1.040771484375,-0.0314788818359375
1772876978346711000,0.5267109375,-1.31341552734375,1.040924072265625,-0.0951385498046875
1772876978356643000,0.53664306640625,-1.26116943359375,1.0914154052734375,-0.0424346923828125
1772876978366575900,0.546575927734375,-1.29095458984375,0.97039794921875,-0.2220611572265625
1772876978376509000,0.556509033203125,-1.264251708984375,0.804779052734375,-0.3081817626953125
1772876978386441000,0.56644091796875,-1.0051422119140625,0.7700347900390625,-0.2375030517578125
1772876978396374000,0.5763740234375,-0.8507080078125,0.5765533447265625,-0.2852020263671875
1772876978406307000,0.58630712890625,-0.7424468994140625,0.416900634765625,-0.2812957763671875
1772876978416239900,0.596239990234375,-0.616363525390625,0.3676910400390625,-0.2196044921875
1772876978426172000,0.606171875,-0.544586181640625,0.319732666015625,-0.2116241455078125
1772876978436104700,0.616104736328125,-0.4825897216796875,0.3603363037109375,-0.1493377685546875
1772876978446037800,0.626037841796875,-0.503875732421875,0.4171295166015625,-0.0720672607421875
1772876978455969800,0.6359697265625,-0.60736083984375,0.4237060546875,-0.000244140625
1772876978465902800,0.64590283203125,-0.4964599609375,0.5127716064453125,0.025054931640625
1772876978475836000,0.6558359375,-0.58447265625,0.489501953125,-0.0349578857421875
1772876978485768700,0.665768798828125,-0.6267852783203125,0.4872283935546875,-0.0663604736328125
1772876978495700700,0.67570068359375,-0.694366455078125,0.667236328125,-0.02410888671875
1772876978505633800,0.6856337890625,-0.8580322265625,0.780914306640625,0.0303192138671875
1772876978515566800,0.69556689453125,-1.153289794921875,0.8994903564453125,-0.011505126953125
1772876978525500000,0.7055,-1.4009857177734375,1.1225433349609375,-0.022735595703125
1772876978535432000,0.715431884765625,-1.6882476806640625,1.311279296875,0.0526123046875
1772876978545364700,0.72536474609375,-1.9043426513671875,1.434234619140625,0.09222412109375
1772876978555297800,0.7352978515625,-1.9505157470703125,1.4888153076171875,0.11871337890625
1772876978565229800,0.745229736328125,-1.8425750732421875,1.475494384765625,0.1612701416015625
1772876978575163000,0.755162841796875,-1.75,1.300384521484375,0.26226806640625
1772876978585096000,0.765095947265625,-1.716400146484375,1.115631103515625,0.4344024658203125
1772876978595029000,0.775029052734375,-1.6584320068359375,0.9705352783203125,0.6312408447265625
1772876978604961000,0.7849609375,-1.55767822265625,0.9029541015625,0.7951507568359375
1772876978614893800,0.794893798828125,-1.428375244140625,0.929290771484375,0.859710693359375
1772876978624827000,0.804826904296875,-1.29071044921875,1.044158935546875,0.82012939453125
1772876978634760000,0.814760009765625,-1.20989990234375,1.2294921875,0.6966400146484375
1772876978644692000,0.82469189453125,-1.180877685546875,1.48809814453125,0.532318115234375
1772876978654625000,0.834625,-1.168212890625,1.74908447265625,0.37274169921875
1772876978664557800,0.844557861328125,-1.181671142578125,1.9168853759765625,0.2368011474609375
1772876978674489900,0.85448974609375,-1.2061004638671875,1.985321044921875,0.1190338134765625
1772876978684423000,0.8644228515625,-1.34930419921875,2.0049285888671875,0.15191650390625
1772876978694356000,0.87435595703125,-1.3903350830078125,1.9000091552734375,0.1439361572265625
1772876978704289000,0.8842890625,-1.2024688720703125,1.71435546875,0.10931396484375
1772876978714220800,0.894220703125,-0.7634429931640625,1.4224090576171875,0.1097869873046875
1772876978724154000,0.904154052734375,-0.508544921875,0.9349212646484375,0.1935577392578125
1772876978734087000,0.9140869140625,-1.0067291259765625,0.7602996826171875,0.0521087646484375
1772876978744020000,0.92402001953125,-0.9961090087890625,0.9185028076171875,-0.1204833984375
1772876978753951700,0.93395166015625,-0.9080352783203125,0.62451171875,-0.185577392578125
1772876978763884800,0.943884765625,-0.5494384765625,0.345916748046875,-0.2489776611328125
1772876978773817900,0.95381787109375,-0.1072235107421875,0.19366455078125,-0.26873779296875
1772876978783750000,0.96375,0.2547454833984375,0.06292724609375,-0.270050048828125
1772876978793682700,0.9736826171875,0.54034423828125,0.0062408447265625,-0.2493133544921875
1772876978803615700,0.98361572265625,0.6349029541015625,-0.09283447265625,-0.2528533935546875
1772876978813548800,0.993548828125,0.816741943359375,-0.0921630859375,-0.2046051025390625
1772876978823480800,1.003480712890625,0.965545654296875,-0.1303863525390625,-0.18658447265625
1772876978833414000,1.013413818359375,0.9589691162109375,-0.1877593994140625,-0.1684722900390625
1772876978843347000,1.023346923828125,0.9340972900390625,-0.129150390625,-0.14385986328125
1772876978853279000,1.033279052734375,0.8078765869140625,-0.0205230712890625,-0.1013946533203125
1772876978863211800,1.043211669921875,0.565673828125,0.07452392578125,-0.002166748046875
1772876978873144800,1.053144775390625,0.2726287841796875,0.1073150634765625,0.1493988037109375
1772876978883078000,1.063077880859375,-0.145355224609375,0.09588623046875,0.3515167236328125
1772876978893010000,1.073010009765625,-0.4765472412109375,0.105010986328125,0.523712158203125
1772876978902943000,1.08294287109375,-0.613983154296875,0.08062744140625,0.6212310791015625
1772876978912875800,1.092875732421875,-0.6010894775390625,0.0449371337890625,0.6085052490234375
1772876978922808800,1.102808837890625,-0.5044708251953125,0.0442352294921875,0.5340728759765625
1772876978932740900,1.112740966796875,-0.329010009765625,0.0923309326171875,0.3881988525390625
1772876978942674000,1.122673828125,-0.146392822265625,0.090789794921875,0.1787872314453125
1772876978952607000,1.13260693359375,0.013885498046875,0.1454315185546875,-0.0512542724609375
1772876978962539000,1.1425390625,0.088653564453125,0.1951751708984375,-0.23394775390625
1772876978972472000,1.15247216796875,0.0891571044921875,0.1871490478515625,-0.3401031494140625
1772876978982404900,1.16240478515625,0.048095703125,0.1651611328125,-0.356414794921875
1772876978992338000,1.172337890625,-0.03070068359375,0.132598876953125,-0.2928009033203125
1772876979002270000,1.18227001953125,-0.1234588623046875,0.0774993896484375,-0.175018310546875
1772876979012203000,1.192203125,-0.2210693359375,-0.0080718994140625,-0.054901123046875
1772876979022136000,1.202135986328125,-0.312255859375,-0.078277587890625,0.0522918701171875
1772876979032067800,1.21206787109375,-0.3837890625,-0.119232177734375,0.1488037109375
1772876979042001000,1.2220009765625,-0.489471435546875,-0.155670166015625,0.21240234375
1772876979051933700,1.23193359375,-0.649658203125,-0.116668701171875,0.2545623779296875
1772876979061866800,1.24186669921875,-0.7884979248046875,0.0646209716796875,0.2217559814453125
1772876979071798800,1.251798828125,-0.684326171875,0.46978759765625,0.010284423828125
1772876979081731800,1.26173193359375,-0.5084991455078125,0.7877044677734375,-0.05743408203125
1772876979091665000,1.271664794921875,-0.2193603515625,1.0759429931640625,-0.0955657958984375
1772876979101597000,1.281596923828125,0.0359649658203125,1.332366943359375,-0.0908966064453125
1772876979111529700,1.29152978515625,0.0218353271484375,1.604248046875,-0.14080810546875
1772876979121462800,1.301462890625,-0.3061981201171875,1.9971160888671875,-0.2909393310546875
1772876979131395800,1.311395751953125,-1.188629150390625,2.3863677978515625,-0.3797760009765625
1772876979141328000,1.321327880859375,-3.290771484375,2.513275146484375,0.0663909912109375
1772876979151261000,1.331260986328125,-4.6221923828125,2.6287841796875,0.6348114013671875
1772876979161193700,1.34119384765625,-3.499267578125,2.653594970703125,0.4140625
1772876979171126800,1.351126708984375,-2.1526641845703125,2.2296905517578125,-0.2152252197265625
1772876979181058800,1.361058837890625,-0.9949188232421875,1.979400634765625,-0.62847900390625
1772876979190992000,1.370991943359375,-0.3398590087890625,1.9154052734375,-0.7936553955078125
1772876979200925000,1.380925048828125,-0.358795166015625,1.773345947265625,-0.611846923828125
1772876979210858000,1.39085791015625,-0.613861083984375,1.577606201171875,-0.2151336669921875
1772876979220790000,1.4007900390625,-0.9020538330078125,1.4314422607421875,0.2093658447265625
1772876979230722800,1.410722900390625,-1.2342681884765625,1.342498779296875,0.562957763671875
1772876979240656000,1.42065576171875,-1.58056640625,1.3506622314453125,0.8144683837890625
1772876979250588000,1.430587890625,-1.8423004150390625,1.4810943603515625,0.870758056640625
1772876979260521000,1.44052099609375,-1.9918212890625,1.64520263671875,0.69683837890625
1772876979270454000,1.4504541015625,-1.8234710693359375,1.79400634765625,0.409027099609375
1772876979280386800,1.46038671875,-1.5173492431640625,1.9003448486328125,0.1046295166015625
1772876979290318800,1.47031884765625,-1.3244171142578125,1.87652587890625,-0.14056396484375
1772876979300252000,1.480251953125,-1.1976165771484375,1.820404052734375,-0.205657958984375
1772876979310185500,1.490185546875,-1.1127166748046875,1.699005126953125,-0.146026611328125
1772876979320117500,1.500117431640625,-0.9701080322265625,1.5298919677734375,-0.0291748046875
1772876979330050600,1.510050537109375,-0.941741943359375,1.313446044921875,0.0843048095703125
1772876979339983400,1.5199833984375,-1.015594482421875,1.2254638671875,0.0589752197265625
1772876979349916400,1.52991650390625,-0.9702301025390625,1.1332855224609375,0.0004730224609375
1772876979359848400,1.539848388671875,-0.857696533203125,0.9001312255859375,-0.0405731201171875
1772876979369781500,1.549781494140625,-0.5708770751953125,0.6633758544921875,-0.06884765625
1772876979379714600,1.559714599609375,-0.344879150390625,0.5142669677734375,-0.1487579345703125
1772876979389646600,1.569646484375,-0.132293701171875,0.4138641357421875,-0.268768310546875
1772876979399579600,1.57957958984375,0.180755615234375,0.2946319580078125,-0.2647857666015625
1772876979409512400,1.589512451171875,0.4745330810546875,0.1100616455078125,-0.1735687255859375
1772876979419445500,1.599445556640625,0.6671905517578125,0.02276611328125,-0.1172943115234375
1772876979429377500,1.60937744140625,0.783172607421875,0.0532989501953125,-0.0899810791015625
1772876979439310600,1.619310546875,0.88018798828125,0.063385009765625,-0.068572998046875
1772876979449243600,1.62924365234375,0.91015625,0.026702880859375,0.0015106201171875
1772876979459176400,1.639176513671875,0.9395751953125,-0.0830230712890625,0.0559234619140625
1772876979469108500,1.6491083984375,0.8952178955078125,-0.2550811767578125,0.11248779296875
1772876979479041500,1.65904150390625,0.7968902587890625,-0.24774169921875,0.290557861328125
1772876979488974600,1.668974609375,0.5746307373046875,-0.2801513671875,0.4214630126953125
1772876979498906600,1.67890673828125,0.23046875,-0.301605224609375,0.501220703125
1772876979508839700,1.688839599609375,-0.049285888671875,-0.2454681396484375,0.526275634765625
1772876979518772500,1.6987724609375,-0.198638916015625,-0.11663818359375,0.5109405517578125
1772876979528705500,1.70870556640625,-0.2781524658203125,-0.0023956298828125,0.40838623046875
1772876979538637300,1.71863720703125,-0.3144989013671875,0.102447509765625,0.242584228515625
1772876979548570400,1.7285703125,-0.3213958740234375,0.201507568359375,0.0718841552734375
1772876979558503400,1.73850341796875,-0.3065948486328125,0.2542266845703125,-0.0968170166015625
1772876979568435500,1.748435546875,-0.2787933349609375,0.2509765625,-0.2099761962890625
1772876979578368500,1.758368408203125,-0.219085693359375,0.2259521484375,-0.2626495361328125
1772876979588301300,1.76830126953125,-0.1173095703125,0.1807861328125,-0.2917022705078125
1772876979598234400,1.778234375,-0.041595458984375,0.116790771484375,-0.303619384765625
1772876979608166400,1.78816650390625,-0.0239715576171875,0.050811767578125,-0.3226470947265625
1772876979618099500,1.798099365234375,-0.075714111328125,0.015594482421875,-0.3212127685546875
1772876979628032500,1.808032470703125,-0.167449951171875,0.0282745361328125,-0.2671051025390625
1772876979637964500,1.817964599609375,-0.2593841552734375,0.075653076171875,-0.1800079345703125
1772876979647897600,1.827897705078125,-0.3448638916015625,0.0820159912109375,-0.0898895263671875
1772876979657830400,1.837830322265625,-0.3662261962890625,0.06597900390625,0.01251220703125
1772876979667763500,1.847763427734375,-0.3435516357421875,0.071868896484375,0.077972412109375
1772876979677695500,1.857695556640625,-0.28863525390625,0.132354736328125,0.0387420654296875
1772876979687628500,1.867628662109375,-0.2351226806640625,0.2530364990234375,-0.0417022705078125
1772876979697561600,1.8775615234375,-0.220306396484375,0.38818359375,-0.0984039306640625
1772876979707494400,1.887494384765625,-0.27447509765625,0.5447235107421875,-0.1082305908203125
1772876979717426400,1.897426513671875,-0.446533203125,0.7628936767578125,-0.09869384765625
1772876979727359500,1.907359375,-0.6117401123046875,1.054931640625,-0.14971923828125
1772876979737292500,1.91729248046875,-0.8553924560546875,1.3514556884765625,-0.13177490234375
1772876979747224600,1.927224609375,-1.3069000244140625,1.5527496337890625,-0.0440521240234375
1772876979757157600,1.93715771484375,-1.877593994140625,1.784942626953125,0.0981903076171875
1772876979767090400,1.94709033203125,-2.459320068359375,2.0933837890625,0.2260284423828125
1772876979777023500,1.9570234375,-2.99639892578125,2.396392822265625,0.1911773681640625
1772876979786955500,1.96695556640625,-3.2658538818359375,2.6594696044921875,0.065185546875
1772876979796888600,1.976888671875,-3.0882415771484375,2.7863616943359375,-0.142791748046875
1772876979806821600,1.986821533203125,-2.604034423828125,2.5799407958984375,-0.3371124267578125
1772876979816754700,1.996754638671875,-2.097412109375,2.22320556640625,-0.433868408203125
1772876979826686700,2.006686767578125,-1.7627105712890625,1.9088287353515625,-0.40142822265625
1772876979836619500,2.01661962890625,-1.7118988037109375,1.708251953125,-0.30096435546875
1772876979846552600,2.026552490234375,-1.914154052734375,1.6181640625,-0.2026824951171875
1772876979856484400,2.036484375,-2.1040802001953125,1.5975189208984375,-0.1364898681640625
1772876979866417400,2.04641748046875,-2.1409149169921875,1.5876007080078125,-0.1275634765625
1772876979876350500,2.0563505859375,-1.9737091064453125,1.6068878173828125,-0.1694488525390625
1772876979886283500,2.066283447265625,-1.620880126953125,1.5503997802734375,-0.23858642578125
1772876979896215600,2.076215576171875,-1.2557220458984375,1.395538330078125,-0.3316497802734375
1772876979906148400,2.0861484375,-0.9794769287109375,1.178680419921875,-0.362579345703125
1772876979916081400,2.096081298828125,-0.8130645751953125,0.971343994140625,-0.28704833984375
1772876979926013400,2.106013427734375,-0.69427490234375,0.7484130859375,-0.1098175048828125
1772876979935946500,2.115946533203125,-0.6580810546875,0.526702880859375,0.130035400390625
1772876979945879600,2.125879638671875,-0.87823486328125,0.5615081787109375,0.1454620361328125
1772876979955812400,2.135812255859375,-0.9677886962890625,0.6938934326171875,-0.0020904541015625
1772876979965744400,2.145744384765625,-0.8441009521484375,0.7072906494140625,-0.1369171142578125
1772876979975677400,2.155677490234375,-0.57330322265625,0.645843505859375,-0.3424224853515625
1772876979985610500,2.165610595703125,-0.220428466796875,0.573394775390625,-0.4705352783203125
1772876979995542500,2.17554248046875,0.0945587158203125,0.4190826416015625,-0.4957733154296875
1772876980005475600,2.1854755859375,0.3210601806640625,0.2054595947265625,-0.3987579345703125
1772876980015408600,2.19540869140625,0.4747467041015625,0.0046539306640625,-0.1661834716796875
1772876980025341400,2.205341552734375,0.5662384033203125,-0.22271728515625,0.1259765625
1772876980035273500,2.2152734375,0.6329803466796875,-0.377777099609375,0.3818817138671875
1772876980045206500,2.22520654296875,0.6551361083984375,-0.3401031494140625,0.5372314453125
1772876980055139600,2.2351396484375,0.60699462890625,-0.2449798583984375,0.5100860595703125
1772876980065071600,2.245071533203125,0.56976318359375,-0.1620941162109375,0.43914794921875
1772876980075004700,2.255004638671875,0.4994964599609375,-0.0827178955078125,0.389495849609375
1772876980084937500,2.2649375,0.3440704345703125,-0.019195556640625,0.360595703125
1772876980094870500,2.27487060546875,0.195526123046875,0.0252227783203125,0.3251953125
1772876980104802600,2.284802490234375,0.054534912109375,0.06103515625,0.2626190185546875
1772876980114735600,2.294735595703125,-0.069549560546875,0.082000732421875,0.18060302734375
1772876980124668700,2.304668701171875,-0.1678009033203125,0.0883636474609375,0.0850067138671875
1772876980134600400,2.314600341796875,-0.209930419921875,0.1060943603515625,-0.045928955078125
1772876980144533500,2.324533447265625,-0.2276763916015625,0.100616455078125,-0.1958465576171875
1772876980154466300,2.33446630859375,-0.255889892578125,0.0965728759765625,-0.301055908203125
1772876980164399400,2.3443994140625,-0.2710723876953125,0.1151275634765625,-0.3487548828125
1772876980174331400,2.354331298828125,-0.2923126220703125,0.1133880615234375,-0.3575592041015625
1772876980184264400,2.364264404296875,-0.323760986328125,0.093536376953125,-0.3436737060546875
1772876980194197500,2.374197509765625,-0.32867431640625,0.0842132568359375,-0.324005126953125
1772876980204130300,2.38413037109375,-0.3255157470703125,0.0985260009765625,-0.3037872314453125
1772876980214062300,2.394062255859375,-0.3353118896484375,0.10931396484375,-0.2846527099609375
1772876980223995400,2.403995361328125,-0.324951171875,0.1259765625,-0.279815673828125
1772876980233928400,2.413928466796875,-0.2695159912109375,0.1526336669921875,-0.2708282470703125
1772876980243860500,2.423860595703125,-0.2341766357421875,0.174652099609375,-0.235015869140625
1772876980253793500,2.43379345703125,-0.2227325439453125,0.1724853515625,-0.152740478515625
1772876980263726600,2.4437265625,-0.2480010986328125,0.1705322265625,-0.032318115234375
1772876980273659400,2.453659423828125,-0.22235107421875,0.273406982421875,0.0239105224609375
1772876980283591400,2.46359130859375,-0.130950927734375,0.435821533203125,0.077789306640625
1772876980293524500,2.4735244140625,-0.105926513671875,0.5913848876953125,0.1337127685546875
1772876980303457500,2.48345751953125,-0.1602935791015625,0.8438262939453125,0.1766510009765625
1772876980313389600,2.4933896484375,-0.306640625,1.0985870361328125,0.285369873046875
1772876980323322600,2.503322509765625,-0.671875,1.300048828125,0.409759521484375
1772876980333255400,2.51325537109375,-1.302947998046875,1.484649658203125,0.57940673828125
1772876980343188500,2.5231884765625,-2.1082611083984375,1.7347259521484375,0.7473297119140625
1772876980353120500,2.53312060546875,-2.8805694580078125,2.018035888671875,0.9202423095703125
1772876980363053600,2.543053466796875,-3.339508056640625,2.3760833740234375,0.936370849609375
1772876980372986600,2.552986572265625,-3.2783660888671875,2.5907135009765625,0.6514892578125
1772876980382919400,2.56291943359375,-2.8275146484375,2.5123443603515625,0.3510284423828125
1772876980392851700,2.572851806640625,-2.2511138916015625,2.3553314208984375,0.172882080078125
1772876980402784500,2.582784423828125,-1.95001220703125,2.21282958984375,0.146881103515625
1772876980412717600,2.592717529296875,-1.83349609375,2.2453155517578125,0.0901031494140625
1772876980422649600,2.602649658203125,-1.8168792724609375,2.1958160400390625,-0.0207061767578125
1772876980432582700,2.612582763671875,-1.92388916015625,2.0907135009765625,-0.1187286376953125
1772876980442515700,2.622515625,-2.081817626953125,2.0003509521484375,-0.0885772705078125
1772876980452448500,2.632448486328125,-2.1433258056640625,1.9149017333984375,-0.0262603759765625
1772876980462380500,2.642380615234375,-2.0583648681640625,1.78643798828125,-0.0319671630859375
1772876980472313600,2.652313720703125,-1.8103790283203125,1.6689605712890625,-0.0909881591796875
1772876980482246700,2.66224658203125,-1.5206146240234375,1.5310821533203125,-0.1741790771484375
1772876980492178700,2.6721787109375,-1.2068939208984375,1.347137451171875,-0.2105712890625
1772876980502111700,2.68211181640625,-0.8815765380859375,1.195098876953125,-0.222320556640625
1772876980512044500,2.69204443359375,-0.632049560546875,1.015380859375,-0.2240447998046875
1772876980521977600,2.7019775390625,-0.4443359375,0.738494873046875,-0.145660400390625
1772876980531909600,2.71190966796875,-0.2336883544921875,0.5308685302734375,-0.0206146240234375
1772876980541842700,2.7218427734375,-0.047454833984375,0.4417266845703125,0.011383056640625
1772876980551775700,2.731775634765625,0.14385986328125,0.3864898681640625,-0.0668182373046875
1772876980561707800,2.741707763671875,0.51458740234375,0.1628875732421875,-0.021514892578125
1772876980571640800,2.751640869140625,1.08551025390625,-0.193115234375,0.2238006591796875
1772876980581573600,2.76157373046875,1.2445831298828125,-0.200103759765625,0.2849578857421875
1772876980591506700,2.771506591796875,1.2317962646484375,-0.198486328125,0.2861175537109375
1772876980601438500,2.7814384765625,1.1884613037109375,-0.2916412353515625,0.33819580078125
1772876980611371500,2.79137158203125,1.0676116943359375,-0.1326141357421875,0.3253173828125
1772876980621304600,2.8013046875,0.747894287109375,0.00531005859375,0.3269195556640625
1772876980631237600,2.811237548828125,0.40045166015625,0.0022735595703125,0.361328125
1772876980641169700,2.821169677734375,0.1630706787109375,0.0733642578125,0.4377899169921875
1772876980651102500,2.8311025390625,-0.0416259765625,0.1161041259765625,0.487091064453125
1772876980661035500,2.841035400390625,-0.1680145263671875,0.1764984130859375,0.5033721923828125
1772876980670967600,2.850967529296875,-0.106903076171875,0.0733184814453125,0.325927734375
1772876980680900600,2.860900634765625,-0.097259521484375,0.010101318359375,0.180023193359375
1772876980690833700,2.870833740234375,-0.0648956298828125,0.1015625,0.0810394287109375
1772876980700766500,2.880766357421875,-0.03277587890625,0.0909881591796875,-0.0059661865234375
1772876980710698500,2.890698486328125,-0.12994384765625,0.0737762451171875,-0.049713134765625
1772876980720631600,2.900631591796875,-0.265106201171875,0.1067962646484375,-0.0546417236328125
1772876980730564600,2.910564697265625,-0.40911865234375,0.109100341796875,-0.0343017578125
1772876980740496600,2.92049658203125,-0.5482025146484375,0.0606842041015625,-0.02410888671875
1772876980750429700,2.9304296875,-0.636138916015625,0.02886962890625,-0.00341796875
1772876980760362800,2.94036279296875,-0.5980682373046875,0.0024261474609375,-0.0048065185546875
1772876980770295600,2.950295654296875,-0.46234130859375,-0.0364532470703125,-0.01763916015625
1772876980780227600,2.9602275390625,-0.29351806640625,-0.075927734375,-0.0399322509765625
1772876980790160600,2.97016064453125,-0.1199493408203125,-0.08648681640625,-0.059051513671875
1772876980800093700,2.98009375,0.0090484619140625,-0.07818603515625,-0.1048583984375
1772876980810025700,2.990025634765625,0.051177978515625,-0.0495758056640625,-0.15106201171875
1772876980819958800,2.999958740234375,-0.05169677734375,0.002593994140625,-0.1043243408203125
1772876980829891600,3.0098916015625,-0.2487335205078125,0.092620849609375,-0.01483154296875
1772876980839824600,3.01982470703125,-0.374786376953125,0.22259521484375,0.0647735595703125
1772876980849756700,3.029756591796875,-0.4569854736328125,0.3534088134765625,0.0972900390625
1772876980859689700,3.039689697265625,-0.4944915771484375,0.580230712890625,0.072998046875
1772876980869622800,3.049622802734375,-0.426544189453125,0.9584808349609375,-0.0731353759765625
1772876980879554600,3.059554443359375,-0.5141448974609375,1.242462158203125,-0.2158050537109375
1772876980889487600,3.069487548828125,-0.8704833984375,1.5811920166015625,-0.2308197021484375
1772876980899420700,3.079420654296875,-1.4067840576171875,2.1041412353515625,-0.128021240234375
1772876980909353700,3.089353759765625,-2.408538818359375,2.47711181640625,0.1942596435546875
1772876980919285500,3.099285400390625,-3.559173583984375,2.858642578125,0.6721038818359375
1772876980929218600,3.109218505859375,-4.1230010986328125,3.1325225830078125,1.0196990966796875
1772876980939151600,3.119151611328125,-3.8241729736328125,2.9048919677734375,1.0417022705078125
1772876980949084400,3.12908447265625,-2.959869384765625,2.4588165283203125,0.7453155517578125
1772876980959016400,3.139016357421875,-2.127593994140625,2.145172119140625,0.432861328125
1772876980968949500,3.148949462890625,-1.5778656005859375,1.9755401611328125,0.1716766357421875
1772876980978882600,3.158882568359375,-1.27972412109375,1.856903076171875,0.0146942138671875
1772876980988814600,3.168814697265625,-1.1577301025390625,1.7483062744140625,0.000274658203125
1772876980998747600,3.17874755859375,-1.0954437255859375,1.5990447998046875,0.058624267578125
1772876981008680700,3.1886806640625,-1.0070037841796875,1.357818603515625,0.179473876953125
1772876981018613500,3.198613525390625,-0.9614715576171875,1.1026153564453125,0.373748779296875
1772876981028545500,3.208545654296875,-1.160888671875,1.0830841064453125,0.4666900634765625
1772876981038478600,3.218478515625,-1.4189453125,1.216400146484375,0.3627777099609375
1772876981048411600,3.22841162109375,-1.55413818359375,1.2349395751953125,0.2540435791015625
1772876981058343700,3.23834375,-1.6088104248046875,1.1896514892578125,0.1864013671875
1772876981068276700,3.24827685546875,-1.5045928955078125,1.2218170166015625,0.121490478515625
1772876981078209500,3.25820947265625,-1.2934722900390625,1.167327880859375,0.0946044921875
1772876981088142600,3.268142578125,-1.0449066162109375,0.9715423583984375,0.081878662109375
1772876981098074600,3.27807470703125,-0.77874755859375,0.7894744873046875,0.0572509765625
1772876981108007700,3.288007568359375,-0.5867156982421875,0.6696929931640625,0.0314788818359375
1772876981117940700,3.297940673828125,-0.36962890625,0.6025543212890625,-0.0535888671875
1772876981127873500,3.30787353515625,-0.0913543701171875,0.5284576416015625,-0.171234130859375
1772876981137805800,3.317805908203125,0.184234619140625,0.3858642578125,-0.2965240478515625
1772876981147738600,3.327738525390625,0.4553070068359375,0.209625244140625,-0.3347625732421875
1772876981157671700,3.337671630859375,0.705322265625,0.1223297119140625,-0.29876708984375
1772876981167603700,3.347603759765625,0.77435302734375,0.0079193115234375,-0.1930389404296875
1772876981177536800,3.357536865234375,0.8188934326171875,-0.172943115234375,0.010498046875
1772876981187469800,3.3674697265625,1.0047454833984375,-0.4402313232421875,0.277587890625
1772876981197402600,3.377402587890625,0.93389892578125,-0.4696044921875,0.514068603515625
1772876981207334400,3.38733447265625,0.5652923583984375,-0.2839508056640625,0.5728302001953125
1772876981217267500,3.397267333984375,0.296783447265625,-0.1019287109375,0.55859375
1772876981227200500,3.407200439453125,0.14581298828125,0.0250396728515625,0.4827117919921875
1772876981237132500,3.417132568359375,0.0388946533203125,0.0757904052734375,0.33465576171875
1772876981247065600,3.427065673828125,-0.0290374755859375,0.1226654052734375,0.231170654296875
1772876981256998700,3.43699853515625,-0.0469818115234375,0.1166229248046875,0.153106689453125
1772876981266931500,3.446931396484375,-0.0142669677734375,0.0539703369140625,0.0848388671875
1772876981276863500,3.456863525390625,0.0219268798828125,-0.0090179443359375,0.0242767333984375
1772876981286796500,3.466796630859375,0.017547607421875,-0.0317230224609375,-0.0254669189453125
1772876981296729600,3.4767294921875,-0.0538330078125,-0.02362060546875,-0.0729522705078125
1772876981306662000,3.486661865234375,-0.1789398193359375,0.0301361083984375,-0.0905914306640625
1772876981316595000,3.496594970703125,-0.31085205078125,0.0915374755859375,-0.096221923828125
1772876981326527700,3.50652783203125,-0.4133758544921875,0.1517333984375,-0.1116790771484375
1772876981336460800,3.516460693359375,-0.4481048583984375,0.1906585693359375,-0.1494598388671875
1772876981346392800,3.526392822265625,-0.389739990234375,0.213714599609375,-0.1797943115234375
1772876981356326000,3.536325927734375,-0.256744384765625,0.2034912109375,-0.21405029296875
1772876981366259000,3.546259033203125,-0.113372802734375,0.1750335693359375,-0.2291259765625
1772876981376191000,3.55619091796875,0.0107421875,0.1349334716796875,-0.22003173828125
1772876981386123800,3.566123779296875,0.09375,0.103790283203125,-0.205352783203125
1772876981396056800,3.576056884765625,0.1093902587890625,0.09698486328125,-0.1947784423828125
1772876981405990000,3.585989990234375,0.0419464111328125,0.07586669921875,-0.1793060302734375
1772876981415921700,3.595921630859375,-0.07696533203125,0.1157989501953125,-0.1510772705078125
1772876981425854700,3.605854736328125,-0.1348724365234375,0.275238037109375,-0.1724090576171875
1772876981435787800,3.615787841796875,-0.18255615234375,0.39715576171875,-0.1011505126953125
1772876981445719800,3.6257197265625,-0.283477783203125,0.533477783203125,0.027374267578125
1772876981455652600,3.635652587890625,-0.35845947265625,0.830657958984375,0.199676513671875
1772876981465585700,3.645585693359375,-0.5047454833984375,1.0982818603515625,0.4451446533203125
1772876981475518700,3.655518798828125,-0.7995147705078125,1.3973541259765625,0.6656036376953125
1772876981485450800,3.66545068359375,-1.3208465576171875,1.7946929931640625,0.84185791015625
1772876981495383800,3.6753837890625,-1.9427337646484375,2.393402099609375,0.9025115966796875
1772876981505316600,3.685316650390625,-2.9697418212890625,2.7065582275390625,1.0110321044921875
1772876981515249700,3.695249755859375,-3.7546844482421875,2.94281005859375,1.136444091796875
1772876981525181700,3.705181640625,-3.8060760498046875,3.060211181640625,1.12860107421875
1772876981535114800,3.71511474609375,-3.438568115234375,2.6622314453125,1.0675506591796875
1772876981545047800,3.7250478515625,-2.7225494384765625,2.23297119140625,0.92620849609375
1772876981554979800,3.734979736328125,-2.0563812255859375,2.0450897216796875,0.725433349609375
1772876981564913000,3.744912841796875,-1.6643218994140625,1.968994140625,0.481475830078125
1772876981574845700,3.754845703125,-1.5016021728515625,1.9603729248046875,0.2869415283203125
1772876981584778800,3.76477880859375,-1.4490966796875,1.9082794189453125,0.1833648681640625
1772876981594710800,3.774710693359375,-1.4713592529296875,1.80303955078125,0.155975341796875
1772876981604643800,3.784643798828125,-1.4797515869140625,1.6473388671875,0.1468963623046875
1772876981614577000,3.794576904296875,-1.4447174072265625,1.4419403076171875,0.197418212890625
1772876981624509700,3.804509765625,-1.4043426513671875,1.2409820556640625,0.30615234375
1772876981634441700,3.814441650390625,-1.394561767578125,1.1136932373046875,0.3879241943359375
1772876981644374800,3.824374755859375,-1.3533477783203125,1.0599365234375,0.4222869873046875
1772876981654307800,3.834307861328125,-1.2759857177734375,1.0205078125,0.390350341796875
1772876981664239900,3.844239990234375,-1.1470184326171875,0.9767913818359375,0.2625274658203125
1772876981674173000,3.8541728515625,-0.944732666015625,0.927947998046875,0.105865478515625
1772876981684106000,3.86410595703125,-0.625823974609375,0.8770599365234375,-0.0384979248046875
1772876981694038800,3.874038818359375,-0.2740936279296875,0.786865234375,-0.1585845947265625
1772876981703970800,3.883970703125,0.0272674560546875,0.6350250244140625,-0.278045654296875
1772876981713903900,3.89390380859375,0.27825927734375,0.4385986328125,-0.3498687744140625
1772876981723837000,3.9038369140625,0.4669189453125,0.26458740234375,-0.3510589599609375
1772876981733768700,3.913768798828125,0.5277557373046875,0.1366119384765625,-0.2834014892578125
1772876981743701800,3.92370166015625,0.5291900634765625,-0.0569305419921875,-0.1639862060546875
1772876981753634800,3.933634765625,0.5688323974609375,-0.2285614013671875,0.02520751953125
1772876981763567600,3.943567626953125,0.6611785888671875,-0.3067474365234375,0.2227935791015625
1772876981773499600,3.953499755859375,0.732635498046875,-0.261260986328125,0.3292388916015625
1772876981783432700,3.9634326171875,0.743408203125,-0.199676513671875,0.3635711669921875
1772876981793365800,3.97336572265625,0.72357177734375,-0.1478424072265625,0.353790283203125
1772876981803296800,3.983296875,0.66827392578125,-0.08447265625,0.3295135498046875
1772876981813228800,3.993228759765625,0.5930938720703125,0.024810791015625,0.284912109375
1772876981823161900,4.003161865234375,0.480621337890625,0.1280059814453125,0.244110107421875
1772876981833095000,4.013094970703125,0.3413543701171875,0.2302093505859375,0.18792724609375
1772876981843027700,4.02302783203125,0.1788177490234375,0.3582305908203125,0.114105224609375
1772876981852959700,4.032959716796875,-0.0004730224609375,0.4323883056640625,0.0361328125
1772876981862892800,4.042892822265625,-0.160919189453125,0.40875244140625,0.008758544921875
1772876981872825900,4.052825927734375,-0.26409912109375,0.30999755859375,0.0442047119140625
1772876981882758000,4.0627578125,-0.3304595947265625,0.1605224609375,0.099212646484375
1772876981892691000,4.07269091796875,-0.365081787109375,0.0274505615234375,0.1505889892578125
1772876981902624000,4.0826240234375,-0.394622802734375,-0.05584716796875,0.1534423828125
1772876981912556800,4.092556884765625,-0.3962860107421875,-0.1145477294921875,0.11865234375
1772876981922488600,4.102488525390625,-0.369140625,-0.1467132568359375,0.0822296142578125
1772876981932421600,4.112421630859375,-0.3362274169921875,-0.1308135986328125,0.025390625
1772876981942354700,4.122354736328125,-0.3032073974609375,-0.0788116455078125,-0.042236328125
1772876981952286700,4.13228662109375,-0.30419921875,-0.041168212890625,-0.1115875244140625
1772876981962219800,4.1422197265625,-0.357452392578125,-0.020965576171875,-0.1810302734375
1772876981972152800,4.15215283203125,-0.4249267578125,-0.027801513671875,-0.2093505859375
1772876981982085600,4.162085693359375,-0.4936676025390625,-0.0608978271484375,-0.14984130859375
1772876981992017700,4.172017578125,-0.6318817138671875,-0.119354248046875,-0.0266265869140625
1772876982001950700,4.18195068359375,-0.845733642578125,-0.10595703125,0.1002655029296875
1772876982011883800,4.1918837890625,-0.9352264404296875,0.1263275146484375,0.0352325439453125
1772876982021816800,4.20181689453125,-0.923675537109375,0.423614501953125,-0.0954742431640625
1772876982031748900,4.211748779296875,-0.8495635986328125,0.7335205078125,-0.2082061767578125
1772876982041681700,4.221681640625,-0.5986175537109375,1.131805419921875,-0.244842529296875
1772876982051614700,4.23161474609375,-0.4522857666015625,1.4956817626953125,-0.1338653564453125
1772876982061546800,4.241546630859375,-0.6480865478515625,1.776580810546875,0.0989990234375
1772876982071479800,4.251479736328125,-1.1045989990234375,2.0690155029296875,0.4298858642578125
1772876982081412900,4.261412841796875,-1.77862548828125,2.246734619140625,0.751922607421875
1772876982091345700,4.271345703125,-2.466522216796875,2.306976318359375,0.96539306640625
1772876982101278000,4.28127783203125,-2.7422943115234375,2.424041748046875,1.0185546875
1772876982111210800,4.291210693359375,-2.5457611083984375,2.4921722412109375,0.819000244140625
1772876982121143800,4.301143798828125,-2.2178497314453125,2.3550872802734375,0.4768829345703125
1772876982131075800,4.311075927734375,-1.9219512939453125,2.1234130859375,0.279937744140625
1772876982141009000,4.3210087890625,-1.6197662353515625,1.9832000732421875,0.2095794677734375
1772876982150942000,4.33094189453125,-1.3807525634765625,1.819580078125,0.1934051513671875
1772876982160874800,4.340874755859375,-1.203399658203125,1.603546142578125,0.286590576171875
1772876982170806800,4.350806884765625,-1.1641693115234375,1.4087371826171875,0.50823974609375
1772876982180742000,4.360741943359375,-1.359405517578125,1.3940277099609375,0.647369384765625
1772876982190674700,4.3706748046875,-1.57958984375,1.520416259765625,0.570159912109375
1772876982200606700,4.380606689453125,-1.6812744140625,1.599029541015625,0.4293365478515625
1772876982210539800,4.390539794921875,-1.6727752685546875,1.639129638671875,0.2501373291015625
1772876982220472800,4.400472900390625,-1.60833740234375,1.731170654296875,0.01129150390625
1772876982230404900,4.41040478515625,-1.51953125,1.6919097900390625,-0.1684112548828125
1772876982240338000,4.420337890625,-1.3878021240234375,1.5070953369140625,-0.1996917724609375
1772876982250270700,4.430270751953125,-1.2506561279296875,1.2657623291015625,-0.155853271484375
1772876982260203800,4.440203857421875,-1.111968994140625,1.013641357421875,-0.0931243896484375
1772876982270135800,4.4501357421875,-0.8983001708984375,0.8515625,-0.03240966796875
1772876982280068900,4.46006884765625,-0.603302001953125,0.7531890869140625,0.016510009765625
1772876982290002000,4.470001953125,-0.3137359619140625,0.683074951171875,0.0518341064453125
1772876982299935000,4.47993505859375,-0.09844970703125,0.582855224609375,0.049530029296875
1772876982309866200,4.4898662109375,0.0594024658203125,0.48773193359375,0.0098724365234375
1772876982319799300,4.49979931640625,0.1670379638671875,0.3862457275390625,-0.047760009765625
1772876982329732000,4.509732177734375,0.28643798828125,0.23150634765625,-0.009552001953125
1772876982339664100,4.5196640625,0.4496002197265625,0.077789306640625,0.0965423583984375
1772876982349597200,4.52959716796875,0.629730224609375,-0.0703887939453125,0.18719482421875
1772876982359530200,4.5395302734375,0.915008544921875,-0.241943359375,0.2577667236328125
1772876982369463300,4.54946337890625,1.1377105712890625,-0.364471435546875,0.2543182373046875
1772876982379395300,4.559395263671875,1.11981201171875,-0.33978271484375,0.1365509033203125
1772876982389328100,4.569328125,0.9208831787109375,-0.204803466796875,0.0395050048828125
1772876982399261200,4.57926123046875,0.6028594970703125,-0.107666015625,0.0695343017578125
1772876982409193200,4.589193115234375,0.262908935546875,-0.014373779296875,0.1538848876953125
1772876982419126300,4.599126220703125,-0.1122283935546875,0.0882720947265625,0.20562744140625
1772876982429059300,4.609059326171875,-0.4312896728515625,0.14013671875,0.221832275390625
1772876982438992400,4.618992431640625,-0.6141204833984375,0.1314239501953125,0.2129974365234375
1772876982448924400,4.62892431640625,-0.6309967041015625,0.1961822509765625,0.1467437744140625
1772876982458857200,4.638857177734375,-0.5731201171875,0.2054290771484375,0.05023193359375
1772876982468790300,4.648790283203125,-0.467132568359375,0.12457275390625,-0.0239715576171875
1772876982478722300,4.658722412109375,-0.3010711669921875,0.0712127685546875,-0.0867156982421875
1772876982488655400,4.6686552734375,-0.1588592529296875,0.0149078369140625,-0.14190673828125
1772876982498588400,4.67858837890625,-0.0523834228515625,-0.0127410888671875,-0.181793212890625
1772876982508521200,4.688521240234375,0.01776123046875,-0.01312255859375,-0.190093994140625
1772876982518453200,4.698453369140625,0.0280609130859375,0.0042877197265625,-0.1631622314453125
1772876982528386300,4.70838623046875,-0.063934326171875,0.03765869140625,-0.145050048828125
1772876982538319400,4.7183193359375,-0.1415863037109375,0.096527099609375,-0.1004791259765625
1772876982548252400,4.72825244140625,-0.1946868896484375,0.13616943359375,-0.0483551025390625
1772876982558184400,4.738184326171875,-0.2254486083984375,0.1202392578125,0.0082244873046875
1772876982568117500,4.748117431640625,-0.196136474609375,0.078948974609375,0.07061767578125
1772876982578050300,4.75805029296875,-0.1649322509765625,0.042999267578125,0.1218719482421875
1772876982587982000,4.767982177734375,-0.1489105224609375,0.0283966064453125,0.133331298828125
1772876982597915400,4.777915283203125,-0.1165924072265625,0.1313629150390625,0.1002960205078125
1772876982607848400,4.787848388671875,-0.1304779052734375,0.3216705322265625,0.0850830078125
1772876982617781500,4.797781494140625,-0.2381439208984375,0.52447509765625,0.1015472412109375
1772876982627713300,4.80771337890625,-0.3833160400390625,0.78338623046875,0.1551513671875
1772876982637646000,4.81764599609375,-0.69793701171875,1.0801849365234375,0.2553558349609375
1772876982647579100,4.8275791015625,-1.2219390869140625,1.4052276611328125,0.3435516357421875
1772876982657511200,4.83751123046875,-1.7850189208984375,1.9293212890625,0.3418121337890625
1772876982667444200,4.8474443359375,-2.2971954345703125,2.5579986572265625,0.28924560546875
1772876982677377300,4.857377197265625,-2.9347381591796875,2.731170654296875,0.4380340576171875
1772876982687310300,4.867310302734375,-3.342132568359375,2.6731719970703125,0.783294677734375
1772876982697242400,4.877242431640625,-3.3274078369140625,2.5452423095703125,1.040313720703125
1772876982707175200,4.887175048828125,-3.02923583984375,2.165252685546875,1.1344757080078125
1772876982717108200,4.897108154296875,-2.5275115966796875,1.8117828369140625,1.0905303955078125
1772876982727040300,4.907040283203125,-1.97637939453125,1.6341094970703125,0.9770355224609375
1772876982736973300,4.916973388671875,-1.513092041015625,1.4680633544921875,0.8525543212890625
1772876982746906400,4.92690625,-1.1493072509765625,1.2519989013671875,0.7648773193359375
1772876982756839200,4.936839111328125,-0.9197540283203125,1.1773223876953125,0.612030029296875
1772876982766771200,4.946771240234375,-0.9148712158203125,1.2728118896484375,0.384246826171875
1772876982776704300,4.956704345703125,-1.1102142333984375,1.3748016357421875,0.2100677490234375
1772876982786637300,4.96663720703125,-1.4109649658203125,1.4936370849609375,0.07415771484375
1772876982796570400,4.9765703125,-1.6973114013671875,1.5782623291015625,0.0510406494140625
1772876982806502400,4.98650244140625,-1.8764495849609375,1.52392578125,0.073455810546875
1772876982816435500,4.996435546875,-1.8220977783203125,1.4254150390625,0.1197357177734375
1772876982826368300,5.0063681640625,-1.594482421875,1.3196563720703125,0.1945648193359375
1772876982836300300,5.01630029296875,-1.29266357421875,1.166717529296875,0.2183074951171875
1772876982846233300,5.0262333984375,-0.978271484375,0.982421875,0.1451263427734375
1772876982856166400,5.03616650390625,-0.6702117919921875,0.839324951171875,0.057373046875
1772876982866099500,5.046099365234375,-0.406829833984375,0.7119598388671875,-0.0113983154296875
1772876982876031500,5.056031494140625,-0.1952362060546875,0.595855712890625,-0.073272705078125
1772876982885964300,5.06596435546875,0.0039215087890625,0.5182952880859375,-0.1527252197265625
1772876982895897300,5.0758974609375,0.212158203125,0.41754150390625,-0.214813232421875
1772876982905829000,5.0858291015625,0.4701690673828125,0.312255859375,-0.2086029052734375
1772876982915762200,5.09576220703125,0.6737518310546875,0.1498565673828125,-0.1380157470703125
1772876982925695200,5.1056953125,0.7859344482421875,-0.0256195068359375,0.000823974609375
1772876982935628300,5.115628173828125,0.844757080078125,-0.142059326171875,0.1739654541015625
1772876982945560300,5.125560302734375,0.88922119140625,-0.265228271484375,0.221038818359375
1772876982955493000,5.1354931640625,0.873016357421875,-0.3464202880859375,0.2120819091796875
1772876982965426200,5.14542626953125,0.7849273681640625,-0.2293701171875,0.1491546630859375
1772876982975359200,5.155359130859375,0.536895751953125,-0.093658447265625,0.063568115234375
1772876982985291300,5.165291259765625,0.3016510009765625,-0.0055694580078125,0.053802490234375
1772876982995224300,5.175224365234375,0.1016693115234375,0.06884765625,0.0805816650390625
1772876983005157000,5.1851572265625,-0.1075897216796875,0.0873565673828125,0.1074676513671875
1772876983015089200,5.195089111328125,-0.221038818359375,0.1013031005859375,0.136688232421875
1772876983025022200,5.205022216796875,-0.3025665283203125,0.10400390625,0.154449462890625
1772876983034955300,5.214955322265625,-0.368194580078125,0.0979461669921875,0.148162841796875
1772876983044888300,5.224888427734375,-0.3795013427734375,0.06719970703125,0.1439056396484375
1772876983054820400,5.2348203125,-0.354278564453125,0.0422821044921875,0.1026611328125
1772876983064753400,5.24475341796875,-0.3421173095703125,0.0434417724609375,0.009735107421875
1772876983074686200,5.254686279296875,-0.3115386962890625,0.06402587890625,-0.0676727294921875
1772876983084618200,5.2646181640625,-0.2593231201171875,0.07598876953125,-0.103912353515625
1772876983094551300,5.27455126953125,-0.20965576171875,0.0701141357421875,-0.1134796142578125
1772876983104484400,5.284484375,-0.1651153564453125,0.05291748046875,-0.075408935546875
1772876983114417400,5.29441748046875,-0.1417083740234375,0.0290679931640625,-0.044158935546875
1772876983124349400,5.304349365234375,-0.1319122314453125,-0.01739501953125,-0.032379150390625
1772876983134282200,5.3142822265625,-0.13677978515625,-0.064453125,-0.017791748046875
1772876983144215300,5.32421533203125,-0.1731109619140625,-0.1083526611328125,0.0162811279296875
1772876983154147300,5.334147216796875,-0.309844970703125,-0.1046905517578125,0.0942535400390625
1772876983164080400,5.344080322265625,-0.4939422607421875,0.0110321044921875,0.115509033203125
1772876983174013400,5.354013427734375,-0.6010894775390625,0.250823974609375,0.050384521484375
1772876983183946500,5.363946533203125,-0.749481201171875,0.4626617431640625,0.0439910888671875
1772876983193878500,5.37387841796875,-0.8861541748046875,0.734100341796875,-0.0084075927734375
1772876983203811300,5.383811279296875,-0.932220458984375,1.182769775390625,0.0083465576171875
1772876983213744400,5.393744384765625,-1.0625762939453125,1.5643157958984375,0.1217803955078125
1772876983223677400,5.403677490234375,-1.3128814697265625,1.8514862060546875,0.31512451171875
1772876983233609200,5.413609130859375,-1.62506103515625,2.1115875244140625,0.462982177734375
1772876983243542300,5.423542236328125,-2.0531005859375,2.15667724609375,0.5579376220703125
1772876983253475000,5.43347509765625,-2.57281494140625,2.03411865234375,0.6895751953125
1772876983263407000,5.443406982421875,-3.03839111328125,1.9573822021484375,0.8346710205078125
1772876983273340200,5.453340087890625,-3.2163543701171875,1.82421875,0.965240478515625
1772876983283273200,5.463273193359375,-2.916107177734375,1.6718292236328125,0.982696533203125
1772876983293206300,5.473206298828125,-2.295989990234375,1.51007080078125,0.79632568359375
1772876983303138300,5.48313818359375,-1.5992279052734375,1.3208770751953125,0.53778076171875
1772876983313071000,5.493071044921875,-1.204254150390625,1.282745361328125,0.31341552734375
1772876983323004000,5.50300390625,-1.1477203369140625,1.440582275390625,0.158660888671875
1772876983332936000,5.51293603515625,-1.1966705322265625,1.5228729248046875,0.125091552734375
1772876983342869000,5.522868896484375,-1.254547119140625,1.48089599609375,0.175445556640625
1772876983352802000,5.532802001953125,-1.4037628173828125,1.5115203857421875,0.2311248779296875
1772876983362735000,5.542735107421875,-1.743499755859375,1.5529632568359375,0.213897705078125
1772876983372667100,5.552667236328125,-2.0605010986328125,1.53033447265625,0.153289794921875
1772876983382600200,5.56260009765625,-2.1279754638671875,1.4253692626953125,0.1576995849609375
1772876983392533000,5.572532958984375,-1.9397735595703125,1.2528228759765625,0.20751953125
1772876983402466000,5.582466064453125,-1.60137939453125,1.074493408203125,0.24261474609375
1772876983412398000,5.592398193359375,-1.1926727294921875,0.9188385009765625,0.175262451171875
1772876983422331100,5.6023310546875,-0.7606658935546875,0.81732177734375,0.0428924560546875
1772876983432264200,5.61226416015625,-0.371063232421875,0.7342071533203125,-0.1002655029296875
1772876983442196000,5.622196044921875,-0.0945281982421875,0.66131591796875,-0.1699676513671875
1772876983452128800,5.632128662109375,0.0839996337890625,0.60577392578125,-0.1769561767578125
1772876983462062000,5.64206201171875,0.231353759765625,0.54931640625,-0.1765289306640625
1772876983471995100,5.6519951171875,0.3505401611328125,0.4196014404296875,-0.1573028564453125
1772876983481927000,5.661927001953125,0.4790191650390625,0.2719573974609375,-0.076904296875
1772876983491860000,5.67185986328125,0.6245574951171875,0.1424407958984375,0.018524169921875
1772876983501793000,5.68179296875,0.7360382080078125,0.0213165283203125,0.1139373779296875
1772876983511725000,5.69172509765625,0.7883758544921875,-0.0757904052734375,0.2008209228515625
1772876983521657900,5.701657958984375,0.777191162109375,-0.1586151123046875,0.2811279296875
1772876983531591000,5.7115908203125,0.699981689453125,-0.1968994140625,0.35858154296875
1772876983541524000,5.72152392578125,0.568572998046875,-0.1582489013671875,0.407928466796875
1772876983551456000,5.7314560546875,0.36865234375,-0.1233367919921875,0.4169921875
1772876983561389000,5.74138916015625,0.1787109375,-0.081695556640625,0.42095947265625
1772876983571321900,5.75132177734375,0.01983642578125,-0.033599853515625,0.3942108154296875
1772876983581255000,5.7612548828125,-0.1187896728515625,0.0010986328125,0.339111328125
1772876983591187000,5.77118701171875,-0.200042724609375,0.03460693359375,0.272216796875
1772876983601120000,5.7811201171875,-0.2608795166015625,0.069427490234375,0.169830322265625
1772876983611053000,5.791052978515625,-0.292022705078125,0.102020263671875,0.0571441650390625
1772876983620985000,5.800985107421875,-0.2971649169921875,0.104705810546875,-0.0402069091796875
1772876983630918100,5.810918212890625,-0.2959747314453125,0.0960235595703125,-0.1290283203125
1772876983640851000,5.820850830078125,-0.27728271484375,0.09478759765625,-0.1925506591796875
1772876983650784000,5.830783935546875,-0.2635498046875,0.083984375,-0.224212646484375
1772876983660716000,5.840716064453125,-0.2597808837890625,0.0566864013671875,-0.2454833984375
1772876983670649000,5.850649169921875,-0.295928955078125,0.0265960693359375,-0.22784423828125
1772876983680582100,5.86058203125,-0.3303070068359375,0.0081939697265625,-0.1877899169921875
1772876983690514200,5.87051416015625,-0.3441619873046875,-0.0145721435546875,-0.161407470703125
1772876983700447000,5.880447021484375,-0.3437957763671875,-0.0159912109375,-0.1446380615234375
1772876983710380000,5.890380126953125,-0.3422698974609375,-0.0059661865234375,-0.1240997314453125
1772876983720313000,5.90031298828125,-0.350921630859375,0.0280303955078125,-0.1238555908203125
1772876983730245000,5.9102451171875,-0.3669586181640625,0.065460205078125,-0.141754150390625
1772876983740178200,5.92017822265625,-0.397430419921875,0.0815582275390625,-0.081939697265625
1772876983750111000,5.930111083984375,-0.5259246826171875,0.1974639892578125,0.000885009765625
1772876983760043000,5.94004296875,-0.64178466796875,0.466949462890625,0.0178070068359375
1772876983769975800,5.949975830078125,-0.728607177734375,0.7920989990234375,0.083740234375
1772876983779908900,5.959908935546875,-0.80279541015625,1.099578857421875,0.2538604736328125
1772876983789842000,5.969842041015625,-0.9228973388671875,1.4244537353515625,0.4535675048828125
1772876983799774000,5.97977392578125,-1.161773681640625,1.7615814208984375,0.5316925048828125
1772876983809707000,5.98970703125,-1.4795989990234375,2.044403076171875,0.4852447509765625
1772876983819639800,5.999639892578125,-1.8740386962890625,2.1071319580078125,0.535400390625
1772876983829572900,6.00957275390625,-2.370513916015625,2.0095367431640625,0.8347320556640625
1772876983839505000,6.0195048828125,-2.7110748291015625,2.0039520263671875,1.06817626953125
1772876983849438000,6.02943798828125,-2.8567962646484375,1.88641357421875,1.0601043701171875
1772876983859371000,6.03937109375,-2.83056640625,1.6884613037109375,0.964874267578125
1772876983869303000,6.049302978515625,-2.574981689453125,1.6651458740234375,0.766082763671875
1772876983879236000,6.059236083984375,-2.351104736328125,1.6902008056640625,0.45892333984375
1772876983889169000,6.0691689453125,-2.185028076171875,1.68475341796875,0.1684112548828125
1772876983899102000,6.07910205078125,-1.9764251708984375,1.6409759521484375,-0.0680999755859375
1772876983909034000,6.089033935546875,-1.7147979736328125,1.529510498046875,-0.191253662109375
1772876983918967000,6.098967041015625,-1.4771881103515625,1.3968048095703125,-0.189300537109375
1772876983928900000,6.108900146484375,-1.307373046875,1.32452392578125,-0.0772247314453125
1772876983938832100,6.11883203125,-1.2372283935546875,1.2006683349609375,0.1775665283203125
1772876983948765000,6.128764892578125,-1.2671661376953125,1.1518402099609375,0.4411163330078125
1772876983958698000,6.138697998046875,-1.3249053955078125,1.1882781982421875,0.548583984375
1772876983968631000,6.148631103515625,-1.3183441162109375,1.1779632568359375,0.5183258056640625
1772876983978563000,6.15856298828125,-1.2383880615234375,1.0601806640625,0.42095947265625
1772876983988496100,6.16849609375,-1.0766143798828125,0.906280517578125,0.294036865234375
1772876983998429200,6.17842919921875,-0.8373260498046875,0.78118896484375,0.14801025390625
1772876984008362000,6.188362060546875,-0.5521392822265625,0.6533355712890625,-0.0643310546875
1772876984018294000,6.1982939453125,-0.2292633056640625,0.5160675048828125,-0.28594970703125
1772876984028227000,6.20822705078125,0.07061767578125,0.3437957763671875,-0.44830322265625
1772876984038160100,6.21816015625,0.311279296875,0.18731689453125,-0.5032501220703125
1772876984048092000,6.228091796875,0.4686737060546875,0.0208892822265625,-0.4109649658203125
1772876984058025000,6.23802490234375,0.5557861328125,-0.1440582275390625,-0.219940185546875
1772876984067958000,6.2479580078125,0.5829315185546875,-0.265533447265625,0.005889892578125
1772876984077891000,6.25789111328125,0.52587890625,-0.307647705078125,0.22796630859375
1772876984087822800,6.26782275390625,0.4276275634765625,-0.2495880126953125,0.38336181640625
1772876984097756000,6.277755859375,0.3368988037109375,-0.18328857421875,0.467987060546875
1772876984107689000,6.28768896484375,0.275665283203125,-0.1133880615234375,0.4535980224609375
1772876984117621000,6.29762109375,0.2172088623046875,-0.02752685546875,0.376495361328125
1772876984127554000,6.307553955078125,0.1446533203125,0.0462799072265625,0.27899169921875
1772876984137486800,6.31748681640625,0.057769775390625,0.08050537109375,0.1558990478515625
1772876984147420000,6.327419921875,-0.0076751708984375,0.1070556640625,0.062744140625
1772876984157352000,6.33735205078125,-0.07611083984375,0.1171417236328125,0.006683349609375
1772876984167285000,6.347284912109375,-0.1300048828125,0.1142578125,-0.0419769287109375
1772876984177218000,6.357218017578125,-0.1664886474609375,0.1091156005859375,-0.0988006591796875
1772876984187150000,6.367150146484375,-0.1793975830078125,0.0913848876953125,-0.134429931640625
1772876984197083000,6.377082763671875,-0.19244384765625,0.03558349609375,-0.0953216552734375
1772876984207016000,6.387015869140625,-0.19744873046875,-0.04461669921875,-0.012420654296875
1772876984216949000,6.396948974609375,-0.2174224853515625,-0.0917510986328125,0.062103271484375
1772876984226881000,6.406881103515625,-0.2445068359375,-0.1118927001953125,0.094818115234375
1772876984236814000,6.41681396484375,-0.2491455078125,-0.110595703125,0.0888671875
1772876984246747100,6.4267470703125,-0.2254486083984375,-0.027435302734375,0.05316162109375
1772876984256680000,6.436679931640625,-0.2273101806640625,0.092864990234375,-0.0194854736328125
1772876984266612000,6.446612060546875,-0.232666015625,0.1859588623046875,-0.09368896484375
1772876984276545000,6.456544921875,-0.21453857421875,0.23370361328125,-0.1364898681640625
1772876984286478000,6.46647802734375,-0.243011474609375,0.2462921142578125,-0.119537353515625
1772876984296410000,6.47641015625,-0.34539794921875,0.260009765625,-0.0204315185546875
1772876984306343200,6.48634326171875,-0.35107421875,0.389495849609375,0.0080413818359375
1772876984316276500,6.4962763671875,-0.3712615966796875,0.4203948974609375,0.0870361328125
1772876984326209500,6.50620947265625,-0.4745025634765625,0.55816650390625,0.2612152099609375
1772876984336141600,6.5161416015625,-0.5980072021484375,0.8393707275390625,0.341339111328125
1772876984346074600,6.52607470703125,-0.778564453125,1.0402679443359375,0.418609619140625
1772876984356007700,6.536007568359375,-1.1707000732421875,1.3168487548828125,0.549468994140625
1772876984365939700,6.545939697265625,-1.7213897705078125,1.648284912109375,0.6205596923828125
1772876984375872500,6.55587255859375,-2.265350341796875,1.901031494140625,0.5175628662109375
1772876984385805600,6.5658056640625,-2.7879180908203125,1.9932403564453125,0.4438934326171875
1772876984395738600,6.575738525390625,-3.023590087890625,2.132843017578125,0.3622589111328125
1772876984405670700,6.585670654296875,-2.9560394287109375,2.152313232421875,0.1442413330078125
1772876984415603700,6.595603759765625,-2.7463836669921875,1.954345703125,-0.0324859619140625
1772876984425536500,6.60553662109375,-2.438323974609375,1.728759765625,-0.06573486328125
1772876984435469600,6.615469482421875,-2.1524810791015625,1.497894287109375,-0.027984619140625
1772876984445401300,6.6254013671875,-2.0406951904296875,1.3004150390625,0.0184326171875
1772876984455334400,6.63533447265625,-1.977447509765625,1.1909332275390625,0.0235443115234375
1772876984465267700,6.645267822265625,-1.8368377685546875,1.144622802734375,-0.0219573974609375
1772876984475199500,6.655199462890625,-1.643463134765625,1.1860504150390625,-0.1216583251953125
1772876984485132500,6.665132568359375,-1.512054443359375,1.282501220703125,-0.2275543212890625
1772876984495065300,6.6750654296875,-1.4785614013671875,1.342681884765625,-0.288330078125
1772876984504998400,6.684998291015625,-1.5337066650390625,1.3699188232421875,-0.297149658203125
1772876984514930400,6.694930419921875,-1.668975830078125,1.423583984375,-0.2630767822265625
1772876984524863500,6.704863525390625,-1.8339691162109375,1.3902435302734375,-0.1672821044921875
1772876984534796500,6.714796630859375,-1.85198974609375,1.2633209228515625,0.0098876953125
1772876984544728600,6.724728515625,-1.623077392578125,1.150299072265625,0.152679443359375
1772876984554661600,6.73466162109375,-1.17681884765625,1.0377655029296875,0.10198974609375
1772876984564594400,6.744594482421875,-0.6308746337890625,0.904052734375,-0.116943359375
1772876984574527500,6.754527587890625,-0.1295166015625,0.7529144287109375,-0.3380889892578125
1772876984584459500,6.76445947265625,0.2173614501953125,0.64154052734375,-0.4098968505859375
1772876984594392600,6.774392578125,0.407562255859375,0.5416107177734375,-0.362579345703125
1772876984604325600,6.78432568359375,0.5743865966796875,0.462615966796875,-0.1980438232421875
1772876984614257700,6.794257568359375,0.7602996826171875,0.397491455078125,-0.057220458984375
1772876984624190500,6.8041904296875,0.916534423828125,0.3116455078125,0.069000244140625
1772876984634123500,6.81412353515625,0.9931488037109375,0.2288818359375,0.2066802978515625
1772876984644056600,6.824056640625,0.96563720703125,0.09478759765625,0.3740386962890625
1772876984653988600,6.833988525390625,0.8605194091796875,-0.0282745361328125,0.6174163818359375
1772876984663921700,6.843921630859375,0.7129058837890625,-0.105224609375,0.816009521484375
1772876984673854500,6.8538544921875,0.51947021484375,-0.1480255126953125,0.8763275146484375
1772876984683787500,6.86378759765625,0.3037109375,-0.1313629150390625,0.852874755859375
1772876984693719600,6.873719482421875,0.115478515625,-0.085845947265625,0.7356109619140625
1772876984703652600,6.883652587890625,-0.0238189697265625,-0.02349853515625,0.5219268798828125
1772876984713585700,6.893585693359375,-0.158782958984375,0.0759124755859375,0.3080291748046875
1772876984723517700,6.903517578125,-0.309173583984375,0.1645660400390625,0.138092041015625
1772876984733450800,6.91345068359375,-0.4598846435546875,0.19952392578125,0.0499725341796875
1772876984743383600,6.923383544921875,-0.578521728515625,0.1636199951171875,-0.031829833984375
1772876984753316600,6.933316650390625,-0.63177490234375,0.097137451171875,-0.1095428466796875
1772876984763248400,6.943248291015625,-0.5817108154296875,0.0355072021484375,-0.1707000732421875
1772876984773181400,6.953181396484375,-0.5103912353515625,-0.010650634765625,-0.2396392822265625
1772876984783114500,6.963114501953125,-0.4380035400390625,-0.017059326171875,-0.326141357421875
1772876984793046500,6.973046630859375,-0.3385009765625,-0.005950927734375,-0.4014129638671875
1772876984802979600,6.9829794921875,-0.22528076171875,-0.02313232421875,-0.438018798828125
1772876984812912400,6.992912353515625,-0.1297454833984375,-0.0610809326171875,-0.404296875
1772876984822845400,7.002845458984375,-0.114990234375,-0.0843353271484375,-0.2805938720703125
1772876984832777500,7.012777587890625,-0.2407379150390625,-0.127960205078125,-0.0777740478515625
1772876984842710500,7.02271044921875,-0.39727783203125,-0.186859130859375,0.159515380859375
1772876984852643600,7.0326435546875,-0.573394775390625,-0.2162322998046875,0.402862548828125
1772876984862576400,7.042576416015625,-0.7493743896484375,-0.1241455078125,0.502227783203125
1772876984872508400,7.05250830078125,-0.8106689453125,0.1352691650390625,0.373779296875
1772876984882441500,7.06244140625,-0.813018798828125,0.48919677734375,0.1601409912109375
1772876984892374500,7.07237451171875,-0.716461181640625,0.905487060546875,-0.13446044921875
1772876984902306600,7.082306640625,-0.5112457275390625,1.28509521484375,-0.3676300048828125
1772876984912239600,7.092239501953125,-0.495361328125,1.5496063232421875,-0.4150543212890625
1772876984922172700,7.102172607421875,-0.7631988525390625,1.74298095703125,-0.206268310546875
1772876984932105500,7.11210546875,-1.3627777099609375,1.8870849609375,0.2388458251953125
1772876984942037500,7.12203759765625,-2.160369873046875,1.9131622314453125,0.7867584228515625
1772876984951970600,7.131970458984375,-2.85400390625,1.982452392578125,1.2469482421875
1772876984961903600,7.141903564453125,-3.2491455078125,2.08056640625,1.44500732421875
1772876984971835600,7.151835693359375,-3.213653564453125,2.151336669921875,1.332061767578125
1772876984981768700,7.161768798828125,-2.83642578125,2.1160888671875,1.026702880859375
1772876984991701500,7.171701416015625,-2.337188720703125,2.0050048828125,0.691162109375
1772876985001634600,7.181634521484375,-1.8754730224609375,1.9596405029296875,0.4286041259765625
1772876985011566600,7.191566650390625,-1.566986083984375,1.920867919921875,0.2264404296875
1772876985021499600,7.201499755859375,-1.364990234375,1.8331756591796875,0.1330718994140625
1772876985031432700,7.2114326171875,-1.2128143310546875,1.6435546875,0.1942596435546875
1772876985041365500,7.221365478515625,-1.117095947265625,1.41156005859375,0.3393402099609375
1772876985051297500,7.231297607421875,-1.06884765625,1.2316436767578125,0.4634552001953125
1772876985061230600,7.241230712890625,-1.0865478515625,1.1321868896484375,0.4759674072265625
1772876985071163600,7.25116357421875,-1.134613037109375,1.0913848876953125,0.4133453369140625
1772876985081095400,7.261095458984375,-1.153717041015625,0.9996185302734375,0.3249664306640625
1772876985091028500,7.271028564453125,-1.0990447998046875,0.8803558349609375,0.2498626708984375
1772876985100961500,7.28096142578125,-0.9871673583984375,0.8007965087890625,0.1786956787109375
1772876985110894300,7.290894287109375,-0.8704986572265625,0.7592010498046875,0.0607452392578125
1772876985120826400,7.300826416015625,-0.755889892578125,0.7344970703125,-0.0791778564453125
1772876985130759400,7.310759521484375,-0.6089019775390625,0.702728271484375,-0.0953216552734375
1772876985140692500,7.3206923828125,-0.4409027099609375,0.5541534423828125,-0.01654052734375
1772876985150624500,7.33062451171875,-0.20941162109375,0.35150146484375,0.0439605712890625
1772876985160557600,7.3405576171875,0.1104888916015625,0.22503662109375,0.0007781982421875
1772876985170490600,7.35049072265625,0.410797119140625,0.1285858154296875,-0.1052398681640625
1772876985180423400,7.36042333984375,0.6229248046875,-0.0069732666015625,-0.174957275390625
1772876985190355500,7.37035546875,0.75537109375,-0.095703125,-0.1456756591796875
1772876985200288500,7.38028857421875,0.7581329345703125,-0.1331787109375,-0.0514984130859375
1772876985210221600,7.3902216796875,0.6716156005859375,-0.1096343994140625,0.05914306640625
1772876985220153600,7.400153564453125,0.4915008544921875,-0.0793609619140625,0.194671630859375
1772876985230086700,7.410086669921875,0.275909423828125,-0.063323974609375,0.3159942626953125
1772876985240019500,7.42001953125,0.133056640625,-0.0545501708984375,0.403289794921875
1772876985249952500,7.429952392578125,0.01837158203125,-0.072509765625,0.4399871826171875
1772876985259884500,7.439884521484375,-0.0980072021484375,-0.06097412109375,0.429168701171875
1772876985269817600,7.449817626953125,-0.1665496826171875,-0.0209503173828125,0.3756256103515625
1772876985279750700,7.459750732421875,-0.13983154296875,0.0098876953125,0.2388916015625
1772876985289683500,7.469683349609375,-0.0166778564453125,0.0146026611328125,0.0720672607421875
1772876985299615700,7.47961572265625,0.0938873291015625,0.014801025390625,-0.0384368896484375
1772876985309548500,7.489548583984375,0.10821533203125,0.0207366943359375,-0.129180908203125
1772876985319481300,7.4994814453125,0.0288543701171875,0.0524139404296875,-0.18243408203125
1772876985329413400,7.509413330078125,-0.1297149658203125,0.0736083984375,-0.180999755859375
1772876985339346400,7.519346435546875,-0.3093414306640625,0.08514404296875,-0.14617919921875
1772876985349279500,7.529279541015625,-0.44635009765625,0.086761474609375,-0.134796142578125
1772876985359212300,7.53921240234375,-0.520721435546875,0.0531158447265625,-0.136810302734375
1772876985369144300,7.549144287109375,-0.521484375,0.027618408203125,-0.16143798828125
1772876985379077400,7.559077392578125,-0.4637451171875,0.0261077880859375,-0.1907196044921875
1772876985389010400,7.569010498046875,-0.424591064453125,0.0134429931640625,-0.1837921142578125
1772876985398942500,7.5789423828125,-0.4021148681640625,0.0364227294921875,-0.139862060546875
1772876985408875500,7.58887548828125,-0.304901123046875,0.224365234375,-0.174346923828125
1772876985418808600,7.59880859375,-0.1840362548828125,0.3862762451171875,-0.2235870361328125
1772876985428741400,7.608741455078125,-0.22998046875,0.4499359130859375,-0.167999267578125
1772876985438673400,7.61867333984375,-0.40130615234375,0.626068115234375,0.013671875
1772876985448606500,7.6286064453125,-0.62847900390625,0.838714599609375,0.2791290283203125
1772876985458539500,7.63853955078125,-0.8562469482421875,1.099639892578125,0.596771240234375
1772876985468471300,7.64847119140625,-1.1550140380859375,1.415679931640625,0.862640380859375
1772876985478404400,7.658404296875,-1.4754180908203125,1.7302093505859375,0.9445343017578125
1772876985488337200,7.668337158203125,-1.7869110107421875,1.95806884765625,0.91424560546875
1772876985498270200,7.678270263671875,-2.1329803466796875,2.010101318359375,0.9705963134765625
1772876985508202200,7.6882021484375,-2.30340576171875,2.08990478515625,1.020111083984375
1772876985518135300,7.69813525390625,-2.333770751953125,2.022369384765625,0.9881744384765625
1772876985528068400,7.708068359375,-2.342559814453125,1.76025390625,1.0135498046875
1772876985538001400,7.71800146484375,-2.3776092529296875,1.5800018310546875,1.0857696533203125
1772876985547933400,7.727933349609375,-2.2871551513671875,1.5577545166015625,1.0050811767578125
1772876985557866200,7.7378662109375,-2.12890625,1.5485382080078125,0.761505126953125
1772876985567799300,7.74779931640625,-1.9869384765625,1.6180267333984375,0.50701904296875
1772876985577731300,7.7577314453125,-1.8532867431640625,1.74554443359375,0.3015594482421875
1772876985587664400,7.767664306640625,-1.7741241455078125,1.7967681884765625,0.1299591064453125
1772876985597597400,7.777597412109375,-1.7378997802734375,1.748992919921875,0.03082275390625
1772876985607530200,7.7875302734375,-1.659515380859375,1.6147918701171875,-0.02435302734375
1772876985617462300,7.797462158203125,-1.5596771240234375,1.417266845703125,-0.0154876708984375
1772876985627395300,7.807395263671875,-1.4642486572265625,1.23516845703125,0.054901123046875
1772876985637328400,7.817328369140625,-1.351593017578125,1.0504913330078125,0.1597442626953125
1772876985647260400,7.827260498046875,-1.1545867919921875,0.8562774658203125,0.2633056640625
1772876985657193500,7.837193359375,-0.8762969970703125,0.7175140380859375,0.2974395751953125
1772876985667126500,7.84712646484375,-0.5562896728515625,0.6108856201171875,0.2803955078125
1772876985677059300,7.857059326171875,-0.2374267578125,0.518798828125,0.2529449462890625
1772876985686991400,7.866991455078125,0.0038299560546875,0.436248779296875,0.2139434814453125
1772876985696924400,7.87692431640625,0.1280670166015625,0.336029052734375,0.15338134765625
1772876985706857500,7.886857421875,0.16314697265625,0.2525482177734375,0.11126708984375
1772876985716790500,7.89679052734375,0.163848876953125,0.1696624755859375,0.062713623046875
1772876985726722600,7.90672265625,0.18341064453125,0.0501708984375,0.0213165283203125
1772876985736655400,7.9166552734375,0.226409912109375,-0.100921630859375,0.02606201171875
1772876985746588400,7.92658837890625,0.262359619140625,-0.2344818115234375,0.0452423095703125
1772876985756520200,7.936520263671875,0.2904510498046875,-0.306427001953125,0.07598876953125
1772876985766453200,7.946453369140625,0.27911376953125,-0.337188720703125,0.1014251708984375
1772876985776386300,7.95638623046875,0.20428466796875,-0.261138916015625,0.0819091796875
1772876985786319600,7.966319580078125,0.08270263671875,-0.120697021484375,0.02099609375
1772876985796251400,7.97625146484375,-0.016571044921875,0.0043487548828125,-0.0101165771484375
1772876985806182400,7.986182373046875,-0.1227569580078125,0.0974273681640625,-0.0213165283203125
1772876985816115500,7.996115478515625,-0.180694580078125,0.1441497802734375,-0.01397705078125
1772876985826048300,8.00604833984375,-0.157135009765625,0.1541595458984375,0.0028228759765625
1772876985835980300,8.015980224609375,-0.1060333251953125,0.112060546875,0.034942626953125
1772876985845913300,8.025913330078126,-0.050201416015625,0.0463409423828125,0.0391998291015625
1772876985855846400,8.035846435546874,0.0035247802734375,-0.0110015869140625,0.019439697265625
1772876985865779500,8.045779541015625,0.047760009765625,-0.0369720458984375,-0.0064849853515625
1772876985875711500,8.05571142578125,0.0579986572265625,-0.0245361328125,-0.05889892578125
1772876985885644500,8.06564453125,0.0284576416015625,0.0022125244140625,-0.1136474609375
1772876985895577300,8.075577392578126,-0.052093505859375,0.022064208984375,-0.1156768798828125
1772876985905509400,8.08550927734375,-0.1807861328125,0.039154052734375,-0.0754241943359375
1772876985915442400,8.0954423828125,-0.2729949951171875,0.0514984130859375,-0.0125885009765625
1772876985925375500,8.10537548828125,-0.3139495849609375,0.0592803955078125,0.0610198974609375
1772876985935308500,8.11530859375,-0.32684326171875,0.0542755126953125,0.0947265625
1772876985945240300,8.125240234375,-0.310821533203125,0.07611083984375,0.0940704345703125
1772876985955173400,8.13517333984375,-0.2908782958984375,0.1329345703125,0.041748046875
1772876985965106400,8.1451064453125,-0.3023681640625,0.286346435546875,-0.0202178955078125
1772876985975038200,8.1550380859375,-0.287261962890625,0.58111572265625,-0.1345367431640625
1772876985984971300,8.16497119140625,-0.228668212890625,0.834014892578125,-0.240203857421875
1772876985994904300,8.174904296875,-0.313720703125,0.8743133544921875,-0.1685638427734375
1772876986004837400,8.18483740234375,-0.4490966796875,1.0115814208984375,0.152008056640625
1772876986014769400,8.194769287109375,-0.731719970703125,1.206024169921875,0.5496978759765625
1772876986024702200,8.2047021484375,-1.27166748046875,1.364654541015625,0.9891357421875
1772876986034635300,8.21463525390625,-1.8851318359375,1.390289306640625,1.420440673828125
1772876986044568300,8.224568359375,-2.489044189453125,1.2623748779296875,1.7304840087890625
1772876986054500400,8.234500244140625,-2.854949951171875,1.399566650390625,1.752349853515625
1772876986064433400,8.244433349609375,-2.7248077392578125,1.7592620849609375,1.3132476806640625
1772876986074366200,8.2543662109375,-2.3616943359375,1.9242706298828125,0.638824462890625
1772876986084298500,8.264298583984376,-2.0704345703125,1.9589691162109375,0.0908203125
1772876986094231300,8.274231201171874,-1.9859619140625,1.986419677734375,-0.1801605224609375
1772876986104164400,8.284164306640625,-2.1218109130859375,1.966949462890625,-0.16851806640625
1772876986114097400,8.294097412109375,-2.38775634765625,1.83197021484375,0.0668487548828125
1772876986124029400,8.304029541015625,-2.5784149169921875,1.6967620849609375,0.456817626953125
1772876986133962500,8.31396240234375,-2.54595947265625,1.5780029296875,0.7873687744140625
1772876986143895300,8.323895263671876,-2.2025146484375,1.4823455810546875,0.842803955078125
1772876986153828400,8.333828369140624,-1.7219390869140625,1.43804931640625,0.7093963623046875
1772876986163760400,8.343760498046874,-1.33740234375,1.3875274658203125,0.538787841796875
1772876986173693400,8.353693359375,-1.0802154541015625,1.319061279296875,0.3736724853515625
1772876986183626500,8.36362646484375,-0.912506103515625,1.20794677734375,0.253814697265625
1772876986193559300,8.373559326171875,-0.8000640869140625,1.100830078125,0.1686248779296875
1772876986203492400,8.383492431640626,-0.74200439453125,0.989044189453125,0.089324951171875
1772876986213424400,8.39342431640625,-0.69781494140625,0.8936004638671875,0.036529541015625
1772876986223357400,8.403357421875,-0.67816162109375,0.791229248046875,-0.01483154296875
1772876986233290500,8.41329052734375,-0.670074462890625,0.6998291015625,-0.077880859375
1772876986243223600,8.4232236328125,-0.6176910400390625,0.6109466552734375,-0.1397705078125
1772876986253155600,8.433155517578125,-0.46612548828125,0.46868896484375,-0.1797637939453125
1772876986263088400,8.44308837890625,-0.240997314453125,0.23187255859375,-0.17510986328125
1772876986273021400,8.453021484375,0.02978515625,-0.0192413330078125,-0.13214111328125
1772876986282953200,8.462953125,0.283599853515625,-0.1974945068359375,-0.0737762451171875
1772876986292886500,8.472886474609375,0.4843292236328125,-0.307220458984375,0.0316925048828125
1772876986302819600,8.482819580078125,0.6104736328125,-0.31005859375,0.1488189697265625
1772876986312752400,8.49275244140625,0.6313323974609375,-0.2346038818359375,0.21441650390625
1772876986322684000,8.502683837890626,0.5794525146484375,-0.1348114013671875,0.254150390625
1772876986332616700,8.51261669921875,0.494842529296875,0.008697509765625,0.247772216796875
1772876986342549800,8.5225498046875,0.363616943359375,0.1272735595703125,0.199615478515625
1772876986352482800,8.53248291015625,0.2080535888671875,0.2388153076171875,0.1766815185546875
1772876986362414800,8.542414794921875,0.040740966796875,0.252899169921875,0.20843505859375
1772876986372348000,8.552347900390625,-0.104034423828125,0.18841552734375,0.2801055908203125
1772876986382280700,8.56228076171875,-0.1762542724609375,0.11907958984375,0.3184051513671875
1772876986392213000,8.572212890625,-0.13818359375,0.02374267578125,0.2814483642578125
1772876986402145800,8.582145751953124,-0.027252197265625,-0.0970306396484375,0.1976165771484375
1772876986412078800,8.592078857421875,0.0718994140625,-0.1879119873046875,0.126678466796875
1772876986422012000,8.602011962890625,0.117462158203125,-0.2322235107421875,0.0562591552734375
1772876986431944000,8.61194384765625,0.083892822265625,-0.2064056396484375,-0.028167724609375
1772876986441877000,8.621876953125,-0.02044677734375,-0.1282501220703125,-0.1227874755859375
1772876986451809800,8.631809814453124,-0.1571197509765625,-0.0576171875,-0.2042999267578125
1772876986461741800,8.641741943359374,-0.2837066650390625,0.014434814453125,-0.23272705078125
1772876986471675000,8.6516748046875,-0.4158477783203125,0.0802459716796875,-0.223175048828125
1772876986481608000,8.66160791015625,-0.503326416015625,0.1262359619140625,-0.17169189453125
1772876986491541000,8.671541015625,-0.54730224609375,0.1505889892578125,-0.1318817138671875
1772876986501473000,8.68147314453125,-0.578369140625,0.164306640625,-0.122802734375
1772876986511405800,8.69140576171875,-0.571502685546875,0.1810760498046875,-0.111663818359375
1772876986521339000,8.7013388671875,-0.5217437744140625,0.245941162109375,-0.1089019775390625
1772876986531272000,8.71127197265625,-0.3460845947265625,0.3905792236328125,-0.1810150146484375
1772876986541204000,8.721203857421875,-0.125701904296875,0.52325439453125,-0.238494873046875
1772876986551137000,8.731136962890625,-0.064208984375,0.67669677734375,-0.1858978271484375
1772876986561070000,8.741070068359376,-0.1641845703125,0.9231109619140625,-0.0263671875
1772876986571001900,8.751001953125,-0.3586578369140625,1.173065185546875,0.259246826171875
1772876986580934700,8.7609345703125,-0.6833953857421875,1.3870391845703125,0.672119140625
1772876986590868000,8.770867919921875,-1.3568267822265625,1.62506103515625,1.1775970458984375
1772876986600801000,8.780801025390625,-2.2513427734375,1.9015045166015625,1.5279541015625
1772876986610732800,8.79073291015625,-3.013427734375,2.000335693359375,1.729217529296875
1772876986620665900,8.800665771484375,-3.260833740234375,1.820465087890625,1.8416290283203125
1772876986630598700,8.8105986328125,-2.90203857421875,1.59698486328125,1.50897216796875
1772876986640531000,8.820531005859374,-2.2584686279296875,1.459564208984375,0.958831787109375
1772876986650463700,8.830463623046874,-1.7277984619140625,1.3431243896484375,0.48895263671875
1772876986660396800,8.840396728515625,-1.4062042236328125,1.3182220458984375,0.1800384521484375
1772876986670329900,8.850329833984375,-1.2693328857421875,1.314178466796875,0.0641021728515625
1772876986680262000,8.860261962890625,-1.290374755859375,1.2652435302734375,0.1156463623046875
1772876986690195000,8.87019482421875,-1.499908447265625,1.2447052001953125,0.3518218994140625
1772876986700127700,8.880127685546874,-1.8578948974609375,1.330780029296875,0.625030517578125
1772876986710060800,8.890060791015625,-2.17852783203125,1.4548492431640625,0.7789459228515625
1772876986719992800,8.899992919921875,-2.2795257568359375,1.609222412109375,0.804443359375
1772876986729926000,8.90992578125,-2.1970977783203125,1.7210845947265625,0.6727447509765625
1772876986739859000,8.91985888671875,-2.0171661376953125,1.6948089599609375,0.4974365234375
1772876986749791000,8.929791015625,-1.7423248291015625,1.5516510009765625,0.3884429931640625
1772876986759723800,8.939723876953124,-1.3661346435546875,1.328826904296875,0.342376708984375
1772876986769656800,8.94965673828125,-0.984527587890625,1.0710296630859375,0.3295135498046875
1772876986779590000,8.95958984375,-0.6595306396484375,0.865997314453125,0.290008544921875
1772876986789522000,8.96952197265625,-0.399688720703125,0.7322845458984375,0.2283477783203125
1772876986799455000,8.979455078125,-0.22698974609375,0.649932861328125,0.15484619140625
1772876986809388000,8.989387939453126,-0.1041107177734375,0.53485107421875,0.04986572265625
1772876986819320000,8.999320068359374,0.0370941162109375,0.4155731201171875,-0.0498809814453125
1772876986829252900,9.0092529296875,0.17523193359375,0.3057861328125,-0.13690185546875
1772876986839186000,9.01918603515625,0.3180694580078125,0.1904449462890625,-0.1929931640625
1772876986849119000,9.029118896484375,0.4449920654296875,0.096832275390625,-0.2078399658203125
1772876986859051000,9.039051025390625,0.5272064208984375,0.0519256591796875,-0.17669677734375
1772876986868984000,9.048984130859376,0.558319091796875,0.0214080810546875,-0.05419921875
1772876986878916900,9.058916748046874,0.5210418701171875,-0.0236968994140625,0.1216278076171875
1772876986888850000,9.068849853515625,0.417724609375,-0.0341339111328125,0.317962646484375
1772876986898781700,9.07878173828125,0.2878265380859375,0.010406494140625,0.4540557861328125
1772876986908714800,9.08871484375,0.1653289794921875,0.0728912353515625,0.45587158203125
1772876986918647800,9.098647705078125,0.1041107177734375,0.123443603515625,0.3580322265625
1772876986928579800,9.108579833984376,0.0914459228515625,0.1478118896484375,0.267669677734375
1772876986938513000,9.118512939453124,0.09210205078125,0.1267242431640625,0.196380615234375
1772876986948445700,9.12844580078125,0.1136322021484375,0.07183837890625,0.156707763671875
1772876986958378800,9.138378662109375,0.11895751953125,-0.000091552734375,0.1472015380859375
1772876986968310800,9.148310791015625,0.0659332275390625,-0.0623626708984375,0.1334381103515625
1772876986978243800,9.158243896484375,0.0048065185546875,-0.0941162109375,0.133026123046875
1772876986988177000,9.168177001953126,-0.0711669921875,-0.0953521728515625,0.134521484375
1772876986998109000,9.17810888671875,-0.158111572265625,-0.0643768310546875,0.09130859375
1772876987008042000,9.1880419921875,-0.250579833984375,-0.011566162109375,0.005859375
1772876987017974800,9.197974853515625,-0.329193115234375,0.020416259765625,-0.0830535888671875
1772876987027907800,9.207907958984375,-0.3860931396484375,0.0309600830078125,-0.158355712890625
1772876987037840000,9.21783984375,-0.3919525146484375,0.04638671875,-0.1908721923828125
1772876987047773000,9.22777294921875,-0.3927001953125,0.0558624267578125,-0.180908203125
1772876987057706000,9.2377060546875,-0.395538330078125,0.057159423828125,-0.1360626220703125
1772876987067638800,9.247638671875,-0.4130706787109375,0.033111572265625,-0.07177734375
1772876987077570800,9.25757080078125,-0.4237518310546875,0.0089111328125,0.0169525146484375
1772876987087504000,9.26750390625,-0.500579833984375,0.001617431640625,0.109771728515625
1772876987097437000,9.27743701171875,-0.5109100341796875,0.166015625,0.0947723388671875
1772876987107369000,9.287368896484375,-0.5001220703125,0.4867095947265625,0.0534820556640625
1772876987117302000,9.297302001953126,-0.597503662109375,0.764068603515625,0.0546722412109375
1772876987127234800,9.30723486328125,-0.58209228515625,1.0061492919921875,0.1671295166015625
1772876987137168000,9.31716796875,-0.5118408203125,1.1585540771484375,0.404266357421875
1772876987147100000,9.327099853515625,-0.5677642822265625,1.3194427490234375,0.6663665771484375
1772876987157033000,9.337032958984375,-0.90057373046875,1.4855499267578125,0.8102874755859375
1772876987166966000,9.346966064453126,-1.4163818359375,1.5594635009765625,0.928436279296875
1772876987176897800,9.356897705078126,-1.84539794921875,1.46014404296875,1.197235107421875
1772876987186830800,9.366830810546874,-2.06036376953125,1.3235626220703125,1.465179443359375
1772876987196764000,9.376763916015625,-2.0271759033203125,1.364593505859375,1.32183837890625
1772876987206697000,9.386697021484375,-1.711669921875,1.44598388671875,0.8523101806640625
1772876987216628700,9.396628662109375,-1.3913726806640625,1.3725738525390625,0.4282379150390625
1772876987226561800,9.406561767578125,-1.2150726318359375,1.2401580810546875,0.2404937744140625
1772876987236494800,9.416494873046876,-1.203582763671875,1.1192626953125,0.2115936279296875
1772876987246427000,9.426427001953124,-1.28863525390625,1.034912109375,0.23419189453125
1772876987256360000,9.43635986328125,-1.4151763916015625,0.9902801513671875,0.26507568359375
1772876987266292700,9.446292724609375,-1.5745391845703125,0.9959869384765625,0.3075408935546875
1772876987276225800,9.456225830078125,-1.7241058349609375,1.08367919921875,0.3631591796875
1772876987286157800,9.46615771484375,-1.7595977783203125,1.18975830078125,0.401214599609375
1772876987296091000,9.4760908203125,-1.68011474609375,1.276031494140625,0.3899383544921875
1772876987306024000,9.48602392578125,-1.5373992919921875,1.320037841796875,0.3394012451171875
1772876987315956500,9.49595654296875,-1.389251708984375,1.2856597900390625,0.3138580322265625
1772876987325889300,9.50588916015625,-1.22503662109375,1.1881256103515625,0.361846923828125
1772876987335822300,9.515822265625,-1.0424957275390625,1.0420684814453125,0.4229888916015625
1772876987345755400,9.52575537109375,-0.8449554443359375,0.8771820068359375,0.463287353515625
1772876987355687400,9.5356875,-0.6737518310546875,0.7516937255859375,0.4884796142578125
1772876987365620500,9.545620361328124,-0.5431976318359375,0.69805908203125,0.498260498046875
1772876987375553300,9.55555322265625,-0.47613525390625,0.70147705078125,0.4935302734375
1772876987385486300,9.565486328125,-0.483123779296875,0.73126220703125,0.483062744140625
1772876987395418400,9.57541845703125,-0.49346923828125,0.7604827880859375,0.4648590087890625
1772876987405351400,9.585351318359375,-0.5018463134765625,0.766021728515625,0.437591552734375
1772876987415284500,9.595284423828126,-0.4984893798828125,0.7306060791015625,0.442779541015625
1772876987425216500,9.605216552734374,-0.48333740234375,0.6600799560546875,0.4523162841796875
1772876987435149300,9.6151494140625,-0.45404052734375,0.56756591796875,0.425079345703125
1772876987445082400,9.625082275390625,-0.414459228515625,0.5014495849609375,0.355987548828125
1772876987455015400,9.635015380859375,-0.375274658203125,0.4434356689453125,0.2733154296875
1772876987464947500,9.644947509765625,-0.346099853515625,0.3717041015625,0.2009429931640625
1772876987474880500,9.654880615234376,-0.35638427734375,0.30963134765625,0.15240478515625
1772876987484813600,9.6648134765625,-0.3780670166015625,0.23779296875,0.1464691162109375
1772876987494745600,9.67474560546875,-0.3729248046875,0.1608428955078125,0.1749725341796875
1772876987504678400,9.684678466796875,-0.3651275634765625,0.1109619140625,0.1937103271484375
1772876987514611500,9.694611572265625,-0.3536224365234375,0.100738525390625,0.19622802734375
1772876987524544500,9.70454443359375,-0.318023681640625,0.1027069091796875,0.1807403564453125
1772876987534476500,9.7144765625,-0.27490234375,0.132049560546875,0.1237030029296875
1772876987544409600,9.72440966796875,-0.253631591796875,0.16717529296875,0.067291259765625
1772876987554342400,9.73434228515625,-0.2696685791015625,0.20281982421875,0.0303955078125
1772876987564274400,9.7442744140625,-0.29644775390625,0.227081298828125,0.025360107421875
1772876987574207200,9.754207275390625,-0.3401947021484375,0.2373046875,0.0465087890625
1772876987584140300,9.764140380859375,-0.3873138427734375,0.2277374267578125,0.0900421142578125
1772876987594073600,9.774073486328126,-0.394195556640625,0.219207763671875,0.129669189453125
1772876987604005400,9.78400537109375,-0.3635101318359375,0.2339935302734375,0.1752166748046875
1772876987613938400,9.7939384765625,-0.3315277099609375,0.31597900390625,0.2009735107421875
1772876987623871200,9.803871337890625,-0.3538360595703125,0.452178955078125,0.190826416015625
1772876987633804300,9.81380419921875,-0.4018402099609375,0.611846923828125,0.2097015380859375
1772876987643736300,9.823736328125,-0.493408203125,0.752166748046875,0.264678955078125
1772876987653669400,9.83366943359375,-0.580596923828125,0.815673828125,0.32342529296875
1772876987663602400,9.8436025390625,-0.6308441162109375,0.7772979736328125,0.3894805908203125
1772876987673534500,9.853534423828124,-0.6750030517578125,0.72552490234375,0.4492950439453125
1772876987683467300,9.86346728515625,-0.7076873779296875,0.7123870849609375,0.480560302734375
1772876987693400300,9.873400390625,-0.7301788330078125,0.7327423095703125,0.4602813720703125
1772876987703333400,9.88333349609375,-0.7531890869140625,0.79010009765625,0.397369384765625
1772876987713265400,9.893265380859376,-0.7769622802734375,0.86578369140625,0.3525390625
1772876987723198500,9.903198486328124,-0.804473876953125,0.9061737060546875,0.3723907470703125
1772876987733131500,9.913131591796875,-0.8450164794921875,0.931976318359375,0.4381866455078125
1772876987743063600,9.9230634765625,-0.87054443359375,0.975372314453125,0.496368408203125
