time,seconds_elapsed,z,y,x
1772876977893528000,0.073528076171875,-0.045313648879528046,-0.2870607078075409,-0.23306705057621002
1772876977903460900,0.0834609375,-0.06799854338169098,-0.38918161392211914,-0.30272358655929565
1772876977913394000,0.093393798828125,-0.08326005190610886,-0.5073567628860474,-0.4027212858200073
1772876977923325700,0.10332568359375,-0.0777307078242302,-0.6030167937278748,-0.5138015151023865
1772876977933258800,0.1132587890625,-0.07748596370220184,-0.6789493560791016,-0.6055554151535034
1772876977943191800,0.12319189453125,-0.06220494583249092,-0.7325516939163208,-0.6438647508621216
1772876977953124900,0.133124755859375,0.0011918687960132957,-0.7068716287612915,-0.6504659056663513
1772876977963057000,0.143056884765625,0.08055716753005981,-0.626750648021698,-0.6542450189590454
1772876977972989700,0.15298974609375,0.14639955759048462,-0.5338087677955627,-0.6704798936843872
1772876977982922800,0.1629228515625,0.19191384315490723,-0.46687617897987366,-0.6778817176818848
1772876977992854800,0.172854736328125,0.21996837854385376,-0.41317832469940186,-0.6859867572784424
1772876978002787800,0.182787841796875,0.26971787214279175,-0.45403778553009033,-0.660088300704956
1772876978012721000,0.192720947265625,0.20765796303749084,-0.5274470448493958,-0.6859081983566284
1772876978022653700,0.20265380859375,0.10759703814983368,-0.7124572992324829,-0.8301451802253723
1772876978032586000,0.2125859375,0.1313742697238922,-0.8879172801971436,-1.027220368385315
1772876978042518800,0.222518798828125,0.16130323708057404,-0.9404844641685486,-1.1552233695983887
1772876978052451800,0.232451904296875,0.13071763515472412,-0.8894995450973511,-1.1611710786819458
1772876978062385000,0.242385009765625,0.0943666622042656,-0.7647334337234497,-1.0689456462860107
1772876978072317000,0.25231689453125,0.11589006334543228,-0.5608287453651428,-0.9210243821144104
1772876978082250000,0.26225,0.14449124038219452,-0.3046376407146454,-0.7315201163291931
1772876978092182800,0.272182861328125,0.14451467990875244,-0.14353370666503906,-0.5190685987472534
1772876978102114800,0.28211474609375,0.13879215717315674,-0.03534342348575592,-0.36905503273010254
1772876978112047900,0.2920478515625,0.0864940658211708,0.0006334870122373104,-0.2833004593849182
1772876978121981000,0.30198095703125,0.03510129824280739,0.06886491179466248,-0.18769584596157074
1772876978131914000,0.3119140625,0.017634956166148186,0.2459467649459839,-0.04380577802658081
1772876978141846000,0.321845947265625,0.025247663259506226,0.5275503396987915,0.16384772956371307
1772876978151778800,0.33177880859375,0.06052575632929802,0.9076585173606873,0.3443799614906311
1772876978161711900,0.3417119140625,-0.04489900916814804,1.0632685422897339,0.5192595720291138
1772876978171644000,0.351643798828125,-0.1443323791027069,1.0248711109161377,0.6727197170257568
1772876978181577000,0.361576904296875,-0.16990308463573456,0.8387883305549622,0.518796980381012
1772876978191510000,0.371510009765625,-0.19459404051303864,0.6210330724716187,0.08159297704696655
1772876978201443000,0.381443115234375,-0.197064608335495,0.20367515087127686,-0.42487311363220215
1772876978211374800,0.391374755859375,-0.18327076733112335,-0.09305799752473831,-0.971439778804779
1772876978221308000,0.401307861328125,-0.16269193589687347,-0.4740295112133026,-1.6672322750091553
1772876978231241000,0.411240966796875,0.1213802620768547,-0.651262104511261,-2.241227865219116
1772876978241174000,0.421174072265625,0.4340941905975342,-0.5667022466659546,-2.666447162628174
1772876978251105800,0.431105712890625,0.688740074634552,-0.3618188798427582,-2.8666892051696777
1772876978261038800,0.441038818359375,0.9262040853500366,0.010684562847018242,-2.8784193992614746
1772876978270971600,0.4509716796875,1.1206867694854736,0.6212422251701355,-2.6957690715789795
1772876978280904000,0.460904052734375,1.3057540655136108,1.3199803829193115,-2.403557300567627
1772876978290836700,0.470836669921875,1.5405333042144775,1.782065987586975,-2.148361921310425
1772876978300769800,0.480769775390625,1.7047233581542969,1.6677049398422241,-1.972357153892517
1772876978310702800,0.490702880859375,1.7994189262390137,1.3540750741958618,-1.9228490591049194
1772876978320635000,0.500634765625,1.8008577823638916,0.9161564111709595,-1.9980412721633911
1772876978330568000,0.51056787109375,1.6297342777252197,0.15952838957309723,-2.0533227920532227
1772876978340500700,0.520500732421875,1.4297438859939575,-0.5932452082633972,-2.070781946182251
1772876978350433800,0.530433837890625,1.3872970342636108,-1.3018412590026855,-2.055248260498047
1772876978360365800,0.54036572265625,1.1088435649871826,-1.5503175258636475,-1.9235637187957764
1772876978370299000,0.550298828125,0.7019628882408142,-1.3866676092147827,-1.7509359121322632
1772876978380232000,0.56023193359375,0.48491403460502625,-1.4975248575210571,-1.5751674175262451
1772876978390164000,0.5701640625,0.3575419485569,-1.5889631509780884,-1.4147263765335083
1772876978400096800,0.5800966796875,0.24942117929458618,-1.32186758518219,-1.2880629301071167
1772876978410029800,0.59002978515625,0.19677820801734924,-0.9598443508148193,-1.207735300064087
1772876978419963000,0.599962890625,0.10991335660219193,-0.7669966220855713,-1.0785919427871704
1772876978429895000,0.60989501953125,0.03327876701951027,-0.7828248739242554,-0.842457115650177
1772876978439828000,0.619827880859375,0.05644629895687103,-1.0616034269332886,-0.4211556017398834
1772876978449761000,0.629760986328125,0.12745548784732819,-1.0650615692138672,0.04683581739664078
1772876978459693000,0.639693115234375,0.21239960193634033,-0.8340538144111633,0.03399847820401192
1772876978469625900,0.6496259765625,0.25554439425468445,-0.666043221950531,0.012446315959095955
1772876978479559000,0.659558837890625,0.20329025387763977,-0.6721128821372986,-0.11886689066886902
1772876978489492000,0.669491943359375,0.1377570480108261,-0.6109161376953125,-0.405073344707489
1772876978499424000,0.679424072265625,0.15821987390518188,-0.4221104383468628,-0.7189502120018005
1772876978509357000,0.689357177734375,0.19908101856708527,-0.24521932005882263,-0.8110617399215698
1772876978519289900,0.699289794921875,0.14441069960594177,0.017018957063555717,-0.7470808029174805
1772876978529223000,0.709222900390625,0.08196569979190826,0.24875764548778534,-0.48709186911582947
1772876978539154700,0.71915478515625,-0.004133010748773813,0.2323431670665741,-0.05542992800474167
1772876978549087700,0.729087646484375,-0.21201616525650024,0.04271279275417328,0.33511120080947876
1772876978559021000,0.73902099609375,-0.496557354927063,-0.27496397495269775,0.49884313344955444
1772876978568952800,0.748952880859375,-0.7243257761001587,-0.6070237159729004,0.43820881843566895
1772876978578886000,0.758885986328125,-0.7720948457717896,-0.7732911705970764,0.3929917812347412
1772876978588818700,0.768818603515625,-0.6374973654747009,-0.7762187719345093,0.3809513747692108
1772876978598751700,0.778751708984375,-0.3004218339920044,-0.6077020764350891,0.3716031312942505
1772876978608683800,0.788683837890625,0.22837968170642853,-0.41468390822410583,0.3378944396972656
1772876978618616800,0.798616943359375,0.8900659680366516,-0.19888092577457428,0.11366348713636398
1772876978628550000,0.8085498046875,1.4859710931777954,-0.034564416855573654,-0.37532269954681396
1772876978638482700,0.818482666015625,1.8547377586364746,-0.04545591399073601,-0.9929766058921814
1772876978648415000,0.8284150390625,1.929952621459961,-0.24103154242038727,-1.5752063989639282
1772876978658347800,0.83834765625,1.7830215692520142,-0.4081847369670868,-1.9791324138641357
1772876978668280800,0.84828076171875,1.5445905923843384,-0.39004382491111755,-2.120805025100708
1772876978678212900,0.858212890625,1.4165503978729248,-0.2155521810054779,-1.7321490049362183
1772876978688146000,0.86814599609375,1.2503424882888794,-0.2249946892261505,-0.8840257525444031
1772876978698079000,0.878078857421875,1.0689221620559692,-0.05017026513814926,-0.15456406772136688
1772876978708011800,0.88801171875,1.131420373916626,-0.4065994918346405,-0.5952080488204956
1772876978717943800,0.89794384765625,1.3295438289642334,-1.5182551145553589,-2.28995418548584
1772876978727876900,0.907876953125,0.5373079180717468,-1.180362582206726,-1.808579921722412
1772876978737810000,0.917809814453125,0.21536198258399963,-1.2304052114486694,-0.4880921244621277
1772876978747743000,0.927742919921875,0.39603880047798157,-0.48247233033180237,0.7275708317756653
1772876978757675000,0.937675048828125,0.4230480492115021,0.30741775035858154,1.5218427181243896
1772876978767607800,0.94760791015625,0.026540376245975494,0.5342966914176941,1.8381240367889404
1772876978777540900,0.957540771484375,-0.6469733119010925,0.4672476351261139,1.7104510068893433
1772876978787473000,0.967472900390625,-1.1073532104492188,-0.24043814837932587,1.6600754261016846
1772876978797406000,0.977406005859375,-1.330478549003601,-0.5225792527198792,1.6127161979675293
1772876978807339000,0.987339111328125,-1.2246607542037964,-0.3333856463432312,1.2222017049789429
1772876978817272000,0.99727197265625,-0.9835103750228882,0.07435810565948486,0.6511844992637634
1772876978827204000,1.0072041015625,-0.7580868005752563,0.6118713617324829,0.10882747173309326
1772876978837137000,1.017136962890625,-0.6201010942459106,1.021970272064209,-0.503839910030365
1772876978847070000,1.027070068359375,-0.5834117531776428,1.1461093425750732,-1.201919436454773
1772876978857001700,1.037001708984375,-0.6941034197807312,0.8377869129180908,-1.8971143960952759
1772876978866934800,1.046934814453125,-0.8581218719482422,0.26696765422821045,-2.4492037296295166
1772876978876867800,1.056867919921875,-0.8549013137817383,0.0024160449393093586,-2.418905258178711
1772876978886800600,1.066800537109375,-0.7094011306762695,0.07517227530479431,-1.941977858543396
1772876978896733000,1.07673291015625,-0.5423033237457275,0.1994362771511078,-1.4074718952178955
1772876978906665700,1.086665771484375,-0.3512321412563324,-0.026031726971268654,-0.8329443335533142
1772876978916598800,1.096598876953125,-0.09329896420240402,-0.3402118980884552,-0.28023800253868103
1772876978926531800,1.10653173828125,0.27840960025787354,-0.3742905259132385,-0.03276800736784935
1772876978936464000,1.1164638671875,0.5741637349128723,-0.29021281003952026,0.0993678942322731
1772876978946397000,1.12639697265625,0.6147127151489258,-0.12597647309303284,0.023428652435541153
1772876978956329700,1.136329833984375,0.4747793674468994,0.11421860009431839,-0.18363939225673676
1772876978966261800,1.14626171875,0.26833805441856384,0.3588917553424835,-0.41183045506477356
1772876978976194800,1.15619482421875,0.05083853378891945,0.45295846462249756,-0.6099486947059631
1772876978986128000,1.1661279296875,-0.19963255524635315,0.3497024178504944,-0.7170522212982178
1772876978996061000,1.17606103515625,-0.40977784991264343,0.1084054559469223,-0.7568227648735046
1772876979005993000,1.185992919921875,-0.4844648838043213,-0.16928821802139282,-0.7165206074714661
1772876979015925800,1.19592578125,-0.4310375452041626,-0.36697131395339966,-0.5850757360458374
1772876979025858800,1.20585888671875,-0.2726937234401703,-0.5379707217216492,-0.4374072253704071
1772876979035790800,1.215790771484375,-0.08506511151790619,-0.6929981112480164,-0.30211949348449707
1772876979045724000,1.225723876953125,0.16937436163425446,-0.8459104299545288,-0.09885239601135254
1772876979055657000,1.235656982421875,0.3590417504310608,-0.8117823600769043,0.4007367193698883
1772876979065590000,1.245590087890625,0.4171002507209778,-0.6447941660881042,1.0585942268371582
1772876979075522000,1.25552197265625,0.4427666664123535,-0.7486275434494019,1.4328069686889648
1772876979085454800,1.265454833984375,0.3190907835960388,-1.4120169878005981,1.3012648820877075
1772876979095388000,1.275387939453125,0.20152384042739868,-2.565760850906372,0.4620512127876282
1772876979105320000,1.28531982421875,0.21897608041763306,-3.6383328437805176,-0.8556295037269592
1772876979115253000,1.2952529296875,0.3121347427368164,-4.127034664154053,-2.216533899307251
1772876979125186000,1.30518603515625,0.24410322308540344,-3.740516424179077,-2.849000930786133
1772876979135118800,1.315118896484375,0.1336182951927185,-3.485253095626831,-1.7289338111877441
1772876979145051000,1.32505078125,0.05495491251349449,-2.4234604835510254,0.6263381838798523
1772876979154983700,1.334983642578125,-0.08618383854627609,-1.3599493503570557,2.5938682556152344
1772876979164917000,1.3449169921875,-0.08852662146091461,-0.4952513873577118,3.4768447875976562
1772876979174850000,1.35485009765625,-0.10207603126764297,0.638301432132721,3.2731661796569824
1772876979184781800,1.36478173828125,-0.3049790859222412,1.701611876487732,2.6377415657043457
1772876979194715000,1.37471484375,-0.4169130027294159,2.620155096054077,2.0048344135284424
1772876979204647700,1.384647705078125,-0.1822536438703537,3.177419424057007,1.435144066810608
1772876979214580700,1.394580810546875,0.29467031359672546,3.06258487701416,0.8208285570144653
1772876979224512800,1.4045126953125,0.7602616548538208,2.3072283267974854,0.14119835197925568
1772876979234445800,1.41444580078125,1.10667884349823,1.0369155406951904,-0.5220640897750854
1772876979244379000,1.42437890625,1.3232859373092651,-0.4904155731201172,-1.0184557437896729
1772876979254311000,1.434310791015625,1.4983755350112915,-1.5418450832366943,-0.9125329852104187
1772876979264244000,1.444243896484375,1.5631552934646606,-1.936822772026062,-0.5308687090873718
1772876979274176800,1.4541767578125,1.5751076936721802,-1.6934336423873901,-0.3119795024394989
1772876979284109800,1.46410986328125,1.5081071853637695,-1.109447717666626,-0.22660629451274872
1772876979294041900,1.474041748046875,1.330063819885254,-0.4543455243110657,-0.137473925948143
1772876979303975000,1.483974853515625,1.0588775873184204,0.0399925634264946,-0.03657367825508118
1772876979313908500,1.493908447265625,0.7010458707809448,-0.06707397103309631,-0.3397415280342102
1772876979323840500,1.503840576171875,0.40465444326400757,-0.5126628875732422,-0.6149949431419373
1772876979333773600,1.513773681640625,0.22199492156505585,-0.5706493854522705,-0.18505170941352844
1772876979343706600,1.52370654296875,0.16104501485824585,-0.18702052533626556,0.583728015422821
1772876979353639700,1.5336396484375,0.20678508281707764,0.30785444378852844,1.5540781021118164
1772876979363571500,1.543571533203125,0.15807241201400757,0.4029964208602905,1.9724582433700562
1772876979373504500,1.55350439453125,-0.18068255484104156,0.45587223768234253,2.4174609184265137
1772876979383437300,1.563437255859375,-0.6690577864646912,0.5490133762359619,3.0394790172576904
1772876979393369300,1.573369384765625,-0.9439363479614258,0.6058564782142639,3.217555284500122
1772876979403302400,1.583302490234375,-1.0509097576141357,0.42372873425483704,2.9004945755004883
1772876979413235500,1.5932353515625,-1.2313629388809204,0.04777032136917114,2.471083641052246
1772876979423168500,1.60316845703125,-1.4011855125427246,-0.4096909761428833,2.062562942504883
1772876979433100500,1.6131005859375,-1.516642451286316,-0.7537863850593567,1.5829485654830933
1772876979443033300,1.623033447265625,-1.4914801120758057,-0.9532355666160583,1.1040501594543457
1772876979452966400,1.63296630859375,-1.3772165775299072,-1.028140902519226,0.5851669311523438
1772876979462899500,1.6428994140625,-1.3360118865966797,-0.8734431266784668,0.01480811182409525
1772876979472831500,1.65283154296875,-1.2023797035217285,-0.8275054693222046,-0.7132461667060852
1772876979482764500,1.6627646484375,-0.8882250785827637,-0.7723509073257446,-1.371346354484558
1772876979492697600,1.672697509765625,-0.40523824095726013,-0.4877561926841736,-1.5785139799118042
1772876979502629600,1.682629638671875,0.03465230390429497,-0.09040138870477676,-1.447399616241455
1772876979512562400,1.6925625,0.40223750472068787,0.1751072108745575,-1.232403039932251
1772876979522495500,1.70249560546875,0.6426266431808472,0.2636527717113495,-1.040314793586731
1772876979532428500,1.712428466796875,0.7146263122558594,0.22735394537448883,-0.8422098159790039
1772876979542360600,1.722360595703125,0.6268567442893982,0.16763043403625488,-0.6371333599090576
1772876979552293600,1.732293701171875,0.3985688090324402,0.10087714344263077,-0.4415901303291321
1772876979562226400,1.742226318359375,0.1581255942583084,-0.03160713240504265,-0.2557142674922943
1772876979572158500,1.752158447265625,-0.04475145414471626,-0.21553245186805725,-0.078292116522789
1772876979582091500,1.762091552734375,-0.21384114027023315,-0.3630174994468689,-0.007456026505678892
1772876979592024600,1.772024658203125,-0.32153868675231934,-0.3871009647846222,-0.046421248465776443
1772876979601957600,1.78195751953125,-0.35836276412010193,-0.2559059262275696,-0.12253226339817047
1772876979611889700,1.7918896484375,-0.4161994755268097,0.018673080950975418,-0.17298583686351776
1772876979621822700,1.80182275390625,-0.5372742414474487,0.2550611197948456,-0.12008480727672577
1772876979631755500,1.811755615234375,-0.6423852443695068,0.3871555030345917,0.008545338176190853
1772876979641687300,1.821687255859375,-0.70640629529953,0.4395763576030731,0.2186351865530014
1772876979651620400,1.831620361328125,-0.7216225862503052,0.42736560106277466,0.4280756711959839
1772876979661553700,1.8415537109375,-0.6375716328620911,0.4215356707572937,0.5578118562698364
1772876979671486700,1.85148681640625,-0.5108031630516052,0.45474281907081604,0.601222038269043
1772876979681418500,1.86141845703125,-0.39407098293304443,0.5081522464752197,0.5471130013465881
1772876979691351300,1.871351318359375,-0.376381516456604,0.5520642399787903,0.3649289309978485
1772876979701284400,1.881284423828125,-0.4263994097709656,0.4984588027000427,0.027414295822381973
1772876979711217400,1.891217529296875,-0.5101355910301208,0.21671444177627563,-0.3972119987010956
1772876979721149400,1.9011494140625,-0.6877378225326538,-0.4247720539569855,-0.9074587821960449
1772876979731082500,1.91108251953125,-0.7880063652992249,-1.1791654825210571,-1.5822709798812866
1772876979741015600,1.921015625,-0.7777212262153625,-1.6305314302444458,-2.3251419067382812
1772876979750947600,1.930947509765625,-0.6129517555236816,-1.5228164196014404,-2.838268518447876
1772876979760880400,1.94088037109375,-0.03755423426628113,-1.133867859840393,-2.8015246391296387
1772876979770813400,1.9508134765625,0.7452629208564758,-0.5982786417007446,-1.9897574186325073
1772876979780746500,1.96074658203125,1.1670492887496948,-0.0173974446952343,-0.5347049832344055
1772876979790678500,1.970678466796875,0.904341995716095,0.2606598734855652,1.0964295864105225
1772876979800611600,1.980611572265625,0.30151042342185974,0.13253147900104523,2.053825855255127
1772876979810544400,1.99054443359375,-0.1122971922159195,-0.22976461052894592,1.8893203735351562
1772876979820477400,2.0004775390625,-0.1957729160785675,-0.7073546051979065,0.886461615562439
1772876979830409500,2.010409423828125,0.027870556339621544,-1.1446398496627808,-0.12304409593343735
1772876979840342500,2.020342529296875,0.474780410528183,-1.21649968624115,-0.5862897634506226
1772876979850275600,2.030275634765625,0.9220439791679382,-0.9616618752479553,-0.5041972994804382
1772876979860207600,2.04020751953125,1.185465931892395,-0.536686360836029,-0.10246932506561279
1772876979870140700,2.050140625,1.2504006624221802,-0.2092486172914505,0.4294765889644623
1772876979880073500,2.060073486328125,1.2043626308441162,0.016795441508293152,0.8093221783638
1772876979890006500,2.070006591796875,1.1183744668960571,0.2524246275424957,0.8998727202415466
1772876979899938600,2.0799384765625,1.0074598789215088,0.5115528702735901,0.7625105977058411
1772876979909871600,2.08987158203125,0.8968945741653442,0.7300736904144287,0.5172711610794067
1772876979919804700,2.0998046875,0.8483632802963257,0.536699116230011,-0.08028201758861542
1772876979929736700,2.10973681640625,0.8937973976135254,-0.23034533858299255,-1.0242090225219727
1772876979939669500,2.11966943359375,0.9672524929046631,-0.5220461487770081,-1.016087293624878
1772876979949602600,2.1296025390625,0.9855740070343018,-0.5216198563575745,-0.3597634434700012
1772876979959535600,2.13953564453125,0.9331257343292236,-0.36218178272247314,0.4628680944442749
1772876979969467400,2.14946728515625,0.5912937521934509,-0.19239374995231628,1.2431628704071045
1772876979979400400,2.159400390625,0.03374418243765831,-0.04979211837053299,1.8260713815689087
1772876979989333500,2.16933349609375,-0.5603556632995605,0.1627931296825409,2.1270086765289307
1772876979999265500,2.179265625,-1.0633553266525269,0.42590412497520447,2.1619279384613037
1772876980009198300,2.1891982421875,-1.3171554803848267,0.7344769835472107,1.9685266017913818
1772876980019131400,2.19913134765625,-1.233599305152893,0.930146336555481,1.5246484279632568
1772876980029064400,2.209064453125,-0.9577416777610779,0.8719349503517151,0.9724382758140564
1772876980038996500,2.21899658203125,-0.5636806488037109,0.6933804154396057,0.4244588315486908
1772876980048929500,2.228929443359375,-0.2236546277999878,0.6381568908691406,-0.031374819576740265
1772876980058862300,2.2388623046875,-0.06815319508314133,0.5824688673019409,-0.4371097981929779
1772876980068794400,2.24879443359375,-0.06480863690376282,0.573498010635376,-0.8520928621292114
1772876980078727400,2.2587275390625,-0.03810885176062584,0.6200798749923706,-1.144334077835083
1772876980088660500,2.268660400390625,0.10632538050413132,0.6756674647331238,-1.298427939414978
1772876980098593500,2.278593505859375,0.30727261304855347,0.70740807056427,-1.3562462329864502
1772876980108525600,2.288525634765625,0.4902709722518921,0.7231813669204712,-1.3300960063934326
1772876980118458600,2.298458740234375,0.6020281314849854,0.6997833251953125,-1.223517656326294
1772876980128391400,2.308391357421875,0.605591356754303,0.6085404753684998,-1.1118292808532715
1772876980138323500,2.318323486328125,0.4335029125213623,0.49379047751426697,-1.0218415260314941
1772876980148256500,2.328256591796875,0.1763744056224823,0.4539940059185028,-0.9002136588096619
1772876980158189600,2.338189453125,-0.08157084882259369,0.4639739394187927,-0.7495490312576294
1772876980168122600,2.34812255859375,-0.31002283096313477,0.5032413601875305,-0.5702608823776245
1772876980178054700,2.3580546875,-0.46041634678840637,0.5385793447494507,-0.36690080165863037
1772876980187987500,2.367987548828125,-0.5201107263565063,0.5412698984146118,-0.17491893470287323
1772876980197920500,2.37792041015625,-0.5246037840843201,0.5520029664039612,-0.01350288838148117
1772876980207853600,2.387853515625,-0.5177991390228271,0.6247864365577698,0.17597566545009613
1772876980217785600,2.39778564453125,-0.5268499255180359,0.7227633595466614,0.4297408163547516
1772876980227718700,2.40771875,-0.5714565515518188,0.8616621494293213,0.646099865436554
1772876980237651700,2.417651611328125,-0.6377335786819458,1.0085052251815796,0.8169161081314087
1772876980247583500,2.42758349609375,-0.7309145927429199,1.0892988443374634,0.9390230774879456
1772876980257516300,2.437516357421875,-0.7957857251167297,1.0965744256973267,1.027604103088379
1772876980267449600,2.44744970703125,-0.8607269525527954,1.034136414527893,1.1483253240585327
1772876980277382700,2.457382568359375,-0.8931360244750977,0.7995385527610779,1.0209239721298218
1772876980287314400,2.467314453125,-0.9310927391052246,0.41076889634132385,0.6016363501548767
1772876980297247500,2.47724755859375,-0.9616684913635254,-0.16521182656288147,-0.03841926157474518
1772876980307180300,2.48718017578125,-0.9645320177078247,-0.7799973487854004,-0.9499644637107849
1772876980317112600,2.497112548828125,-0.8579626679420471,-1.1192129850387573,-1.9195740222930908
1772876980327045600,2.507045654296875,-0.5149152874946594,-0.9367615580558777,-2.641446590423584
1772876980336978700,2.516978759765625,0.06784748286008835,-0.3188953995704651,-2.7400176525115967
1772876980346911700,2.526911865234375,0.820533812046051,0.181970477104187,-2.0939013957977295
1772876980356843800,2.53684375,1.4555169343948364,0.3202900290489197,-0.7050641775131226
1772876980366776800,2.54677685546875,1.5473945140838623,0.23611728847026825,0.7912015914916992
1772876980376709600,2.556709716796875,1.2446950674057007,0.08513016253709793,1.3867145776748657
1772876980386642700,2.566642578125,1.1099709272384644,-0.23210099339485168,0.9518169164657593
1772876980396574700,2.57657470703125,1.2640353441238403,-0.4279834032058716,0.43905773758888245
1772876980406507800,2.5865078125,1.5079028606414795,-0.4419940412044525,0.008151954039931297
1772876980416440800,2.59644091796875,1.628316879272461,-0.4306899607181549,-0.4743819534778595
1772876980426372600,2.60637255859375,1.4520015716552734,-0.45538535714149475,-0.8210008144378662
1772876980436305400,2.616305419921875,1.1571043729782104,-0.4290240705013275,-0.8552043437957764
1772876980446238500,2.626238525390625,0.9423093199729919,-0.31939616799354553,-0.5896834135055542
1772876980456171500,2.636171630859375,0.7842230200767517,-0.16536879539489746,-0.14130371809005737
1772876980466103600,2.646103515625,0.5321705341339111,-0.0176048893481493,0.2788826525211334
1772876980476036600,2.65603662109375,0.14804811775684357,0.0582541897892952,0.6847712397575378
1772876980485969700,2.6659697265625,-0.22201021015644073,0.03386550769209862,1.0524135828018188
1772876980495901700,2.675901611328125,-0.632183849811554,0.08624216169118881,1.3300753831863403
1772876980505834500,2.68583447265625,-1.021159052848816,0.25183072686195374,1.549979567527771
1772876980515767600,2.695767578125,-1.2504100799560547,0.45971494913101196,1.7640804052352905
1772876980525700600,2.70570068359375,-1.3413302898406982,0.5852155089378357,1.968774437904358
1772876980535632600,2.715632568359375,-1.486577033996582,0.5923283100128174,2.3586056232452393
1772876980545565700,2.725565673828125,-1.746795892715454,0.7163307666778564,3.0992958545684814
1772876980555498500,2.73549853515625,-1.8311015367507935,0.7339785099029541,3.3817272186279297
1772876980565430500,2.745430419921875,-1.6862542629241943,0.059357598423957825,2.2986643314361572
1772876980575363600,2.755363525390625,-1.7465753555297852,-0.30720922350883484,1.4978182315826416
1772876980585296600,2.765296630859375,-1.6064777374267578,-0.20907250046730042,0.9128567576408386
1772876980595229700,2.775229736328125,-1.0549352169036865,0.18304947018623352,0.22657901048660278
1772876980605161700,2.78516162109375,-0.8047816753387451,0.3745254874229431,-0.5958279967308044
1772876980615094800,2.7950947265625,-0.6747853755950928,0.41563883423805237,-1.157736897468567
1772876980625027600,2.805027587890625,-0.41132766008377075,0.39972102642059326,-1.4351807832717896
1772876980634960600,2.814960693359375,-0.2723923921585083,0.3493305444717407,-1.566683053970337
1772876980644892700,2.824892578125,-0.22734655439853668,0.18621022999286652,-1.5142468214035034
1772876980654825700,2.83482568359375,-0.11030834913253784,0.20614638924598694,-1.46026611328125
1772876980664758800,2.8447587890625,-0.06941218674182892,-0.14590993523597717,-1.2921005487442017
1772876980674690800,2.85469091796875,0.059911709278821945,-0.3466624617576599,-1.1936067342758179
1772876980684623600,2.86462353515625,0.14118070900440216,-0.06646386533975601,-1.324745774269104
1772876980694556700,2.874556640625,0.13993221521377563,0.03923778980970383,-1.4734891653060913
1772876980704489700,2.88448974609375,0.1162729412317276,0.1100567951798439,-1.5816107988357544
1772876980714421500,2.89442138671875,0.07196273654699326,0.1868964433670044,-1.5333590507507324
1772876980724354800,2.904354736328125,0.015761127695441246,0.19287686049938202,-1.3126755952835083
1772876980734287600,2.91428759765625,-0.09527085721492767,0.20271670818328857,-0.9331360459327698
1772876980744219600,2.9242197265625,-0.1797100454568863,0.2523171305656433,-0.40473243594169617
1772876980754152400,2.93415234375,-0.25996413826942444,0.3389681279659271,0.15241257846355438
1772876980764085500,2.94408544921875,-0.3241119384765625,0.47866666316986084,0.5849371552467346
1772876980774018600,2.9540185546875,-0.3283082842826843,0.6041737198829651,0.8403531908988953
1772876980783950600,2.96395068359375,-0.21599987149238586,0.6853460669517517,0.9058884382247925
1772876980793883600,2.973883544921875,-0.09072663635015488,0.8270395994186401,0.7882257699966431
1772876980803816400,2.98381640625,-0.14897580444812775,0.8716033101081848,0.5201877355575562
1772876980813748500,2.99374853515625,-0.2471819967031479,0.8230559825897217,0.2295345962047577
1772876980823681500,3.003681640625,-0.2900121212005615,0.7649837732315063,0.16750000417232513
1772876980833614600,3.013614501953125,-0.24833311140537262,0.6165100932121277,0.23408327996730804
1772876980843547600,3.023547607421875,-0.23402592539787292,0.4034964144229889,0.2032318115234375
1772876980853479700,3.033479736328125,-0.18302026391029358,0.16757257282733917,0.11862317472696304
1772876980863412700,3.043412841796875,-0.05394919961690903,-0.04831438139081001,-0.2552741467952728
1772876980873345500,3.053345458984375,0.18799924850463867,-0.02441704086959362,-0.9489927291870117
1772876980883277600,3.063277587890625,0.5252799391746521,0.4156506657600403,-1.4986222982406616
1772876980893210600,3.073210693359375,0.8485352396965027,0.9429437518119812,-2.2615997791290283
1772876980903143700,3.083143798828125,1.0126304626464844,1.2261781692504883,-2.449862480163574
1772876980913076700,3.09307666015625,1.119185447692871,0.9839338064193726,-1.397662878036499
1772876980923008800,3.1030087890625,0.9817063212394714,0.301741361618042,0.4630817472934723
1772876980932941600,3.112941650390625,0.5959996581077576,-0.363319993019104,2.147310733795166
1772876980942874600,3.12287451171875,0.36913496255874634,-0.7847374677658081,2.794025421142578
1772876980952807700,3.1328076171875,0.2649068236351013,-0.7070719599723816,2.57072114944458
1772876980962739700,3.14273974609375,0.2809651494026184,-0.29480618238449097,2.0665884017944336
1772876980972672800,3.1526728515625,0.4026671051979065,0.2445603758096695,1.5353676080703735
1772876980982605600,3.16260546875,0.5119357109069824,0.7513596415519714,1.0902771949768066
1772876980992537900,3.172537841796875,0.5628201961517334,0.817668616771698,0.6238786578178406
1772876981002470700,3.182470703125,0.5762474536895752,0.2741963863372803,-0.22234699130058289
1772876981012403700,3.19240380859375,0.607215166091919,-0.8142212629318237,-1.5228495597839355
1772876981022336800,3.202336669921875,0.6862447261810303,-1.5248075723648071,-2.2785558700561523
1772876981032268500,3.2122685546875,0.8128716349601746,-1.5424214601516724,-2.3227431774139404
1772876981042201600,3.22220166015625,0.9281708002090454,-1.2315104007720947,-2.0204243659973145
1772876981052134400,3.232134521484375,0.8957571983337402,-0.8195372819900513,-1.3659611940383911
1772876981062066400,3.24206640625,0.675517201423645,-0.4961278736591339,-0.5797892212867737
1772876981071999500,3.25199951171875,0.481580525636673,-0.28101634979248047,0.18163172900676727
1772876981081932500,3.2619326171875,0.4513345956802368,-0.1452476531267166,0.7522855997085571
1772876981091865600,3.271865478515625,0.3887215256690979,-0.040679432451725006,1.066175937652588
1772876981101797600,3.281797607421875,0.25454553961753845,0.14319783449172974,1.4355554580688477
1772876981111730700,3.291730712890625,0.06534072756767273,0.23885326087474823,1.8414945602416992
1772876981121663500,3.30166357421875,-0.18013595044612885,0.09398356080055237,2.1275851726531982
1772876981131596500,3.311596435546875,-0.5811398029327393,-0.2069147527217865,2.269495725631714
1772876981141528600,3.321528564453125,-0.9943816065788269,-0.4131869971752167,2.160963296890259
1772876981151461600,3.331461669921875,-1.380825400352478,-0.45730865001678467,1.8554507493972778
1772876981161394700,3.341394775390625,-1.6295613050460815,-0.046825140714645386,1.7644789218902588
1772876981171326700,3.35132666015625,-1.4989335536956787,0.7339289784431458,1.6871145963668823
1772876981181259500,3.361259521484375,-1.1538784503936768,0.8727808594703674,0.7111039161682129
1772876981191192600,3.371192626953125,-0.8214014172554016,0.6332100629806519,-0.5213537812232971
1772876981201125600,3.381125732421875,-0.3721466064453125,0.5291652083396912,-0.9030038118362427
1772876981211057700,3.3910576171875,0.15183085203170776,0.5449053049087524,-1.0066332817077637
1772876981220990700,3.40099072265625,0.4365376830101013,0.37415748834609985,-1.0842673778533936
1772876981230923800,3.410923828125,0.40298157930374146,-0.09234978258609772,-1.1020311117172241
1772876981240855800,3.420855712890625,0.30765601992607117,-0.4815492331981659,-1.0594130754470825
1772876981250788600,3.43078857421875,0.26951634883880615,-0.5756580829620361,-0.9780808687210083
1772876981260721700,3.4407216796875,0.30113938450813293,-0.4876725673675537,-0.9445650577545166
1772876981270654700,3.45065478515625,0.37025800347328186,-0.31143495440483093,-1.016541600227356
1772876981280586800,3.460586669921875,0.4515174627304077,-0.06864485889673233,-1.144010305404663
1772876981290519800,3.470519775390625,0.5108734965324402,0.2105415016412735,-1.2098404169082642
1772876981300452600,3.48045263671875,0.5513508319854736,0.4888092577457428,-1.14194655418396
1772876981310384600,3.490384521484375,0.5545567274093628,0.6553308367729187,-0.9322686195373535
1772876981320317700,3.500317626953125,0.507307767868042,0.653476893901825,-0.6057127714157104
1772876981330250800,3.510250732421875,0.41100385785102844,0.5253524780273438,-0.18402357399463654
1772876981340183800,3.520183837890625,0.30765947699546814,0.4000895917415619,0.22310195863246918
1772876981350115800,3.53011572265625,0.2242061346769333,0.3752311170101166,0.4995737373828888
1772876981360049000,3.540048828125,0.17297407984733582,0.4432508051395416,0.6208950281143188
1772876981369981700,3.549981689453125,0.17134901881217957,0.5490233302116394,0.604085385799408
1772876981379913700,3.559913818359375,0.184792160987854,0.6743338704109192,0.4603005349636078
1772876981389846800,3.5698466796875,0.153055801987648,0.7659764289855957,0.24584388732910156
1772876981399779800,3.57977978515625,0.056045182049274445,0.7909653782844543,0.05145375058054924
1772876981409713000,3.589712890625,-0.08309672772884369,0.7705895304679871,0.031270451843738556
1772876981419645000,3.59964501953125,-0.3668256103992462,0.6440862417221069,0.06022059917449951
1772876981429577700,3.60957763671875,-0.7578250169754028,0.3515520989894867,-0.10843206197023392
1772876981439510800,3.6195107421875,-1.1490113735198975,-0.027789492160081863,-0.37375408411026
1772876981449442800,3.62944287109375,-1.2720603942871094,-0.37932994961738586,-0.8545780181884766
1772876981459375900,3.6393759765625,-0.9965717792510986,-0.5035255551338196,-1.6652019023895264
1772876981469309000,3.649308837890625,-0.27955663204193115,-0.2743121087551117,-2.588029146194458
1772876981479241700,3.65924169921875,0.7999024391174316,0.15066102147102356,-3.060835599899292
1772876981489174000,3.669174072265625,1.585067629814148,0.03938589245080948,-3.652569532394409
1772876981499106800,3.67910693359375,1.7340565919876099,-0.47562018036842346,-3.391049861907959
1772876981509039900,3.689039794921875,1.3194979429244995,-0.8672468066215515,-1.8982354402542114
1772876981518973000,3.698972900390625,0.58255535364151,-1.2331305742263794,-0.08224477618932724
1772876981528904700,3.70890478515625,0.09824911504983902,-1.3829882144927979,1.2134017944335938
1772876981538838000,3.718838134765625,0.09592926502227783,-1.4493619203567505,1.615826964378357
1772876981548770800,3.728770751953125,0.367555171251297,-1.3367927074432373,1.4653104543685913
1772876981558702600,3.73870263671875,0.6804554462432861,-1.0471839904785156,1.1342382431030273
1772876981568635600,3.7486357421875,0.951224148273468,-0.700297474861145,0.7833198308944702
1772876981578568700,3.758568603515625,1.0999687910079956,-0.47570282220840454,0.4797890782356262
1772876981588501800,3.768501708984375,1.0836867094039917,-0.3964833617210388,0.303737610578537
1772876981598433800,3.778433837890625,0.8877444863319397,-0.5428882837295532,0.18341025710105896
1772876981608366800,3.788366943359375,0.6237426996231079,-0.8869050145149231,-0.05618395656347275
1772876981618299600,3.798299560546875,0.41442275047302246,-1.258871078491211,-0.3723549544811249
1772876981628232700,3.808232666015625,0.35727185010910034,-1.448040246963501,-0.4418187141418457
1772876981638164700,3.818164794921875,0.4863738715648651,-1.3752622604370117,-0.2928045690059662
1772876981648097800,3.828097900390625,0.7154003977775574,-1.0357056856155396,-0.0386979766190052
1772876981658030800,3.83803076171875,0.8159551024436951,-0.6702734231948853,0.32896456122398376
1772876981667963000,3.847962890625,0.749098002910614,-0.4587739408016205,0.8111682534217834
1772876981677895700,3.857895751953125,0.5282291769981384,-0.3839857876300812,1.2731853723526
1772876981687828700,3.867828857421875,0.2432488203048706,-0.37739792466163635,1.5798805952072144
1772876981697761800,3.87776171875,-0.055269356817007065,-0.40880173444747925,1.673950433731079
1772876981707693800,3.88769384765625,-0.32049381732940674,-0.438519686460495,1.583097219467163
1772876981717627000,3.897626953125,-0.599431037902832,-0.32297444343566895,1.3783093690872192
1772876981727559700,3.9075595703125,-0.8436415791511536,0.0258565042167902,1.244210958480835
1772876981737492000,3.917491943359375,-0.9649990797042847,0.4941468834877014,1.27167809009552
1772876981747424800,3.9274248046875,-0.9115310311317444,0.9565619230270386,1.2299176454544067
1772876981757357800,3.93735791015625,-0.8198650479316711,1.1345322132110596,0.9048714637756348
1772876981767291000,3.947290771484375,-0.8241399526596069,0.9139841198921204,0.3940410017967224
1772876981777223000,3.957222900390625,-0.7987395524978638,0.5603054165840149,-0.1318904459476471
1772876981787156000,3.967156005859375,-0.6389703750610352,0.3868929445743561,-0.5859364867210388
1772876981797088800,3.9770888671875,-0.4150577783584595,0.5247340798377991,-0.9290412068367004
1772876981807020800,3.987020751953125,-0.2641226053237915,0.7897260189056396,-1.2243341207504272
1772876981816953900,3.996953857421875,-0.17448538541793823,0.9816327095031738,-1.4923027753829956
1772876981826887000,4.006886962890625,-0.1536746472120285,0.9415598511695862,-1.7113112211227417
1772876981836820000,4.016820068359375,-0.22306445240974426,0.7457773685455322,-1.8816269636154175
1772876981846751700,4.026751708984375,-0.3902036249637604,0.5130722522735596,-1.8526451587677002
1772876981856684800,4.036684814453125,-0.609294593334198,0.36818766593933105,-1.5806849002838135
1772876981866617600,4.04661767578125,-0.7364121079444885,0.3399727940559387,-1.2393313646316528
1772876981876549600,4.056549560546875,-0.7042624950408936,0.32687416672706604,-0.9837802648544312
1772876981886482700,4.066482666015625,-0.5763128399848938,0.24720008671283722,-0.8661625385284424
1772876981896415700,4.076415771484375,-0.4101925790309906,0.1820862591266632,-0.7574386596679688
1772876981906348800,4.086348876953125,-0.23146411776542664,0.2130228877067566,-0.643562376499176
1772876981916280800,4.09628076171875,-0.04059324786067009,0.23264288902282715,-0.5698622465133667
1772876981926213600,4.106213623046875,0.08541688323020935,0.13043048977851868,-0.5138780474662781
1772876981936146700,4.116146728515625,0.09590183198451996,-0.1050492525100708,-0.5004294514656067
1772876981946079700,4.126079833984375,0.023916054517030716,-0.4216943085193634,-0.5225176811218262
1772876981956011800,4.13601171875,-0.0991927981376648,-0.7313022017478943,-0.49675336480140686
1772876981965944800,4.14594482421875,-0.21994638442993164,-0.942554771900177,-0.41566306352615356
1772876981975878000,4.1558779296875,-0.21314236521720886,-0.9666448831558228,-0.32631635665893555
1772876981985810000,4.165809814453125,-0.018548641353845596,-0.8041014671325684,-0.21430514752864838
1772876981995742700,4.17574267578125,0.25809726119041443,-0.4664692282676697,0.12302689254283905
1772876982005675800,4.18567578125,0.4236718416213989,0.024694109335541725,0.7175456285476685
1772876982015608800,4.19560888671875,0.2684524953365326,0.26623043417930603,1.1826757192611694
1772876982025540900,4.205540771484375,-0.1356201469898224,0.34134435653686523,1.4783869981765747
1772876982035474000,4.215473876953125,-0.5214314460754395,0.22447828948497772,1.3465323448181152
1772876982045406700,4.22540673828125,-0.7203112244606018,0.16802459955215454,0.6424074769020081
1772876982055338800,4.2353388671875,-0.4972624182701111,0.18514053523540497,-0.22805334627628326
1772876982065271800,4.245271728515625,-0.014102150686085224,-0.11857672780752182,-0.9449464678764343
1772876982075204900,4.255204833984375,0.44937705993652344,-0.9950210452079773,-1.2885221242904663
1772876982085138000,4.265137939453125,0.5844627022743225,-1.7876416444778442,-0.9859089255332947
1772876982095070000,4.275070068359375,0.34800848364830017,-2.0792715549468994,-0.18953420221805573
1772876982105003000,4.2850029296875,-0.007895568385720253,-1.5641754865646362,0.7228602766990662
1772876982114935800,4.294935791015625,-0.16259780526161194,-0.5972091555595398,1.4809644222259521
1772876982124867600,4.30486767578125,-0.10145960748195648,0.4456292688846588,1.9669798612594604
1772876982134801000,4.31480078125,0.02950642630457878,1.2497944831848145,2.1171042919158936
1772876982144734000,4.32473388671875,0.11742430180311203,1.6606671810150146,1.8534821271896362
1772876982154667000,4.3346669921875,0.1625371277332306,1.3537490367889404,1.066267967224121
1772876982164598800,4.344598876953125,0.14500313997268677,0.47426754236221313,-0.11887714266777039
1772876982174531600,4.354531494140625,0.296846866607666,-0.23026162385940552,-0.8956323266029358
1772876982184464600,4.364464599609375,0.640859067440033,-0.47022682428359985,-0.9645631909370422
1772876982194397700,4.374397705078125,1.0181183815002441,-0.7016898989677429,-0.8675128221511841
1772876982204329700,4.384329833984375,1.1510183811187744,-1.1084818840026855,-0.8277539610862732
1772876982214262800,4.3942626953125,0.8374462723731995,-1.5095008611679077,-0.6797207593917847
1772876982224195800,4.40419580078125,0.34222859144210815,-1.8169705867767334,-0.3979106545448303
1772876982234128000,4.4141279296875,-0.02360154315829277,-1.847343921661377,-0.14520728588104248
1772876982244060700,4.424060791015625,-0.2793087065219879,-1.531835675239563,0.15017083287239075
1772876982253993700,4.43399365234375,-0.4121408462524414,-0.9535567164421082,0.555812656879425
1772876982263926800,4.4439267578125,-0.4627627432346344,-0.3482618033885956,1.018995761871338
1772876982273858800,4.45385888671875,-0.46781688928604126,0.27848511934280396,1.3664436340332031
1772876982283792000,4.4637919921875,-0.423863023519516,0.865546464920044,1.5577068328857422
1772876982293724700,4.473724609375,-0.34395697712898254,1.2667120695114136,1.641648530960083
1772876982303657700,4.48365771484375,-0.34788939356803894,1.4426828622817993,1.6423190832138062
1772876982313589200,4.49358935546875,-0.5771578550338745,1.48429536819458,1.719836711883545
1772876982323522300,4.503522216796875,-0.9296059608459473,1.368913173675537,1.8665579557418823
1772876982333455400,4.513455322265625,-1.2218788862228394,1.1032476425170898,1.9973180294036865
1772876982343387400,4.523387451171875,-1.3354613780975342,0.8447452783584595,2.056605339050293
1772876982353320400,4.533320556640625,-1.0881049633026123,0.4141005873680115,1.5623191595077515
1772876982363253200,4.543253173828125,-0.6897659301757812,0.08683963119983673,0.6210741400718689
1772876982373186300,4.553186279296875,-0.4743609130382538,0.07073599845170975,-0.31855258345603943
1772876982383118300,4.563118408203125,-0.4480943977832794,0.1424456089735031,-1.1385533809661865
1772876982393051400,4.573051513671875,-0.38115397095680237,0.14750295877456665,-1.7378863096237183
1772876982402984400,4.582984375,-0.2972468137741089,-0.009801443666219711,-2.0746538639068604
1772876982412916200,4.592916259765625,-0.23670250177383423,-0.1782417595386505,-2.084219455718994
1772876982422849300,4.602849365234375,-0.180980384349823,-0.3235291540622711,-1.7024428844451904
1772876982432782300,4.6127822265625,-0.09061897546052933,-0.4221743643283844,-1.1111576557159424
1772876982442715400,4.62271533203125,-0.10424770414829254,-0.3777238130569458,-0.5678805112838745
1772876982452647200,4.632647216796875,-0.12267838418483734,-0.2390359491109848,-0.08547915518283844
1772876982462580200,4.642580322265625,-0.04768803343176842,-0.04503345862030983,0.2923397719860077
1772876982472513300,4.65251318359375,-0.022120963782072067,0.13151583075523376,0.46666115522384644
1772876982482445300,4.6624453125,-0.041233405470848083,0.28140121698379517,0.48398715257644653
1772876982492378000,4.672378173828125,-0.11498414725065231,0.4296152889728546,0.4277196228504181
1772876982502311200,4.682311279296875,-0.2151126116514206,0.5954697728157043,0.3304053246974945
1772876982512244200,4.692244140625,-0.2973406910896301,0.7275475263595581,0.20770156383514404
1772876982522176300,4.70217626953125,-0.3470509946346283,0.891103208065033,0.18178661167621613
1772876982532109300,4.712109375,-0.3701142370700836,0.99361252784729,0.2619991898536682
1772876982542042400,4.72204248046875,-0.3947146534919739,0.9952788352966309,0.42951253056526184
1772876982551975200,4.73197509765625,-0.4038248658180237,0.9342432618141174,0.6573338508605957
1772876982561907200,4.7419072265625,-0.36596429347991943,0.8492076992988586,0.8072307109832764
1772876982571840300,4.75184033203125,-0.2843625843524933,0.8625839352607727,0.8448631167411804
1772876982581773300,4.761773193359375,-0.21766424179077148,0.9165669679641724,0.7875133156776428
1772876982591705300,4.771705322265625,-0.18110592663288116,1.0544402599334717,0.6601518392562866
1772876982601638400,4.781638427734375,-0.15710444748401642,1.2548675537109375,0.41165977716445923
1772876982611571200,4.7915712890625,-0.1922166347503662,1.4773144721984863,0.05690380558371544
1772876982621504300,4.801504150390625,-0.2898862063884735,1.420912742614746,-0.6435754895210266
1772876982631436300,4.811436279296875,-0.38415610790252686,0.9745438098907471,-1.692517638206482
1772876982641369300,4.821369384765625,-0.17468036711215973,0.4380814731121063,-2.4544801712036133
1772876982651302400,4.831302490234375,0.14626537263393402,0.4664917290210724,-2.4532766342163086
1772876982661234400,4.841234375,0.18523487448692322,0.815274178981781,-2.2618203163146973
1772876982671167500,4.85116748046875,-0.0971270278096199,1.2630671262741089,-1.5842843055725098
1772876982681100300,4.861100341796875,-0.411859929561615,1.516329288482666,-0.3327345848083496
1772876982691033300,4.871033447265625,-0.5642271637916565,1.2227826118469238,0.8945250511169434
1772876982700965400,4.88096533203125,-0.4854588210582733,0.6585844159126282,1.7138944864273071
1772876982710898400,4.8908984375,-0.41258329153060913,0.033194515854120255,1.953932285308838
1772876982720831500,4.90083154296875,-0.3381221294403076,-0.3155946433544159,1.9179550409317017
1772876982730763300,4.91076318359375,-0.1423605978488922,-0.2989639937877655,1.6445456743240356
1772876982740696000,4.920696044921875,0.425368070602417,-0.23336580395698547,0.9695495367050171
1772876982750629000,4.930629150390625,1.1099199056625366,-0.210607647895813,-0.002226167358458042
1772876982760562200,4.940562255859375,1.5029993057250977,-0.12490446865558624,-0.9201123118400574
1772876982770494200,4.950494140625,1.6516119241714478,-0.027627024799585342,-1.6741464138031006
1772876982780427300,4.96042724609375,1.421488642692566,-0.208576038479805,-2.084421157836914
1772876982790360300,4.9703603515625,0.9597623348236084,-0.6316016912460327,-1.96659517288208
1772876982800293000,4.980293212890625,0.5576207041740417,-1.0458707809448242,-1.4458125829696655
1772876982810225200,4.99022509765625,0.26262032985687256,-1.376616358757019,-0.7232908606529236
1772876982820158200,5.000158203125,0.08964721113443375,-1.529573678970337,0.02443953976035118
1772876982830091300,5.01009130859375,0.144248828291893,-1.3896011114120483,0.6429150700569153
1772876982840023300,5.020023193359375,0.20832288265228271,-0.8987634778022766,1.1463109254837036
1772876982849956400,5.029956298828125,0.1817333698272705,-0.3524281680583954,1.4627625942230225
1772876982859889200,5.03988916015625,0.04524264484643936,0.0528479740023613,1.6256892681121826
1772876982869822200,5.049822265625,-0.1269717663526535,0.3254767656326294,1.8024381399154663
1772876982879754200,5.059754150390625,-0.3494306802749634,0.575133204460144,1.9932185411453247
1772876982889687300,5.069687255859375,-0.6689940094947815,0.7794618606567383,2.201671600341797
1772876982899620400,5.079620361328125,-1.034103512763977,0.7928301095962524,2.227956533432007
1772876982909552400,5.089552490234375,-1.3220417499542236,0.6867430210113525,2.0187525749206543
1772876982919485400,5.0994853515625,-1.4356164932250977,0.5454580783843994,1.720115303993225
1772876982929418200,5.109418212890625,-1.2705408334732056,0.5006917119026184,1.363914132118225
1772876982939351300,5.119351318359375,-0.9284008145332336,0.36519062519073486,0.8452886343002319
1772876982949283300,5.129283447265625,-0.6035638451576233,0.05358828231692314,0.08430630713701248
1772876982959216400,5.13921630859375,-0.581610381603241,-0.32339945435523987,-0.7341464757919312
1772876982969149400,5.1491494140625,-0.7310000658035278,-0.6096686124801636,-1.2685668468475342
1772876982979082200,5.159082275390625,-0.8638063073158264,-0.8144313097000122,-1.5624946355819702
1772876982989014300,5.16901416015625,-0.91929030418396,-0.868703305721283,-1.6104086637496948
1772876982998947300,5.178947265625,-0.8688852190971375,-0.6901106834411621,-1.4405264854431152
1772876983008880400,5.18888037109375,-0.7189465165138245,-0.4074469208717346,-1.2036961317062378
1772876983018812200,5.198812255859375,-0.48823049664497375,-0.12785737216472626,-0.9637388586997986
1772876983028745500,5.208745361328125,-0.2733704149723053,0.07471688091754913,-0.7138731479644775
1772876983038678500,5.218678466796875,-0.10846588760614395,0.18490569293498993,-0.4901929497718811
1772876983048611300,5.228611328125,0.026844216510653496,0.2676237225532532,-0.3345928490161896
1772876983058543000,5.238543212890625,0.09887873381376266,0.39930158853530884,-0.17570172250270844
1772876983068476200,5.24847607421875,0.08693516999483109,0.5568904876708984,-0.014573543332517147
1772876983078409200,5.2584091796875,0.028692632913589478,0.6698551177978516,0.12001489847898483
1772876983088341200,5.26834130859375,-0.10367269068956375,0.6452676057815552,0.21262921392917633
1772876983098274300,5.2782744140625,-0.20568828284740448,0.48747074604034424,0.27555280923843384
1772876983108207000,5.28820703125,-0.22311744093894958,0.256709486246109,0.3153967261314392
1772876983118140200,5.29814013671875,-0.18874481320381165,0.0825725793838501,0.33724263310432434
1772876983128072200,5.308072265625,-0.1274370402097702,-0.04378761723637581,0.25103166699409485
1772876983138005200,5.318005126953125,-0.08173800259828568,-0.06532193720340729,0.10624996572732925
1772876983147938300,5.327938232421875,-0.04125131666660309,0.08865135163068771,0.010959059000015259
1772876983157870300,5.337870361328125,-0.006675496231764555,0.2718275785446167,0.1469419300556183
1772876983167803400,5.347803466796875,-0.09762503951787949,0.5014669895172119,0.32329678535461426
1772876983177736200,5.357736083984375,-0.2393057495355606,0.7529415488243103,0.39715611934661865
1772876983187669200,5.367669189453125,-0.3441298007965088,0.885312020778656,0.46105054020881653
1772876983197601300,5.377601318359375,-0.34861427545547485,0.9288461804389954,0.29099786281585693
1772876983207534300,5.387534423828125,-0.24346186220645905,0.9202765822410583,-0.12279263138771057
1772876983217467400,5.39746728515625,0.09525361657142639,0.69159334897995,-0.5378100872039795
1772876983227400200,5.407400146484375,0.5472854375839233,0.10627245157957077,-0.9011874198913574
1772876983237332200,5.417332275390625,0.8172839283943176,-0.5485416054725647,-1.199278473854065
1772876983247265300,5.427265380859375,0.7962496280670166,-0.9359971880912781,-1.1856218576431274
1772876983257198300,5.4371982421875,0.5892740488052368,-0.8756163716316223,-0.5781079530715942
1772876983267130400,5.44713037109375,0.3082331418991089,-0.49705934524536133,0.5818352103233337
1772876983277063400,5.4570634765625,0.18963965773582458,-0.11840365827083588,1.7996151447296143
1772876983286996500,5.46699658203125,0.4131717085838318,0.06301652640104294,2.3802688121795654
1772876983296929300,5.47692919921875,0.7645236253738403,-0.03223063051700592,1.7852957248687744
1772876983306861300,5.486861328125,0.8497095108032227,-0.15830039978027344,0.7706506848335266
1772876983316793900,5.4967939453125,0.8068656325340271,-0.2511022388935089,-0.01149923074990511
1772876983326727000,5.506726806640625,0.9327913522720337,-0.4073900580406189,-0.6582086086273193
1772876983336659000,5.516658935546875,1.1331678628921509,-0.7641639113426208,-1.3230754137039185
1772876983346592000,5.526592041015625,1.1523032188415527,-1.2994390726089478,-1.9758468866348267
1772876983356525000,5.536525146484375,1.1226928234100342,-1.7343449592590332,-2.1764724254608154
1772876983366457900,5.546457763671875,0.965614378452301,-2.02392578125,-1.7988826036453247
1772876983376390000,5.556389892578125,0.6665952205657959,-2.2793021202087402,-1.0691272020339966
1772876983386323000,5.566322998046875,0.3022562265396118,-2.3396708965301514,-0.2629367709159851
1772876983396256000,5.576256103515625,0.20856301486492157,-2.1785671710968018,0.42833197116851807
1772876983406189000,5.58618896484375,0.3497926890850067,-1.7425423860549927,0.9987848401069641
1772876983416121000,5.59612109375,0.5226715803146362,-1.0370110273361206,1.3567675352096558
1772876983426054000,5.606053955078125,0.5237026214599609,-0.20596136152744293,1.4820855855941772
1772876983435987000,5.615987060546875,0.3711375594139099,0.4726903736591339,1.4947227239608765
1772876983445919000,5.6259189453125,0.1520577371120453,0.9090754985809326,1.5075732469558716
1772876983455852000,5.63585205078125,-0.14553213119506836,1.0713176727294922,1.510319709777832
1772876983465785000,5.64578515625,-0.5087976455688477,1.0807147026062012,1.5584700107574463
1772876983475718100,5.65571826171875,-0.8335503935813904,0.9689301252365112,1.5220251083374023
1772876983485650200,5.665650146484375,-1.064890742301941,0.8069455623626709,1.2862434387207031
1772876983495583000,5.6755830078125,-1.190255045890808,0.6200142502784729,0.8500671982765198
1772876983505516000,5.68551611328125,-1.1957862377166748,0.48253706097602844,0.31072869896888733
1772876983515448000,5.695447998046875,-1.0897709131240845,0.42005985975265503,-0.27462267875671387
1772876983525381000,5.705381103515625,-0.8876944184303284,0.4249843955039978,-0.8162184357643127
1772876983535314200,5.715314208984375,-0.6795247197151184,0.36465102434158325,-1.2736799716949463
1772876983545247000,5.7252470703125,-0.4825138449668884,0.27985072135925293,-1.5089561939239502
1772876983555179000,5.735178955078125,-0.2630014717578888,0.21173690259456635,-1.5257922410964966
1772876983565112000,5.745112060546875,-0.051060598343610764,0.19813591241836548,-1.4175498485565186
1772876983575045000,5.755045166015625,0.15697382390499115,0.17087098956108093,-1.229981541633606
1772876983584978200,5.764978271484375,0.342800110578537,0.07105056196451187,-1.0433377027511597
1772876983594910000,5.774909912109375,0.45732244849205017,-0.0039855982176959515,-0.8603468537330627
1772876983604843000,5.784843017578125,0.4949456751346588,-0.047886770218610764,-0.7013674378395081
1772876983614775800,5.79477587890625,0.5143638253211975,-0.06896462291479111,-0.5688266754150391
1772876983624707800,5.804707763671875,0.51410973072052,-0.03324536979198456,-0.4494916498661041
1772876983634641000,5.814640869140625,0.5058624744415283,0.0552687868475914,-0.34617751836776733
1772876983644574000,5.824573974609375,0.4997815489768982,0.1702776700258255,-0.26619142293930054
1772876983654507000,5.834507080078125,0.45079827308654785,0.22781206667423248,-0.1970890611410141
1772876983664439000,5.84443896484375,0.3722452223300934,0.2674030065536499,-0.09180346876382828
1772876983674371800,5.854371826171875,0.2789357602596283,0.24516135454177856,0.0732230395078659
1772876983684305000,5.864304931640625,0.18783600628376007,0.24302776157855988,0.28941118717193604
1772876983694237000,5.87423681640625,0.1522814780473709,0.2673245668411255,0.47700053453445435
1772876983704170000,5.884169921875,0.16033710539340973,0.2316376268863678,0.619549572467804
1772876983714103000,5.89410302734375,0.15181073546409607,0.1425839215517044,0.751267671585083
1772876983724036000,5.9040361328125,0.08641717582941055,0.1471458077430725,0.8586061000823975
1772876983733968100,5.913968017578125,0.009955421090126038,0.22479000687599182,0.7877513766288757
1772876983743901000,5.92390087890625,-0.023314660415053368,0.2762577533721924,0.7259336709976196
1772876983753834000,5.933833984375,-0.08806303143501282,0.2409202605485916,0.7333090305328369
1772876983763766000,5.94376611328125,-0.13789202272891998,0.17186784744262695,0.7270357608795166
1772876983773699000,5.953698974609375,-0.118181973695755,-0.018076792359352112,0.435385525226593
1772876983783632100,5.963632080078125,0.009749189019203186,-0.4615209400653839,-0.15963134169578552
1772876983793565000,5.97356494140625,0.21381311118602753,-1.0140496492385864,-0.7025404572486877
1772876983803497000,5.9834970703125,0.25503242015838623,-1.512587547302246,-0.9857361912727356
1772876983813430000,5.993429931640625,-0.04406721144914627,-1.702675461769104,-1.219353199005127
1772876983823363000,6.003363037109375,-0.3616276681423187,-1.391025424003601,-1.2512015104293823
1772876983833296100,6.013296142578125,-0.25442370772361755,-1.0060652494430542,-0.7622086405754089
1772876983843228200,6.023228271484375,0.23236912488937378,-0.7420528531074524,0.020462270826101303
1772876983853161200,6.0331611328125,0.7150812149047852,-0.7688474655151367,0.4865889549255371
1772876983863094000,6.043093994140625,0.9218685626983643,-1.1405333280563354,0.6061591506004333
1772876983873025800,6.05302587890625,0.7769928574562073,-1.4678829908370972,0.7375800013542175
1772876983882958800,6.062958740234375,0.5592088103294373,-1.5969948768615723,0.8330531120300293
1772876983892892000,6.072891845703125,0.40907788276672363,-1.3641382455825806,0.8467390537261963
1772876983902825200,6.0828251953125,0.3868100047111511,-0.8645387887954712,0.7583991289138794
1772876983912757000,6.092757080078125,0.390814870595932,-0.16435670852661133,0.585237443447113
1772876983922689800,6.102689697265625,0.2658146023750305,0.3564465343952179,0.16309867799282074
1772876983932622800,6.112622802734375,0.22408342361450195,0.3640746474266052,-0.47880464792251587
1772876983942555000,6.122554931640625,0.3388807773590088,-0.0557832345366478,-0.9613478183746338
1772876983952488000,6.132488037109375,0.49730610847473145,-0.5161263346672058,-1.0405023097991943
1772876983962421000,6.1424208984375,0.6430314183235168,-0.8312708139419556,-0.8499073386192322
1772876983972354000,6.15235400390625,0.813601016998291,-0.8885183930397034,-0.46634823083877563
1772876983982286000,6.1622861328125,0.8497211933135986,-0.8036490678787231,0.029080497100949287
1772876983992219000,6.172218994140625,0.7757681012153625,-0.7495900988578796,0.5024152994155884
1772876984002152000,6.18215185546875,0.5388694405555725,-0.605397641658783,0.9352698922157288
1772876984012085000,6.1920849609375,0.204293355345726,-0.33577948808670044,1.2146798372268677
1772876984022017000,6.20201708984375,-0.12086416780948639,0.05746619030833244,1.2704994678497314
1772876984031950000,6.2119501953125,-0.4412669539451599,0.46993815898895264,1.1825230121612549
1772876984041883000,6.2218828125,-0.7173193693161011,0.7974258065223694,1.0223581790924072
1772876984051815000,6.23181494140625,-0.9020106196403503,0.9726892709732056,0.7441710233688354
1772876984061748000,6.241748046875,-0.9494272470474243,0.9714418053627014,0.4022471010684967
1772876984071681000,6.251680908203125,-0.82743901014328,0.8749549388885498,0.059869252145290375
1772876984081614000,6.261614013671875,-0.5613317489624023,0.7006725072860718,-0.2312130331993103
1772876984091546000,6.271546142578125,-0.23182226717472076,0.4394496977329254,-0.397563636302948
1772876984101479200,6.281479248046875,0.025533493608236313,0.14405743777751923,-0.4965601861476898
1772876984111412000,6.291411865234375,0.1788807064294815,-0.0658814087510109,-0.6183878183364868
1772876984121344000,6.301343994140625,0.2519540786743164,-0.1843397319316864,-0.7195055484771729
1772876984131277000,6.311277099609375,0.2263735979795456,-0.16113586723804474,-0.7275893092155457
1772876984141210000,6.321210205078125,0.1583998054265976,-0.015917882323265076,-0.7038124799728394
1772876984151143200,6.33114306640625,0.08903377503156662,0.0972432941198349,-0.6636948585510254
1772876984161075200,6.3410751953125,0.04028463736176491,0.1089157685637474,-0.5952951908111572
1772876984171008000,6.351008056640625,-0.03685515373945236,0.10226212441921234,-0.49481064081192017
1772876984180941000,6.360941162109375,-0.15783321857452393,0.0933123528957367,-0.38939616084098816
1772876984190872800,6.370872802734375,-0.2769356369972229,0.03979400172829628,-0.3015880286693573
1772876984200806000,6.380805908203125,-0.3285549283027649,-0.11049924790859222,-0.28824934363365173
1772876984210739000,6.390739013671875,-0.2730035185813904,-0.16400614380836487,-0.30553433299064636
1772876984220672000,6.400672119140625,-0.13306601345539093,-0.09900367259979248,-0.21373355388641357
1772876984230604000,6.41060400390625,0.07183974236249924,0.08773957937955856,-0.08479100465774536
1772876984240536800,6.420536865234375,0.2314460575580597,0.25201615691185,0.0013301974395290017
1772876984250470000,6.430469970703125,0.28175026178359985,0.35546132922172546,0.09664073586463928
1772876984260403000,6.44040283203125,0.22572046518325806,0.4756113290786743,0.23599191009998322
1772876984270335000,6.4503349609375,0.10690539330244064,0.5430968999862671,0.3270608186721802
1772876984280268000,6.46026806640625,-0.04641585424542427,0.6517912745475769,0.36654454469680786
1772876984290200800,6.470200927734375,-0.13688983023166656,0.8297911286354065,0.5368036031723022
1772876984300132900,6.4801328125,-0.13581743836402893,0.8488965630531311,0.660444438457489
1772876984310066000,6.49006591796875,-0.25482821464538574,0.7762596607208252,0.4360393285751343
1772876984319999500,6.49999951171875,-0.3780433237552643,0.4294600784778595,0.10674780607223511
1772876984329932500,6.5099326171875,-0.41389238834381104,-0.2042260468006134,-0.45089682936668396
1772876984339864600,6.519864501953125,-0.3662479817867279,-0.8875890374183655,-1.314157485961914
1772876984349797400,6.52979736328125,-0.14285854995250702,-1.3303662538528442,-2.0463449954986572
1772876984359730400,6.53973046875,0.3153870403766632,-1.612301230430603,-2.2286171913146973
1772876984369662500,6.549662353515625,0.6799558997154236,-1.7553353309631348,-2.1086137294769287
1772876984379595500,6.559595458984375,0.7772671580314636,-1.679092288017273,-1.6168102025985718
1772876984389528600,6.569528564453125,0.7339162230491638,-1.4407765865325928,-0.7511871457099915
1772876984399461600,6.579461669921875,0.6153492331504822,-0.9693405628204346,0.057504601776599884
1772876984409393700,6.5893935546875,0.42485061287879944,-0.5543841123580933,0.5847154259681702
1772876984419326500,6.599326416015625,0.2294171154499054,-0.4627499282360077,0.7400121092796326
1772876984429259500,6.609259521484375,0.02028466947376728,-0.5028989315032959,0.5727477073669434
1772876984439192600,6.619192626953125,-0.02189173363149166,-0.4728838801383972,0.4146122336387634
1772876984449124600,6.62912451171875,0.2654034197330475,-0.3404960036277771,0.39767003059387207
1772876984459057700,6.6390576171875,0.6765261292457581,-0.20582012832164764,0.33115455508232117
1772876984468990500,6.648990478515625,0.8282176852226257,-0.25104859471321106,0.08337616175413132
1772876984478922500,6.658922607421875,0.7618687748908997,-0.4132487177848816,-0.2620026469230652
1772876984488855600,6.66885546875,0.6177420020103455,-0.6746792197227478,-0.6060545444488525
1772876984498788600,6.67878857421875,0.4036376178264618,-0.903555691242218,-0.884552538394928
1772876984508721700,6.6887216796875,0.013207260519266129,-1.0578837394714355,-0.9123232364654541
1772876984518653700,6.69865380859375,-0.42645061016082764,-1.1389409303665161,-0.5879766941070557
1772876984528586800,6.708586669921875,-0.7229381799697876,-1.1492021083831787,0.04186758026480675
1772876984538519600,6.71851953125,-0.7138086557388306,-0.9498891830444336,0.8488136529922485
1772876984548451600,6.72845166015625,-0.41442492604255676,-0.47998687624931335,1.6001547574996948
1772876984558384600,6.738384521484375,-0.046879202127456665,0.22095270454883575,2.0956122875213623
1772876984568317700,6.748317626953125,-0.06423502415418625,1.1329766511917114,2.23954176902771
1772876984578250800,6.758250732421875,-0.3936145603656769,1.8957704305648804,2.126271963119507
1772876984588182500,6.7681826171875,-0.7726340293884277,2.2844624519348145,1.9861024618148804
1772876984598115300,6.778115234375,-1.026212453842163,2.5204384326934814,1.9263813495635986
1772876984608048400,6.78804833984375,-1.2702988386154175,2.6385324001312256,1.7418756484985352
1772876984617980400,6.79798046875,-1.5103209018707275,2.5706448554992676,1.3176628351211548
1772876984627913500,6.80791357421875,-1.6577273607254028,2.360063076019287,0.7603955268859863
1772876984637846500,6.817846435546875,-1.744908094406128,2.2542121410369873,0.21447469294071198
1772876984647779600,6.827779541015625,-1.665162444114685,2.1954569816589355,-0.2666359841823578
1772876984657711600,6.837711669921875,-1.3473410606384277,1.964730143547058,-0.715049684047699
1772876984667644400,6.84764453125,-0.9806333184242249,1.6199167966842651,-1.1535564661026
1772876984677577500,6.857577392578125,-0.6086292266845703,1.138258934020996,-1.5148273706436157
1772876984687510500,6.867510498046875,-0.22091582417488098,0.6026687026023865,-1.711959958076477
1772876984697442600,6.877442626953125,0.10142286121845245,0.35812613368034363,-1.8258153200149536
1772876984707375600,6.887375732421875,0.31609416007995605,0.33083194494247437,-1.8719141483306885
1772876984717308400,6.897308349609375,0.3926885426044464,0.27708300948143005,-1.8257019519805908
1772876984727240400,6.907240478515625,0.3978225886821747,0.06887068599462509,-1.635447382926941
1772876984737173500,6.917173583984375,0.3852797746658325,-0.16629061102867126,-1.2553277015686035
1772876984747106600,6.9271064453125,0.3798695504665375,-0.2640922963619232,-0.7993831634521484
1772876984757039600,6.93703955078125,0.4193306565284729,-0.19487175345420837,-0.39016193151474
1772876984766971600,6.9469716796875,0.4675533175468445,0.03403706103563309,-0.055308565497398376
1772876984776904700,6.95690478515625,0.4051613509654999,0.2847425937652588,0.23447436094284058
1772876984786837500,6.96683740234375,0.2344716191291809,0.5151731371879578,0.4466523826122284
1772876984796769500,6.97676953125,-0.007629888132214546,0.6317220330238342,0.5057578086853027
1772876984806702600,6.98670263671875,-0.2926903963088989,0.5965334177017212,0.42379188537597656
1772876984816635600,6.9966357421875,-0.4915958046913147,0.5372819900512695,0.24002286791801453
1772876984826568700,7.006568603515625,-0.5623922348022461,0.42702630162239075,0.13581150770187378
1772876984836500700,7.016500732421875,-0.4591672420501709,0.31317833065986633,0.17954547703266144
1772876984846433500,7.02643359375,-0.19688132405281067,0.31571125984191895,0.3411943018436432
1772876984856366600,7.03636669921875,0.15131600201129913,0.4479714334011078,0.7737606167793274
1772876984866299600,7.046299560546875,0.5271210670471191,0.6231075525283813,1.3000742197036743
1772876984876231400,7.0562314453125,0.5858838558197021,0.9034269452095032,1.6743861436843872
1772876984886164500,7.06616455078125,0.3194836378097534,0.9422739744186401,1.8218743801116943
1772876984896097500,7.07609765625,-0.17143628001213074,0.6297283172607422,1.3516074419021606
1772876984906029600,7.086029541015625,-0.8195431232452393,0.20285288989543915,0.3842099606990814
1772876984915962400,7.09596240234375,-1.4389718770980835,-0.24540862441062927,-0.7217408418655396
1772876984925895400,7.1058955078125,-1.696207880973816,-0.5073768496513367,-1.4410877227783203
1772876984935828500,7.115828369140625,-1.4767260551452637,-0.663135826587677,-1.5336722135543823
1772876984945760500,7.125760498046875,-0.9790017008781433,-0.731207549571991,-0.990850031375885
1772876984955693600,7.135693603515625,-0.4152407944202423,-0.6349616646766663,0.0046892426908016205
1772876984965626400,7.14562646484375,0.03141017258167267,-0.46048596501350403,1.0940214395523071
1772876984975558400,7.155558349609375,0.3540409207344055,-0.2204025536775589,1.8230973482131958
1772876984985491500,7.165491455078125,0.5497832298278809,0.15753835439682007,2.073171615600586
1772876984995424500,7.175424560546875,0.5743937492370605,0.5384639501571655,1.865318775177002
1772876985005357600,7.185357666015625,0.42175066471099854,0.7808512449264526,1.4604647159576416
1772876985015289600,7.19528955078125,0.1408611387014389,0.7957459688186646,0.9753623604774475
1772876985025222700,7.20522265625,-0.0777372494339943,0.5872699618339539,0.37811651825904846
1772876985035155500,7.215155517578125,-0.1450520008802414,0.23086972534656525,-0.19063888490200043
1772876985045088500,7.225088623046875,-0.032005343586206436,-0.2361169010400772,-0.7274168133735657
1772876985055020500,7.2350205078125,0.1366167962551117,-0.6227315068244934,-1.1093047857284546
1772876985064953600,7.24495361328125,0.2505289614200592,-0.7928640842437744,-1.1840709447860718
1772876985074886700,7.25488671875,0.1889336109161377,-0.8173801898956299,-1.026948094367981
1772876985084818700,7.264818603515625,0.0083811329677701,-0.8472533822059631,-0.7222781181335449
1772876985094751500,7.27475146484375,-0.1413218230009079,-0.6601743698120117,-0.32237008213996887
1772876985104684500,7.2846845703125,-0.08651050925254822,-0.024747051298618317,0.08798202872276306
1772876985114617600,7.29461767578125,-0.04868755862116814,0.7464542388916016,0.5175747871398926
1772876985124549600,7.304549560546875,-0.2425963133573532,1.203182578086853,0.968250036239624
1772876985134482700,7.314482666015625,-0.4227600395679474,1.1564761400222778,1.352821946144104
1772876985144415700,7.324415771484375,-0.41026341915130615,0.8688925504684448,1.703546404838562
1772876985154347800,7.33434765625,-0.33902984857559204,0.6892213821411133,1.8629553318023682
1772876985164280600,7.344280517578125,-0.4263381063938141,0.6727268099784851,1.745356559753418
1772876985174213600,7.354213623046875,-0.6108861565589905,0.6948179006576538,1.4324198961257935
1772876985184146700,7.364146728515625,-0.742409884929657,0.7053943872451782,0.9186590909957886
1772876985194078500,7.374078369140625,-0.8126825094223022,0.6793252825737,0.36454322934150696
1772876985204011500,7.384011474609375,-0.8658272624015808,0.5528520345687866,-0.17506860196590424
1772876985213944300,7.3939443359375,-0.7953396439552307,0.34641140699386597,-0.5878679156303406
1772876985223876400,7.40387646484375,-0.6880376935005188,0.06846208870410919,-0.7331819534301758
1772876985233809400,7.413809326171875,-0.5724087953567505,-0.22982187569141388,-0.7563872337341309
1772876985243742500,7.423742431640625,-0.4066152572631836,-0.4453967809677124,-0.7585465312004089
1772876985253675500,7.433675537109375,-0.22060582041740417,-0.5173431634902954,-0.6440203189849854
1772876985263607600,7.443607666015625,-0.04931476712226868,-0.4680650532245636,-0.4475290775299072
1772876985273540600,7.45354052734375,0.07035631686449051,-0.3244131803512573,-0.28094959259033203
1772876985283473400,7.463473388671875,0.12534447014331818,-0.18576234579086304,-0.2883302867412567
1772876985293406500,7.473406494140625,0.17868228256702423,-0.14899922907352448,-0.49828198552131653
1772876985303338500,7.48333837890625,0.17982104420661926,-0.17452402412891388,-0.7638827562332153
1772876985313271300,7.493271240234375,0.15349559485912323,-0.1336388736963272,-0.9897481203079224
1772876985323204400,7.503204345703125,0.11781802773475647,-0.0892929807305336,-1.0617355108261108
1772876985333136400,7.513136474609375,0.12128329277038574,-0.08639073371887207,-0.9216037392616272
1772876985343069400,7.5230693359375,0.13922341167926788,-0.017302747815847397,-0.597798764705658
1772876985353002200,7.533002197265625,0.1310250610113144,0.08892311155796051,-0.18997859954833984
1772876985362935300,7.542935302734375,0.04597035422921181,0.19239304959774017,0.21017120778560638
1772876985372867300,7.552867431640625,-0.1193242147564888,0.3834644556045532,0.5244696140289307
1772876985382800400,7.56280029296875,-0.19931519031524658,0.653364896774292,0.7945375442504883
1772876985392733400,7.5727333984375,-0.18745039403438568,0.902397632598877,1.0580617189407349
1772876985402665500,7.58266552734375,-0.2403964400291443,0.9556150436401367,1.282165765762329
1772876985412598300,7.592598388671875,-0.4082428514957428,0.8927921056747437,1.125977873802185
1772876985422531300,7.60253125,-0.6736175417900085,0.8219078183174133,0.729868471622467
1772876985432464400,7.61246435546875,-0.8849092721939087,0.6994221210479736,0.3097464144229889
1772876985442396400,7.622396484375,-0.9739803075790405,0.5718867778778076,-0.05087859928607941
1772876985452329500,7.63232958984375,-0.8074093461036682,0.5910407304763794,-0.38435134291648865
1772876985462262300,7.64226220703125,-0.3703846037387848,0.6624784469604492,-0.5906371474266052
1772876985472194600,7.652194580078125,0.07142490893602371,0.6097016930580139,-0.6775081157684326
1772876985482127400,7.66212744140625,0.18135540187358856,0.22446829080581665,-0.8660183548927307
1772876985492060400,7.672060302734375,0.0941237062215805,-0.44709861278533936,-0.8971460461616516
1772876985501993500,7.681993408203125,-0.03568941354751587,-1.2250772714614868,-0.6388351321220398
1772876985511925500,7.691925537109375,-0.28125670552253723,-1.5871776342391968,-0.4363294243812561
1772876985521858600,7.701858642578125,-0.43260014057159424,-1.4766002893447876,-0.3875698745250702
1772876985531791400,7.711791259765625,-0.3028009533882141,-1.0763487815856934,-0.3650268614292145
1772876985541724400,7.721724365234375,0.059735167771577835,-0.6142182350158691,-0.3014228641986847
1772876985551656400,7.731656494140625,0.5199740529060364,-0.13264751434326172,-0.2828187644481659
1772876985561589500,7.741589599609375,0.8858867883682251,0.22414231300354004,-0.3758073151111603
1772876985571522600,7.7515224609375,1.0423794984817505,0.3408624529838562,-0.49840670824050903
1772876985581454300,7.761454345703125,1.0116490125656128,0.19209906458854675,-0.5918376445770264
1772876985591387400,7.771387451171875,0.8559102416038513,-0.14533750712871552,-0.5648481249809265
1772876985601320200,7.7813203125,0.5926807522773743,-0.5279439687728882,-0.41938841342926025
1772876985611253200,7.791253173828125,0.29848945140838623,-0.7519802451133728,-0.24396635591983795
1772876985621185300,7.801185302734375,0.0818178653717041,-0.7570719718933105,-0.07700774073600769
1772876985631118300,7.811118408203125,0.013725734315812588,-0.561196506023407,0.18687309324741364
1772876985641051400,7.821051513671875,0.08344915509223938,-0.34353241324424744,0.49605464935302734
1772876985650983400,7.8309833984375,0.15233732759952545,-0.14510227739810944,0.7321668267250061
1772876985660916200,7.840916259765625,0.1565656214952469,-0.04070024937391281,0.8573364615440369
1772876985670849300,7.850849365234375,0.14159466326236725,-0.014084347523748875,0.8247614502906799
1772876985680782300,7.8607822265625,0.1521407812833786,0.07290621101856232,0.6535905003547668
1772876985690714400,7.87071435546875,0.13765721023082733,0.22213061153888702,0.4384590685367584
1772876985700647400,7.8806474609375,0.13552001118659973,0.31729868054389954,0.2646007239818573
1772876985710580200,7.890580322265625,0.08618152886629105,0.26750752329826355,0.18976439535617828
1772876985720513300,7.90051318359375,-0.0594550296664238,0.1609824001789093,0.17107699811458588
1772876985730445300,7.9104453125,-0.16121865808963776,0.034468699246644974,0.1334274411201477
1772876985740378400,7.92037841796875,-0.151879221200943,-0.0001246994361281395,0.06560977548360825
1772876985750311400,7.9303115234375,-0.08523163199424744,0.07930001616477966,-0.031862545758485794
1772876985760243500,7.940243408203125,0.07773997634649277,0.17920663952827454,-0.14463463425636292
1772876985770176500,7.950176513671875,0.22775360941886902,0.3192135989665985,-0.26497870683670044
1772876985780109300,7.960109375,0.3253832161426544,0.3983193635940552,-0.2762412130832672
1772876985790042400,7.97004248046875,0.3647974729537964,0.43337371945381165,-0.24595272541046143
1772876985799974400,7.979974365234375,0.3320200741291046,0.341480016708374,-0.15161024034023285
1772876985809907500,7.989907470703125,0.23421479761600494,0.10718251764774323,-0.009774287231266499
1772876985819840500,7.999840576171875,0.09991105645895004,-0.1347302496433258,0.08241183310747147
1772876985829772500,8.0097724609375,0.07548630237579346,-0.32033494114875793,0.1331976056098938
1772876985839705300,8.019705322265626,0.11986761540174484,-0.3758293688297272,0.15296253561973572
1772876985849638400,8.029638427734374,0.16919036209583282,-0.3001336455345154,0.11761979758739471
1772876985859571500,8.039571533203125,0.25685256719589233,-0.10734688490629196,0.045534148812294006
1772876985869503200,8.049503173828125,0.3219859302043915,0.14064402878284454,-0.02959931455552578
1772876985879436500,8.0594365234375,0.3028132915496826,0.31571489572525024,-0.11377304792404175
1772876985889369600,8.06936962890625,0.2400435358285904,0.3920126259326935,-0.14877694845199585
1772876985899301400,8.07930126953125,0.17145808041095734,0.3804726004600525,-0.07187256217002869
1772876985909234200,8.089234130859374,0.13442391157150269,0.33015334606170654,0.08304335922002792
1772876985919167200,8.099167236328125,0.197069451212883,0.21642810106277466,0.21696121990680695
1772876985929100300,8.109100341796875,0.2838371992111206,0.09966784715652466,0.3405386507511139
1772876985939032300,8.1190322265625,0.3544762134552002,0.03462333232164383,0.45336878299713135
1772876985948965400,8.12896533203125,0.3759160339832306,0.05372887849807739,0.5344533324241638
1772876985958898400,8.1388984375,0.3596220016479492,0.30872201919555664,0.7623671889305115
1772876985968831200,8.148831298828124,0.24012191593647003,0.7829744815826416,1.0818411111831665
1772876985978763300,8.15876318359375,-0.006638599094003439,1.2740285396575928,1.011062502861023
1772876985988696300,8.1686962890625,-0.3229486644268036,1.4801255464553833,0.5163207054138184
1772876985998629400,8.17862939453125,-0.8393310904502869,1.078625202178955,-0.3809494078159332
1772876986008561400,8.1885615234375,-1.3301122188568115,0.03541397675871849,-1.588219165802002
1772876986018494500,8.198494384765626,-1.4503395557403564,-0.9772465825080872,-2.3622517585754395
1772876986028427300,8.20842724609375,-1.0222275257110596,-1.4787867069244385,-2.479489326477051
1772876986038360300,8.2183603515625,0.009802442975342274,-1.4143786430358887,-2.1579442024230957
1772876986048292400,8.228292236328125,1.0175552368164062,-1.105444312095642,-1.302381157875061
1772876986058225400,8.238225341796875,1.6727838516235352,-0.9355354309082031,-0.3980264961719513
1772876986068158500,8.248158447265626,1.7894076108932495,-0.8804078102111816,-0.04064476117491722
1772876986078091300,8.25809130859375,1.4087728261947632,-0.9162006974220276,-0.23181551694869995
1772876986088023600,8.2680234375,0.7479779124259949,-0.925652265548706,-0.651717483997345
1772876986097956400,8.277956298828125,0.134084090590477,-0.890618085861206,-0.9232994318008423
1772876986107889400,8.287889404296875,-0.319331556558609,-0.6863701343536377,-0.8501272797584534
1772876986117821400,8.297821533203125,-0.45345261693000793,-0.3404281735420227,-0.4499063789844513
1772876986127754500,8.30775439453125,-0.16200542449951172,-0.034872137010097504,0.24783384799957275
1772876986137687600,8.3176875,0.2155354768037796,0.0804762914776802,0.8187082409858704
1772876986147620400,8.327620361328124,0.5121868848800659,0.09771283715963364,0.927495539188385
1772876986157552400,8.337552490234375,0.710104763507843,0.036865465342998505,0.7029489874839783
1772876986167485400,8.3474853515625,0.7658016681671143,-0.07331947982311249,0.339396595954895
1772876986177419500,8.35741943359375,0.6945650577545166,-0.19138778746128082,-0.06915656477212906
1772876986187352300,8.367352294921876,0.539483904838562,-0.2981436848640442,-0.39283618330955505
1772876986197284400,8.377284423828126,0.34677597880363464,-0.2157561182975769,-0.5509515404701233
1772876986207217400,8.387217529296874,0.23488830029964447,0.11633042991161346,-0.5688473582267761
1772876986217150500,8.397150390625,0.18625923991203308,0.49287208914756775,-0.41700297594070435
1772876986227083500,8.40708349609375,0.10032415390014648,0.7166999578475952,-0.06393740326166153
1772876986237015600,8.417015625,-0.10060016065835953,0.762890636920929,0.4333924949169159
1772876986246948600,8.426948486328126,-0.37303048372268677,0.7210372090339661,0.9275344610214233
1772876986256881400,8.43688134765625,-0.6154740452766418,0.6380366086959839,1.2767730951309204
1772876986266813200,8.446813232421874,-0.7862128019332886,0.5351667404174805,1.3989475965499878
1772876986276746200,8.456746337890625,-0.9500816464424133,0.5239556431770325,1.373974084854126
1772876986286679300,8.46667919921875,-1.0096362829208374,0.6639127135276794,1.2156498432159424
1772876986296612400,8.4766123046875,-0.912696897983551,0.8199811577796936,0.8944960236549377
1772876986306544400,8.48654443359375,-0.7589415311813354,0.8663960695266724,0.5229877829551697
1772876986316477000,8.496476806640626,-0.515991747379303,0.8054965138435364,0.18426328897476196
1772876986326409700,8.50640966796875,-0.16145360469818115,0.7187808156013489,-0.14388026297092438
1772876986336341800,8.516341796875,0.09196401387453079,0.7482622861862183,-0.3671855032444
1772876986346274800,8.52627490234375,0.16439537703990936,0.7254369854927063,-0.5435042381286621
1772876986356207900,8.536207763671875,0.07353924214839935,0.4421198070049286,-0.6645371317863464
1772876986366141000,8.546140869140626,0.07267259061336517,-0.030714988708496094,-0.6558067202568054
1772876986376073000,8.556072998046876,0.12392113357782364,-0.4074590504169464,-0.5148043036460876
1772876986386005800,8.566005859375,0.16405361890792847,-0.6670154333114624,-0.35787513852119446
1772876986395938800,8.575938720703125,0.21248480677604675,-0.7719104290008545,-0.3573800325393677
1772876986405871900,8.585871826171875,0.28275665640830994,-0.795628547668457,-0.4932238459587097
1772876986415804000,8.595803955078125,0.3723640441894531,-0.7112979888916016,-0.6765295267105103
1772876986425737000,8.605737060546875,0.44815075397491455,-0.5495662093162537,-0.8235187530517578
1772876986435670000,8.615669921875,0.4482274353504181,-0.3580702543258667,-0.863024890422821
1772876986445602000,8.62560205078125,0.4043099880218506,-0.11447444558143616,-0.8051000833511353
1772876986455534800,8.635534912109375,0.3334219753742218,0.06928287446498871,-0.6903162598609924
1772876986465468000,8.645468017578125,0.23352570831775665,0.13721656799316406,-0.45837169885635376
1772876986475401000,8.65540087890625,0.16364169120788574,0.16284070909023285,-0.1585998833179474
1772876986485333000,8.6653330078125,0.1393667757511139,0.22985288500785828,0.1729486733675003
1772876986495266000,8.67526611328125,0.09726379066705704,0.3991551101207733,0.5593653321266174
1772876986505198800,8.68519873046875,0.024109501391649246,0.6207097768783569,0.9249460101127625
1772876986515131000,8.695130859375,-0.07765307277441025,0.8295098543167114,1.3166239261627197
1772876986525064000,8.70506396484375,-0.1885809302330017,0.9310226440429688,1.6199244260787964
1772876986534997000,8.7149970703125,-0.4806939959526062,1.0509650707244873,1.4273126125335693
1772876986544930000,8.724929931640625,-0.8693532347679138,1.2105820178985596,0.956290066242218
1772876986554861800,8.73486181640625,-1.2230098247528076,1.338471531867981,0.3727770447731018
1772876986564795000,8.744794921875,-1.407351016998291,1.2135268449783325,-0.44002899527549744
1772876986574727700,8.754727783203125,-1.2923349142074585,0.6707537770271301,-1.6141794919967651
1772876986584659700,8.76465966796875,-0.9088751077651978,-0.16251426935195923,-2.5683069229125977
1772876986594592800,8.7745927734375,-0.3292734920978546,-0.7611156702041626,-2.3813624382019043
1772876986604525800,8.78452587890625,0.13890765607357025,-0.913886308670044,-1.2513391971588135
1772876986614459000,8.794458984375,0.6727888584136963,-0.9310876727104187,0.3167603313922882
1772876986624391000,8.804390869140626,1.1223924160003662,-0.6454463601112366,1.5069580078125
1772876986634323700,8.81432373046875,1.1550499200820923,-0.29297780990600586,1.7976596355438232
1772876986644256800,8.8242568359375,0.8317168951034546,-0.19177135825157166,1.3837060928344727
1772876986654189800,8.83418994140625,0.40589630603790283,-0.2633192837238312,0.764058530330658
1772876986664121900,8.844121826171875,0.1002623587846756,-0.22668218612670898,0.12894536554813385
1772876986674055000,8.854054931640626,-0.01850929483771324,-0.04962244629859924,-0.5085078477859497
1772876986683988000,8.863988037109374,-0.0662144348025322,0.05591341108083725,-1.0285804271697998
1772876986693920000,8.873919921875,-0.019913511350750923,0.026258045807480812,-1.179929494857788
1772876986703852800,8.883852783203125,0.130894273519516,-0.07340563833713531,-0.8950684070587158
1772876986713785900,8.893785888671875,0.3063957989215851,-0.16673985123634338,-0.44280746579170227
1772876986723719000,8.903718994140625,0.3667963147163391,-0.2439212203025818,-0.0015779960667714477
1772876986733651000,8.91365087890625,0.27910640835762024,-0.32151347398757935,0.39382392168045044
1772876986743584000,8.923583984375,0.08858130872249603,-0.42072927951812744,0.7244205474853516
1772876986753516800,8.933516845703124,-0.10533623397350311,-0.369356632232666,0.887412965297699
1772876986763449900,8.943449951171875,-0.203525111079216,-0.19600291550159454,0.8591599464416504
1772876986773382000,8.9533818359375,-0.21298599243164062,0.05597873404622078,0.7781093120574951
1772876986783315000,8.96331494140625,-0.159336656332016,0.37557584047317505,0.7193847298622131
1772876986793248000,8.973248046875,-0.08863212913274765,0.6780645847320557,0.726869523525238
1772876986803180000,8.983179931640626,-0.09168706089258194,0.8137608766555786,0.8055837750434875
1772876986813113000,8.993113037109374,-0.19121791422367096,0.8435776233673096,0.8448517918586731
1772876986823046000,9.0030458984375,-0.3715952932834625,0.7813019156455994,0.860941469669342
1772876986832979000,9.01297900390625,-0.5768089294433594,0.7539616823196411,0.8104335069656372
1772876986842910700,9.02291064453125,-0.7782869935035706,0.7862598299980164,0.7258771657943726
1772876986852843800,9.03284375,-0.9559224843978882,0.8896299004554749,0.5810787081718445
1772876986862777000,9.042777099609374,-1.0276434421539307,0.989496648311615,0.3373933434486389
1772876986872708900,9.052708984375,-0.9436811804771423,1.084686279296875,0.08582902699708939
1772876986882642000,9.062641845703125,-0.6936173439025879,1.1739819049835205,-0.08649224787950516
1772876986892574700,9.07257470703125,-0.3616362512111664,1.098303198814392,-0.1758069396018982
1772876986902507800,9.0825078125,-0.11255886405706406,0.7786781191825867,-0.19022981822490692
1772876986912439800,9.092439697265625,-0.0055631715804338455,0.39330241084098816,-0.23201055824756622
1772876986922372900,9.102372802734376,0.007166755385696888,-0.015455201268196106,-0.33341050148010254
1772876986932306000,9.112305908203124,-0.05614963173866272,-0.3642643094062805,-0.43626734614372253
1772876986942238000,9.122238037109375,-0.11483699828386307,-0.4902258813381195,-0.5840200185775757
1772876986952170800,9.132170654296875,-0.08328306674957275,-0.46740153431892395,-0.768315315246582
1772876986962103800,9.142103759765625,-0.006307362113147974,-0.38750171661376953,-0.888057291507721
1772876986972036900,9.152036865234376,0.09824620932340622,-0.34643685817718506,-0.926982581615448
1772876986981969000,9.161968994140626,0.2310800850391388,-0.34300386905670166,-0.9160234928131104
1772876986991902000,9.17190185546875,0.35326963663101196,-0.3611629009246826,-0.8367542028427124
1772876987001834800,9.181834716796875,0.42332881689071655,-0.3664329946041107,-0.6846629977226257
1772876987011767800,9.191767822265625,0.4238515794277191,-0.3174867331981659,-0.4802400469779968
1772876987021699800,9.201699951171875,0.33323702216148376,-0.2460724115371704,-0.23554643988609314
1772876987031633000,9.2116328125,0.20949777960777283,-0.13819921016693115,-0.01591181568801403
1772876987041566000,9.22156591796875,0.08316870033740997,-0.04042768105864525,0.16480764746665955
1772876987051498000,9.231498046875,-0.015486237592995167,-0.017770571634173393,0.32184040546417236
1772876987061431000,9.24143115234375,-0.07485893368721008,-0.023697011172771454,0.47970646619796753
1772876987071363800,9.25136376953125,-0.057469822466373444,0.05034392327070236,0.6155204772949219
1772876987081297000,9.261296875,0.03735729306936264,0.23500312864780426,0.8089345097541809
1772876987091229000,9.27122900390625,0.10190778970718384,0.38287249207496643,1.0283209085464478
1772876987101162000,9.281161865234376,0.031558603048324585,0.7160908579826355,1.0979944467544556
1772876987111095000,9.291094970703124,-0.14153647422790527,0.9822666049003601,1.2351869344711304
1772876987121027000,9.301027099609374,-0.33556416630744934,0.9338062405586243,1.1966278553009033
1772876987130960000,9.3109599609375,-0.41729605197906494,0.5484188795089722,0.6446787118911743
1772876987140893000,9.320892822265625,-0.3248477876186371,-0.0779457837343216,-0.25554633140563965
1772876987150826000,9.330825927734375,-0.11035681515932083,-0.5342478156089783,-0.9466083645820618
1772876987160757800,9.3407578125,-0.010570166632533073,-0.621388852596283,-1.0325380563735962
1772876987170690800,9.35069091796875,-0.11840955168008804,-0.6088541746139526,-0.7003682851791382
1772876987180624000,9.360623779296875,0.009292293339967728,-0.9010794758796692,-0.26941999793052673
1772876987190556000,9.370555908203125,0.32443851232528687,-0.9923396110534668,0.39632606506347656
1772876987200488700,9.38048876953125,0.49567368626594543,-0.7169699668884277,0.8181658387184143
1772876987210421800,9.390421875,0.4108789265155792,-0.5252929329872131,0.7493196725845337
1772876987220354800,9.400354736328126,0.17363637685775757,-0.5892419219017029,0.3391074240207672
1772876987230286800,9.410286865234376,0.0036292304284870625,-0.664622962474823,-0.03195347264409065
1772876987240220000,9.420219970703124,-0.016781693324446678,-0.5336863398551941,-0.23254558444023132
1772876987250152700,9.430152587890625,0.04134445637464523,-0.34466394782066345,-0.3435218930244446
1772876987260085800,9.440085693359375,0.06083829700946808,-0.19017769396305084,-0.3306867480278015
1772876987270017800,9.450017822265625,0.06329985707998276,-0.06364132463932037,-0.1395743042230606
1772876987279950800,9.459950927734376,0.10010165721178055,0.04968338459730148,0.15910501778125763
1772876987289884000,9.4698837890625,0.12241548299789429,0.15890467166900635,0.43935826420783997
1772876987299816000,9.47981591796875,0.056143973022699356,0.24293869733810425,0.6355286836624146
1772876987309749000,9.4897490234375,-0.06376539170742035,0.29156801104545593,0.7178512811660767
1772876987319682300,9.499682373046875,-0.18907181918621063,0.2568437457084656,0.7368665337562561
1772876987329615400,9.509615478515625,-0.2696598768234253,0.12785431742668152,0.6946830749511719
1772876987339547400,9.51954736328125,-0.29948899149894714,-0.026578081771731377,0.5634025931358337
1772876987349480400,9.52948046875,-0.28757455945014954,-0.08812639862298965,0.3632040023803711
1772876987359413500,9.53941357421875,-0.2552468478679657,-0.03806779533624649,0.1270098239183426
1772876987369345500,9.549345458984375,-0.20614002645015717,0.1150575801730156,-0.11125601083040237
1772876987379278300,9.5592783203125,-0.16536518931388855,0.29535675048828125,-0.2804056704044342
1772876987389211400,9.56921142578125,-0.1613299697637558,0.3529396057128906,-0.36240920424461365
1772876987399144400,9.57914453125,-0.19377943873405457,0.3057011663913727,-0.3965582847595215
1772876987409076500,9.589076416015626,-0.21658781170845032,0.13078315556049347,-0.4058886766433716
1772876987419009500,9.599009521484374,-0.19531553983688354,-0.10141623020172119,-0.4009995758533478
1772876987428942300,9.6089423828125,-0.12396623939275742,-0.2703093886375427,-0.41776683926582336
1772876987438875400,9.61887548828125,-0.037099938839673996,-0.3179740905761719,-0.4182535707950592
1772876987448807400,9.628807373046875,0.03693513944745064,-0.24506449699401855,-0.39713630080223083
1772876987458740500,9.638740478515626,0.10374301671981812,-0.08900389820337296,-0.39508113265037537
1772876987468673500,9.648673583984374,0.13773001730442047,0.019983042031526566,-0.37561795115470886
1772876987478605600,9.65860546875,0.12185697257518768,0.009520438499748707,-0.3284132480621338
1772876987488538600,9.66853857421875,0.12149637937545776,-0.05583220347762108,-0.26840636134147644
1772876987498471400,9.678471435546875,0.18069013953208923,-0.03442663699388504,-0.18711541593074799
1772876987508404500,9.688404541015625,0.2818628251552582,0.028862321749329567,-0.075551338493824
1772876987518336500,9.69833642578125,0.389886736869812,0.08993393182754517,0.011799019761383533
1772876987528269600,9.70826953125,0.46559563279151917,0.190662682056427,0.027781981974840164
1772876987538202600,9.71820263671875,0.4907928705215454,0.25599372386932373,-0.0033438324462622404
1772876987548134400,9.728134521484375,0.45203694701194763,0.27945029735565186,-0.04915393143892288
1772876987558067200,9.738067138671875,0.37248167395591736,0.29396724700927734,-0.09149149060249329
1772876987568000300,9.748000244140625,0.26771771907806396,0.30715975165367126,-0.08651217818260193
1772876987577933300,9.757933349609376,0.18805649876594543,0.2921302914619446,-0.0029027790296822786
1772876987587865300,9.767865234375,0.11306773871183395,0.30658647418022156,0.11862418800592422
1772876987597798400,9.77779833984375,0.10663145780563354,0.35560283064842224,0.1918501853942871
1772876987607731500,9.7877314453125,0.09143226593732834,0.35238415002822876,0.13141001760959625
1772876987617663500,9.79766357421875,0.01668379455804825,0.3011026680469513,0.038003697991371155
1772876987627596300,9.80759619140625,-0.05414217337965965,0.3049620985984802,-0.09395593404769897
1772876987637529300,9.817529296875,-0.08178870379924774,0.3850833773612976,-0.13325029611587524
1772876987647462400,9.82746240234375,-0.06981859356164932,0.4598684012889862,-0.148453488945961
1772876987657394400,9.83739453125,-0.08237452059984207,0.40792974829673767,-0.2536182701587677
1772876987667327500,9.847327392578125,-0.11170044541358948,0.15411078929901123,-0.3201770484447479
1772876987677260300,9.85726025390625,-0.11322711408138275,-0.023838993161916733,-0.32864290475845337
1772876987687192300,9.8671923828125,-0.09271864593029022,-0.13145014643669128,-0.3108085095882416
1772876987697125400,9.87712548828125,-0.10360012203454971,-0.16747671365737915,-0.3180950880050659
1772876987707058400,9.887058349609376,-0.1595187783241272,-0.18571190536022186,-0.369274377822876
1772876987716991500,9.896991455078124,-0.2364734411239624,-0.276300311088562,-0.4550091326236725
1772876987726923500,9.906923583984375,-0.24515295028686523,-0.3892337679862976,-0.541300356388092
1772876987736856600,9.916856689453125,-0.22922611236572266,-0.5064279437065125,-0.6621801257133484
1772876987746789400,9.926789306640625,-0.18837642669677734,-0.5903127193450928,-0.7735170125961304
