time,seconds_elapsed,z,y,x
1772876977879871700,0.059871826171875,-0.006337524391710758,-0.17559845745563507,-0.15529876947402954
1772876977889804800,0.0698046875,-0.033660225570201874,-0.2506631016731262,-0.20866639912128448
1772876977899737900,0.07973779296875,-0.06261038780212402,-0.3425733149051666,-0.2748166620731354
1772876977909671000,0.0896708984375,-0.08087993413209915,-0.4603723883628845,-0.36025166511535645
1772876977919603000,0.09960302734375,-0.0845191478729248,-0.5634817481040955,-0.47480833530426025
1772876977929535700,0.10953564453125,-0.07858748733997345,-0.6425475478172302,-0.5757868885993958
1772876977939468800,0.11946875,-0.07329338788986206,-0.7155002951622009,-0.6337260603904724
1772876977949401900,0.12940185546875,-0.029337381944060326,-0.7147018909454346,-0.6511066555976868
1772876977959334000,0.139333984375,0.051967594772577286,-0.6614463925361633,-0.6474922299385071
1772876977969267000,0.149266845703125,0.12586578726768494,-0.5610619783401489,-0.6651684045791626
1772876977979200000,0.159199951171875,0.1771468222141266,-0.4863600432872772,-0.6769875288009644
1772876977989132000,0.169132080078125,0.21127761900424957,-0.4307370185852051,-0.6821034550666809
1772876977999064800,0.17906494140625,0.2548173666000366,-0.4230029284954071,-0.6736055612564087
1772876978008998000,0.188997802734375,0.24033111333847046,-0.48357173800468445,-0.6622836589813232
1772876978018931000,0.198930908203125,0.1378321647644043,-0.6384848952293396,-0.7642744779586792
1772876978028863000,0.208863037109375,0.1084633618593216,-0.8262020349502563,-0.9530225992202759
1772876978038796000,0.218796142578125,0.1555698812007904,-0.9347860217094421,-1.1245688199996948
1772876978048728800,0.228728759765625,0.14623230695724487,-0.9091890454292297,-1.1723088026046753
1772876978058662000,0.238661865234375,0.10090051591396332,-0.8139384388923645,-1.1121597290039062
1772876978068594000,0.248593994140625,0.09981580823659897,-0.637036144733429,-0.9850444197654724
1772876978078527000,0.25852685546875,0.14195899665355682,-0.3967556059360504,-0.8104952573776245
1772876978088460000,0.2684599609375,0.14591246843338013,-0.18449313938617706,-0.5924103260040283
1772876978098391800,0.278391845703125,0.1415797621011734,-0.06686797738075256,-0.41426563262939453
1772876978108324900,0.288324951171875,0.10723431408405304,0.00367143377661705,-0.3154122829437256
1772876978118257700,0.298257568359375,0.047198403626680374,0.040111199021339417,-0.22665391862392426
1772876978128191000,0.30819091796875,0.01834758184850216,0.17196324467658997,-0.10647930204868317
1772876978138122800,0.318122802734375,0.02093111351132393,0.41418811678886414,0.08109378814697266
1772876978148055800,0.328055908203125,0.059967730194330215,0.8041470646858215,0.28200238943099976
1772876978157988900,0.33798876953125,0.0013733921805396676,1.017874002456665,0.447931170463562
1772876978167921000,0.3479208984375,-0.1195860505104065,1.0791658163070679,0.6363519430160522
1772876978177853700,0.357853759765625,-0.16323845088481903,0.9115890860557556,0.6232012510299683
1772876978187786800,0.367786865234375,-0.19175638258457184,0.7349597215652466,0.26308223605155945
1772876978197719800,0.3777197265625,-0.1988137662410736,0.36699238419532776,-0.23173150420188904
1772876978207651800,0.38765185546875,-0.1911017745733261,0.011200723238289356,-0.7568961977958679
1772876978217585000,0.3975849609375,-0.19542196393013,-0.32170987129211426,-1.4036818742752075
1772876978227518000,0.40751806640625,-0.01575952209532261,-0.6125017404556274,-2.0494954586029053
1772876978237450800,0.41745068359375,0.33565255999565125,-0.6188235282897949,-2.528707504272461
1772876978247382800,0.4273828125,0.5877116918563843,-0.4554596543312073,-2.8206751346588135
1772876978257315800,0.43731591796875,0.8439807891845703,-0.14350682497024536,-2.8939261436462402
1772876978267249000,0.447248779296875,1.050544023513794,0.37110084295272827,-2.7842910289764404
1772876978277181000,0.457180908203125,1.231186032295227,1.0662556886672974,-2.516134023666382
1772876978287114000,0.467114013671875,1.4500731229782104,1.6640410423278809,-2.2351279258728027
1772876978297046800,0.477046875,1.653560757637024,1.7833466529846191,-2.0349316596984863
1772876978306979800,0.486979736328125,1.7687522172927856,1.48666250705719,-1.9156626462936401
1772876978316911900,0.496911865234375,1.8246294260025024,1.1469722986221313,-1.9720067977905273
1772876978326845000,0.506844970703125,1.7014472484588623,0.46048504114151,-2.041511058807373
1772876978336778000,0.516778076171875,1.5062980651855469,-0.31611427664756775,-2.0695323944091797
1772876978346711000,0.5267109375,1.3473531007766724,-1.0403242111206055,-2.060587167739868
1772876978356643000,0.53664306640625,1.2522433996200562,-1.490013599395752,-1.9937137365341187
1772876978366575900,0.546575927734375,0.8406102657318115,-1.3973366022109985,-1.8067408800125122
1772876978376509000,0.556509033203125,0.5486165285110474,-1.4361090660095215,-1.6388148069381714
1772876978386441000,0.56644091796875,0.4009125232696533,-1.5768150091171265,-1.4686003923416138
1772876978396374000,0.5763740234375,0.2815818786621094,-1.4496954679489136,-1.3282479047775269
1772876978406307000,0.58630712890625,0.22081705927848816,-1.0806130170822144,-1.2389293909072876
1772876978416239900,0.596239990234375,0.15221883356571198,-0.8171270489692688,-1.1375048160552979
1772876978426172000,0.606171875,0.05240568518638611,-0.7443481683731079,-0.9497362375259399
1772876978436104700,0.616104736328125,0.027756264433264732,-0.9156347513198853,-0.6107398271560669
1772876978446037800,0.626037841796875,0.10582869499921799,-1.1240164041519165,-0.0772862657904625
1772876978455969800,0.6359697265625,0.17684108018875122,-0.9263033270835876,0.060551226139068604
1772876978465902800,0.64590283203125,0.25154516100883484,-0.7004680633544922,0.01709589548408985
1772876978475836000,0.6558359375,0.22876687347888947,-0.6592061519622803,-0.04767297953367233
1772876978485768700,0.665768798828125,0.15895316004753113,-0.6437656879425049,-0.278659850358963
1772876978495700700,0.67570068359375,0.13635438680648804,-0.4958536922931671,-0.6187982559204102
1772876978505633800,0.6856337890625,0.19200219213962555,-0.30622971057891846,-0.800079882144928
1772876978515566800,0.69556689453125,0.170204758644104,-0.08647150546312332,-0.7895864844322205
1772876978525500000,0.7055,0.09945414960384369,0.1917411983013153,-0.6095567941665649
1772876978535432000,0.715431884765625,0.04001692309975624,0.2769210934638977,-0.22616896033287048
1772876978545364700,0.72536474609375,-0.12421063333749771,0.1323774755001068,0.20866772532463074
1772876978555297800,0.7352978515625,-0.38583317399024963,-0.1397874653339386,0.4717195928096771
1772876978565229800,0.745229736328125,-0.6596631407737732,-0.481516033411026,0.4654952585697174
1772876978575163000,0.755162841796875,-0.776541531085968,-0.7288981080055237,0.40046486258506775
1772876978585096000,0.765095947265625,-0.7092868685722351,-0.7950363755226135,0.3842321038246155
1772876978595029000,0.775029052734375,-0.4533672332763672,-0.6724830865859985,0.3752734959125519
1772876978604961000,0.7849609375,0.004571049474179745,-0.48434245586395264,0.3591861128807068
1772876978614893800,0.794893798828125,0.6398518681526184,-0.2738182246685028,0.23274749517440796
1772876978624827000,0.804826904296875,1.2803239822387695,-0.0761064887046814,-0.16616153717041016
1772876978634760000,0.814760009765625,1.7512047290802002,-0.008594286628067493,-0.7556484937667847
1772876978644692000,0.82469189453125,1.930622935295105,-0.15194319188594818,-1.3729575872421265
1772876978654625000,0.834625,1.85098397731781,-0.35283076763153076,-1.8548272848129272
1772876978664557800,0.844557861328125,1.6326663494110107,-0.4251992404460907,-2.106879234313965
1772876978674489900,0.85448974609375,1.4523577690124512,-0.24641163647174835,-1.950655460357666
1772876978684423000,0.8644228515625,1.3232661485671997,-0.22122186422348022,-1.2214969396591187
1772876978694356000,0.87435595703125,1.1271882057189941,-0.13015002012252808,-0.382626473903656
1772876978704289000,0.8842890625,1.0649334192276,-0.14360296726226807,-0.16462330520153046
1772876978714220800,0.894220703125,1.3346130847930908,-1.2449167966842651,-1.783571720123291
1772876978724154000,0.904154052734375,0.8926109075546265,-1.3723477125167847,-2.192962169647217
1772876978734087000,0.9140869140625,0.21503613889217377,-1.195616602897644,-1.0169986486434937
1772876978744020000,0.92402001953125,0.3328288197517395,-0.8439480066299438,0.33696019649505615
1772876978753951700,0.93395166015625,0.44600969552993774,0.10351307690143585,1.275786280632019
1772876978763884800,0.943884765625,0.23226067423820496,0.4810238778591156,1.7854162454605103
1772876978773817900,0.95381787109375,-0.4078010618686676,0.6127134561538696,1.7635564804077148
1772876978783750000,0.96375,-0.9701166152954102,0.07199829071760178,1.6551545858383179
1772876978793682700,0.9736826171875,-1.2781015634536743,-0.5037587285041809,1.6641817092895508
1772876978803615700,0.98361572265625,-1.3041177988052368,-0.4191136360168457,1.4083656072616577
1772876978813548800,0.993548828125,-1.0757309198379517,-0.10220546275377274,0.8699705600738525
1772876978823480800,1.003480712890625,-0.8367630839347839,0.42200610041618347,0.31127026677131653
1772876978833414000,1.013413818359375,-0.6578351259231567,0.9124810099601746,-0.2548706531524658
1772876978843347000,1.023346923828125,-0.5828695297241211,1.1378376483917236,-0.9404109120368958
1772876978853279000,1.033279052734375,-0.6371426582336426,1.0064445734024048,-1.632725715637207
1772876978863211800,1.043211669921875,-0.8095695376396179,0.48478880524635315,-2.291724920272827
1772876978873144800,1.053144775390625,-0.8790333271026611,0.05871790647506714,-2.504009246826172
1772876978883078000,1.063077880859375,-0.776159942150116,0.0253951046615839,-2.147785186767578
1772876978893010000,1.073010009765625,-0.6030416488647461,0.17890504002571106,-1.6024343967437744
1772876978902943000,1.08294287109375,-0.4343450665473938,0.11552872508764267,-1.0609644651412964
1772876978912875800,1.092875732421875,-0.19463978707790375,-0.25477689504623413,-0.44875648617744446
1772876978922808800,1.102808837890625,0.12459918856620789,-0.3840627074241638,-0.10713417828083038
1772876978932740900,1.112740966796875,0.49320676922798157,-0.32661885023117065,0.06987228989601135
1772876978942674000,1.122673828125,0.6268159747123718,-0.18816804885864258,0.07313626259565353
1772876978952607000,1.13260693359375,0.5388797521591187,0.022487198933959007,-0.09799180924892426
1772876978962539000,1.1425390625,0.34528443217277527,0.27726781368255615,-0.32553255558013916
1772876978972472000,1.15247216796875,0.13586808741092682,0.4499748945236206,-0.5414725542068481
1772876978982404900,1.16240478515625,-0.10763378441333771,0.41100165247917175,-0.6853631734848022
1772876978992338000,1.172337890625,-0.3446929454803467,0.21804764866828918,-0.7521475553512573
1772876979002270000,1.18227001953125,-0.4745497405529022,-0.06494997441768646,-0.7467514276504517
1772876979012203000,1.192203125,-0.46441906690597534,-0.29865220189094543,-0.6441739201545715
1772876979022136000,1.202135986328125,-0.34091392159461975,-0.4671597182750702,-0.48912015557289124
1772876979032067800,1.21206787109375,-0.16279050707817078,-0.6342235803604126,-0.3594716191291809
1772876979042001000,1.2220009765625,0.06631270796060562,-0.7728538513183594,-0.1930014193058014
1772876979051933700,1.23193359375,0.3144993484020233,-0.8684187531471252,0.16604329645633698
1772876979061866800,1.24186669921875,0.3946343958377838,-0.6772746443748474,0.8272880911827087
1772876979071798800,1.251798828125,0.44596734642982483,-0.6594487428665161,1.3415607213974
1772876979081731800,1.26173193359375,0.37327638268470764,-1.0668373107910156,1.4240223169326782
1772876979091665000,1.271664794921875,0.2304353415966034,-2.111881732940674,0.8515124917030334
1772876979101597000,1.281596923828125,0.19469384849071503,-3.2592599391937256,-0.33075207471847534
1772876979111529700,1.29152978515625,0.29097217321395874,-4.070680618286133,-1.7396183013916016
1772876979121462800,1.301462890625,0.287995308637619,-3.905266523361206,-2.764878749847412
1772876979131395800,1.311395751953125,0.16871045529842377,-3.585360288619995,-2.3883273601531982
1772876979141328000,1.321327880859375,0.09655210375785828,-2.928067922592163,-0.2730832099914551
1772876979151261000,1.331260986328125,-0.03858654201030731,-1.6512117385864258,1.9530019760131836
1772876979161193700,1.34119384765625,-0.10342705249786377,-0.8665039539337158,3.294233798980713
1772876979171126800,1.351126708984375,-0.07408274710178375,0.22232387959957123,3.43782377243042
1772876979181058800,1.361058837890625,-0.22290977835655212,1.3181723356246948,2.889275312423706
1772876979190992000,1.370991943359375,-0.41241899132728577,2.3055973052978516,2.2334277629852295
1772876979200925000,1.380925048828125,-0.31062206625938416,3.043170690536499,1.6466820240020752
1772876979210858000,1.39085791015625,0.10638263076543808,3.187988519668579,1.0613632202148438
1772876979220790000,1.4007900390625,0.5946657657623291,2.669761896133423,0.39900705218315125
1772876979230722800,1.410722900390625,0.9952635169029236,1.5705592632293701,-0.28062713146209717
1772876979240656000,1.42065576171875,1.246582269668579,0.07786683738231659,-0.8798170685768127
1772876979250588000,1.430587890625,1.4425030946731567,-1.2230076789855957,-1.013599157333374
1772876979260521000,1.44052099609375,1.5478090047836304,-1.8633123636245728,-0.6687173247337341
1772876979270454000,1.4504541015625,1.5751681327819824,-1.8372902870178223,-0.36947765946388245
1772876979280386800,1.46038671875,1.5449473857879639,-1.3441357612609863,-0.25374919176101685
1772876979290318800,1.47031884765625,1.4105008840560913,-0.6844971179962158,-0.17455849051475525
1772876979300252000,1.480251953125,1.1663297414779663,-0.09789247810840607,-0.060554955154657364
1772876979310185500,1.490185546875,0.8447744250297546,0.058932825922966,-0.16062137484550476
1772876979320117500,1.500117431640625,0.4886772632598877,-0.35946547985076904,-0.5940990447998047
1772876979330050600,1.510050537109375,0.28385621309280396,-0.6022448539733887,-0.39854446053504944
1772876979339983400,1.5199833984375,0.16158783435821533,-0.3529050648212433,0.2745809555053711
1772876979349916400,1.52991650390625,0.1857706606388092,0.18190135061740875,1.2192755937576294
1772876979359848400,1.539848388671875,0.2009778469800949,0.39779025316238403,1.8532447814941406
1772876979369781500,1.549781494140625,-0.02172420360147953,0.44877272844314575,2.216813087463379
1772876979379714600,1.559714599609375,-0.4942520558834076,0.5045257210731506,2.8155903816223145
1772876979389646600,1.569646484375,-0.8792998790740967,0.6198693513870239,3.2322921752929688
1772876979399579600,1.57957958984375,-1.0083705186843872,0.5232874751091003,3.045057773590088
1772876979409512400,1.589512451171875,-1.160281777381897,0.203121155500412,2.629819393157959
1772876979419445500,1.599445556640625,-1.3494431972503662,-0.2254352569580078,2.219788074493408
1772876979429377500,1.60937744140625,-1.4826563596725464,-0.6451030969619751,1.7670997381210327
1772876979439310600,1.619310546875,-1.5419503450393677,-0.884355366230011,1.2791780233383179
1772876979449243600,1.62924365234375,-1.3909038305282593,-1.0173720121383667,0.7959088683128357
1772876979459176400,1.639176513671875,-1.3720113039016724,-0.9190888404846191,0.23524421453475952
1772876979469108500,1.6491083984375,-1.2644730806350708,-0.8423378467559814,-0.42573878169059753
1772876979479041500,1.65904150390625,-1.0434843301773071,-0.7940757870674133,-1.1670557260513306
1772876979488974600,1.668974609375,-0.589074969291687,-0.6217490434646606,-1.5531877279281616
1772876979498906600,1.67890673828125,-0.12474112957715988,-0.22772876918315887,-1.5167306661605835
1772876979508839700,1.688839599609375,0.2737372815608978,0.10293996334075928,-1.310537338256836
1772876979518772500,1.6987724609375,0.5693929195404053,0.2574198246002197,-1.1124292612075806
1772876979528705500,1.70870556640625,0.7071377038955688,0.2536144256591797,-0.915964663028717
1772876979538637300,1.71863720703125,0.6784898042678833,0.19869178533554077,-0.7153698205947876
1772876979548570400,1.7285703125,0.4926674962043762,0.1380111277103424,-0.50799959897995
1772876979558503400,1.73850341796875,0.24004855751991272,0.030886810272932053,-0.3294394016265869
1772876979568435500,1.748435546875,0.027476364746689796,-0.13861140608787537,-0.1358470469713211
1772876979578368500,1.758368408203125,-0.15781094133853912,-0.3124772012233734,-0.017720673233270645
1772876979588301300,1.76830126953125,-0.2917293310165405,-0.3922865688800812,-0.021931663155555725
1772876979598234400,1.778234375,-0.34863123297691345,-0.31804561614990234,-0.09263619035482407
1772876979608166400,1.78816650390625,-0.38916081190109253,-0.08637963235378265,-0.16440919041633606
1772876979618099500,1.798099365234375,-0.48911377787590027,0.18917818367481232,-0.1485641747713089
1772876979628032500,1.808032470703125,-0.6136820316314697,0.3501356542110443,-0.050331082195043564
1772876979637964500,1.817964599609375,-0.6851841807365417,0.43729743361473083,0.13113458454608917
1772876979647897600,1.827897705078125,-0.7261630892753601,0.44062238931655884,0.3612476885318756
1772876979657830400,1.837830322265625,-0.6793798208236694,0.42244258522987366,0.5247567296028137
1772876979667763500,1.847763427734375,-0.560454785823822,0.44628986716270447,0.5948897004127502
1772876979677695500,1.857695556640625,-0.4290006160736084,0.4911268353462219,0.5811025500297546
1772876979687628500,1.867628662109375,-0.3683604598045349,0.5504828691482544,0.4513448178768158
1772876979697561600,1.8775615234375,-0.4073595106601715,0.5393122434616089,0.1686028689146042
1772876979707494400,1.887494384765625,-0.4716207981109619,0.3767584562301636,-0.23161591589450836
1772876979717426400,1.897426513671875,-0.6214534044265747,-0.1471622884273529,-0.701522707939148
1772876979727359500,1.907359375,-0.7683616280555725,-0.899378776550293,-1.310239553451538
1772876979737292500,1.91729248046875,-0.7923575043678284,-1.5177339315414429,-2.056196928024292
1772876979747224600,1.927224609375,-0.7126176953315735,-1.6141566038131714,-2.6906137466430664
1772876979757157600,1.93715771484375,-0.30621692538261414,-1.2850819826126099,-2.898836374282837
1772876979767090400,1.94709033203125,0.4625604450702667,-0.8127389550209045,-2.3784542083740234
1772876979777023500,1.9570234375,1.0796383619308472,-0.20796038210391998,-1.1401338577270508
1772876979786955500,1.96695556640625,1.0730408430099487,0.21003365516662598,0.519967794418335
1772876979796888600,1.976888671875,0.5267705917358398,0.22898417711257935,1.814135193824768
1772876979806821600,1.986821533203125,0.002769953804090619,-0.07448914647102356,2.0832982063293457
1772876979816754700,1.996754638671875,-0.204485222697258,-0.5090304613113403,1.3074700832366943
1772876979826686700,2.006686767578125,-0.09098370373249054,-1.0096073150634766,0.20668339729309082
1772876979836619500,2.01661962890625,0.29389286041259766,-1.2254546880722046,-0.48667111992836
1772876979846552600,2.026552490234375,0.7730160355567932,-1.087512731552124,-0.5846506953239441
1772876979856484400,2.036484375,1.1118676662445068,-0.6929161548614502,-0.280305951833725
1772876979866417400,2.04641748046875,1.2436522245407104,-0.30266904830932617,0.22908484935760498
1772876979876350500,2.0563505859375,1.2260397672653198,-0.062374163419008255,0.7007077932357788
1772876979886283500,2.066283447265625,1.1539700031280518,0.16709817945957184,0.8981598615646362
1772876979896215600,2.076215576171875,1.0507792234420776,0.4158715009689331,0.8333989977836609
1772876979906148400,2.0861484375,0.9385831952095032,0.6671426296234131,0.6242516040802002
1772876979916081400,2.096081298828125,0.8518810272216797,0.7097867727279663,0.21871823072433472
1772876979926013400,2.106013427734375,0.8633294701576233,0.04914890229701996,-0.7136190533638
1772876979935946500,2.115946533203125,0.9454866051673889,-0.4625125229358673,-1.1431291103363037
1772876979945879600,2.125879638671875,0.9793748259544373,-0.538189709186554,-0.6409115195274353
1772876979955812400,2.135812255859375,0.9745792746543884,-0.4279420077800751,0.15003210306167603
1772876979965744400,2.145744384765625,0.7531150579452515,-0.24289973080158234,0.9640976190567017
1772876979975677400,2.155677490234375,0.25289323925971985,-0.10624734312295914,1.6424516439437866
1772876979985610500,2.165610595703125,-0.3418814241886139,0.08479584753513336,2.0450620651245117
1772876979995542500,2.17554248046875,-0.8977531790733337,0.328685998916626,2.1798043251037598
1772876980005475600,2.1854755859375,-1.2645103931427002,0.6159327030181885,2.064002275466919
1772876980015408600,2.19540869140625,-1.2970068454742432,0.8907480239868164,1.7156360149383545
1772876980025341400,2.205341552734375,-1.0781666040420532,0.927996039390564,1.181731104850769
1772876980035273500,2.2152734375,-0.7239278554916382,0.7593457698822021,0.6221532821655273
1772876980045206500,2.22520654296875,-0.3339305818080902,0.6585984230041504,0.12806768715381622
1772876980055139600,2.2351396484375,-0.1026209145784378,0.6081365346908569,-0.28330573439598083
1772876980065071600,2.245071533203125,-0.059059325605630875,0.5739889740943909,-0.703978419303894
1772876980075004700,2.255004638671875,-0.06598541140556335,0.6052097678184509,-1.0528833866119385
1772876980084937500,2.2649375,0.0418289378285408,0.6630176305770874,-1.2560689449310303
1772876980094870500,2.27487060546875,0.22854556143283844,0.7080863118171692,-1.3464598655700684
1772876980104802600,2.284802490234375,0.43164220452308655,0.7246282696723938,-1.3490428924560547
1772876980114735600,2.294735595703125,0.5704275369644165,0.7174465656280518,-1.2671523094177246
1772876980124668700,2.304668701171875,0.6244667768478394,0.6601358652114868,-1.1487520933151245
1772876980134600400,2.314600341796875,0.5118834972381592,0.5363249778747559,-1.0615181922912598
1772876980144533500,2.324533447265625,0.2740616500377655,0.4670090079307556,-0.9504909515380859
1772876980154466300,2.33446630859375,0.011659852229058743,0.4577587842941284,-0.8100427985191345
1772876980164399400,2.3443994140625,-0.23139514029026031,0.49112045764923096,-0.6386896967887878
1772876980174331400,2.354331298828125,-0.4183197617530823,0.5349054932594299,-0.44475775957107544
1772876980184264400,2.364264404296875,-0.506368100643158,0.5479680299758911,-0.24364487826824188
1772876980194197500,2.374197509765625,-0.5287104249000549,0.5461376309394836,-0.07295356690883636
1772876980204130300,2.38413037109375,-0.5200168490409851,0.5943911671638489,0.09580641984939575
1772876980214062300,2.394062255859375,-0.5218754410743713,0.6887461543083191,0.33202481269836426
1772876980223995400,2.403995361328125,-0.5540967583656311,0.8104364275932312,0.572404146194458
1772876980233928400,2.413928466796875,-0.608654260635376,0.9601859450340271,0.7578107118606567
1772876980243860500,2.423860595703125,-0.6994907259941101,1.076013207435608,0.9029996395111084
1772876980253793500,2.43379345703125,-0.7724400162696838,1.1028674840927124,0.9923644065856934
1772876980263726600,2.4437265625,-0.8397215604782104,1.0807968378067017,1.1083639860153198
1772876980273659400,2.453659423828125,-0.8833361864089966,0.9127923250198364,1.1132605075836182
1772876980283591400,2.46359130859375,-0.9151257872581482,0.5779607892036438,0.7790260314941406
1772876980293524500,2.4735244140625,-0.9530316591262817,0.07963784039020538,0.2322358936071396
1772876980303457500,2.48345751953125,-0.9690425395965576,-0.5655648708343506,-0.5881119966506958
1772876980313389600,2.4933896484375,-0.9235402941703796,-1.030487298965454,-1.5653741359710693
1772876980323322600,2.503322509765625,-0.6744982600212097,-1.073470115661621,-2.4309539794921875
1772876980333255400,2.51325537109375,-0.17553214728832245,-0.5627557635307312,-2.7855827808380127
1772876980343188500,2.5231884765625,0.5274878144264221,0.05004825443029404,-2.4272568225860596
1772876980353120500,2.53312060546875,1.2626203298568726,0.3096548020839691,-1.2927993535995483
1772876980363053600,2.543053466796875,1.5829662084579468,0.2897186279296875,0.29162946343421936
1772876980372986600,2.552986572265625,1.3697364330291748,0.15854384005069733,1.3135250806808472
1772876980382919400,2.56291943359375,1.1148713827133179,-0.10010689496994019,1.17276132106781
1772876980392851700,2.572851806640625,1.1834243535995483,-0.37820297479629517,0.6056795120239258
1772876980402784500,2.582784423828125,1.418898105621338,-0.4427095055580139,0.18009600043296814
1772876980412717600,2.592717529296875,1.6127341985702515,-0.42528071999549866,-0.2949371039867401
1772876980422649600,2.602649658203125,1.5458261966705322,-0.4437577426433563,-0.7230769991874695
1772876980432582700,2.612582763671875,1.2639809846878052,-0.4404844343662262,-0.8781589865684509
1772876980442515700,2.622515625,1.0113788843154907,-0.3664642870426178,-0.7188633680343628
1772876980452448500,2.632448486328125,0.8468610048294067,-0.21797680854797363,-0.31752097606658936
1772876980462380500,2.642380615234375,0.646611750125885,-0.06232595816254616,0.13133485615253448
1772876980472313600,2.652313720703125,0.29528650641441345,0.053588394075632095,0.5265442132949829
1772876980482246700,2.66224658203125,-0.08472421020269394,0.046307045966386795,0.9287787675857544
1772876980492178700,2.6721787109375,-0.4784262478351593,0.05883881449699402,1.2330491542816162
1772876980502111700,2.68211181640625,-0.8838424682617188,0.18061505258083344,1.4703434705734253
1772876980512044500,2.69204443359375,-1.1893919706344604,0.3912159502506256,1.6888595819473267
1772876980521977600,2.7019775390625,-1.312474250793457,0.5636894702911377,1.8821765184402466
1772876980531909600,2.71190966796875,-1.4218320846557617,0.6123731136322021,2.18696928024292
1772876980541842700,2.7218427734375,-1.6446585655212402,0.6287446022033691,2.7755768299102783
1772876980551775700,2.731775634765625,-1.851496934890747,0.8237175941467285,3.455028533935547
1772876980561707800,2.741707763671875,-1.730010986328125,0.32464519143104553,2.75388240814209
1772876980571640800,2.751640869140625,-1.7053738832473755,-0.22815807163715363,1.7324914932250977
1772876980581573600,2.76157373046875,-1.7317228317260742,-0.2912968099117279,1.1469060182571411
1772876980591506700,2.771506591796875,-1.2560919523239136,0.04300312697887421,0.5008436441421509
1772876980601438500,2.7814384765625,-0.8705495595932007,0.33583685755729675,-0.30416256189346313
1772876980611371500,2.79137158203125,-0.7357845306396484,0.4196697175502777,-0.9845781326293945
1772876980621304600,2.8013046875,-0.5067199468612671,0.4127177894115448,-1.350143551826477
1772876980631237600,2.811237548828125,-0.30471116304397583,0.3858550190925598,-1.5355738401412964
1772876980641169700,2.821169677734375,-0.24785400927066803,0.2657935917377472,-1.5572746992111206
1772876980651102500,2.8311025390625,-0.156532883644104,0.21902050077915192,-1.4698864221572876
1772876980661035500,2.841035400390625,-0.0984267070889473,0.03494466841220856,-1.3717771768569946
1772876980670967600,2.850967529296875,0.012838300317525864,-0.3677689731121063,-1.1870331764221191
1772876980680900600,2.860900634765625,0.1225336417555809,-0.15901415050029755,-1.2700213193893433
1772876980690833700,2.870833740234375,0.14170333743095398,0.023030217736959457,-1.4170403480529785
1772876980700766500,2.880766357421875,0.12278158217668533,0.08311246335506439,-1.554805040359497
1772876980710698500,2.890698486328125,0.08766194432973862,0.16678525507450104,-1.5751612186431885
1772876980720631600,2.900631591796875,0.04320499300956726,0.20193098485469818,-1.4142769575119019
1772876980730564600,2.910564697265625,-0.05245921388268471,0.20011897385120392,-1.0965001583099365
1772876980740496600,2.92049658203125,-0.1501666009426117,0.2387808859348297,-0.6157692074775696
1772876980750429700,2.9304296875,-0.23024225234985352,0.3016517162322998,-0.0506751611828804
1772876980760362800,2.94036279296875,-0.30584168434143066,0.43633362650871277,0.44388794898986816
1772876980770295600,2.950295654296875,-0.3396283984184265,0.5730960369110107,0.7683483362197876
1772876980780227600,2.9602275390625,-0.27144747972488403,0.6558175086975098,0.9044440984725952
1772876980790160600,2.97016064453125,-0.1153649389743805,0.7784947156906128,0.8548941612243652
1772876980800093700,2.98009375,-0.11925715208053589,0.8745024800300598,0.6283991932868958
1772876980810025700,2.990025634765625,-0.21413946151733398,0.8567362427711487,0.3332362771034241
1772876980819958800,2.999958740234375,-0.28718170523643494,0.8028218746185303,0.150613471865654
1772876980829891600,3.0098916015625,-0.2626510560512543,0.6932485103607178,0.22320884466171265
1772876980839824600,3.01982470703125,-0.2341211587190628,0.4886823296546936,0.2154494673013687
1772876980849756700,3.029756591796875,-0.22146953642368317,0.2682684659957886,0.16607579588890076
1772876980859689700,3.039689697265625,-0.10581857711076736,0.025982864201068878,-0.05572478100657463
1772876980869622800,3.049622802734375,0.07357674837112427,-0.08258835226297379,-0.7045890688896179
1772876980879554600,3.059554443359375,0.40736937522888184,0.24492453038692474,-1.2502111196517944
1772876980889487600,3.069487548828125,0.7347334027290344,0.7498622536659241,-2.005854606628418
1772876980899420700,3.079420654296875,0.9576975107192993,1.1819708347320557,-2.4988861083984375
1772876980909353700,3.089353759765625,1.0939171314239502,1.1488362550735474,-1.931746482849121
1772876980919285500,3.099285400390625,1.0695209503173828,0.6020286083221436,-0.26948660612106323
1772876980929218600,3.109218505859375,0.7416186928749084,-0.15059137344360352,1.6071192026138306
1772876980939151600,3.119151611328125,0.43474265933036804,-0.6602112054824829,2.690498113632202
1772876980949084400,3.12908447265625,0.2904376983642578,-0.7887795567512512,2.709542751312256
1772876980959016400,3.139016357421875,0.2586965262889862,-0.4617987871170044,2.266860008239746
1772876980968949500,3.148949462890625,0.35105469822883606,0.03761448711156845,1.731727123260498
1772876980978882600,3.158882568359375,0.4767630994319916,0.5970284938812256,1.247473120689392
1772876980988814600,3.168814697265625,0.5528061985969543,0.8681321740150452,0.8270063400268555
1772876980998747600,3.17874755859375,0.5717005133628845,0.562556266784668,0.16273511946201324
1772876981008680700,3.1886806640625,0.5888051986694336,-0.3787427842617035,-1.0279849767684937
1772876981018613500,3.198613525390625,0.6459784507751465,-1.3547614812850952,-2.1189332008361816
1772876981028545500,3.208545654296875,0.7640321254730225,-1.5867902040481567,-2.343245267868042
1772876981038478600,3.218478515625,0.8895184397697449,-1.361056923866272,-2.1792383193969727
1772876981048411600,3.22841162109375,0.933588981628418,-0.9670121669769287,-1.6391359567642212
1772876981058343700,3.23834375,0.7698168158531189,-0.5914031267166138,-0.8784873485565186
1772876981068276700,3.24827685546875,0.5289099216461182,-0.34491103887557983,-0.09277121722698212
1772876981078209500,3.25820947265625,0.4581787586212158,-0.1841013878583908,0.576443612575531
1772876981088142600,3.268142578125,0.42531508207321167,-0.08634927123785019,0.9519969820976257
1772876981098074600,3.27807470703125,0.31022870540618896,0.07743726670742035,1.286356806755066
1772876981108007700,3.288007568359375,0.1432301253080368,0.22513990104198456,1.6966633796691895
1772876981117940700,3.297940673828125,-0.07122571021318436,0.18897578120231628,2.0491764545440674
1772876981127873500,3.30787353515625,-0.42547672986984253,-0.0923411175608635,2.2162482738494873
1772876981137805800,3.317805908203125,-0.8452169895172119,-0.34835851192474365,2.24910044670105
1772876981147738600,3.327738525390625,-1.240094780921936,-0.466233491897583,1.9605046510696411
1772876981157671700,3.337671630859375,-1.5756480693817139,-0.2693997919559479,1.770966649055481
1772876981167603700,3.347603759765625,-1.592441201210022,0.4525403082370758,1.7599552869796753
1772876981177536800,3.357536865234375,-1.2782586812973022,0.934788703918457,1.1997921466827393
1772876981187469800,3.3674697265625,-0.9594221711158752,0.715114414691925,-0.1483284831047058
1772876981197402600,3.377402587890625,-0.5502873659133911,0.5616225600242615,-0.8279514908790588
1772876981207334400,3.38733447265625,-0.04423696920275688,0.5394887924194336,-0.9719110727310181
1772876981217267500,3.397267333984375,0.37739789485931396,0.48723623156547546,-1.0658601522445679
1772876981227200500,3.407200439453125,0.4331863224506378,0.10376287996768951,-1.1015926599502563
1772876981237132500,3.417132568359375,0.3380472958087921,-0.36290231347084045,-1.0825978517532349
1772876981247065600,3.427065673828125,0.2733958661556244,-0.5614268183708191,-1.0106477737426758
1772876981256998700,3.43699853515625,0.282618910074234,-0.527350127696991,-0.946973443031311
1772876981266931500,3.446931396484375,0.3400989770889282,-0.37750494480133057,-0.9789508581161499
1772876981276863500,3.456863525390625,0.41697511076927185,-0.15709693729877472,-1.0995291471481323
1772876981286796500,3.466796630859375,0.48939499258995056,0.10376235097646713,-1.1978185176849365
1772876981296729600,3.4767294921875,0.5359774231910706,0.39699769020080566,-1.1822184324264526
1772876981306662000,3.486661865234375,0.5602489113807678,0.619785487651825,-1.0248323678970337
1772876981316595000,3.496594970703125,0.5324013233184814,0.6810057163238525,-0.7412977814674377
1772876981326527700,3.50652783203125,0.45072537660598755,0.586676299571991,-0.3471941649913788
1772876981336460800,3.516460693359375,0.3463238477706909,0.44580385088920593,0.07903676480054855
1772876981346392800,3.526392822265625,0.2540639638900757,0.3767257034778595,0.41961669921875
1772876981356326000,3.536325927734375,0.18164090812206268,0.4142605662345886,0.5905945897102356
1772876981366259000,3.546259033203125,0.16829979419708252,0.5120915174484253,0.6284040212631226
1772876981376191000,3.55619091796875,0.17752844095230103,0.6370624899864197,0.5243654847145081
1772876981386123800,3.566123779296875,0.17165005207061768,0.7481114864349365,0.3297525942325592
1772876981396056800,3.576056884765625,0.093180812895298,0.7942289113998413,0.11017310619354248
1772876981405990000,3.585989990234375,-0.02100834622979164,0.7868239879608154,0.01227317750453949
1772876981415921700,3.595921630859375,-0.24746891856193542,0.7225289344787598,0.07144222408533096
1772876981425854700,3.605854736328125,-0.6052755117416382,0.4793111979961395,-0.025288045406341553
1772876981435787800,3.615787841796875,-1.0212186574935913,0.12617631256580353,-0.2686501145362854
1772876981445719800,3.6257197265625,-1.2688071727752686,-0.2595737874507904,-0.6309593319892883
1772876981455652600,3.635652587890625,-1.1420025825500488,-0.49025946855545044,-1.3277589082717896
1772876981465585700,3.645585693359375,-0.6282093524932861,-0.39903101325035095,-2.2843501567840576
1772876981475518700,3.655518798828125,0.39860278367996216,0.004730839282274246,-2.925734043121338
1772876981485450800,3.66545068359375,1.344704031944275,0.15670359134674072,-3.458530902862549
1772876981495383800,3.6753837890625,1.7572906017303467,-0.26234400272369385,-3.6383919715881348
1772876981505316600,3.685316650390625,1.523620843887329,-0.7323213815689087,-2.5588316917419434
1772876981515249700,3.695249755859375,0.8724342584609985,-1.098639726638794,-0.7415244579315186
1772876981525181700,3.705181640625,0.21757972240447998,-1.3633307218551636,0.8244683146476746
1772876981535114800,3.71511474609375,0.04579944536089897,-1.4212994575500488,1.5593348741531372
1772876981545047800,3.7250478515625,0.2516325116157532,-1.4027469158172607,1.5539177656173706
1772876981554979800,3.734979736328125,0.5661715269088745,-1.1630301475524902,1.2698415517807007
1772876981564913000,3.744912841796875,0.8598854541778564,-0.8183350563049316,0.9099946618080139
1772876981574845700,3.754845703125,1.0576616525650024,-0.5391995906829834,0.5824154615402222
1772876981584778800,3.76477880859375,1.1105685234069824,-0.40028294920921326,0.35586676001548767
1772876981594710800,3.774710693359375,0.9779865145683289,-0.4530535042285919,0.2325592041015625
1772876981604643800,3.784643798828125,0.7209139466285706,-0.7390317320823669,0.058329351246356964
1772876981614577000,3.794576904296875,0.47768959403038025,-1.1229932308197021,-0.26523032784461975
1772876981624509700,3.804509765625,0.3570675849914551,-1.4001649618148804,-0.44782358407974243
1772876981634441700,3.814441650390625,0.41752639412879944,-1.4299877882003784,-0.3613986670970917
1772876981644374800,3.824374755859375,0.628585934638977,-1.1750212907791138,-0.14746108651161194
1772876981654307800,3.834307861328125,0.801272451877594,-0.7904618978500366,0.17464052140712738
1772876981664239900,3.844239990234375,0.7860389351844788,-0.5064642429351807,0.6211833953857422
1772876981674173000,3.8541728515625,0.6239485740661621,-0.39785948395729065,1.1116604804992676
1772876981684106000,3.86410595703125,0.3529849648475647,-0.3632785975933075,1.490547776222229
1772876981694038800,3.874038818359375,0.059428438544273376,-0.38599032163619995,1.6610980033874512
1772876981703970800,3.883970703125,-0.22624830901622772,-0.42994046211242676,1.6337611675262451
1772876981713903900,3.89390380859375,-0.49504461884498596,-0.3846163749694824,1.4647213220596313
1772876981723837000,3.9038369140625,-0.7642103433609009,-0.12008779495954514,1.2717068195343018
1772876981733768700,3.913768798828125,-0.9423973560333252,0.3183310925960541,1.2524657249450684
1772876981743701800,3.92370166015625,-0.9486802816390991,0.8023009896278381,1.2762693166732788
1772876981753634800,3.933634765625,-0.8456308841705322,1.127260446548462,1.0538066625595093
1772876981763567600,3.943567626953125,-0.8176625967025757,1.036465048789978,0.597813069820404
1772876981773499600,3.953499755859375,-0.8260899186134338,0.6930948495864868,0.05830112472176552
1772876981783432700,3.9634326171875,-0.7149186730384827,0.42107000946998596,-0.4226071834564209
1772876981793365800,3.97336572265625,-0.49673333764076233,0.45200154185295105,-0.8131504058837891
1772876981803296800,3.983296875,-0.31278055906295776,0.6948274970054626,-1.1172077655792236
1772876981813228800,3.993228759765625,-0.19977276027202606,0.9380606412887573,-1.396994948387146
1772876981823161900,4.003161865234375,-0.15473152697086334,0.9900301098823547,-1.630199670791626
1772876981833095000,4.013094970703125,-0.18672753870487213,0.8371090292930603,-1.8319634199142456
1772876981843027700,4.02302783203125,-0.32279136776924133,0.6054004430770874,-1.8982676267623901
1772876981852959700,4.032959716796875,-0.5277777910232544,0.4132312536239624,-1.7018094062805176
1772876981862892800,4.042892822265625,-0.7103134989738464,0.34337466955184937,-1.3665797710418701
1772876981872825900,4.052825927734375,-0.7311903238296509,0.3455408811569214,-1.0573481321334839
1772876981882758000,4.0627578125,-0.631659209728241,0.28516650199890137,-0.9010653495788574
1772876981892691000,4.07269091796875,-0.4748416244983673,0.20109130442142487,-0.7993994355201721
1772876981902624000,4.0826240234375,-0.3008727431297302,0.19856423139572144,-0.6775683760643005
1772876981912556800,4.092556884765625,-0.10999787598848343,0.24078251421451569,-0.5953270196914673
1772876981922488600,4.102488525390625,0.04625537991523743,0.18977738916873932,-0.5331187844276428
1772876981932421600,4.112421630859375,0.1009945273399353,0.007592406123876572,-0.49802789092063904
1772876981942354700,4.122354736328125,0.05549255385994911,-0.2892799973487854,-0.5151227116584778
1772876981952286700,4.13228662109375,-0.04796033352613449,-0.6199455261230469,-0.5110313296318054
1772876981962219800,4.1422197265625,-0.1871722936630249,-0.8740310668945312,-0.45017489790916443
1772876981972152800,4.15215283203125,-0.2379734218120575,-0.9804427623748779,-0.3577496111392975
1772876981982085600,4.162085693359375,-0.11204637587070465,-0.8752095103263855,-0.2657536566257477
1772876981992017700,4.172017578125,0.16048768162727356,-0.6270521879196167,-0.05215295031666756
1772876982001950700,4.18195068359375,0.3878451883792877,-0.12893827259540558,0.4958198666572571
1772876982011883800,4.1918837890625,0.3660200536251068,0.19861802458763123,1.0292816162109375
1772876982021816800,4.20181689453125,0.024571388959884644,0.3479153513908386,1.392361044883728
1772876982031748900,4.211748779296875,-0.387409508228302,0.2810090184211731,1.4701017141342163
1772876982041681700,4.221681640625,-0.686569333076477,0.17765522003173828,0.9529629349708557
1772876982051614700,4.23161474609375,-0.6305731534957886,0.18700744211673737,0.08821561187505722
1772876982061546800,4.241546630859375,-0.20634011924266815,0.0810551717877388,-0.7037602663040161
1772876982071479800,4.251479736328125,0.29516053199768066,-0.6330930590629578,-1.220215082168579
1772876982081412900,4.261412841796875,0.5832759737968445,-1.5292304754257202,-1.176580548286438
1772876982091345700,4.271345703125,0.4673299193382263,-2.04757022857666,-0.5263593792915344
1772876982101278000,4.28127783203125,0.11183997988700867,-1.8336260318756104,0.39367246627807617
1772876982111210800,4.291210693359375,-0.1363554447889328,-0.9715691208839417,1.2156145572662354
1772876982121143800,4.301143798828125,-0.14202292263507843,0.06472413241863251,1.82468581199646
1772876982131075800,4.311075927734375,-0.016163257881999016,0.9937694668769836,2.097806692123413
1772876982141009000,4.3210087890625,0.0868520736694336,1.576375126838684,2.015779733657837
1772876982150942000,4.33094189453125,0.1536361575126648,1.5695099830627441,1.4244053363800049
1772876982160874800,4.340874755859375,0.14226312935352325,0.8369947671890259,0.3289150297641754
1772876982170806800,4.350806884765625,0.21403639018535614,-0.023272832855582237,-0.6985207796096802
1772876982180742000,4.360741943359375,0.4953586161136627,-0.4003945589065552,-0.9917492270469666
1772876982190674700,4.3706748046875,0.8915690779685974,-0.5880898833274841,-0.894751787185669
1772876982200606700,4.380606689453125,1.1433296203613281,-0.9381008744239807,-0.8456013202667236
1772876982210539800,4.390539794921875,0.9981312155723572,-1.3554009199142456,-0.7574490904808044
1772876982220472800,4.400472900390625,0.5184801816940308,-1.719158411026001,-0.5025305151939392
1772876982230404900,4.41040478515625,0.09827464073896408,-1.8776973485946655,-0.24274499714374542
1772876982240338000,4.420337890625,-0.20368894934654236,-1.6793416738510132,0.030650055035948753
1772876982250270700,4.430270751953125,-0.3708707392215729,-1.182011604309082,0.3884231150150299
1772876982260203800,4.440203857421875,-0.45580482482910156,-0.5628771781921387,0.8479416966438293
1772876982270135800,4.4501357421875,-0.4641346335411072,0.042626023292541504,1.2565536499023438
1772876982280068900,4.46006884765625,-0.4474640488624573,0.6733531355857849,1.5059568881988525
1772876982290002000,4.470001953125,-0.3756473958492279,1.1474602222442627,1.619125485420227
1772876982299935000,4.47993505859375,-0.32664602994918823,1.4035758972167969,1.6405421495437622
1772876982309866200,4.4898662109375,-0.465300053358078,1.4846882820129395,1.6776766777038574
1772876982319799300,4.49979931640625,-0.7946744561195374,1.4447933435440063,1.8074554204940796
1772876982329732000,4.509732177734375,-1.1283107995986938,1.2173181772232056,1.9528405666351318
1772876982339664100,4.5196640625,-1.3228288888931274,0.9393041133880615,2.052630662918091
1772876982349597200,4.52959716796875,-1.2277252674102783,0.603868305683136,1.8372615575790405
1772876982359530200,4.5395302734375,-0.8281080722808838,0.1651199758052826,0.982530951499939
1772876982369463300,4.54946337890625,-0.5162510871887207,0.05879540741443634,0.03482695668935776
1772876982379395300,4.559395263671875,-0.46234366297721863,0.12485591322183609,-0.8571783304214478
1772876982389328100,4.569328125,-0.4148523211479187,0.1662808507680893,-1.5399550199508667
1772876982399261200,4.57926123046875,-0.3288165032863617,0.06811434030532837,-1.9891914129257202
1772876982409193200,4.589193115234375,-0.2488393783569336,-0.11510821431875229,-2.1187870502471924
1772876982419126300,4.599126220703125,-0.21508780121803284,-0.2605208158493042,-1.8918321132659912
1772876982429059300,4.609059326171875,-0.11511380225419998,-0.39508500695228577,-1.3282638788223267
1772876982438992400,4.618992431640625,-0.08953893929719925,-0.4020627439022064,-0.7649232149124146
1772876982448924400,4.62892431640625,-0.12939980626106262,-0.2969594895839691,-0.26041319966316223
1772876982458857200,4.638857177734375,-0.07527530938386917,-0.11173558235168457,0.1742120087146759
1772876982468790300,4.648790283203125,-0.027995681390166283,0.0740571841597557,0.4217139482498169
1772876982478722300,4.658722412109375,-0.03013606369495392,0.23280049860477448,0.4896988570690155
1772876982488655400,4.6686552734375,-0.08296465873718262,0.37807726860046387,0.4545019865036011
1772876982498588400,4.67858837890625,-0.17827919125556946,0.5439050793647766,0.3714294731616974
1772876982508521200,4.688521240234375,-0.2710690498352051,0.6813953518867493,0.24822045862674713
1772876982518453200,4.698453369140625,-0.33617615699768066,0.8362610936164856,0.17946189641952515
1772876982528386300,4.70838623046875,-0.3623124063014984,0.9739289283752441,0.22385039925575256
1772876982538319400,4.7183193359375,-0.38838741183280945,1.0103795528411865,0.3554758131504059
1772876982548252400,4.72825244140625,-0.4029463827610016,0.9691290855407715,0.5751381516456604
1772876982558184400,4.738184326171875,-0.3889690637588501,0.8801521062850952,0.7668843865394592
1772876982568117500,4.748117431640625,-0.317439466714859,0.8511034250259399,0.8373274207115173
1772876982578050300,4.75805029296875,-0.24146854877471924,0.8955765962600708,0.8188304305076599
1772876982587982000,4.767982177734375,-0.19269701838493347,1.0022947788238525,0.7283130288124084
1772876982597915400,4.777915283203125,-0.1639106422662735,1.1713991165161133,0.5149767994880676
1772876982607848400,4.787848388671875,-0.17216643691062927,1.4184964895248413,0.21578608453273773
1772876982617781500,4.797781494140625,-0.2546144425868988,1.4900554418563843,-0.33006471395492554
1772876982627713300,4.80771337890625,-0.3725131154060364,1.1932910680770874,-1.2886031866073608
1772876982637646000,4.81764599609375,-0.2838383615016937,0.6079142093658447,-2.2461585998535156
1772876982647579100,4.8275791015625,0.03538116067647934,0.3828142285346985,-2.521073818206787
1772876982657511200,4.83751123046875,0.2128552794456482,0.6761528849601746,-2.350972890853882
1772876982667444200,4.8474443359375,0.029280124232172966,1.0886400938034058,-1.9288631677627563
1772876982677377300,4.857377197265625,-0.30838820338249207,1.4880430698394775,-0.8284170031547546
1772876982687310300,4.867310302734375,-0.5373042225837708,1.3865007162094116,0.46347230672836304
1772876982697242400,4.877242431640625,-0.5254198312759399,0.889509916305542,1.4779715538024902
1772876982707175200,4.887175048828125,-0.4358758330345154,0.25941506028175354,1.918147325515747
1772876982717108200,4.897108154296875,-0.3698081374168396,-0.2257886528968811,1.9506498575210571
1772876982727040300,4.907040283203125,-0.24495436251163483,-0.3249032497406006,1.7866106033325195
1772876982736973300,4.916973388671875,0.16892510652542114,-0.24465422332286835,1.2721505165100098
1772876982746906400,4.92690625,0.8753863573074341,-0.2125024050474167,0.36783528327941895
1772876982756839200,4.936839111328125,1.3928577899932861,-0.15987621247768402,-0.5870634913444519
1772876982766771200,4.946771240234375,1.617498517036438,-0.03532576560974121,-1.4230276346206665
1772876982776704300,4.956704345703125,1.5668386220932007,-0.09406790882349014,-1.987331748008728
1772876982786637300,4.96663720703125,1.1298197507858276,-0.4621623158454895,-2.0767130851745605
1772876982796570400,4.9765703125,0.6920087933540344,-0.8877402544021606,-1.6651928424835205
1772876982806502400,4.98650244140625,0.36623790860176086,-1.2658920288085938,-1.0133370161056519
1772876982816435500,4.996435546875,0.12479519844055176,-1.4869920015335083,-0.24106347560882568
1772876982826368300,5.0063681640625,0.11106713116168976,-1.4846265316009521,0.4224761426448822
1772876982836300300,5.01630029296875,0.19281180202960968,-1.1031484603881836,0.9799985289573669
1772876982846233300,5.0262333984375,0.2026018351316452,-0.5413423776626587,1.3693255186080933
1772876982856166400,5.03616650390625,0.10629155486822128,-0.06962248682975769,1.5706695318222046
1772876982866099500,5.046099365234375,-0.05765930190682411,0.23502875864505768,1.7337183952331543
1772876982876031500,5.056031494140625,-0.26236531138420105,0.4863336980342865,1.916744351387024
1772876982885964300,5.06596435546875,-0.5357635617256165,0.7296198606491089,2.130657196044922
1772876982895897300,5.0758974609375,-0.9088463187217712,0.8161760568618774,2.253955602645874
1772876982905829000,5.0858291015625,-1.2311021089553833,0.7412983179092407,2.1157400608062744
1772876982915762200,5.09576220703125,-1.4224406480789185,0.6099757552146912,1.8368935585021973
1772876982925695200,5.1056953125,-1.362783670425415,0.5216368436813354,1.510934829711914
1772876982935628300,5.115628173828125,-1.0649142265319824,0.4386753439903259,1.0643669366836548
1772876982945560300,5.125560302734375,-0.7101271152496338,0.1962299644947052,0.3923802971839905
1772876982955493000,5.1354931640625,-0.5545907616615295,-0.1759531944990158,-0.4490332007408142
1772876982965426200,5.14542626953125,-0.6700901985168457,-0.5106787085533142,-1.101183533668518
1772876982975359200,5.155359130859375,-0.8216536045074463,-0.7404101490974426,-1.4800752401351929
1772876982985291300,5.165291259765625,-0.9109363555908203,-0.8742015361785889,-1.621662974357605
1772876982995224300,5.175224365234375,-0.9002240896224976,-0.7708727717399597,-1.522359013557434
1772876983005157000,5.1851572265625,-0.7887207269668579,-0.5149203538894653,-1.2956217527389526
1772876983015089200,5.195089111328125,-0.5796889662742615,-0.22007857263088226,-1.0557321310043335
1772876983025022200,5.205022216796875,-0.35283875465393066,0.015279087238013744,-0.8069926500320435
1772876983034955300,5.214955322265625,-0.16620628535747528,0.1592216044664383,-0.570244312286377
1772876983044888300,5.224888427734375,-0.021733524277806282,0.24130263924598694,-0.38824841380119324
1772876983054820400,5.2348203125,0.08074837177991867,0.352741003036499,-0.24039049446582794
1772876983064753400,5.24475341796875,0.0990472212433815,0.5002849102020264,-0.07118523120880127
1772876983074686200,5.254686279296875,0.056784454733133316,0.6446090936660767,0.07259457558393478
1772876983084618200,5.2646181640625,-0.05170686915516853,0.6811907887458801,0.18210455775260925
1772876983094551300,5.27455126953125,-0.17861421406269073,0.5652221441268921,0.2554927468299866
1772876983104484400,5.284484375,-0.22417877614498138,0.35188987851142883,0.2992817759513855
1772876983114417400,5.29441748046875,-0.20588818192481995,0.1465739905834198,0.33504536747932434
1772876983124349400,5.304349365234375,-0.14803873002529144,0.007820106111466885,0.29893583059310913
1772876983134282200,5.3142822265625,-0.0935714989900589,-0.07207712531089783,0.1605188399553299
1772876983144215300,5.32421533203125,-0.06170064955949783,0.019577961415052414,0.025598570704460144
1772876983154147300,5.334147216796875,-0.0032796829473227262,0.20923657715320587,0.07393920421600342
1772876983164080400,5.344080322265625,-0.05567098408937454,0.41660892963409424,0.2777850031852722
1772876983174013400,5.354013427734375,-0.18029546737670898,0.6791918277740479,0.3674347400665283
1772876983183946500,5.363946533203125,-0.3153795301914215,0.8533846735954285,0.45267534255981445
1772876983193878500,5.37387841796875,-0.3584766685962677,0.9258183836936951,0.39295339584350586
1772876983203811300,5.383811279296875,-0.3047497868537903,0.943088173866272,0.04620824009180069
1772876983213744400,5.393744384765625,-0.05746515840291977,0.8252113461494446,-0.3898945152759552
1772876983223677400,5.403677490234375,0.3803180456161499,0.36327728629112244,-0.7655869126319885
1772876983233609200,5.413609130859375,0.7534964084625244,-0.31835508346557617,-1.1119589805603027
1772876983243542300,5.423542236328125,0.8306095600128174,-0.8303597569465637,-1.2457133531570435
1772876983253475000,5.43347509765625,0.6817426085472107,-0.9489151835441589,-0.8852201104164124
1772876983263407000,5.443406982421875,0.40733712911605835,-0.6441842913627625,0.10981651395559311
1772876983273340200,5.453340087890625,0.19531384110450745,-0.24239718914031982,1.380922794342041
1772876983283273200,5.463273193359375,0.2918030917644501,0.04061347246170044,2.2842884063720703
1772876983293206300,5.473206298828125,0.6470738649368286,0.02889343351125717,2.124115467071533
1772876983303138300,5.48313818359375,0.8554568886756897,-0.11151853948831558,1.1375796794891357
1772876983313071000,5.493071044921875,0.8104949593544006,-0.21023818850517273,0.2585814893245697
1772876983323004000,5.50300390625,0.8613610863685608,-0.32829904556274414,-0.4198252260684967
1772876983332936000,5.51293603515625,1.07338547706604,-0.5939147472381592,-1.058515191078186
1772876983342869000,5.522868896484375,1.1564552783966064,-1.0908139944076538,-1.7611281871795654
1772876983352802000,5.532802001953125,1.1427613496780396,-1.5865896940231323,-2.1721489429473877
1772876983362735000,5.542735107421875,1.0421359539031982,-1.9185625314712524,-1.9986094236373901
1772876983372667100,5.552667236328125,0.7898139357566833,-2.1891918182373047,-1.3636319637298584
1772876983382600200,5.56260009765625,0.4175863265991211,-2.3342599868774414,-0.5577511787414551
1772876983392533000,5.572532958984375,0.20872685313224792,-2.2577097415924072,0.18172451853752136
1772876983402466000,5.582466064453125,0.28295475244522095,-1.93399178981781,0.8006862998008728
1772876983412398000,5.592398193359375,0.46796533465385437,-1.3183605670928955,1.2531379461288452
1772876983422331100,5.6023310546875,0.5497353076934814,-0.512415885925293,1.452517032623291
1772876983432264200,5.61226416015625,0.4385022521018982,0.25047534704208374,1.4970816373825073
1772876983442196000,5.622196044921875,0.23495951294898987,0.790216863155365,1.5072157382965088
1772876983452128800,5.632128662109375,-0.017124924808740616,1.039689064025879,1.502194881439209
1772876983462062000,5.64206201171875,-0.3767065405845642,1.1037862300872803,1.539851188659668
1772876983471995100,5.6519951171875,-0.7190907597541809,1.0275462865829468,1.5572746992111206
1772876983481927000,5.661927001953125,-0.9920626282691956,0.8762398958206177,1.4016621112823486
1772876983491860000,5.67185986328125,-1.1557592153549194,0.6920199990272522,1.027878761291504
1772876983501793000,5.68179296875,-1.2080650329589844,0.5324140787124634,0.5210970044136047
1772876983511725000,5.69172509765625,-1.145493745803833,0.43693870306015015,-0.05331249162554741
1772876983521657900,5.701657958984375,-0.9685837030410767,0.4312041401863098,-0.6233663558959961
1772876983531591000,5.7115908203125,-0.7577433586120605,0.40003475546836853,-1.1207764148712158
1772876983541524000,5.72152392578125,-0.5581189393997192,0.3175790309906006,-1.4502315521240234
1772876983551456000,5.7314560546875,-0.3461664617061615,0.23545832931995392,-1.5380202531814575
1772876983561389000,5.74138916015625,-0.1266423612833023,0.20738035440444946,-1.4664030075073242
1772876983571321900,5.75132177734375,0.07590435445308685,0.20234990119934082,-1.3076168298721313
1772876983581255000,5.7612548828125,0.2773786187171936,0.11371910572052002,-1.1149300336837769
1772876983591187000,5.77118701171875,0.4220511019229889,0.028210865333676338,-0.9249134659767151
1772876983601120000,5.7811201171875,0.48405560851097107,-0.025904035195708275,-0.7583284378051758
1772876983611053000,5.791052978515625,0.5088707208633423,-0.0614902600646019,-0.6129592657089233
1772876983620985000,5.800985107421875,0.5186772346496582,-0.04565856605768204,-0.49263525009155273
1772876983630918100,5.810918212890625,0.5044264197349548,0.02299346588551998,-0.3819766640663147
1772876983640851000,5.820850830078125,0.5025363564491272,0.13809847831726074,-0.29203638434410095
1772876983650784000,5.830783935546875,0.47381576895713806,0.2193097174167633,-0.2242775708436966
1772876983660716000,5.840716064453125,0.40332508087158203,0.2665051817893982,-0.13634160161018372
1772876983670649000,5.850649169921875,0.3179100453853607,0.2651054263114929,0.005972671322524548
1772876983680582100,5.86058203125,0.21417248249053955,0.24480947852134705,0.20538458228111267
1772876983690514200,5.87051416015625,0.1546308547258377,0.270546019077301,0.4109119176864624
1772876983700447000,5.880447021484375,0.14889946579933167,0.26483672857284546,0.5716578960418701
1772876983710380000,5.890380126953125,0.1590607613325119,0.1785431057214737,0.7008318901062012
1772876983720313000,5.90031298828125,0.11530635505914688,0.1432599574327469,0.8364088535308838
1772876983730245000,5.9102451171875,0.032761674374341965,0.18558956682682037,0.8182192444801331
1772876983740178200,5.92017822265625,-0.008430768735706806,0.2743854820728302,0.7423747777938843
1772876983750111000,5.930111083984375,-0.06726399064064026,0.263196736574173,0.720940351486206
1772876983760043000,5.94004296875,-0.12179487943649292,0.21016734838485718,0.751363217830658
1772876983769975800,5.949975830078125,-0.13894855976104736,0.08424404263496399,0.586237370967865
1772876983779908900,5.959908935546875,-0.05505579337477684,-0.2650090157985687,0.0808972492814064
1772876983789842000,5.969842041015625,0.1389634758234024,-0.8021664619445801,-0.5339525938034058
1772876983799774000,5.97977392578125,0.2778715491294861,-1.334462285041809,-0.900198221206665
1772876983809707000,5.98970703125,0.09709326177835464,-1.6830781698226929,-1.1341092586517334
1772876983819639800,5.999639892578125,-0.27333858609199524,-1.551281452178955,-1.2860628366470337
1772876983829572900,6.00957275390625,-0.35492268204689026,-1.1260364055633545,-1.0147628784179688
1772876983839505000,6.0195048828125,0.02743215672671795,-0.8168751001358032,-0.2599157392978668
1772876983849438000,6.02943798828125,0.552686870098114,-0.7013962268829346,0.3674456477165222
1772876983859371000,6.03937109375,0.8906958103179932,-0.9809636473655701,0.5778092741966248
1772876983869303000,6.049302978515625,0.8578534722328186,-1.3595482110977173,0.6790328621864319
1772876983879236000,6.059236083984375,0.6352736353874207,-1.5767335891723633,0.8116284012794495
1772876983889169000,6.0691689453125,0.44862014055252075,-1.4840883016586304,0.8532326221466064
1772876983899102000,6.07910205078125,0.3836640417575836,-1.074749231338501,0.8023260235786438
1772876983909034000,6.089033935546875,0.41039177775382996,-0.4287460148334503,0.6629270911216736
1772876983918967000,6.098967041015625,0.3085176348686218,0.21672990918159485,0.36184608936309814
1772876983928900000,6.108900146484375,0.22459955513477325,0.4366137981414795,-0.23044759035110474
1772876983938832100,6.11883203125,0.27977144718170166,0.13038091361522675,-0.8288266062736511
1772876983948765000,6.128764892578125,0.4450022280216217,-0.35080409049987793,-1.0532474517822266
1772876983958698000,6.138697998046875,0.5734986662864685,-0.7277976870536804,-0.9397743940353394
1772876983968631000,6.148631103515625,0.7673520445823669,-0.8920708298683167,-0.6333359479904175
1772876983978563000,6.15856298828125,0.8465296626091003,-0.8281940817832947,-0.15751825273036957
1772876983988496100,6.16849609375,0.820625901222229,-0.7714208364486694,0.33046847581863403
1772876983998429200,6.17842919921875,0.6448157429695129,-0.6648253798484802,0.7808534502983093
1772876984008362000,6.188362060546875,0.3297067880630493,-0.4444237947463989,1.1313624382019043
1772876984018294000,6.1982939453125,-0.00008362325752386823,-0.09298959374427795,1.272725224494934
1772876984028227000,6.20822705078125,-0.3239370584487915,0.324496328830719,1.223205327987671
1772876984038160100,6.21816015625,-0.6220923066139221,0.6974571347236633,1.090566635131836
1772876984048092000,6.228091796875,-0.8483870029449463,0.9412370324134827,0.8601173758506775
1772876984058025000,6.23802490234375,-0.9488861560821533,0.9943726658821106,0.5307677388191223
1772876984067958000,6.2479580078125,-0.891683042049408,0.9256359338760376,0.18962238729000092
1772876984077891000,6.25789111328125,-0.6747970581054688,0.7812311053276062,-0.13662602007389069
1772876984087822800,6.26782275390625,-0.3541759252548218,0.5540453791618347,-0.35131436586380005
1772876984097756000,6.277755859375,-0.05764225870370865,0.2549438774585724,-0.4599079489707947
1772876984107689000,6.28768896484375,0.1310293823480606,0.005657352972775698,-0.5704757571220398
1772876984117621000,6.29762109375,0.2374200075864792,-0.1428583562374115,-0.6925217509269714
1772876984127554000,6.307553955078125,0.24414901435375214,-0.19122402369976044,-0.7331794500350952
1772876984137486800,6.31748681640625,0.18316370248794556,-0.06679128110408783,-0.7143325209617615
1772876984147420000,6.327419921875,0.11069562286138535,0.07124248892068863,-0.6813585758209229
1772876984157352000,6.33735205078125,0.05913921818137169,0.11478463560342789,-0.6252833008766174
1772876984167285000,6.347284912109375,-0.003041063668206334,0.10968787968158722,-0.5330005288124084
1772876984177218000,6.357218017578125,-0.10639861226081848,0.10064591467380524,-0.4291718602180481
1772876984187150000,6.367150146484375,-0.2391665130853653,0.07907164841890335,-0.3327675759792328
1772876984197083000,6.377082763671875,-0.3221636712551117,-0.0480804443359375,-0.285569965839386
1772876984207016000,6.387015869140625,-0.3056288957595825,-0.1547243297100067,-0.30419450998306274
1772876984216949000,6.396948974609375,-0.19521476328372955,-0.13665372133255005,-0.2603096067905426
1772876984226881000,6.406881103515625,-0.010014284402132034,0.014629276469349861,-0.1317034363746643
1772876984236814000,6.41681396484375,0.18128670752048492,0.20544663071632385,-0.03201305866241455
1772876984246747100,6.4267470703125,0.27469202876091003,0.3320346772670746,0.061773352324962616
1772876984256680000,6.436679931640625,0.25429752469062805,0.4395672380924225,0.17713376879692078
1772876984266612000,6.446612060546875,0.15311524271965027,0.5255271792411804,0.30276280641555786
1772876984276545000,6.456544921875,0.015784822404384613,0.6042621731758118,0.34979182481765747
1772876984286478000,6.46647802734375,-0.12043479830026627,0.7756012082099915,0.4458267390727997
1772876984296410000,6.47641015625,-0.13504357635974884,0.871280312538147,0.6606701016426086
1772876984306343200,6.48634326171875,-0.19853758811950684,0.8225250244140625,0.5366325378417969
1772876984316276500,6.4962763671875,-0.3431922495365143,0.6111664175987244,0.2432483434677124
1772876984326209500,6.50620947265625,-0.41274335980415344,0.06494997441768646,-0.19456815719604492
1772876984336141600,6.5161416015625,-0.39699849486351013,-0.6478472352027893,-0.980441689491272
1772876984346074600,6.52607470703125,-0.26007500290870667,-1.1741116046905518,-1.8159499168395996
1772876984356007700,6.536007568359375,0.12413286417722702,-1.5195547342300415,-2.226391315460205
1772876984365939700,6.545939697265625,0.5749479532241821,-1.7209231853485107,-2.1711294651031494
1772876984375872500,6.55587255859375,0.7696378231048584,-1.7249629497528076,-1.87151038646698
1772876984385805600,6.5658056640625,0.7536602020263672,-1.5538228750228882,-1.0913362503051758
1772876984395738600,6.575738525390625,0.6723216772079468,-1.1529189348220825,-0.21849532425403595
1772876984405670700,6.585670654296875,0.4988100826740265,-0.67634117603302,0.4231094419956207
1772876984415603700,6.595603759765625,0.30443286895751953,-0.45446816086769104,0.7337237596511841
1772876984425536500,6.60553662109375,0.09066705405712128,-0.4929761588573456,0.6483140587806702
1772876984435469600,6.615469482421875,-0.043842822313308716,-0.4909273684024811,0.4530702829360962
1772876984445401300,6.6254013671875,0.12229395657777786,-0.396600604057312,0.3978749215602875
1772876984455334400,6.63533447265625,0.5323688387870789,-0.22715379297733307,0.3740929067134857
1772876984465267700,6.645267822265625,0.8091562390327454,-0.21766868233680725,0.1962965428829193
1772876984475199500,6.655199462890625,0.8010671138763428,-0.3293760418891907,-0.13007597625255585
1772876984485132500,6.665132568359375,0.6799271106719971,-0.5767930150032043,-0.47906431555747986
1772876984495065300,6.6750654296875,0.4969077706336975,-0.8173782229423523,-0.796942949295044
1772876984504998400,6.684998291015625,0.17791886627674103,-1.0066365003585815,-0.9415004253387451
1772876984514930400,6.694930419921875,-0.26370808482170105,-1.1080793142318726,-0.7505397796630859
1772876984524863500,6.704863525390625,-0.6415048837661743,-1.1574074029922485,-0.22185303270816803
1772876984534796500,6.714796630859375,-0.7549667358398438,-1.0463535785675049,0.5366671681404114
1772876984544728600,6.724728515625,-0.5541177988052368,-0.6780746579170227,1.3419876098632812
1772876984554661600,6.73466162109375,-0.16394419968128204,-0.06928186863660812,1.9479187726974487
1772876984564594400,6.744594482421875,-0.003493002150207758,0.7900198101997375,2.223278522491455
1772876984574527500,6.754527587890625,-0.2506442070007324,1.6524277925491333,2.186208963394165
1772876984584459500,6.76445947265625,-0.6433984041213989,2.179582118988037,2.0230448246002197
1772876984594392600,6.774392578125,-0.9419262409210205,2.448216199874878,1.950112223625183
1772876984604325600,6.78432568359375,-1.1734540462493896,2.6200637817382812,1.8367408514022827
1772876984614257700,6.794257568359375,-1.4314687252044678,2.627074956893921,1.5027378797531128
1772876984624190500,6.8041904296875,-1.6106241941452026,2.4479947090148926,0.9705749154090881
1772876984634123500,6.81412353515625,-1.723597526550293,2.2777185440063477,0.4096868634223938
1772876984644056600,6.824056640625,-1.7282474040985107,2.2360332012176514,-0.09405752271413803
1772876984653988600,6.833988525390625,-1.4888066053390503,2.0762939453125,-0.5504503846168518
1772876984663921700,6.843921630859375,-1.1167657375335693,1.7671024799346924,-0.9885062575340271
1772876984673854500,6.8538544921875,-0.7545204162597656,1.3475499153137207,-1.3982189893722534
1772876984683787500,6.86378759765625,-0.36567652225494385,0.7892376184463501,-1.6556944847106934
1772876984693719600,6.873719482421875,-0.007979096844792366,0.41631200909614563,-1.7883726358413696
1772876984703652600,6.883652587890625,0.24834881722927094,0.3372270166873932,-1.8631749153137207
1772876984713585700,6.893585693359375,0.3748881220817566,0.3192986249923706,-1.8572843074798584
1772876984723517700,6.903517578125,0.39635133743286133,0.16708512604236603,-1.7235610485076904
1772876984733450800,6.91345068359375,0.38910728693008423,-0.0805976390838623,-1.4150309562683105
1772876984743383600,6.923383544921875,0.37780269980430603,-0.23907943069934845,-0.9721866846084595
1772876984753316600,6.933316650390625,0.3984166085720062,-0.23765170574188232,-0.5330141186714172
1772876984763248400,6.943248291015625,0.4576791524887085,-0.05468375235795975,-0.17363624274730682
1772876984773181400,6.953181396484375,0.44504430890083313,0.19574713706970215,0.13107092678546906
1772876984783114500,6.963114501953125,0.3033047616481781,0.4415193498134613,0.3837069272994995
1772876984793046500,6.973046630859375,0.09208705276250839,0.6177297830581665,0.4952172040939331
1772876984802979600,6.9829794921875,-0.18991613388061523,0.6207370162010193,0.47025299072265625
1772876984812912400,6.992912353515625,-0.43539994955062866,0.5679616928100586,0.3072257339954376
1772876984822845400,7.002845458984375,-0.5531777143478394,0.4799807071685791,0.15743543207645416
1772876984832777500,7.012777587890625,-0.5234912037849426,0.35350215435028076,0.14936578273773193
1772876984842710500,7.02271044921875,-0.30972349643707275,0.3032461702823639,0.2615434527397156
1772876984852643600,7.0326435546875,0.014731542207300663,0.40035220980644226,0.5746569037437439
1772876984862576400,7.042576416015625,0.3972589373588562,0.5447661280632019,1.1115890741348267
1772876984872508400,7.05250830078125,0.6107754707336426,0.8116012811660767,1.5515270233154297
1772876984882441500,7.06244140625,0.4471668601036072,0.9783819913864136,1.8201755285263062
1772876984892374500,7.07237451171875,0.03695135936141014,0.7789655327796936,1.6098248958587646
1772876984902306600,7.082306640625,-0.5687406659126282,0.3782847225666046,0.7834250330924988
1772876984912239600,7.092239501953125,-1.2351291179656982,-0.08399343490600586,-0.32086509466171265
1772876984922172700,7.102172607421875,-1.6585988998413086,-0.42464742064476013,-1.2390093803405762
1772876984932105500,7.11210546875,-1.608366847038269,-0.6114993095397949,-1.5750616788864136
1772876984942037500,7.12203759765625,-1.182708501815796,-0.714597225189209,-1.2581020593643188
1772876984951970600,7.131970458984375,-0.618804395198822,-0.6904865503311157,-0.4071512520313263
1772876984961903600,7.141903564453125,-0.12085425108671188,-0.5114148259162903,0.7102775573730469
1772876984971835600,7.151835693359375,0.24488379061222076,-0.3332655727863312,1.5980799198150635
1772876984981768700,7.161768798828125,0.492989718914032,0.021080784499645233,2.044778347015381
1772876984991701500,7.171701416015625,0.5847886204719543,0.41031190752983093,1.980750560760498
1772876985001634600,7.181634521484375,0.5027198791503906,0.7184590697288513,1.6249730587005615
1772876985011566600,7.191566650390625,0.24944551289081573,0.8209313750267029,1.1786048412322998
1772876985021499600,7.201499755859375,-0.011842544190585613,0.6988286375999451,0.6085307002067566
1772876985031432700,7.2114326171875,-0.1429547518491745,0.38237079977989197,0.012524047866463661
1772876985041365500,7.221365478515625,-0.08803611248731613,-0.0434875562787056,-0.5311983823776245
1772876985051297500,7.231297607421875,0.07645083218812943,-0.4963644742965698,-1.001821517944336
1772876985061230600,7.241230712890625,0.21906763315200806,-0.7477216124534607,-1.1884795427322388
1772876985071163600,7.25116357421875,0.2343057096004486,-0.8087031841278076,-1.1113499402999878
1772876985081095400,7.261095458984375,0.07613977789878845,-0.8290830254554749,-0.8438044786453247
1772876985091028500,7.271028564453125,-0.10289841890335083,-0.7782310843467712,-0.48150163888931274
1772876985100961500,7.28096142578125,-0.13683535158634186,-0.2903708517551422,-0.061407968401908875
1772876985110894300,7.290894287109375,-0.029505694285035133,0.4742479920387268,0.34390756487846375
1772876985120826400,7.300826416015625,-0.16212445497512817,1.0971124172210693,0.8096328973770142
1772876985130759400,7.310759521484375,-0.37057167291641235,1.2314547300338745,1.2082407474517822
1772876985140692500,7.3206923828125,-0.4373219311237335,0.9831905961036682,1.5838109254837036
1772876985150624500,7.33062451171875,-0.3586609363555908,0.7433111667633057,1.838549256324768
1772876985160557600,7.3405576171875,-0.37400367856025696,0.6705490946769714,1.80904221534729
1772876985170490600,7.35049072265625,-0.5395375490188599,0.6959462761878967,1.5768688917160034
1772876985180423400,7.36042333984375,-0.7049147486686707,0.704505443572998,1.1267770528793335
1772876985190355500,7.37035546875,-0.78603196144104,0.7053030729293823,0.5666258931159973
1772876985200288500,7.38028857421875,-0.857754647731781,0.6167508363723755,0.023626498878002167
1772876985210221600,7.3902216796875,-0.8360448479652405,0.4397488832473755,-0.4641234576702118
1772876985220153600,7.400153564453125,-0.7281862497329712,0.18955768644809723,-0.7023304104804993
1772876985230086700,7.410086669921875,-0.6246955394744873,-0.11392523348331451,-0.7499802708625793
1772876985240019500,7.42001953125,-0.472368061542511,-0.3734995424747467,-0.7652340531349182
1772876985249952500,7.429952392578125,-0.2921532988548279,-0.5011160969734192,-0.7010108232498169
1772876985259884500,7.439884521484375,-0.11161574721336365,-0.4954933822154999,-0.5276861786842346
1772876985269817600,7.449817626953125,0.034984614700078964,-0.3754599094390869,-0.33493831753730774
1772876985279750700,7.459750732421875,0.10454238951206207,-0.2246142029762268,-0.25447940826416016
1772876985289683500,7.469683349609375,0.16040298342704773,-0.13897652924060822,-0.4060191512107849
1772876985299615700,7.47961572265625,0.1841125786304474,-0.1634850651025772,-0.6619513034820557
1772876985309548500,7.489548583984375,0.16393433511257172,-0.15085075795650482,-0.9197767376899719
1772876985319481300,7.4994814453125,0.12719257175922394,-0.09241914749145508,-1.0589452981948853
1772876985329413400,7.509413330078125,0.1163330003619194,-0.08597137033939362,-0.9992552995681763
1772876985339346400,7.519346435546875,0.13311544060707092,-0.047081757336854935,-0.7321290969848633
1772876985349279500,7.529279541015625,0.14079226553440094,0.057551708072423935,-0.3456908166408539
1772876985359212300,7.53921240234375,0.089521624147892,0.15134824812412262,0.07069388031959534
1772876985369144300,7.549144287109375,-0.05765477567911148,0.3012317419052124,0.414116233587265
1772876985379077400,7.559077392578125,-0.1820574253797531,0.5542759895324707,0.6943340301513672
1772876985389010400,7.569010498046875,-0.20181433856487274,0.8219702839851379,0.9526835680007935
1772876985398942500,7.5789423828125,-0.20725198090076447,0.9786738753318787,1.2362028360366821
1772876985408875500,7.58887548828125,-0.3260768949985504,0.9162011742591858,1.2248921394348145
1772876985418808600,7.59880859375,-0.5766851305961609,0.8653995394706726,0.8941459655761719
1772876985428741400,7.608741455078125,-0.8174527883529663,0.7526937127113342,0.4528556168079376
1772876985438673400,7.61867333984375,-0.9721992015838623,0.6171841025352478,0.08531969040632248
1772876985448606500,7.6286064453125,-0.902147114276886,0.5743650197982788,-0.2733716070652008
1772876985458539500,7.63853955078125,-0.559041440486908,0.6470173597335815,-0.5291229486465454
1772876985468471300,7.64847119140625,-0.06531695276498795,0.6672568917274475,-0.6476176381111145
1772876985478404400,7.658404296875,0.181172713637352,0.4160933494567871,-0.7779189348220825
1772876985488337200,7.668337158203125,0.12756036221981049,-0.15850256383419037,-0.9344915151596069
1772876985498270200,7.678270263671875,0.025909626856446266,-0.9409163594245911,-0.7454624772071838
1772876985508202200,7.6882021484375,-0.19122667610645294,-1.513163685798645,-0.49018195271492004
1772876985518135300,7.69813525390625,-0.4042840898036957,-1.5560317039489746,-0.3925930857658386
1772876985528068400,7.708068359375,-0.38943031430244446,-1.2360137701034546,-0.3751978576183319
1772876985538001400,7.71800146484375,-0.09580589085817337,-0.7839621901512146,-0.3332376182079315
1772876985547933400,7.727933349609375,0.3444492518901825,-0.30600598454475403,-0.27539509534835815
1772876985557866200,7.7378662109375,0.766517698764801,0.12277145683765411,-0.33190152049064636
1772876985567799300,7.74779931640625,1.0083038806915283,0.33590584993362427,-0.45274004340171814
1772876985577731300,7.7577314453125,1.0382513999938965,0.2803320586681366,-0.5676080584526062
1772876985587664400,7.767664306640625,0.9278823137283325,0.006560430862009525,-0.5939033031463623
1772876985597597400,7.777597412109375,0.7047683000564575,-0.3884769082069397,-0.4829341769218445
1772876985607530200,7.7875302734375,0.39599233865737915,-0.6898724436759949,-0.3059268891811371
1772876985617462300,7.797462158203125,0.1522044539451599,-0.7768797874450684,-0.14892876148223877
1772876985627395300,7.807395263671875,0.01679416000843048,-0.6430114507675171,0.07762874662876129
1772876985637328400,7.817328369140625,0.050616305321455,-0.4177274703979492,0.37964746356010437
1772876985647260400,7.827260498046875,0.13562627136707306,-0.21008425951004028,0.655264139175415
1772876985657193500,7.837193359375,0.1557411253452301,-0.055746354162693024,0.8264822363853455
1772876985667126500,7.84712646484375,0.14427702128887177,-0.01998302899301052,0.8570600748062134
1772876985677059300,7.857059326171875,0.1494760364294052,0.03476490452885628,0.7252727746963501
1772876985686991400,7.866991455078125,0.14163729548454285,0.17087693512439728,0.5216243267059326
1772876985696924400,7.87692431640625,0.1312866508960724,0.29897844791412354,0.31946027278900146
1772876985706857500,7.886857421875,0.11946407705545425,0.304249107837677,0.20823416113853455
1772876985716790500,7.89679052734375,-0.002213353058323264,0.2147727608680725,0.17153207957744598
1772876985726722600,7.90672265625,-0.14000050723552704,0.08499372005462646,0.1512523740530014
1772876985736655400,7.9166552734375,-0.16517271101474762,0.0034727619495242834,0.0936812162399292
1772876985746588400,7.92658837890625,-0.1205567717552185,0.04761731997132301,0.009403888136148453
1772876985756520200,7.936520263671875,0.005379585549235344,0.14498674869537354,-0.09854814410209656
1772876985766453200,7.946453369140625,0.1804339587688446,0.27604782581329346,-0.2324763834476471
1772876985776386300,7.95638623046875,0.2956329882144928,0.38019686937332153,-0.28363171219825745
1772876985786319600,7.966319580078125,0.35810568928718567,0.4293020963668823,-0.25868934392929077
1772876985796251400,7.97625146484375,0.3507324457168579,0.4054582715034485,-0.1986885964870453
1772876985806182400,7.986182373046875,0.28149399161338806,0.20952099561691284,-0.06375447660684586
1772876985816115500,7.996115478515625,0.14357660710811615,-0.041427865624427795,0.056354086846113205
1772876985826048300,8.00604833984375,0.06933646649122238,-0.25362080335617065,0.115972138941288
1772876985835980300,8.015980224609375,0.10014257580041885,-0.3665095567703247,0.14947710931301117
1772876985845913300,8.025913330078126,0.1483364701271057,-0.3360259532928467,0.1385008841753006
1772876985855846400,8.035846435546874,0.21747532486915588,-0.18736030161380768,0.07441990822553635
1772876985865779500,8.045779541015625,0.3065394163131714,0.05639589950442314,-0.0010910971323028207
1772876985875711500,8.05571142578125,0.31651243567466736,0.2695728838443756,-0.08327251672744751
1772876985885644500,8.06564453125,0.26602903008461,0.38017821311950684,-0.14675669372081757
1772876985895577300,8.075577392578126,0.19665393233299255,0.3993583023548126,-0.11210336536169052
1772876985905509400,8.08550927734375,0.13936907052993774,0.35767796635627747,0.023674702271819115
1772876985915442400,8.0954423828125,0.1653820425271988,0.2726954519748688,0.17087587714195251
1772876985925375500,8.10537548828125,0.251763254404068,0.14633750915527344,0.29198870062828064
1772876985935308500,8.11530859375,0.32945913076400757,0.054303184151649475,0.4101102948188782
1772876985945240300,8.125240234375,0.37469956278800964,0.04168752580881119,0.5117511749267578
1772876985955173400,8.13517333984375,0.37300845980644226,0.1784467101097107,0.6375343799591064
1772876985965106400,8.1451064453125,0.2993731200695038,0.6027452349662781,0.9957982897758484
1772876985975038200,8.1550380859375,0.09202925860881805,1.1101813316345215,1.0911232233047485
1772876985984971300,8.16497119140625,-0.1720346063375473,1.4562052488327026,0.7467301487922668
1772876985994904300,8.174904296875,-0.6336432695388794,1.3241692781448364,0.00860334187746048
1772876986004837400,8.18483740234375,-1.169101595878601,0.47957512736320496,-1.1403312683105469
1772876986014769400,8.194769287109375,-1.4708210229873657,-0.6434391736984253,-2.1597952842712402
1772876986024702200,8.2047021484375,-1.2519975900650024,-1.3432073593139648,-2.4903206825256348
1772876986034635300,8.21463525390625,-0.4170648753643036,-1.5008755922317505,-2.3362576961517334
1772876986044568300,8.224568359375,0.6767419576644897,-1.199360966682434,-1.665012001991272
1772876986054500400,8.234500244140625,1.4739339351654053,-0.9879003763198853,-0.6935702562332153
1772876986064433400,8.244433349609375,1.8090757131576538,-0.8737583756446838,-0.10100943595170975
1772876986074366200,8.2543662109375,1.5994218587875366,-0.8979838490486145,-0.11173345893621445
1772876986084298500,8.264298583984376,1.0037307739257812,-0.922236979007721,-0.49567660689353943
1772876986094231300,8.274231201171874,0.3487025797367096,-0.9128516912460327,-0.8576207160949707
1772876986104164400,8.284164306640625,-0.17859025299549103,-0.7794926166534424,-0.9138906002044678
1772876986114097400,8.294097412109375,-0.45521384477615356,-0.4734437167644501,-0.6452777981758118
1772876986124029400,8.304029541015625,-0.30824679136276245,-0.12987516820430756,-0.029104089364409447
1772876986133962500,8.31396240234375,0.07970281690359116,0.06849464029073715,0.6512318253517151
1772876986143895300,8.323895263671876,0.41229090094566345,0.09972153604030609,0.9379437565803528
1772876986153828400,8.333828369140624,0.6420830488204956,0.0772540420293808,0.8086534142494202
1772876986163760400,8.343760498046874,0.7620270252227783,-0.022972160950303078,0.48448172211647034
1772876986173693400,8.353693359375,0.7356100678443909,-0.13866600394248962,0.08550611138343811
1772876986183626500,8.36362646484375,0.6046688556671143,-0.2631666660308838,-0.290762335062027
1772876986193559300,8.373559326171875,0.4161447584629059,-0.2681843042373657,-0.5060845017433167
1772876986203492400,8.383492431640626,0.2627083361148834,-0.02197347581386566,-0.5789797306060791
1772876986213424400,8.39342431640625,0.20649591088294983,0.3673287332057953,-0.4964941740036011
1772876986223357400,8.403357421875,0.13749687373638153,0.6615409255027771,-0.2152974009513855
1772876986233290500,8.41329052734375,-0.014099573716521263,0.7665871977806091,0.23832708597183228
1772876986243223600,8.4232236328125,-0.26850175857543945,0.7449982762336731,0.749123215675354
1772876986253155600,8.433155517578125,-0.5354724526405334,0.679475724697113,1.17044997215271
1772876986263088400,8.44308837890625,-0.7240474224090576,0.5776523947715759,1.3805891275405884
1772876986273021400,8.453021484375,-0.8935858607292175,0.5153858661651611,1.3969297409057617
1772876986282953200,8.462953125,-1.0123378038406372,0.6042073369026184,1.2898194789886475
1772876986292886500,8.472886474609375,-0.9555302262306213,0.7772502303123474,1.035051703453064
1772876986302819600,8.482819580078125,-0.825549304485321,0.8699061274528503,0.6541615724563599
1772876986312752400,8.49275244140625,-0.6214544773101807,0.8429458737373352,0.3078156113624573
1772876986322684000,8.502683837890626,-0.29776883125305176,0.7416946291923523,-0.031090807169675827
1772876986332616700,8.51261669921875,0.015853265300393105,0.7328063249588013,-0.2960769236087799
1772876986342549800,8.5225498046875,0.16087277233600616,0.7588054537773132,-0.4772794842720032
1772876986352482800,8.53248291015625,0.10793206095695496,0.5965067744255066,-0.6345625519752502
1772876986362414800,8.542414794921875,0.06100316718220711,0.15017804503440857,-0.6758559346199036
1772876986372348000,8.552347900390625,0.10197590291500092,-0.2699017822742462,-0.5797118544578552
1772876986382280700,8.56228076171875,0.1517501175403595,-0.5816625952720642,-0.4071078598499298
1772876986392213000,8.572212890625,0.19051535427570343,-0.7394261360168457,-0.3369236886501312
1772876986402145800,8.582145751953124,0.2517813742160797,-0.7881451845169067,-0.4318952262401581
1772876986412078800,8.592078857421875,0.337090402841568,-0.7564413547515869,-0.6055591702461243
1772876986422012000,8.602011962890625,0.4289524257183075,-0.6072942018508911,-0.7787330746650696
1772876986431944000,8.61194384765625,0.45713531970977783,-0.4318084120750427,-0.8630514144897461
1772876986441877000,8.621876953125,0.42583438754081726,-0.19833040237426758,-0.8336256146430969
1772876986451809800,8.631809814453124,0.36190229654312134,0.020619524642825127,-0.7451125383377075
1772876986461741800,8.641741943359374,0.27214550971984863,0.1294834166765213,-0.5553862452507019
1772876986471675000,8.6516748046875,0.17919398844242096,0.1583731323480606,-0.2753085494041443
1772876986481608000,8.66160791015625,0.15092480182647705,0.2033320814371109,0.04501807317137718
1772876986491541000,8.671541015625,0.11338115483522415,0.3287464678287506,0.4104173481464386
1772876986501473000,8.68147314453125,0.056959424167871475,0.5453032851219177,0.7930065393447876
1772876986511405800,8.69140576171875,-0.043829239904880524,0.76540607213974,1.1576106548309326
1772876986521339000,8.7013388671875,-0.13344168663024902,0.9121811389923096,1.554186463356018
1772876986531272000,8.71127197265625,-0.3550821840763092,1.0002084970474243,1.5484092235565186
1772876986541204000,8.721203857421875,-0.7232384085655212,1.1596359014511108,1.1512067317962646
1772876986551137000,8.731136962890625,-1.1012130975723267,1.313678503036499,0.6060243844985962
1772876986561070000,8.741070068359376,-1.3751405477523804,1.3160064220428467,-0.08979406952857971
1772876986571001900,8.751001953125,-1.3677486181259155,0.9255331754684448,-1.1466742753982544
1772876986580934700,8.7609345703125,-1.0831403732299805,0.16310237348079681,-2.3100829124450684
1772876986590868000,8.770867919921875,-0.5502429008483887,-0.5882994532585144,-2.593792676925659
1772876986600801000,8.780801025390625,-0.014276940375566483,-0.8927065134048462,-1.7511829137802124
1772876986610732800,8.79073291015625,0.44435054063796997,-0.920583963394165,-0.27237480878829956
1772876986620665900,8.800665771484375,0.9951686859130859,-0.7918334007263184,1.1494059562683105
1772876986630598700,8.8105986328125,1.1964133977890015,-0.3933720588684082,1.799562692642212
1772876986640531000,8.820531005859374,0.9768685102462769,-0.18879787623882294,1.58341383934021
1772876986650463700,8.830463623046874,0.5612167119979858,-0.23223111033439636,1.0053465366363525
1772876986660396800,8.840396728515625,0.18940187990665436,-0.25228869915008545,0.36499127745628357
1772876986670329900,8.850329833984375,0.012600214220583439,-0.12241806089878082,-0.27430692315101624
1772876986680262000,8.860261962890625,-0.05602758377790451,0.04797444865107536,-0.8630461096763611
1772876986690195000,8.87019482421875,-0.052564140409231186,0.056527722626924515,-1.1805367469787598
1772876986700127700,8.880127685546874,0.06479497253894806,-0.031132619827985764,-1.0405244827270508
1772876986710060800,8.890060791015625,0.24812591075897217,-0.1217285618185997,-0.614711344242096
1772876986719992800,8.899992919921875,0.36253318190574646,-0.21336448192596436,-0.16591280698776245
1772876986729926000,8.90992578125,0.3247123062610626,-0.27624598145484924,0.2519736588001251
1772876986739859000,8.91985888671875,0.17104338109493256,-0.3853868246078491,0.6136394739151001
1772876986749791000,8.929791015625,-0.041134919971227646,-0.40981629490852356,0.8495012521743774
1772876986759723800,8.939723876953124,-0.18070507049560547,-0.2586509883403778,0.8862842917442322
1772876986769656800,8.94965673828125,-0.21910838782787323,-0.04225877299904823,0.8077614903450012
1772876986779590000,8.95958984375,-0.1858242005109787,0.2556759715080261,0.7361547350883484
1772876986789522000,8.96952197265625,-0.11296090483665466,0.585413932800293,0.7150036096572876
1772876986799455000,8.979455078125,-0.08127062022686005,0.7850729823112488,0.7735702395439148
1772876986809388000,8.989387939453126,-0.14536598324775696,0.8527446985244751,0.8370767831802368
1772876986819320000,8.999320068359374,-0.29451364278793335,0.8047170042991638,0.8608399033546448
1772876986829252900,9.0092529296875,-0.5029824376106262,0.7612781524658203,0.8367716073989868
1772876986839186000,9.01918603515625,-0.7038854360580444,0.7728280425071716,0.760628879070282
1772876986849119000,9.029118896484375,-0.8980642557144165,0.8538861274719238,0.6506877541542053
1772876986859051000,9.039051025390625,-1.019677758216858,0.9634389877319336,0.43260493874549866
1772876986868984000,9.048984130859376,-0.9985998868942261,1.047705888748169,0.1728024035692215
1772876986878916900,9.058916748046874,-0.8021417260169983,1.161186695098877,-0.03452788293361664
1772876986888850000,9.068849853515625,-0.48519599437713623,1.1554545164108276,-0.1512148231267929
1772876986898781700,9.07878173828125,-0.18807749450206757,0.9213176369667053,-0.1913156360387802
1772876986908714800,9.08871484375,-0.031922779977321625,0.5495113134384155,-0.20845280587673187
1772876986918647800,9.098647705078125,0.008157262578606606,0.1443191021680832,-0.2922702133655548
1772876986928579800,9.108579833984376,-0.026735739782452583,-0.24957174062728882,-0.39983874559402466
1772876986938513000,9.118512939453124,-0.10395649075508118,-0.4593164622783661,-0.516893744468689
1772876986948445700,9.12844580078125,-0.10056442767381668,-0.4812944531440735,-0.7034239172935486
1772876986958378800,9.138378662109375,-0.03886750340461731,-0.41029590368270874,-0.8538456559181213
1772876986968310800,9.148310791015625,0.05444619804620743,-0.35150638222694397,-0.9190523624420166
1772876986978243800,9.158243896484375,0.1754991114139557,-0.3296157121658325,-0.9246037006378174
1772876986988177000,9.168177001953126,0.3114739954471588,-0.34675395488739014,-0.878748893737793
1772876986998109000,9.17810888671875,0.4054121971130371,-0.3619387745857239,-0.7503653168678284
1772876987008042000,9.1880419921875,0.43284863233566284,-0.3365444540977478,-0.5608521103858948
1772876987017974800,9.197974853515625,0.37471848726272583,-0.26981204748153687,-0.3274063467979431
1772876987027907800,9.207907958984375,0.2564496397972107,-0.17972369492053986,-0.09257973730564117
1772876987037840000,9.21783984375,0.12647804617881775,-0.062360312789678574,0.0977577194571495
1772876987047773000,9.22777294921875,0.015793610364198685,-0.013673467561602592,0.2650447189807892
1772876987057706000,9.2377060546875,-0.06168600171804428,-0.01835104450583458,0.4209083318710327
1772876987067638800,9.247638671875,-0.07737121731042862,0.01504180021584034,0.5669553279876709
1772876987077570800,9.25757080078125,-0.011604724451899529,0.17006626725196838,0.7172987461090088
1772876987087504000,9.26750390625,0.0937853455543518,0.3319268226623535,0.9734474420547485
1772876987097437000,9.27743701171875,0.07290510088205338,0.5714155435562134,1.0695241689682007
1772876987107369000,9.287368896484375,-0.07335011661052704,0.9301068782806396,1.1796602010726929
1772876987117302000,9.297302001953126,-0.2712229788303375,0.9885307550430298,1.2616938352584839
1772876987127234800,9.30723486328125,-0.4051605463027954,0.7387875318527222,0.9133739471435547
1772876987137168000,9.31716796875,-0.38718181848526,0.17780594527721405,0.09149183332920074
1772876987147100000,9.327099853515625,-0.18990015983581543,-0.41105037927627563,-0.747394323348999
1772876987157033000,9.337032958984375,-0.02473916858434677,-0.6046456694602966,-1.0763189792633057
1772876987166966000,9.346966064453126,-0.06535211205482483,-0.5923069715499878,-0.8445919752120972
1772876987176897800,9.356897705078126,-0.09081698954105377,-0.7686724662780762,-0.456145703792572
1772876987186830800,9.366830810546874,0.20741018652915955,-1.0139505863189697,0.14446742832660675
1772876987196764000,9.376763916015625,0.46384117007255554,-0.8258143067359924,0.7139356732368469
1772876987206697000,9.386697021484375,0.47214144468307495,-0.5581122636795044,0.8297064900398254
1772876987216628700,9.396628662109375,0.2634550631046295,-0.5409162640571594,0.5095567107200623
1772876987226561800,9.406561767578125,0.0532618910074234,-0.6458922028541565,0.08492208272218704
1772876987236494800,9.416494873046876,-0.026760507375001907,-0.6012416481971741,-0.17177414894104004
1772876987246427000,9.426427001953124,0.01835796795785427,-0.39816200733184814,-0.30821162462234497
1772876987256360000,9.43635986328125,0.05829579755663872,-0.24274499714374542,-0.3544595539569855
1772876987266292700,9.446292724609375,0.05967051908373833,-0.10046455264091492,-0.2276374250650406
1772876987276225800,9.456225830078125,0.08206291496753693,0.011825766414403915,0.045996785163879395
1772876987286157800,9.46615771484375,0.12186624854803085,0.12507295608520508,0.33938100934028625
1772876987296091000,9.4760908203125,0.08874904364347458,0.22589491307735443,0.5798290371894836
1772876987306024000,9.48602392578125,-0.016998957842588425,0.2854578495025635,0.692323625087738
1772876987315956500,9.49595654296875,-0.14461417496204376,0.28872421383857727,0.7376519441604614
1772876987325889300,9.50588916015625,-0.2457498461008072,0.192024827003479,0.7204857468605042
1772876987335822300,9.515822265625,-0.29633471369743347,0.0312761627137661,0.6197662949562073
1772876987345755400,9.52575537109375,-0.29911985993385315,-0.07174129784107208,0.4477836489677429
1772876987355687400,9.5356875,-0.2670876383781433,-0.05957251787185669,0.21782340109348297
1772876987365620500,9.545620361328124,-0.22551675140857697,0.049547046422958374,-0.025078454986214638
1772876987375553300,9.55555322265625,-0.18056951463222504,0.24767345190048218,-0.22693407535552979
1772876987385486300,9.565486328125,-0.16111698746681213,0.3472689986228943,-0.34028008580207825
1772876987395418400,9.57541845703125,-0.1796342134475708,0.34075891971588135,-0.3857751190662384
1772876987405351400,9.585351318359375,-0.2140084207057953,0.22096247971057892,-0.40227261185646057
1772876987415284500,9.595284423828126,-0.21129439771175385,-0.015090003609657288,-0.4026300013065338
1772876987425216500,9.605216552734374,-0.15836887061595917,-0.20373554527759552,-0.4093957543373108
1772876987435149300,9.6151494140625,-0.0657486543059349,-0.31645119190216064,-0.42027610540390015
1772876987445082400,9.625082275390625,0.0059929112903773785,-0.2809464633464813,-0.4066673517227173
1772876987455015400,9.635015380859375,0.07944129407405853,-0.14424745738506317,-0.3951971232891083
1772876987464947500,9.644947509765625,0.1319420486688614,-0.0020897823851555586,-0.3869679570198059
1772876987474880500,9.654880615234376,0.1269845813512802,0.03177870064973831,-0.3511239290237427
1772876987484813600,9.6648134765625,0.11471379548311234,-0.029688652604818344,-0.29264703392982483
1772876987494745600,9.67474560546875,0.14973969757556915,-0.04972201585769653,-0.21952517330646515
1772876987504678400,9.684678466796875,0.24104191362857819,0.013612215407192707,-0.11838789284229279
1772876987514611500,9.694611572265625,0.35281237959861755,0.07085339725017548,-0.01363378670066595
1772876987524544500,9.70454443359375,0.4434320330619812,0.15665006637573242,0.03116564266383648
1772876987534476500,9.7144765625,0.486070841550827,0.24741990864276886,0.009513876400887966
1772876987544409600,9.72440966796875,0.47254490852355957,0.2780510485172272,-0.030734742060303688
1772876987554342400,9.73434228515625,0.4045528173446655,0.2914254665374756,-0.07747215777635574
1772876987564274400,9.7442744140625,0.29989564418792725,0.31711962819099426,-0.10092581808567047
1772876987574207200,9.754207275390625,0.2190287560224533,0.30462542176246643,-0.042862776666879654
1772876987584140300,9.764140380859375,0.13365153968334198,0.30170872807502747,0.07188563793897629
1772876987594073600,9.774073486328126,0.10342785716056824,0.3452463448047638,0.18143850564956665
1772876987604005400,9.78400537109375,0.10289096087217331,0.36953943967819214,0.16177184879779816
1772876987613938400,9.7939384765625,0.04465561732649803,0.32886257767677307,0.07403028756380081
1772876987623871200,9.803871337890625,-0.033250097185373306,0.302194207906723,-0.04318661987781525
1772876987633804300,9.81380419921875,-0.0767459124326706,0.3383013606071472,-0.17274221777915955
1772876987643736300,9.823736328125,-0.08244401216506958,0.4265665113925934,-0.11511540412902832
1772876987653669400,9.83366943359375,-0.07315490394830704,0.47168469429016113,-0.21532243490219116
1772876987663602400,9.8436025390625,-0.10332665592432022,0.253296434879303,-0.3037750720977783
1772876987673534500,9.853534423828124,-0.11778229475021362,0.03831756114959717,-0.329316109418869
1772876987683467300,9.86346728515625,-0.0987289771437645,-0.09395472705364227,-0.31630071997642517
1772876987693400300,9.873400390625,-0.1002269983291626,-0.15085582435131073,-0.3092891275882721
1772876987703333400,9.88333349609375,-0.1342933624982834,-0.16801457107067108,-0.34438055753707886
1772876987713265400,9.893265380859376,-0.2152491956949234,-0.22481100261211395,-0.4202795624732971
1772876987723198500,9.903198486328124,-0.24849636852741241,-0.33872851729393005,-0.5083950757980347
1772876987733131500,9.913131591796875,-0.23513342440128326,-0.45792174339294434,-0.6136476993560791
1772876987743063600,9.9230634765625,-0.21567343175411224,-0.5563039779663086,-0.7359791994094849
