time,seconds_elapsed,z,y,x
1772806469859414000,0.0574140625,-0.759002685546875,-0.21038818359375,0.199493408203125
1772806469869345000,0.067344970703125,-0.7161102294921875,-0.2097015380859375,0.1759185791015625
1772806469879277000,0.077277099609375,-0.665496826171875,-0.2080230712890625,0.14801025390625
1772806469889208000,0.0872080078125,-0.602569580078125,-0.2080230712890625,0.1131134033203125
1772806469899138800,0.097138916015625,-0.52862548828125,-0.203216552734375,0.0837554931640625
1772806469909070800,0.10707080078125,-0.4674835205078125,-0.1907196044921875,0.05499267578125
1772806469919002000,0.117002197265625,-0.416656494140625,-0.17547607421875,0.0360260009765625
1772806469928934100,0.12693408203125,-0.3625335693359375,-0.1567840576171875,0.055572509765625
1772806469938865000,0.136864990234375,-0.3095855712890625,-0.15911865234375,0.130462646484375
1772806469948797000,0.146796875,-0.2764434814453125,-0.1603240966796875,0.240753173828125
1772806469958728200,0.156728271484375,-0.219970703125,-0.1711578369140625,0.3362579345703125
1772806469968659200,0.1666591796875,-0.166961669921875,-0.137237548828125,0.3455963134765625
1772806469978591000,0.176591064453125,-0.1376800537109375,-0.074462890625,0.305145263671875
1772806469988522000,0.18652197265625,-0.1634368896484375,-0.0080413818359375,0.243011474609375
1772806469998454000,0.1964541015625,-0.2477874755859375,0.0828857421875,0.1761016845703125
1772806470008385000,0.206385009765625,-0.384429931640625,0.1748504638671875,0.10919189453125
1772806470018317000,0.216317138671875,-0.5651397705078125,0.258087158203125,0.0806427001953125
1772806470028248000,0.226248046875,-0.77008056640625,0.319244384765625,0.152099609375
1772806470038179000,0.236178955078125,-0.96990966796875,0.3387908935546875,0.2481231689453125
1772806470048110800,0.24611083984375,-1.1025238037109375,0.33038330078125,0.3525848388671875
1772806470058042000,0.2560419921875,-1.1266326904296875,0.3213653564453125,0.40740966796875
1772806470067974100,0.26597412109375,-1.0586090087890625,0.325225830078125,0.4163665771484375
1772806470077905000,0.27590478515625,-0.9364776611328125,0.3260650634765625,0.385650634765625
1772806470087837000,0.2858369140625,-0.8472137451171875,0.34039306640625,0.309814453125
1772806470097768200,0.295768310546875,-0.7856597900390625,0.3913116455078125,0.2599945068359375
1772806470107699200,0.30569921875,-0.7683258056640625,0.438140869140625,0.20526123046875
1772806470117631000,0.315630859375,-0.814788818359375,0.50836181640625,0.1930694580078125
1772806470127562000,0.32556201171875,-0.8974761962890625,0.584075927734375,0.2036895751953125
1772806470137494000,0.335493896484375,-1.0348968505859375,0.644317626953125,0.2675933837890625
1772806470147425000,0.345425048828125,-1.2205810546875,0.6757965087890625,0.455352783203125
1772806470157357000,0.355357177734375,-1.4202880859375,0.677764892578125,0.6164398193359375
1772806470167288000,0.3652880859375,-1.55810546875,0.683868408203125,0.598846435546875
1772806470177219000,0.375218994140625,-1.6113739013671875,0.7093963623046875,0.4616241455078125
1772806470187150800,0.38515087890625,-1.5826263427734375,0.7292633056640625,0.28619384765625
1772806470197082000,0.39508203125,-1.472137451171875,0.713165283203125,0.152679443359375
1772806470207014100,0.40501416015625,-1.32269287109375,0.69012451171875,0.09259033203125
1772806470216945000,0.41494482421875,-1.1632080078125,0.6587677001953125,0.0884246826171875
1772806470226877000,0.424876953125,-1.0209197998046875,0.6298675537109375,0.1041412353515625
1772806470236808000,0.434807861328125,-0.921875,0.610137939453125,0.1746978759765625
1772806470246739200,0.4447392578125,-0.8718719482421875,0.5876922607421875,0.267852783203125
1772806470256671000,0.4546708984375,-0.8790435791015625,0.596649169921875,0.3234710693359375
1772806470266601700,0.464601806640625,-0.92431640625,0.625,0.310943603515625
1772806470276533800,0.47453369140625,-0.9732513427734375,0.664093017578125,0.2532196044921875
1772806470286465000,0.484465087890625,-1.0030670166015625,0.6942291259765625,0.19403076171875
1772806470296397000,0.49439697265625,-1.0010223388671875,0.71148681640625,0.1494293212890625
1772806470306327800,0.504327880859375,-0.967742919921875,0.7220306396484375,0.120635986328125
1772806470316258800,0.5142587890625,-0.9344024658203125,0.722503662109375,0.1072540283203125
1772806470326190800,0.52419091796875,-0.873748779296875,0.713104248046875,0.1131439208984375
1772806470336122000,0.5341220703125,-0.7772216796875,0.7264862060546875,0.161651611328125
1772806470346054000,0.544053955078125,-0.695770263671875,0.728515625,0.24725341796875
1772806470355985000,0.55398486328125,-0.676605224609375,0.720062255859375,0.296478271484375
1772806470365917000,0.5639169921875,-0.7199249267578125,0.72998046875,0.29473876953125
1772806470375848000,0.573847900390625,-0.7852325439453125,0.7399139404296875,0.2619781494140625
1772806470385779000,0.583779052734375,-0.870758056640625,0.75372314453125,0.23651123046875
1772806470395711000,0.5937109375,-0.9472503662109375,0.754974365234375,0.220245361328125
1772806470405642000,0.60364208984375,-1.00604248046875,0.7513275146484375,0.2253265380859375
1772806470415573800,0.61357373046875,-1.0444488525390625,0.735015869140625,0.2542724609375
1772806470425505000,0.623505126953125,-1.0618896484375,0.723388671875,0.29193115234375
1772806470435436000,0.63343603515625,-1.053497314453125,0.7029266357421875,0.3240814208984375
1772806470445367800,0.643367919921875,-1.0147705078125,0.6814727783203125,0.3488311767578125
1772806470455298800,0.653298828125,-0.95660400390625,0.6595458984375,0.3598785400390625
1772806470465230800,0.66323095703125,-0.859405517578125,0.645111083984375,0.336578369140625
1772806470475162000,0.673162109375,-0.7386474609375,0.641876220703125,0.321319580078125
1772806470485094000,0.683093994140625,-0.6305084228515625,0.64117431640625,0.282623291015625
1772806470495025000,0.69302490234375,-0.5622100830078125,0.6462249755859375,0.23272705078125
1772806470504956000,0.702955810546875,-0.529266357421875,0.6584625244140625,0.1966400146484375
1772806470514888000,0.712887939453125,-0.5230865478515625,0.659271240234375,0.17303466796875
1772806470524819000,0.72281884765625,-0.5301513671875,0.6490325927734375,0.178619384765625
1772806470534751000,0.7327509765625,-0.5459136962890625,0.6228485107421875,0.214691162109375
1772806470544682000,0.742681884765625,-0.564788818359375,0.599884033203125,0.279388427734375
1772806470554613800,0.75261376953125,-0.6005706787109375,0.5801849365234375,0.337860107421875
1772806470564545000,0.762544921875,-0.62847900390625,0.5590362548828125,0.380096435546875
1772806470574476000,0.77247607421875,-0.6581268310546875,0.568389892578125,0.394683837890625
1772806470584407800,0.78240771484375,-0.695037841796875,0.5897216796875,0.394683837890625
1772806470594338800,0.7923388671875,-0.73114013671875,0.6167755126953125,0.3848724365234375
1772806470604270800,0.802270751953125,-0.77001953125,0.659698486328125,0.3629302978515625
1772806470614202000,0.8122021484375,-0.7882232666015625,0.7196044921875,0.3259429931640625
1772806470624134000,0.8221337890625,-0.784088134765625,0.8014068603515625,0.2647857666015625
1772806470634065000,0.83206494140625,-0.785797119140625,0.8809967041015625,0.191619873046875
1772806470643996000,0.841995849609375,-0.801422119140625,0.94744873046875,0.1242523193359375
1772806470653927700,0.851927734375,-0.8409271240234375,0.9989013671875,0.0757293701171875
1772806470663859000,0.86185888671875,-0.8787841796875,1.030303955078125,0.0494537353515625
1772806470673791000,0.871791015625,-0.9200286865234375,1.042510986328125,0.0697479248046875
1772806470683722000,0.881721923828125,-0.93878173828125,1.0240631103515625,0.138519287109375
1772806470693653800,0.89165380859375,-0.9529571533203125,0.98388671875,0.24652099609375
1772806470703585000,0.9015849609375,-0.960540771484375,0.8963775634765625,0.4107818603515625
1772806470713516000,0.91151611328125,-0.952301025390625,0.7834320068359375,0.5889739990234375
1772806470723448000,0.921447998046875,-0.9194793701171875,0.7031402587890625,0.725494384765625
1772806470733378800,0.93137890625,-0.8509979248046875,0.638702392578125,0.8238983154296875
1772806470743310800,0.941310791015625,-0.80523681640625,0.6151885986328125,0.8202362060546875
1772806470753242000,0.9512421875,-0.7310791015625,0.606842041015625,0.77874755859375
1772806470763174000,0.961173828125,-0.646636962890625,0.614288330078125,0.6984710693359375
1772806470773105000,0.97110498046875,-0.5911102294921875,0.6501007080078125,0.598297119140625
1772806470783036000,0.981035888671875,-0.5665435791015625,0.6954803466796875,0.498321533203125
1772806470792968000,0.990968017578125,-0.5492095947265625,0.7312164306640625,0.40399169921875
1772806470802899000,1.00089892578125,-0.54510498046875,0.759918212890625,0.3188629150390625
1772806470812831000,1.0108310546875,-0.553802490234375,0.75555419921875,0.2405242919921875
1772806470822762000,1.020761962890625,-0.5306396484375,0.7555694580078125,0.18231201171875
1772806470832693800,1.03069384765625,-0.4811248779296875,0.772186279296875,0.142425537109375
1772806470842625000,1.040625,-0.4188690185546875,0.7823944091796875,0.0951690673828125
1772806470852556000,1.05055615234375,-0.3855133056640625,0.790771484375,0.0606689453125
1772806470862488000,1.060488037109375,-0.3845367431640625,0.804779052734375,0.0356292724609375
1772806470872418800,1.070418701171875,-0.4196624755859375,0.8240814208984375,-0.0002593994140625
1772806470882350800,1.080350830078125,-0.459320068359375,0.82940673828125,-0.04132080078125
1772806470892282000,1.0902822265625,-0.480743408203125,0.841583251953125,-0.0721893310546875
1772806470902214000,1.1002138671875,-0.4691009521484375,0.8356475830078125,-0.0858001708984375
1772806470912145000,1.110144775390625,-0.4190826416015625,0.832977294921875,-0.056884765625
1772806470922076000,1.120075927734375,-0.378387451171875,0.8208770751953125,-0.0055694580078125
1772806470932008000,1.130008056640625,-0.3459930419921875,0.8032073974609375,0.060546875
1772806470941939000,1.13993896484375,-0.327850341796875,0.792022705078125,0.138458251953125
1772806470951871000,1.14987109375,-0.320220947265625,0.7826995849609375,0.1923370361328125
1772806470961802000,1.159802001953125,-0.3409423828125,0.7872772216796875,0.2474212646484375
1772806470971733800,1.169733642578125,-0.3875732421875,0.801849365234375,0.2840423583984375
1772806470981665000,1.1796650390625,-0.4279937744140625,0.82965087890625,0.28814697265625
1772806470991596000,1.189595947265625,-0.469573974609375,0.8633880615234375,0.26873779296875
1772806471001528000,1.199528076171875,-0.5093231201171875,0.88861083984375,0.2266845703125
1772806471011458800,1.209458740234375,-0.54302978515625,0.9038543701171875,0.1833038330078125
1772806471021390800,1.219390869140625,-0.561248779296875,0.8978729248046875,0.143890380859375
1772806471031322000,1.229322021484375,-0.5571746826171875,0.87744140625,0.116943359375
1772806471041254000,1.23925390625,-0.5477447509765625,0.848358154296875,0.10357666015625
1772806471051185000,1.249184814453125,-0.5284423828125,0.814422607421875,0.09503173828125
1772806471061116000,1.259115966796875,-0.49627685546875,0.7854156494140625,0.106475830078125
1772806471071048000,1.2690478515625,-0.4812164306640625,0.7552490234375,0.118621826171875
1772806471080979000,1.27897900390625,-0.47021484375,0.7289886474609375,0.1247100830078125
1772806471090911000,1.288910888671875,-0.4714202880859375,0.723724365234375,0.1247100830078125
1772806471100842000,1.298842041015625,-0.491241455078125,0.719696044921875,0.1204071044921875
1772806471110773800,1.308773681640625,-0.5086212158203125,0.7216033935546875,0.1395263671875
1772806471120704800,1.318704833984375,-0.5219268798828125,0.7416229248046875,0.1632843017578125
1772806471130636000,1.328635986328125,-0.534088134765625,0.75213623046875,0.191619873046875
1772806471140568000,1.338568115234375,-0.553741455078125,0.7600250244140625,0.2310638427734375
1772806471150498800,1.348498779296875,-0.612762451171875,0.78155517578125,0.2313995361328125
1772806471160430800,1.358430908203125,-0.6264495849609375,0.8044586181640625,0.2258148193359375
1772806471170362000,1.368362060546875,-0.6212158203125,0.81280517578125,0.22723388671875
1772806471180292900,1.37829296875,-0.60028076171875,0.8109893798828125,0.227935791015625
1772806471190225000,1.388224853515625,-0.5680084228515625,0.8129119873046875,0.2293701171875
1772806471200156000,1.398156005859375,-0.5562896728515625,0.805633544921875,0.2435302734375
1772806471210088000,1.408087890625,-0.543914794921875,0.7999267578125,0.264892578125
1772806471220019000,1.41801904296875,-0.54473876953125,0.8076324462890625,0.29583740234375
1772806471229951000,1.427950927734375,-0.5960235595703125,0.80548095703125,0.31561279296875
1772806471239882000,1.437882080078125,-0.6551513671875,0.8078155517578125,0.31329345703125
1772806471249812700,1.447812744140625,-0.692901611328125,0.8094329833984375,0.2850341796875
1772806471259745000,1.4577451171875,-0.7008056640625,0.8070220947265625,0.25006103515625
1772806471269676300,1.46767626953125,-0.6792449951171875,0.800201416015625,0.2316436767578125
1772806471279608300,1.4776083984375,-0.6454010009765625,0.80224609375,0.2123870849609375
1772806471289539000,1.4875390625,-0.59942626953125,0.8001861572265625,0.1960601806640625
1772806471299471000,1.49747119140625,-0.54376220703125,0.8009185791015625,0.185028076171875
1772806471309402000,1.507402099609375,-0.493011474609375,0.805389404296875,0.189544677734375
1772806471319333400,1.51733349609375,-0.462005615234375,0.803436279296875,0.2004241943359375
1772806471329265200,1.52726513671875,-0.450958251953125,0.8113861083984375,0.2113494873046875
1772806471339196200,1.537196044921875,-0.4674224853515625,0.827117919921875,0.2145538330078125
1772806471349128200,1.547128173828125,-0.4983367919921875,0.841583251953125,0.216705322265625
1772806471359059200,1.55705908203125,-0.5269927978515625,0.844482421875,0.2285003662109375
1772806471368991200,1.5669912109375,-0.564178466796875,0.8384552001953125,0.2593841552734375
1772806471378922200,1.576922119140625,-0.586700439453125,0.8286590576171875,0.298187255859375
1772806471388853200,1.586853271484375,-0.59783935546875,0.8234710693359375,0.337677001953125
1772806471398785000,1.596784912109375,-0.5989837646484375,0.8177947998046875,0.3797454833984375
1772806471408716300,1.60671630859375,-0.589752197265625,0.822296142578125,0.4173126220703125
1772806471418648300,1.6166484375,-0.580078125,0.8368682861328125,0.4329681396484375
1772806471428579300,1.626579345703125,-0.5832672119140625,0.8616790771484375,0.42413330078125
1772806471438511000,1.636510986328125,-0.5907745361328125,0.889678955078125,0.3928070068359375
1772806471448442000,1.646442138671875,-0.6008148193359375,0.8989105224609375,0.3574981689453125
1772806471458373400,1.656373291015625,-0.629486083984375,0.8898468017578125,0.3208465576171875
1772806471468305200,1.66630517578125,-0.665008544921875,0.862518310546875,0.3089752197265625
1772806471478236200,1.676236083984375,-0.702606201171875,0.832763671875,0.30572509765625
1772806471488168200,1.686168212890625,-0.7333831787109375,0.8142242431640625,0.279449462890625
1772806471498099200,1.69609912109375,-0.7288970947265625,0.8205108642578125,0.2471160888671875
1772806471508031200,1.70603125,-0.7120361328125,0.841278076171875,0.2110137939453125
1772806471517962200,1.715962158203125,-0.6922760009765625,0.8675537109375,0.1614532470703125
1772806471527893200,1.725893310546875,-0.660064697265625,0.8875732421875,0.1379241943359375
1772806471537825000,1.735824951171875,-0.65289306640625,0.902740478515625,0.12811279296875
1772806471547756300,1.74575634765625,-0.6651611328125,0.9072723388671875,0.113983154296875
1772806471557688300,1.755688232421875,-0.6671295166015625,0.9172210693359375,0.117431640625
1772806471567619300,1.765619384765625,-0.6636810302734375,0.9208221435546875,0.1193389892578125
1772806471577550000,1.775550048828125,-0.623504638671875,0.917510986328125,0.1381683349609375
1772806471587482000,1.785482177734375,-0.5624542236328125,0.92352294921875,0.1642913818359375
1772806471597413400,1.795413330078125,-0.491973876953125,0.9384307861328125,0.1953125
1772806471607345200,1.80534521484375,-0.42681884765625,0.944610595703125,0.2257537841796875
1772806471617276200,1.815276123046875,-0.422943115234375,0.9330291748046875,0.2497406005859375
1772806471627208200,1.825208251953125,-0.4545745849609375,0.8904876708984375,0.2753448486328125
1772806471637139200,1.83513916015625,-0.479522705078125,0.8579254150390625,0.2863616943359375
1772806471647070200,1.8450703125,-0.5105438232421875,0.8191375732421875,0.2854766845703125
1772806471657002200,1.855002197265625,-0.5139617919921875,0.767974853515625,0.317169189453125
1772806471666933200,1.864933349609375,-0.4649505615234375,0.72674560546875,0.380126953125
1772806471676865000,1.874864990234375,-0.412139892578125,0.6875762939453125,0.45709228515625
1772806471686796300,1.88479638671875,-0.346954345703125,0.67767333984375,0.5647735595703125
1772806471696728300,1.894728271484375,-0.24371337890625,0.71112060546875,0.6507720947265625
1772806471706659300,1.904659423828125,-0.1771392822265625,0.7805328369140625,0.65753173828125
1772806471716590000,1.914590087890625,-0.2520904541015625,0.835662841796875,0.5877532958984375
1772806471726522000,1.924522216796875,-0.38153076171875,0.8975067138671875,0.5081939697265625
1772806471736453400,1.934453369140625,-0.5253448486328125,0.940948486328125,0.4226837158203125
1772806471746385200,1.94438525390625,-0.6593780517578125,0.9580078125,0.3669281005859375
1772806471756316200,1.954316162109375,-0.79327392578125,0.9285125732421875,0.3260955810546875
1772806471766247200,1.9642470703125,-0.8955841064453125,0.8973236083984375,0.3162994384765625
1772806471776179200,1.97417919921875,-0.95684814453125,0.867156982421875,0.330047607421875
1772806471786110200,1.984110107421875,-0.9394073486328125,0.812896728515625,0.350433349609375
1772806471796042200,1.994042236328125,-0.883026123046875,0.7656707763671875,0.361846923828125
1772806471805973200,2.00397314453125,-0.7977752685546875,0.7303009033203125,0.3366241455078125
1772806471815905000,2.013905029296875,-0.7130889892578125,0.702362060546875,0.288665771484375
1772806471825836300,2.023836181640625,-0.6351776123046875,0.67022705078125,0.2351226806640625
1772806471835767300,2.033767333984375,-0.5531158447265625,0.6368255615234375,0.2089080810546875
1772806471845699300,2.04369921875,-0.475067138671875,0.5999755859375,0.2022247314453125
1772806471855630000,2.053630126953125,-0.409210205078125,0.5625457763671875,0.213226318359375
1772806471865562000,2.06356201171875,-0.3645782470703125,0.522216796875,0.23876953125
1772806471875493400,2.073493408203125,-0.3444671630859375,0.4783172607421875,0.270233154296875
1772806471885425400,2.08342529296875,-0.3469390869140625,0.459320068359375,0.3080902099609375
1772806471895356200,2.093356201171875,-0.3510589599609375,0.43994140625,0.3270263671875
1772806471905287200,2.103287109375,-0.3621368408203125,0.4290771484375,0.34130859375
1772806471915219200,2.11321923828125,-0.382843017578125,0.42474365234375,0.3513946533203125
1772806471925150200,2.123150146484375,-0.4033050537109375,0.4359130859375,0.3486480712890625
1772806471935082200,2.133082275390625,-0.4311370849609375,0.4527130126953125,0.3473052978515625
1772806471945013200,2.14301318359375,-0.4546051025390625,0.477996826171875,0.34765625
1772806471954945300,2.1529453125,-0.4882965087890625,0.50262451171875,0.3453826904296875
1772806471964876300,2.162876220703125,-0.5224761962890625,0.516326904296875,0.34149169921875
1772806471974807300,2.172807373046875,-0.552459716796875,0.5296478271484375,0.342864990234375
1772806471984739300,2.1827392578125,-0.581939697265625,0.5329132080078125,0.3461456298828125
1772806471994670000,2.192670166015625,-0.6137847900390625,0.532012939453125,0.35064697265625
1772806472004602000,2.20260205078125,-0.6327056884765625,0.5173492431640625,0.368377685546875
1772806472014533400,2.212533447265625,-0.640289306640625,0.5046539306640625,0.382415771484375
1772806472024464100,2.222464111328125,-0.6500701904296875,0.4908905029296875,0.385589599609375
1772806472034396200,2.232396240234375,-0.660247802734375,0.490386962890625,0.379058837890625
1772806472044327200,2.2423271484375,-0.670074462890625,0.4935302734375,0.3629150390625
1772806472054259200,2.25225927734375,-0.671051025390625,0.4944305419921875,0.3439178466796875
1772806472064190200,2.262190185546875,-0.6721038818359375,0.4922637939453125,0.3299102783203125
1772806472074122200,2.272122314453125,-0.700103759765625,0.4954681396484375,0.3159027099609375
1772806472084053200,2.28205322265625,-0.7100067138671875,0.5042266845703125,0.28839111328125
1772806472093984000,2.29198388671875,-0.6880340576171875,0.5221710205078125,0.2603759765625
1772806472103916300,2.301916259765625,-0.6672821044921875,0.5481414794921875,0.2288055419921875
1772806472113847300,2.311847412109375,-0.6605682373046875,0.5919036865234375,0.1870269775390625
1772806472123779300,2.321779296875,-0.6512451171875,0.646881103515625,0.1485595703125
1772806472133710000,2.3317099609375,-0.637176513671875,0.7039794921875,0.125274658203125
1772806472143642000,2.34164208984375,-0.6447296142578125,0.756866455078125,0.1284332275390625
1772806472153573400,2.351573486328125,-0.6609649658203125,0.800933837890625,0.149383544921875
1772806472163504000,2.361504150390625,-0.731414794921875,0.8198699951171875,0.2129364013671875
1772806472173436200,2.371436279296875,-0.8307037353515625,0.822052001953125,0.30877685546875
1772806472183367200,2.3813671875,-0.930267333984375,0.8031768798828125,0.41650390625
1772806472193299200,2.39129931640625,-1.011444091796875,0.7683868408203125,0.5294952392578125
1772806472203230200,2.401230224609375,-1.0604705810546875,0.7266998291015625,0.633270263671875
1772806472213161200,2.4111611328125,-1.1053924560546875,0.69720458984375,0.71026611328125
1772806472223093200,2.42109326171875,-1.1250457763671875,0.6842498779296875,0.7383270263671875
1772806472233024000,2.43102392578125,-1.0946807861328125,0.6936492919921875,0.6956634521484375
1772806472242956300,2.440956298828125,-1.03021240234375,0.729248046875,0.6267242431640625
1772806472252887300,2.45088720703125,-0.9336395263671875,0.7696990966796875,0.548095703125
1772806472262819600,2.460819580078125,-0.84051513671875,0.8084564208984375,0.4912872314453125
1772806472272750300,2.470750244140625,-0.7916107177734375,0.8370513916015625,0.4512939453125
1772806472282681300,2.480681396484375,-0.763458251953125,0.85662841796875,0.4208526611328125
1772806472292613600,2.490613525390625,-0.720367431640625,0.8827667236328125,0.3849639892578125
1772806472302544400,2.50054443359375,-0.667144775390625,0.9054412841796875,0.360748291015625
1772806472312476400,2.510476318359375,-0.637481689453125,0.903900146484375,0.3858184814453125
1772806472322407400,2.520407470703125,-0.6553497314453125,0.8616180419921875,0.461334228515625
1772806472332339500,2.53033935546875,-0.682861328125,0.788055419921875,0.5421142578125
1772806472342270500,2.5402705078125,-0.697021484375,0.7025604248046875,0.629150390625
1772806472352201500,2.550201416015625,-0.682281494140625,0.638214111328125,0.6833648681640625
1772806472362133500,2.560133544921875,-0.65399169921875,0.6134033203125,0.651763916015625
1772806472372064300,2.570064208984375,-0.5898590087890625,0.648712158203125,0.4570159912109375
1772806472381996300,2.579996337890625,-0.4755401611328125,0.7062225341796875,0.195068359375
1772806472391927600,2.589927490234375,-0.33770751953125,0.781707763671875,-0.0326690673828125
1772806472401858300,2.5998583984375,-0.237640380859375,0.837615966796875,-0.1620025634765625
1772806472411790300,2.609790283203125,-0.17242431640625,0.8621368408203125,-0.2046966552734375
1772806472421721300,2.619721435546875,-0.15460205078125,0.8727569580078125,-0.1722259521484375
1772806472431653400,2.6296533203125,-0.1632537841796875,0.863189697265625,-0.0794525146484375
1772806472441584400,2.63958447265625,-0.1918792724609375,0.846527099609375,0.0390625
1772806472451516400,2.649516357421875,-0.2538604736328125,0.8275604248046875,0.198272705078125
1772806472461447400,2.659447509765625,-0.41485595703125,0.8043670654296875,0.34893798828125
1772806472471378400,2.66937841796875,-0.5517730712890625,0.772125244140625,0.46533203125
1772806472481310500,2.679310546875,-0.6615753173828125,0.7528533935546875,0.5717010498046875
1772806472491241500,2.689241455078125,-0.6963043212890625,0.7608642578125,0.6061859130859375
1772806472501173500,2.699173583984375,-0.670654296875,0.798797607421875,0.55780029296875
1772806472511104300,2.709104248046875,-0.6058349609375,0.8419189453125,0.4426422119140625
1772806472521036300,2.719036376953125,-0.5138092041015625,0.876983642578125,0.314849853515625
1772806472530967600,2.728967529296875,-0.4222412109375,0.9034423828125,0.1967926025390625
1772806472540898300,2.738898193359375,-0.3831329345703125,0.9044342041015625,0.10858154296875
1772806472550830300,2.748830322265625,-0.361663818359375,0.861053466796875,0.090362548828125
1772806472560761300,2.75876123046875,-0.3336029052734375,0.8064422607421875,0.1048736572265625
1772806472570693400,2.768693359375,-0.3028564453125,0.74725341796875,0.1439208984375
1772806472580624400,2.778624267578125,-0.2743072509765625,0.68768310546875,0.186309814453125
1772806472590555400,2.788555419921875,-0.2734375,0.6537322998046875,0.2053985595703125
1772806472600487400,2.7984873046875,-0.298828125,0.6410980224609375,0.20330810546875
1772806472610418400,2.80841845703125,-0.337158203125,0.6432647705078125,0.192779541015625
1772806472620350500,2.8183505859375,-0.3821868896484375,0.6466064453125,0.1763763427734375
1772806472630281500,2.828281494140625,-0.4331207275390625,0.658538818359375,0.1627197265625
1772806472640213500,2.838213623046875,-0.4853515625,0.667388916015625,0.1639862060546875
1772806472650144300,2.848144287109375,-0.5293426513671875,0.6950836181640625,0.1869659423828125
1772806472660075500,2.858075439453125,-0.5784912109375,0.7184295654296875,0.2116546630859375
1772806472670007600,2.868007568359375,-0.61663818359375,0.7316131591796875,0.2499847412109375
1772806472679938300,2.877938232421875,-0.636016845703125,0.7562255859375,0.2855682373046875
1772806472689870300,2.887870361328125,-0.6516571044921875,0.776885986328125,0.2991485595703125
1772806472699801300,2.89780126953125,-0.6517333984375,0.7910308837890625,0.3137359619140625
1772806472709732600,2.907732666015625,-0.64312744140625,0.8062896728515625,0.3186798095703125
1772806472719664400,2.917664306640625,-0.6312713623046875,0.8276824951171875,0.3220062255859375
1772806472729595400,2.927595458984375,-0.608978271484375,0.847900390625,0.3115386962890625
1772806472739527400,2.93752734375,-0.602569580078125,0.8664703369140625,0.2894287109375
1772806472749458400,2.94745849609375,-0.5988922119140625,0.87725830078125,0.2699432373046875
1772806472759390500,2.957390380859375,-0.615509033203125,0.8637542724609375,0.263702392578125
1772806472769321500,2.967321533203125,-0.63214111328125,0.8417816162109375,0.2752227783203125
1772806472779252500,2.97725244140625,-0.6378936767578125,0.8109283447265625,0.3044281005859375
1772806472789184300,2.987184326171875,-0.62823486328125,0.78106689453125,0.3389739990234375
1772806472799115500,2.997115478515625,-0.6236419677734375,0.7597503662109375,0.3653106689453125
1772806472809047600,3.007047607421875,-0.6083221435546875,0.74261474609375,0.3709716796875
1772806472818978300,3.016978271484375,-0.5699310302734375,0.735443115234375,0.3599853515625
1772806472828909300,3.026909423828125,-0.5301055908203125,0.747772216796875,0.334014892578125
1772806472838841300,3.03684130859375,-0.503997802734375,0.776123046875,0.2938079833984375
1772806472848772600,3.046772705078125,-0.50701904296875,0.808441162109375,0.23486328125
1772806472858704400,3.056704345703125,-0.52587890625,0.834564208984375,0.179107666015625
1772806472868635400,3.066635498046875,-0.5376129150390625,0.8559112548828125,0.1407470703125
1772806472878567400,3.0765673828125,-0.546234130859375,0.869171142578125,0.120269775390625
1772806472888498400,3.08649853515625,-0.5439453125,0.8775787353515625,0.107818603515625
1772806472898429400,3.096429443359375,-0.54205322265625,0.885894775390625,0.1070709228515625
1772806472908361500,3.106361572265625,-0.558380126953125,0.8938751220703125,0.1308746337890625
1772806472918292500,3.11629248046875,-0.589508056640625,0.9029693603515625,0.16204833984375
1772806472928224300,3.126224365234375,-0.625701904296875,0.9114532470703125,0.183441162109375
1772806472938155500,3.136155517578125,-0.6541748046875,0.925750732421875,0.2057342529296875
1772806472948087600,3.146087646484375,-0.682037353515625,0.9262542724609375,0.2277679443359375
1772806472958018300,3.156018310546875,-0.690948486328125,0.93023681640625,0.263763427734375
1772806472967949300,3.16594921875,-0.705322265625,0.9417266845703125,0.27923583984375
1772806472977881300,3.17588134765625,-0.7393035888671875,0.9581298828125,0.2755279541015625
1772806472987812600,3.1858125,-0.7662506103515625,0.9716339111328125,0.269439697265625
1772806472997744400,3.195744384765625,-0.7655181884765625,0.991485595703125,0.2616119384765625
1772806473007675400,3.20567529296875,-0.739990234375,1.005340576171875,0.23797607421875
1772806473017606400,3.2156064453125,-0.6933441162109375,1.028167724609375,0.20819091796875
1772806473027538400,3.225538330078125,-0.6583099365234375,1.031219482421875,0.167816162109375
1772806473037469400,3.235469482421875,-0.6654815673828125,1,0.15594482421875
1772806473047401500,3.2454013671875,-0.6645355224609375,0.9484100341796875,0.154327392578125
1772806473057332500,3.25533251953125,-0.6708221435546875,0.8731842041015625,0.1782379150390625
1772806473067264300,3.26526416015625,-0.6328277587890625,0.8009796142578125,0.2440643310546875
1772806473077195500,3.275195556640625,-0.5073089599609375,0.74365234375,0.342681884765625
1772806473087126500,3.28512646484375,-0.380157470703125,0.6910552978515625,0.4397430419921875
1772806473097058600,3.29505859375,-0.241851806640625,0.6608123779296875,0.5312957763671875
1772806473106989300,3.3049892578125,-0.170928955078125,0.67596435546875,0.584625244140625
1772806473116921300,3.31492138671875,-0.170440673828125,0.7039947509765625,0.58294677734375
1772806473126852600,3.3248525390625,-0.2081298828125,0.7510223388671875,0.53033447265625
1772806473136784400,3.334784423828125,-0.2593841552734375,0.7976226806640625,0.45855712890625
1772806473146715400,3.34471533203125,-0.3235626220703125,0.841033935546875,0.4097900390625
1772806473156646400,3.354646484375,-0.411376953125,0.8583526611328125,0.371002197265625
1772806473166578400,3.364578369140625,-0.5076904296875,0.8692169189453125,0.366943359375
1772806473176509400,3.374509521484375,-0.63568115234375,0.882232666015625,0.3676605224609375
1772806473186441500,3.38444140625,-0.7277984619140625,0.908447265625,0.3790435791015625
1772806473196372500,3.39437255859375,-0.774078369140625,0.9205780029296875,0.4023590087890625
1772806473206303200,3.40430322265625,-0.7835693359375,0.8912506103515625,0.4199371337890625
1772806473216235500,3.414235595703125,-0.7977142333984375,0.8648834228515625,0.4276123046875
1772806473226166500,3.42416650390625,-0.8016510009765625,0.830413818359375,0.3928680419921875
1772806473236098600,3.4340986328125,-0.7888946533203125,0.7939910888671875,0.3457489013671875
1772806473246029300,3.444029296875,-0.7438507080078125,0.7575531005859375,0.2830352783203125
1772806473255961300,3.45396142578125,-0.6608734130859375,0.7198028564453125,0.23565673828125
1772806473265892000,3.46389208984375,-0.5662078857421875,0.6793060302734375,0.2104034423828125
1772806473275823000,3.473822998046875,-0.4792022705078125,0.635101318359375,0.199676513671875
1772806473285755100,3.483755126953125,-0.411041259765625,0.591217041015625,0.2207489013671875
1772806473295686000,3.493685791015625,-0.351959228515625,0.5503692626953125,0.2638397216796875
1772806473305618000,3.503617919921875,-0.3134765625,0.511962890625,0.32025146484375
1772806473315549200,3.513549072265625,-0.2894439697265625,0.49005126953125,0.3486175537109375
1772806473325480000,3.52347998046875,-0.2848968505859375,0.4941864013671875,0.3537750244140625
1772806473335412000,3.533411865234375,-0.301605224609375,0.504119873046875,0.34295654296875
1772806473345343200,3.54334326171875,-0.3343963623046875,0.52587890625,0.323516845703125
1772806473355275300,3.553275146484375,-0.3705291748046875,0.5430908203125,0.297760009765625
1772806473365206000,3.5632060546875,-0.399658203125,0.5627593994140625,0.2803955078125
1772806473375138000,3.573137939453125,-0.421478271484375,0.5804901123046875,0.28131103515625
1772806473385069000,3.583069091796875,-0.440948486328125,0.596221923828125,0.2988739013671875
1772806473395000000,3.593,-0.4658966064453125,0.61456298828125,0.32012939453125
1772806473404932000,3.60293212890625,-0.497894287109375,0.631927490234375,0.3362884521484375
1772806473414863000,3.612863037109375,-0.5339813232421875,0.6392974853515625,0.3579864501953125
1772806473424795100,3.622795166015625,-0.570526123046875,0.641693115234375,0.377593994140625
1772806473434726000,3.632725830078125,-0.61767578125,0.6435394287109375,0.3872528076171875
1772806473444658000,3.642657958984375,-0.6468658447265625,0.63458251953125,0.3943328857421875
1772806473454589200,3.652589111328125,-0.65545654296875,0.6240081787109375,0.38665771484375
1772806473464520000,3.66252001953125,-0.64630126953125,0.6132049560546875,0.36181640625
1772806473474452000,3.672451904296875,-0.6315765380859375,0.6028900146484375,0.3366851806640625
1772806473484383200,3.68238330078125,-0.605438232421875,0.598602294921875,0.3243255615234375
1772806473494315300,3.692315185546875,-0.5722198486328125,0.5985107421875,0.322509765625
1772806473504246000,3.70224609375,-0.545257568359375,0.6043701171875,0.3235015869140625
1772806473514177000,3.712177001953125,-0.5403289794921875,0.6138458251953125,0.33673095703125
1772806473524109000,3.722109130859375,-0.5665435791015625,0.6182708740234375,0.356170654296875
1772806473534040000,3.7320400390625,-0.5984344482421875,0.628662109375,0.3647003173828125
1772806473543972000,3.74197216796875,-0.6463470458984375,0.6440887451171875,0.36895751953125
1772806473553903000,3.751903076171875,-0.6732330322265625,0.6668853759765625,0.3555450439453125
1772806473563835100,3.761835205078125,-0.68255615234375,0.6975860595703125,0.329833984375
1772806473573766000,3.771765869140625,-0.689361572265625,0.73236083984375,0.30181884765625
1772806473583697200,3.781697265625,-0.69537353515625,0.7671966552734375,0.2786712646484375
1772806473593629200,3.791629150390625,-0.7067718505859375,0.7946014404296875,0.277252197265625
1772806473603560000,3.801559814453125,-0.7330169677734375,0.801788330078125,0.3031463623046875
1772806473613492000,3.811491943359375,-0.76434326171875,0.793487548828125,0.3558502197265625
1772806473623423000,3.821423095703125,-0.804290771484375,0.76849365234375,0.4061279296875
1772806473633354000,3.83135400390625,-0.8510284423828125,0.732635498046875,0.4414520263671875
1772806473643286000,3.8412861328125,-0.8809051513671875,0.6953887939453125,0.4567108154296875
1772806473653217000,3.851217041015625,-0.8958892822265625,0.660430908203125,0.4595184326171875
1772806473663149000,3.861149169921875,-0.88916015625,0.6264495849609375,0.4611968994140625
1772806473673080000,3.871080078125,-0.87646484375,0.594696044921875,0.474090576171875
1772806473683012000,3.88101220703125,-0.8471221923828125,0.5807647705078125,0.480987548828125
1772806473692943000,3.890943115234375,-0.7970123291015625,0.5993499755859375,0.476531982421875
1772806473702873900,3.900873779296875,-0.7404632568359375,0.6428070068359375,0.47015380859375
1772806473712806000,3.910805908203125,-0.683563232421875,0.70831298828125,0.447998046875
1772806473722737200,3.920737060546875,-0.6647796630859375,0.7769775390625,0.4244537353515625
1772806473732669200,3.930669189453125,-0.6950531005859375,0.8371429443359375,0.39971923828125
1772806473742600000,3.940599853515625,-0.71435546875,0.9145355224609375,0.3669586181640625
1772806473752531000,3.950531005859375,-0.6856536865234375,1.0186920166015625,0.3256988525390625
1772806473762463000,3.960462890625,-0.6632537841796875,1.1167144775390625,0.30706787109375
1772806473772394000,3.97039404296875,-0.662506103515625,1.1498565673828125,0.3303985595703125
1772806473782324000,3.980323974609375,-0.697723388671875,1.1204986572265625,0.4091033935546875
1772806473792256000,3.990256103515625,-0.7345733642578125,1.031494140625,0.498992919921875
1772806473802187000,4.00018701171875,-0.7519683837890625,0.9010467529296875,0.587188720703125
1772806473812119000,4.010119140625,-0.6956329345703125,0.812042236328125,0.5961151123046875
1772806473822050000,4.020050048828125,-0.5641326904296875,0.7763671875,0.4854888916015625
1772806473831982000,4.029982177734375,-0.396514892578125,0.79296875,0.32574462890625
1772806473841913000,4.0399130859375,-0.218902587890625,0.8347320556640625,0.1555633544921875
1772806473851844000,4.049843994140625,-0.0854034423828125,0.84490966796875,0.037445068359375
1772806473861776100,4.059776123046875,0.01068115234375,0.826690673828125,-0.020721435546875
1772806473871707000,4.069706787109375,0.07769775390625,0.81768798828125,-0.01300048828125
1772806473881639000,4.079638916015625,0.0954437255859375,0.8046112060546875,0.049224853515625
1772806473891570200,4.089570068359375,0.04986572265625,0.7850341796875,0.167266845703125
1772806473901501000,4.0995009765625,-0.0355072021484375,0.7476654052734375,0.32177734375
1772806473911433000,4.109432861328125,-0.0643463134765625,0.700469970703125,0.5213775634765625
1772806473921364000,4.119364013671875,-0.2263641357421875,0.7044219970703125,0.673126220703125
1772806473931296000,4.1292958984375,-0.4076385498046875,0.7157745361328125,0.6908111572265625
1772806473941227000,4.13922705078125,-0.5474700927734375,0.7623748779296875,0.6830291748046875
1772806473951159000,4.149158935546875,-0.6273345947265625,0.794891357421875,0.6206817626953125
1772806473961090000,4.159090087890625,-0.639434814453125,0.842620849609375,0.5392913818359375
1772806473971021000,4.16902099609375,-0.6012725830078125,0.89862060546875,0.4326171875
1772806473980953000,4.178953125,-0.5499114990234375,0.9209136962890625,0.3149261474609375
1772806473990884000,4.188884033203125,-0.4914093017578125,0.9294586181640625,0.208099365234375
1772806474000816000,4.198816162109375,-0.459686279296875,0.933990478515625,0.120819091796875
1772806474010747000,4.208746826171875,-0.4748382568359375,0.87823486328125,0.083038330078125
1772806474020678100,4.21867822265625,-0.450592041015625,0.847930908203125,0.0848236083984375
1772806474030610200,4.228610107421875,-0.4297332763671875,0.810455322265625,0.111968994140625
1772806474040541000,4.238541015625,-0.4218597412109375,0.7445068359375,0.153167724609375
1772806474050473000,4.248472900390625,-0.4073486328125,0.71173095703125,0.199127197265625
1772806474060404000,4.258404052734375,-0.3961029052734375,0.6944732666015625,0.2234344482421875
1772806474070336000,4.2683359375,-0.407623291015625,0.6951751708984375,0.2285919189453125
1772806474080267000,4.27826708984375,-0.445220947265625,0.7013397216796875,0.2259063720703125
1772806474090198000,4.288197998046875,-0.475982666015625,0.71954345703125,0.217010498046875
1772806474100130000,4.298130126953125,-0.5101776123046875,0.7301788330078125,0.2036285400390625
1772806474110061000,4.30806103515625,-0.524169921875,0.742828369140625,0.1973419189453125
1772806474119993000,4.3179931640625,-0.529327392578125,0.75927734375,0.199798583984375
1772806474129924000,4.327924072265625,-0.5509796142578125,0.768951416015625,0.2393646240234375
1772806474139856100,4.337856201171875,-0.59136962890625,0.777069091796875,0.2801666259765625
1772806474149787000,4.347786865234375,-0.632476806640625,0.7861785888671875,0.289306640625
1772806474159718100,4.35771826171875,-0.6846923828125,0.79071044921875,0.3080596923828125
1772806474169650200,4.367650146484375,-0.681640625,0.825347900390625,0.3042755126953125
1772806474179581000,4.377580810546875,-0.7010040283203125,0.830780029296875,0.2787017822265625
1772806474189513000,4.387512939453125,-0.695465087890625,0.826995849609375,0.25421142578125
1772806474199444000,4.39744384765625,-0.6818389892578125,0.83148193359375,0.2274322509765625
1772806474209375200,4.407375244140625,-0.667755126953125,0.816802978515625,0.216522216796875
1772806474219307000,4.41730712890625,-0.6427459716796875,0.8033905029296875,0.2133941650390625
1772806474229238000,4.427238037109375,-0.638427734375,0.7797393798828125,0.2223968505859375
1772806474239170000,4.437170166015625,-0.63409423828125,0.755401611328125,0.239654541015625
1772806474249101000,4.44710107421875,-0.637176513671875,0.7367401123046875,0.273223876953125
1772806474259032000,4.457031982421875,-0.6400299072265625,0.7259674072265625,0.285003662109375
1772806474268964600,4.466964599609375,-0.6488494873046875,0.7182769775390625,0.2821197509765625
1772806474278895400,4.476895263671875,-0.65869140625,0.7235870361328125,0.25994873046875
1772806474288827400,4.486827392578125,-0.66644287109375,0.7429351806640625,0.221435546875
1772806474298758400,4.49675830078125,-0.65545654296875,0.7650909423828125,0.1909332275390625
1772806474308690400,4.5066904296875,-0.628997802734375,0.78790283203125,0.1706085205078125
1772806474318621400,4.516621337890625,-0.5960540771484375,0.814971923828125,0.16265869140625
1772806474328552400,4.526552490234375,-0.5691680908203125,0.832000732421875,0.1689910888671875
1772806474338484500,4.536484375,-0.5613250732421875,0.8350982666015625,0.197662353515625
1772806474348415500,4.54641552734375,-0.56024169921875,0.83172607421875,0.2471466064453125
1772806474358347500,4.556347412109375,-0.547149658203125,0.8253936767578125,0.28826904296875
1772806474368278500,4.566278564453125,-0.554229736328125,0.815582275390625,0.3256683349609375
1772806474378210600,4.57621044921875,-0.593109130859375,0.800323486328125,0.37646484375
1772806474388141300,4.586141357421875,-0.620452880859375,0.784515380859375,0.449188232421875
1772806474398072600,4.596072509765625,-0.6583251953125,0.7696380615234375,0.5116424560546875
1772806474408004600,4.606004638671875,-0.6928253173828125,0.7869720458984375,0.5435791015625
1772806474417935400,4.615935302734375,-0.67803955078125,0.84326171875,0.526763916015625
1772806474427867400,4.625867431640625,-0.686187744140625,0.9021148681640625,0.429962158203125
1772806474437798400,4.63579833984375,-0.703704833984375,0.9736480712890625,0.311492919921875
1772806474447729400,4.6457294921875,-0.722137451171875,1.0172576904296875,0.21490478515625
1772806474457661400,4.655661376953125,-0.742340087890625,1.0540313720703125,0.154510498046875
1772806474467592400,4.665592529296875,-0.7205047607421875,1.09149169921875,0.1263885498046875
1772806474477524500,4.6755244140625,-0.7174835205078125,1.1083984375,0.1060638427734375
1772806474487455500,4.68545556640625,-0.6864471435546875,1.1164093017578125,0.068817138671875
1772806474497387500,4.695387451171875,-0.678741455078125,1.084869384765625,0.0377349853515625
1772806474507318500,4.705318603515625,-0.7217254638671875,1.0341644287109375,0.03546142578125
1772806474517249300,4.715249267578125,-0.8077850341796875,0.94781494140625,0.0716705322265625
1772806474527181300,4.725181396484375,-0.8170623779296875,0.87628173828125,0.1337890625
1772806474537112600,4.735112548828125,-0.743377685546875,0.7984619140625,0.1913909912109375
1772806474547044600,4.745044677734375,-0.6331329345703125,0.727294921875,0.2444610595703125
1772806474556975400,4.754975341796875,-0.52276611328125,0.674835205078125,0.2912445068359375
1772806474566906400,4.76490625,-0.4114227294921875,0.6524505615234375,0.3307037353515625
1772806474576838400,4.77483837890625,-0.306854248046875,0.644317626953125,0.4036407470703125
1772806474586769400,4.784769287109375,-0.2427825927734375,0.6519927978515625,0.4807891845703125
1772806474596701400,4.794701416015625,-0.209442138671875,0.6750640869140625,0.5266571044921875
1772806474606632400,4.804632568359375,-0.1864776611328125,0.7031097412109375,0.530853271484375
1772806474616564500,4.814564453125,-0.1911468505859375,0.7462158203125,0.481903076171875
1772806474626495500,4.82449560546875,-0.26336669921875,0.7759246826171875,0.40283203125
1772806474636426500,4.834426513671875,-0.347381591796875,0.82000732421875,0.3227081298828125
1772806474646358500,4.844358642578125,-0.4316558837890625,0.8376617431640625,0.2758941650390625
1772806474656289500,4.85428955078125,-0.55621337890625,0.8265533447265625,0.2564697265625
1772806474666221300,4.86422119140625,-0.679443359375,0.81640625,0.226043701171875
1772806474676152600,4.874152587890625,-0.7899017333984375,0.785552978515625,0.218414306640625
1772806474686083600,4.88408349609375,-0.8825225830078125,0.758026123046875,0.2072906494140625
1772806474696015400,4.894015380859375,-0.926239013671875,0.72845458984375,0.1986236572265625
1772806474705946400,4.9039462890625,-0.93701171875,0.696258544921875,0.193206787109375
1772806474715878400,4.91387841796875,-0.92547607421875,0.6700439453125,0.173828125
1772806474725809700,4.9238095703125,-0.8569183349609375,0.647918701171875,0.1422271728515625
1772806474735741400,4.933741455078125,-0.7570953369140625,0.630340576171875,0.0981903076171875
1772806474745672400,4.94367236328125,-0.64300537109375,0.6221923828125,0.061859130859375
1772806474755603500,4.953603515625,-0.534881591796875,0.616790771484375,0.03759765625
1772806474765535200,4.96353515625,-0.4544677734375,0.6142120361328125,0.0364227294921875
1772806474775466500,4.973466552734375,-0.4147491455078125,0.6123809814453125,0.0529632568359375
1772806474785398500,4.9833984375,-0.3934783935546875,0.598388671875,0.0950927734375
1772806474795329500,4.99332958984375,-0.3951416015625,0.572784423828125,0.16357421875
1772806474805260500,5.003260498046875,-0.4031524658203125,0.5537872314453125,0.2191619873046875
1772806474815192600,5.013192626953125,-0.40679931640625,0.5404205322265625,0.2803802490234375
1772806474825123600,5.02312353515625,-0.411041259765625,0.5345001220703125,0.3505096435546875
1772806474835055400,5.033055419921875,-0.4277801513671875,0.527496337890625,0.4097442626953125
1772806474844986400,5.042986328125,-0.453887939453125,0.5317840576171875,0.4483184814453125
1772806474854917600,5.052917724609375,-0.481781005859375,0.55059814453125,0.4703826904296875
1772806474864849700,5.062849609375,-0.503692626953125,0.569580078125,0.4735107421875
1772806474874780400,5.072780517578125,-0.522430419921875,0.5906982421875,0.47479248046875
1772806474884712400,5.08271240234375,-0.5324249267578125,0.6111602783203125,0.455474853515625
1772806474894643500,5.0926435546875,-0.5527496337890625,0.6221923828125,0.44842529296875
1772806474904575200,5.1025751953125,-0.5835723876953125,0.6251068115234375,0.437835693359375
1772806474914506500,5.112506591796875,-0.638427734375,0.6126708984375,0.42010498046875
1772806474924437500,5.1224375,-0.6823272705078125,0.5959320068359375,0.3966217041015625
1772806474934369500,5.13236962890625,-0.6990966796875,0.587493896484375,0.3761138916015625
1772806474944300300,5.14230029296875,-0.695831298828125,0.58673095703125,0.3401031494140625
1772806474954232600,5.152232666015625,-0.6929931640625,0.5861968994140625,0.3003082275390625
1772806474964163600,5.16216357421875,-0.6784515380859375,0.585357666015625,0.273834228515625
1772806474974094300,5.17209423828125,-0.659271240234375,0.580078125,0.2601470947265625
1772806474984026400,5.1820263671875,-0.62237548828125,0.58087158203125,0.25537109375
1772806474993957600,5.19195751953125,-0.5985107421875,0.5879669189453125,0.268798828125
1772806475003889700,5.2018896484375,-0.57275390625,0.601318359375,0.2822418212890625
1772806475013820400,5.2118203125,-0.5505218505859375,0.6171722412109375,0.306304931640625
1772806475023752400,5.22175244140625,-0.5469818115234375,0.6363525390625,0.339996337890625
1772806475033683500,5.231683349609375,-0.5626373291015625,0.6533203125,0.3720703125
1772806475043614500,5.241614501953125,-0.6100006103515625,0.6673431396484375,0.41839599609375
1772806475053546500,5.25154638671875,-0.6867218017578125,0.678497314453125,0.4674224853515625
1772806475063477500,5.2614775390625,-0.7984161376953125,0.67547607421875,0.516448974609375
1772806475073409500,5.271409423828125,-0.91046142578125,0.674163818359375,0.5709686279296875
1772806475083340300,5.28134033203125,-1.014984130859375,0.673675537109375,0.590301513671875
1772806475093272300,5.291272216796875,-1.115814208984375,0.6583099365234375,0.557373046875
1772806475103203600,5.30120361328125,-1.19781494140625,0.651092529296875,0.5070343017578125
1772806475113134300,5.31113427734375,-1.2404327392578125,0.6244354248046875,0.46954345703125
1772806475123066400,5.32106640625,-1.2348480224609375,0.5906982421875,0.4504241943359375
1772806475132997600,5.33099755859375,-1.2027435302734375,0.563323974609375,0.43157958984375
1772806475142929700,5.3409296875,-1.1280975341796875,0.5447845458984375,0.4056549072265625
1772806475152860400,5.3508603515625,-1.024810791015625,0.5675048828125,0.353729248046875
1772806475162791400,5.36079150390625,-0.8905029296875,0.621002197265625,0.2886505126953125
1772806475172723500,5.370723388671875,-0.755096435546875,0.693359375,0.2378997802734375
1772806475182654500,5.380654541015625,-0.657867431640625,0.77374267578125,0.20294189453125
1772806475192586500,5.39058642578125,-0.6170196533203125,0.8364105224609375,0.200927734375
1772806475202517500,5.400517578125,-0.6035614013671875,0.887176513671875,0.1921234130859375
1772806475212448300,5.4104482421875,-0.6027374267578125,0.960784912109375,0.186187744140625
1772806475222380300,5.42038037109375,-0.6201171875,1.0244903564453125,0.156005859375
1772806475232311600,5.4303115234375,-0.6934967041015625,1.0440673828125,0.178619384765625
1772806475242243600,5.44024365234375,-0.78314208984375,0.9833221435546875,0.31829833984375
1772806475252174300,5.45017431640625,-0.85491943359375,0.8586578369140625,0.510223388671875
1772806475262106400,5.4601064453125,-0.8845062255859375,0.75201416015625,0.62896728515625
1772806475272037400,5.470037353515625,-0.82843017578125,0.6930694580078125,0.6367950439453125
1772806475281968000,5.479968017578125,-0.670501708984375,0.7099151611328125,0.49346923828125
1772806475291900200,5.489900146484375,-0.4887542724609375,0.782745361328125,0.2785186767578125
1772806475301831200,5.4998310546875,-0.332366943359375,0.8496551513671875,0.1041717529296875
1772806475311763200,5.50976318359375,-0.2241363525390625,0.893218994140625,-0.0127410888671875
1772806475321694200,5.519694091796875,-0.1741485595703125,0.9104766845703125,-0.0584564208984375
1772806475331625200,5.529625244140625,-0.1853179931640625,0.875457763671875,-0.0510406494140625
1772806475341557200,5.53955712890625,-0.2325439453125,0.8077850341796875,-0.0010223388671875
1772806475351488000,5.549488037109375,-0.3011016845703125,0.759979248046875,0.0816650390625
1772806475361420000,5.559419921875,-0.3837127685546875,0.7059478759765625,0.154632568359375
1772806475371351300,5.569351318359375,-0.4796142578125,0.65606689453125,0.2216949462890625
1772806475381283300,5.579283447265625,-0.5748138427734375,0.6066741943359375,0.3050689697265625
1772806475391214000,5.589214111328125,-0.64739990234375,0.5670318603515625,0.3713531494140625
1772806475401145300,5.599145263671875,-0.6773223876953125,0.567840576171875,0.407562255859375
1772806475411077400,5.609077392578125,-0.6412506103515625,0.60711669921875,0.3750457763671875
1772806475421008100,5.619008056640625,-0.574737548828125,0.6636505126953125,0.2793426513671875
1772806475430940200,5.628940185546875,-0.521575927734375,0.703521728515625,0.1689605712890625
1772806475440871200,5.63887109375,-0.479949951171875,0.7273406982421875,0.0878143310546875
1772806475450802200,5.64880224609375,-0.4590606689453125,0.73797607421875,0.02886962890625
1772806475460734200,5.658734130859375,-0.46478271484375,0.7378082275390625,0.00390625
1772806475470665200,5.668665283203125,-0.474639892578125,0.722076416015625,-0.0013275146484375
1772806475480597200,5.67859716796875,-0.4878997802734375,0.712432861328125,0.0188140869140625
1772806475490528000,5.688528076171875,-0.507781982421875,0.6981201171875,0.0392913818359375
1772806475500460000,5.6984599609375,-0.520904541015625,0.6744537353515625,0.070526123046875
1772806475510391300,5.708391357421875,-0.5337066650390625,0.6639556884765625,0.0974273681640625
1772806475520322000,5.718322021484375,-0.5495147705078125,0.6489410400390625,0.125701904296875
1772806475530254000,5.728254150390625,-0.5638275146484375,0.6329498291015625,0.151763916015625
1772806475540185000,5.73818505859375,-0.561737060546875,0.6275482177734375,0.1760406494140625
1772806475550117400,5.748117431640625,-0.5377197265625,0.640777587890625,0.180633544921875
1772806475560048000,5.758048095703125,-0.5199737548828125,0.66644287109375,0.167266845703125
1772806475569979100,5.767979248046875,-0.537628173828125,0.690643310546875,0.1545867919921875
1772806475579911200,5.7779111328125,-0.57232666015625,0.7225189208984375,0.154541015625
1772806475589842200,5.78784228515625,-0.6428680419921875,0.74859619140625,0.159332275390625
1772806475599774200,5.797774169921875,-0.7168121337890625,0.7697906494140625,0.181884765625
1772806475609705200,5.807705322265625,-0.7558746337890625,0.7874298095703125,0.197723388671875
1772806475619637200,5.81763720703125,-0.8028411865234375,0.7945098876953125,0.208587646484375
1772806475629568000,5.827568115234375,-0.827056884765625,0.794586181640625,0.2121124267578125
1772806475639499300,5.837499267578125,-0.81121826171875,0.78692626953125,0.205902099609375
1772806475649431300,5.847431396484375,-0.768798828125,0.77215576171875,0.204437255859375
1772806475659362000,5.857362060546875,-0.7169189453125,0.7512969970703125,0.208251953125
1772806475669294000,5.867294189453125,-0.6810150146484375,0.73785400390625,0.2042999267578125
1772806475679225000,5.87722509765625,-0.64892578125,0.7321929931640625,0.1842803955078125
1772806475689156000,5.887156005859375,-0.618621826171875,0.7401123046875,0.170623779296875
1772806475699088100,5.897088134765625,-0.5948944091796875,0.7484893798828125,0.1697998046875
1772806475709019100,5.90701904296875,-0.5998687744140625,0.7555389404296875,0.162445068359375
1772806475718951200,5.916951171875,-0.613861083984375,0.76483154296875,0.1434478759765625
1772806475728882200,5.926882080078125,-0.6271514892578125,0.7733306884765625,0.123992919921875
1772806475738814200,5.936814208984375,-0.6431121826171875,0.791259765625,0.1027679443359375
1772806475748745200,5.9467451171875,-0.6479339599609375,0.81097412109375,0.0932769775390625
1772806475758676000,5.956676025390625,-0.642913818359375,0.82537841796875,0.10552978515625
1772806475768608000,5.96660791015625,-0.6331634521484375,0.841583251953125,0.1375274658203125
1772806475778539300,5.976539306640625,-0.6284942626953125,0.863800048828125,0.163116455078125
1772806475788471300,5.98647119140625,-0.6409454345703125,0.872314453125,0.18023681640625
1772806475798402000,5.996402099609375,-0.6785430908203125,0.8693389892578125,0.192413330078125
1772806475808333000,6.0063330078125,-0.7313079833984375,0.861419677734375,0.211029052734375
1772806475818265000,6.01626513671875,-0.8031158447265625,0.83465576171875,0.2454681396484375
1772806475828196400,6.0261962890625,-0.85614013671875,0.80975341796875,0.2872467041015625
1772806475838128000,6.036128173828125,-0.912384033203125,0.7736968994140625,0.31109619140625
1772806475848059100,6.04605908203125,-0.9235076904296875,0.752532958984375,0.3316497802734375
1772806475857990100,6.055990234375,-0.8990325927734375,0.736602783203125,0.355712890625
1772806475867922200,6.065922119140625,-0.837188720703125,0.7212066650390625,0.386749267578125
1772806475877853200,6.075853271484375,-0.7529754638671875,0.747039794921875,0.387939453125
1772806475887785200,6.08578515625,-0.68072509765625,0.7900848388671875,0.3199462890625
1772806475897716200,6.09571630859375,-0.6563720703125,0.8503265380859375,0.207000732421875
1772806475907648000,6.10564794921875,-0.649932861328125,0.9134521484375,0.104339599609375
1772806475917579300,6.115579345703125,-0.668701171875,0.955047607421875,0.0234527587890625
1772806475927510300,6.12551025390625,-0.682830810546875,0.98895263671875,-0.0129547119140625
1772806475937442000,6.135442138671875,-0.69537353515625,1.01495361328125,-0.031768798828125
1772806475947373000,6.145373046875,-0.700103759765625,1.02508544921875,-0.0385284423828125
1772806475957305000,6.15530517578125,-0.70623779296875,1.0137786865234375,-0.044097900390625
1772806475967236400,6.165236328125,-0.7423095703125,0.9669036865234375,-0.0421905517578125
1772806475977167000,6.1751669921875,-0.78704833984375,0.912628173828125,0.0057373046875
1772806475987099100,6.18509912109375,-0.76507568359375,0.855987548828125,0.0740966796875
1772806475997030100,6.195030029296875,-0.725006103515625,0.80157470703125,0.14385986328125
1772806476006962200,6.204962158203125,-0.6790313720703125,0.7621307373046875,0.2157745361328125
1772806476016893200,6.21489306640625,-0.617279052734375,0.7363739013671875,0.2944488525390625
1772806476026825200,6.2248251953125,-0.5566864013671875,0.715667724609375,0.3718414306640625
1772806476036756200,6.234756103515625,-0.4947052001953125,0.704315185546875,0.4471893310546875
1772806476046687200,6.244687255859375,-0.4405975341796875,0.7067413330078125,0.5073394775390625
1772806476056619300,6.254619384765625,-0.3855133056640625,0.72283935546875,0.5280303955078125
1772806476066550300,6.26455029296875,-0.345977783203125,0.72613525390625,0.5149383544921875
1772806476076482000,6.27448193359375,-0.376434326171875,0.73529052734375,0.4602203369140625
1772806476086413000,6.2844130859375,-0.4447174072265625,0.7569427490234375,0.3890838623046875
1772806476096344300,6.29434423828125,-0.5171051025390625,0.7656402587890625,0.324981689453125
1772806476106276400,6.3042763671875,-0.570526123046875,0.786376953125,0.2686614990234375
1772806476116207000,6.31420703125,-0.639678955078125,0.7823944091796875,0.23529052734375
1772806476126139100,6.32413916015625,-0.701995849609375,0.7700042724609375,0.2248992919921875
1772806476136070100,6.334070068359375,-0.756256103515625,0.7510223388671875,0.22222900390625
1772806476146002200,6.344002197265625,-0.8090667724609375,0.7247314453125,0.219696044921875
1772806476155933200,6.35393310546875,-0.842987060546875,0.699493408203125,0.2138214111328125
1772806476165864200,6.3638642578125,-0.8565521240234375,0.6761932373046875,0.2071990966796875
1772806476175796200,6.373796142578125,-0.840179443359375,0.6511688232421875,0.19921875
1772806476185727200,6.383727294921875,-0.7924652099609375,0.63580322265625,0.1959991455078125
1772806476195659300,6.3936591796875,-0.7256622314453125,0.6190185546875,0.190032958984375
1772806476205590300,6.40359033203125,-0.6549835205078125,0.59503173828125,0.1854248046875
1772806476215521000,6.41352099609375,-0.579681396484375,0.58221435546875,0.1820220947265625
1772806476225453000,6.423453125,-0.507568359375,0.5689239501953125,0.1736602783203125
1772806476235384300,6.43338427734375,-0.4495697021484375,0.5516204833984375,0.170379638671875
1772806476245316400,6.44331640625,-0.396331787109375,0.528656005859375,0.1690216064453125
1772806476255247000,6.4532470703125,-0.35186767578125,0.517852783203125,0.16827392578125
1772806476265178000,6.46317822265625,-0.3209228515625,0.5065460205078125,0.167816162109375
1772806476275110100,6.473110107421875,-0.3113555908203125,0.498626708984375,0.1789398193359375
1772806476285041400,6.48304150390625,-0.3300018310546875,0.486968994140625,0.18975830078125
1772806476294973400,6.492973388671875,-0.3666839599609375,0.463775634765625,0.2203521728515625
1772806476304904200,6.502904296875,-0.3974609375,0.4491729736328125,0.275970458984375
1772806476314836200,6.512836181640625,-0.433563232421875,0.4295501708984375,0.3494873046875
1772806476324767200,6.522767333984375,-0.4814300537109375,0.4088287353515625,0.4329681396484375
1772806476334698200,6.5326982421875,-0.559417724609375,0.395538330078125,0.5113372802734375
1772806476344630300,6.54263037109375,-0.625518798828125,0.3914031982421875,0.56719970703125
1772806476354561300,6.552561279296875,-0.6886444091796875,0.4004669189453125,0.5904083251953125
1772806476364493300,6.562493408203125,-0.73590087890625,0.4207000732421875,0.5867462158203125
1772806476374424300,6.57242431640625,-0.77197265625,0.4486846923828125,0.5511932373046875
1772806476384355300,6.582355224609375,-0.78570556640625,0.48492431640625,0.486358642578125
1772806476394287400,6.592287353515625,-0.7750091552734375,0.529388427734375,0.411773681640625
1772806476404218000,6.602218017578125,-0.7514801025390625,0.5697479248046875,0.3382415771484375
1772806476414150100,6.612150146484375,-0.7149658203125,0.609649658203125,0.2679443359375
1772806476424081400,6.622081298828125,-0.67510986328125,0.6451873779296875,0.1990203857421875
1772806476434013400,6.632013427734375,-0.637298583984375,0.6749114990234375,0.150421142578125
1772806476443944200,6.641944091796875,-0.631591796875,0.684814453125,0.1378936767578125
1772806476453875200,6.651875244140625,-0.637451171875,0.67803955078125,0.1694183349609375
1772806476463807200,6.66180712890625,-0.6551513671875,0.6695556640625,0.218994140625
1772806476473738200,6.67173828125,-0.6844940185546875,0.6679534912109375,0.2707977294921875
1772806476483670300,6.681670166015625,-0.729095458984375,0.675750732421875,0.3242034912109375
1772806476493601300,6.691601318359375,-0.794677734375,0.6865234375,0.3773956298828125
1772806476503532300,6.7015322265625,-0.85760498046875,0.6908111572265625,0.4422760009765625
1772806476513464300,6.71146435546875,-0.917755126953125,0.6722412109375,0.5106353759765625
1772806476523395300,6.721395263671875,-0.9944610595703125,0.6460113525390625,0.5841064453125
1772806476533327400,6.731327392578125,-1.11016845703125,0.6151580810546875,0.6265411376953125
1772806476543258000,6.741258056640625,-1.247344970703125,0.59112548828125,0.62493896484375
1772806476553190100,6.751190185546875,-1.3254547119140625,0.5936737060546875,0.59649658203125
1772806476563121400,6.761121337890625,-1.3199615478515625,0.62615966796875,0.52349853515625
1772806476573052400,6.771052490234375,-1.21160888671875,0.675933837890625,0.452606201171875
1772806476582984200,6.780984130859375,-1.074920654296875,0.726287841796875,0.3715667724609375
1772806476592915200,6.790915283203125,-0.9480743408203125,0.7720184326171875,0.288299560546875
1772806476602847200,6.80084716796875,-0.8222198486328125,0.8387298583984375,0.2286224365234375
1772806476612778200,6.8107783203125,-0.7045745849609375,0.9035797119140625,0.17572021484375
1772806476622709200,6.820709228515625,-0.6063385009765625,0.9451904296875,0.158355712890625
1772806476632641300,6.830641357421875,-0.570098876953125,0.9734954833984375,0.1878509521484375
1772806476642572300,6.840572265625,-0.5962066650390625,0.984619140625,0.2408447265625
1772806476652504300,6.85050439453125,-0.6923370361328125,0.93994140625,0.3621368408203125
1772806476662435300,6.860435302734375,-0.8246917724609375,0.8512115478515625,0.5149078369140625
1772806476672366300,6.870366455078125,-0.9169464111328125,0.73577880859375,0.6096954345703125
1772806476682298000,6.880298095703125,-0.909423828125,0.671417236328125,0.600128173828125
1772806476692229400,6.8902294921875,-0.7830047607421875,0.6829071044921875,0.485687255859375
1772806476702161400,6.900161376953125,-0.632415771484375,0.709259033203125,0.3207855224609375
1772806476712092400,6.910092529296875,-0.469512939453125,0.7533111572265625,0.1553802490234375
1772806476722024200,6.920024169921875,-0.3252716064453125,0.7982635498046875,0.01739501953125
1772806476731955200,6.929955078125,-0.2198638916015625,0.824432373046875,-0.0771026611328125
1772806476741886500,6.939886474609375,-0.160858154296875,0.8280487060546875,-0.116455078125
1772806476751818200,6.949818359375,-0.1585235595703125,0.80560302734375,-0.103271484375
1772806476761749200,6.959749267578125,-0.1658935546875,0.7712860107421875,-0.0701751708984375
1772806476771681300,6.969681396484375,-0.1833648681640625,0.761016845703125,-0.017913818359375
1772806476781612300,6.9796123046875,-0.2428131103515625,0.7508392333984375,0.0549163818359375
1772806476791543300,6.989543212890625,-0.328094482421875,0.7276458740234375,0.134613037109375
1772806476801475300,6.999475341796875,-0.408599853515625,0.697723388671875,0.2230987548828125
1772806476811406300,7.00940625,-0.50390625,0.6593780517578125,0.3629913330078125
1772806476821338000,7.019338134765625,-0.5245208740234375,0.61151123046875,0.509124755859375
1772806476831269400,7.029269287109375,-0.582611083984375,0.569427490234375,0.7327117919921875
1772806476841200400,7.039200439453125,-0.8115234375,0.50323486328125,0.7276611328125
1772806476851132400,7.04913232421875,-0.8055572509765625,0.5993194580078125,0.604736328125
1772806476861063200,7.059063232421875,-0.7490234375,0.6693878173828125,0.4267730712890625
1772806476870995200,7.0689951171875,-0.6703033447265625,0.72021484375,0.237945556640625
1772806476880926500,7.078926513671875,-0.5788116455078125,0.7857208251953125,0.0838470458984375
1772806476890858500,7.0888583984375,-0.49310302734375,0.8041534423828125,-0.0441436767578125
1772806476900789200,7.098789306640625,-0.4381866455078125,0.795806884765625,-0.1171722412109375
1772806476910720300,7.10872021484375,-0.410491943359375,0.7543182373046875,-0.10821533203125
1772806476920652300,7.11865234375,-0.396148681640625,0.7100982666015625,-0.055419921875
1772806476930583300,7.128583251953125,-0.4005584716796875,0.6732330322265625,0.033538818359375
1772806476940515300,7.138515380859375,-0.434722900390625,0.6334075927734375,0.127166748046875
1772806476950446300,7.1484462890625,-0.476654052734375,0.5909423828125,0.2205810546875
1772806476960377300,7.15837744140625,-0.52044677734375,0.5572967529296875,0.328887939453125
1772806476970309400,7.168309326171875,-0.5602874755859375,0.5203094482421875,0.4105682373046875
1772806476980240400,7.178240478515625,-0.598876953125,0.510406494140625,0.4666900634765625
1772806476990172400,7.18817236328125,-0.638092041015625,0.5557098388671875,0.458282470703125
1772806477000103200,7.198103271484375,-0.6898651123046875,0.6251068115234375,0.3641510009765625
1772806477010035200,7.20803515625,-0.7462921142578125,0.6963043212890625,0.2450103759765625
1772806477019966500,7.217966552734375,-0.79608154296875,0.77618408203125,0.1749267578125
1772806477029897200,7.227897216796875,-0.8391571044921875,0.8026123046875,0.129730224609375
1772806477039829200,7.237829345703125,-0.8761749267578125,0.812469482421875,0.1224212646484375
1772806477049760300,7.24776025390625,-0.9025726318359375,0.8177642822265625,0.1397857666015625
1772806477059692300,7.2576923828125,-0.919769287109375,0.7859039306640625,0.184326171875
1772806477069623300,7.267623291015625,-0.9286651611328125,0.74029541015625,0.24420166015625
1772806477079554300,7.27755419921875,-0.936279296875,0.6884002685546875,0.3079376220703125
1772806477089486300,7.287486328125,-0.93011474609375,0.6491241455078125,0.3474884033203125
1772806477099417000,7.2974169921875,-0.904144287109375,0.62677001953125,0.361297607421875
1772806477109349400,7.307349365234375,-0.856536865234375,0.62396240234375,0.351837158203125
1772806477119280400,7.3172802734375,-0.7938385009765625,0.63128662109375,0.330291748046875
1772806477129212400,7.32721240234375,-0.7211456298828125,0.649810791015625,0.293426513671875
1772806477139143200,7.33714306640625,-0.649505615234375,0.67681884765625,0.2505950927734375
1772806477149074400,7.347074462890625,-0.599365234375,0.705780029296875,0.2113037109375
1772806477159006500,7.35700634765625,-0.5636138916015625,0.7361297607421875,0.1731719970703125
1772806477168937200,7.366937255859375,-0.55279541015625,0.7557830810546875,0.1414642333984375
1772806477178869200,7.376869140625,-0.554443359375,0.7711639404296875,0.146026611328125
1772806477188800300,7.38680029296875,-0.5787811279296875,0.7772216796875,0.176666259765625
1772806477198731300,7.396731201171875,-0.6381988525390625,0.767913818359375,0.22198486328125
1772806477208663300,7.406663330078125,-0.7021331787109375,0.7508544921875,0.2857818603515625
1772806477218594300,7.41659423828125,-0.76788330078125,0.7242584228515625,0.3557891845703125
1772806477228526300,7.4265263671875,-0.830413818359375,0.7021636962890625,0.427459716796875
1772806477238457000,7.43645703125,-0.8446502685546875,0.700836181640625,0.4897308349609375
1772806477248388400,7.446388427734375,-0.8343353271484375,0.7271881103515625,0.4921112060546875
1772806477258320400,7.4563203125,-0.83172607421875,0.7904052734375,0.3872833251953125
1772806477268250600,7.466250732421875,-0.82696533203125,0.865753173828125,0.2647552490234375
1772806477278182700,7.4761826171875,-0.8241424560546875,0.906341552734375,0.1634368896484375
1772806477288113700,7.48611376953125,-0.8280792236328125,0.932891845703125,0.104278564453125
1772806477298045700,7.496045654296875,-0.809906005859375,0.9581298828125,0.0590667724609375
1772806477307976700,7.505976806640625,-0.791412353515625,0.9857025146484375,0.0211181640625
1772806477317907500,7.515907470703125,-0.753448486328125,1.014923095703125,-0.0015716552734375
1772806477327839500,7.525839599609375,-0.7347869873046875,1.023345947265625,-0.0238189697265625
1772806477337770800,7.535770751953125,-0.730560302734375,1.003997802734375,-0.0308074951171875
1772806477347702800,7.545702880859375,-0.73583984375,0.9642486572265625,-0.0256805419921875
1772806477357633500,7.555633544921875,-0.780609130859375,0.89324951171875,0.0105438232421875
1772806477367564800,7.565564697265625,-0.775115966796875,0.8167724609375,0.0865936279296875
1772806477377496800,7.575496826171875,-0.760009765625,0.7305908203125,0.174652099609375
1772806477387427600,7.585427490234375,-0.7093048095703125,0.6622467041015625,0.2665863037109375
1772806477397359600,7.595359619140625,-0.6432647705078125,0.611663818359375,0.357269287109375
1772806477407290600,7.60529052734375,-0.556243896484375,0.57684326171875,0.4434661865234375
1772806477417222000,7.615221923828125,-0.45269775390625,0.56927490234375,0.519683837890625
1772806477427153700,7.625153564453125,-0.3636932373046875,0.5741119384765625,0.549224853515625
1772806477437084700,7.635084716796875,-0.283660888671875,0.607666015625,0.5445709228515625
1772806477447016700,7.6450166015625,-0.2310638427734375,0.6408538818359375,0.516693115234375
1772806477456947500,7.654947509765625,-0.2657470703125,0.6574249267578125,0.4717864990234375
1772806477466879500,7.66487939453125,-0.378662109375,0.6797637939453125,0.422393798828125
1772806477476810800,7.674810791015625,-0.4923553466796875,0.700042724609375,0.383941650390625
1772806477486741800,7.68474169921875,-0.585357666015625,0.73687744140625,0.3332977294921875
1772806477496673500,7.694673583984375,-0.712982177734375,0.7279052734375,0.2889556884765625
1772806477506604500,7.7046044921875,-0.8182220458984375,0.7332763671875,0.25286865234375
1772806477516536800,7.714536865234375,-0.891387939453125,0.723663330078125,0.22467041015625
1772806477526467600,7.724467529296875,-0.9268341064453125,0.6978912353515625,0.2140350341796875
1772806477536398600,7.734398681640625,-0.9255828857421875,0.6618499755859375,0.220550537109375
1772806477546330600,7.74433056640625,-0.883331298828125,0.6282196044921875,0.224945068359375
1772806477556262000,7.754261962890625,-0.819580078125,0.5970306396484375,0.2194671630859375
1772806477566193700,7.764193603515625,-0.7412109375,0.5713958740234375,0.2064056396484375
1772806477576124700,7.774124755859375,-0.6504974365234375,0.56097412109375,0.182952880859375
1772806477586055700,7.7840556640625,-0.5807952880859375,0.5577392578125,0.1512603759765625
1772806477595987500,7.793987548828125,-0.529876708984375,0.5550994873046875,0.123382568359375
1772806477605918700,7.803918701171875,-0.4798431396484375,0.5573883056640625,0.1078033447265625
1772806477615850800,7.813850830078125,-0.443267822265625,0.55584716796875,0.109375
1772806477625781800,7.82378173828125,-0.42962646484375,0.55706787109375,0.1318206787109375
1772806477635713500,7.833713623046875,-0.4230499267578125,0.5472869873046875,0.1588287353515625
1772806477645644500,7.84364453125,-0.4498443603515625,0.5361480712890625,0.20751953125
1772806477655575800,7.853575927734375,-0.499114990234375,0.5213623046875,0.2662200927734375
1772806477665507600,7.863507568359375,-0.5650634765625,0.5089111328125,0.342437744140625
1772806477675438600,7.8734384765625,-0.607421875,0.50579833984375,0.39990234375
1772806477685370600,7.88337060546875,-0.6297760009765625,0.5037384033203125,0.4376373291015625
1772806477695302000,7.893302001953125,-0.63446044921875,0.5045318603515625,0.4613800048828125
1772806477705232600,7.903232666015625,-0.6157989501953125,0.509521484375,0.4751434326171875
1772806477715164700,7.91316455078125,-0.6016998291015625,0.5076446533203125,0.478851318359375
1772806477725095700,7.923095703125,-0.586944580078125,0.5001678466796875,0.4953460693359375
1772806477735027500,7.93302734375,-0.5743255615234375,0.4928741455078125,0.5148773193359375
1772806477744958700,7.942958740234375,-0.5901947021484375,0.4686431884765625,0.52410888671875
1772806477754889700,7.9528896484375,-0.63616943359375,0.46624755859375,0.4805908203125
1772806477764821800,7.96282177734375,-0.643463134765625,0.48907470703125,0.4106903076171875
1772806477774752500,7.97275244140625,-0.637725830078125,0.50006103515625,0.3409423828125
1772806477784684500,7.9826845703125,-0.630035400390625,0.5168914794921875,0.2817230224609375
1772806477794615800,7.99261572265625,-0.6251220703125,0.535186767578125,0.242950439453125
1772806477804547800,8.0025478515625,-0.644287109375,0.5620269775390625,0.2243499755859375
1772806477814478600,8.012478515625,-0.6843414306640625,0.5695648193359375,0.2152557373046875
1772806477824409600,8.02240966796875,-0.7370758056640625,0.5845947265625,0.231658935546875
1772806477834342000,8.032341796875,-0.77105712890625,0.6100921630859375,0.244781494140625
1772806477844272600,8.042272705078124,-0.7900238037109375,0.647247314453125,0.251861572265625
1772806477854204700,8.05220458984375,-0.810760498046875,0.6884613037109375,0.26434326171875
1772806477864135700,8.0621357421875,-0.835845947265625,0.7208709716796875,0.2880859375
1772806477874066700,8.072066650390624,-0.8906707763671875,0.7366790771484375,0.3350067138671875
1772806477883998700,8.081998779296875,-0.9698638916015625,0.7237091064453125,0.4015350341796875
1772806477893929700,8.0919296875,-1.0639801025390625,0.693328857421875,0.4960174560546875
1772806477903861800,8.10186181640625,-1.1469573974609375,0.6595001220703125,0.5733795166015625
1772806477913792500,8.11179248046875,-1.202606201171875,0.6419525146484375,0.6103515625
1772806477923723800,8.121723876953125,-1.2015380859375,0.64410400390625,0.572662353515625
1772806477933655800,8.13165576171875,-1.12689208984375,0.67388916015625,0.4970703125
1772806477943586600,8.141586669921875,-1.0067901611328125,0.711212158203125,0.4219512939453125
1772806477953518600,8.1515185546875,-0.8748931884765625,0.7425994873046875,0.3462982177734375
1772806477963449600,8.16144970703125,-0.750946044921875,0.774017333984375,0.2848968505859375
1772806477973381600,8.171381591796875,-0.6848602294921875,0.8065643310546875,0.23223876953125
1772806477983312600,8.181312744140625,-0.664642333984375,0.831268310546875,0.1855926513671875
1772806477993243600,8.19124365234375,-0.6557769775390625,0.8367156982421875,0.1912384033203125
1772806478003175700,8.20117578125,-0.6158905029296875,0.809844970703125,0.2523193359375
1772806478013106700,8.211106689453125,-0.6227569580078125,0.7606964111328125,0.390533447265625
1772806478023038700,8.221038818359375,-0.696929931640625,0.7096710205078125,0.496856689453125
1772806478032969700,8.2309697265625,-0.728851318359375,0.7008514404296875,0.572235107421875
1772806478042900500,8.240900390625,-0.6858978271484375,0.70806884765625,0.5765838623046875
1772806478052832500,8.25083251953125,-0.5750274658203125,0.7491302490234375,0.528472900390625
1772806478062763800,8.260763671875,-0.453155517578125,0.8143310546875,0.400360107421875
1772806478072695800,8.27069580078125,-0.3430938720703125,0.882476806640625,0.228790283203125
1772806478082626600,8.28062646484375,-0.23907470703125,0.95050048828125,0.077392578125
1772806478092557600,8.2905576171875,-0.198028564453125,0.978515625,-0.0132293701171875
1772806478102489600,8.300489501953125,-0.233734130859375,0.9781494140625,-0.04547119140625
1772806478112420600,8.310420654296875,-0.3649444580078125,0.942962646484375,-0.0100555419921875
1772806478122352600,8.3203525390625,-0.5383453369140625,0.8977203369140625,0.10028076171875
1772806478132283600,8.33028369140625,-0.6884918212890625,0.830780029296875,0.2303009033203125
1772806478142214700,8.340214599609375,-0.79351806640625,0.7512359619140625,0.3469390869140625
1772806478152146700,8.350146728515625,-0.8112335205078125,0.69476318359375,0.4357147216796875
1772806478162079500,8.36007958984375,-0.7451934814453125,0.6708526611328125,0.4649505615234375
1772806478172010800,8.3700107421875,-0.64605712890625,0.67022705078125,0.4359130859375
1772806478181941800,8.379941650390625,-0.5211334228515625,0.69024658203125,0.3716278076171875
1772806478191873800,8.389873779296876,-0.3850555419921875,0.71966552734375,0.2921905517578125
1772806478201804500,8.399804443359375,-0.2666473388671875,0.7417449951171875,0.2115631103515625
1772806478211736600,8.409736572265626,-0.233612060546875,0.7527313232421875,0.1755523681640625
1772806478221667800,8.419667724609376,-0.304046630859375,0.7477569580078125,0.1713714599609375
1772806478231598600,8.4295986328125,-0.4134063720703125,0.7357025146484375,0.202178955078125
1772806478241530600,8.439530517578126,-0.5303192138671875,0.7101593017578125,0.235382080078125
1772806478251461600,8.449461669921876,-0.6304931640625,0.677764892578125,0.2512664794921875
1772806478261393700,8.4593935546875,-0.688873291015625,0.66265869140625,0.259796142578125
1772806478271325200,8.4693251953125,-0.6906280517578125,0.659759521484375,0.245941162109375
1772806478281257200,8.47925732421875,-0.6663360595703125,0.6701812744140625,0.219482421875
1772806478291188200,8.489188232421874,-0.624786376953125,0.6859130859375,0.195343017578125
1772806478301119000,8.499118896484376,-0.5710601806640625,0.70806884765625,0.1768798828125
1772806478311051000,8.509051025390624,-0.53155517578125,0.7260284423828125,0.16619873046875
1772806478320982300,8.518982177734374,-0.5148162841796875,0.75,0.178192138671875
1772806478330914300,8.528914306640624,-0.5302276611328125,0.7748260498046875,0.1968231201171875
1772806478340845000,8.538844970703124,-0.565216064453125,0.79656982421875,0.2219085693359375
1772806478350776300,8.5487763671875,-0.605712890625,0.8149261474609375,0.2469024658203125
1772806478360708400,8.558708251953124,-0.6422119140625,0.831451416015625,0.2663116455078125
1772806478370639000,8.56863916015625,-0.677490234375,0.84136962890625,0.27911376953125
1772806478380571100,8.578571044921874,-0.7039947509765625,0.8480072021484375,0.287200927734375
1772806478390502100,8.588502197265624,-0.7165985107421875,0.85052490234375,0.290985107421875
1772806478400433200,8.59843310546875,-0.7290191650390625,0.840118408203125,0.290283203125
1772806478410365200,8.608365234375,-0.7137908935546875,0.8195037841796875,0.288787841796875
1772806478420296200,8.618296142578124,-0.6736297607421875,0.792572021484375,0.29620361328125
1772806478430228200,8.628228271484375,-0.6212921142578125,0.7629852294921875,0.304931640625
1772806478440159000,8.638158935546874,-0.590606689453125,0.740509033203125,0.3087310791015625
1772806478450091000,8.648091064453125,-0.57635498046875,0.717071533203125,0.30084228515625
1772806478460022300,8.658022216796875,-0.5574798583984375,0.6966400146484375,0.2880706787109375
1772806478469953000,8.667953125,-0.5521087646484375,0.6832733154296875,0.2812957763671875
1772806478479885000,8.677885009765625,-0.56048583984375,0.6832122802734375,0.26885986328125
1772806478489816000,8.687816162109375,-0.5734405517578125,0.6869659423828125,0.2507476806640625
1772806478499748400,8.697748291015625,-0.595733642578125,0.6953277587890625,0.2288665771484375
1772806478509679000,8.70767919921875,-0.6151885986328125,0.710784912109375,0.204193115234375
1772806478519610000,8.717610107421875,-0.6336669921875,0.72491455078125,0.1770477294921875
1772806478529542100,8.727542236328125,-0.6456146240234375,0.7336883544921875,0.158660888671875
1772806478539473200,8.73747314453125,-0.6655120849609375,0.74072265625,0.1486358642578125
1772806478549405200,8.7474052734375,-0.688018798828125,0.7497406005859375,0.13714599609375
1772806478559336200,8.757336181640625,-0.694610595703125,0.7585906982421875,0.13482666015625
1772806478569267200,8.76726708984375,-0.6963653564453125,0.7682342529296875,0.147674560546875
1772806478579199000,8.777198974609375,-0.68255615234375,0.771514892578125,0.177154541015625
1772806478589130200,8.787130126953125,-0.66644287109375,0.7707366943359375,0.212310791015625
1772806478599062300,8.797062255859375,-0.645111083984375,0.7682342529296875,0.2488861083984375
1772806478608993000,8.806992919921875,-0.6254119873046875,0.7649993896484375,0.27374267578125
1772806478618925000,8.816925048828125,-0.60791015625,0.7616119384765625,0.280364990234375
1772806478628856000,8.82685595703125,-0.588958740234375,0.7596893310546875,0.26910400390625
1772806478638787300,8.836787353515625,-0.5797271728515625,0.7496185302734375,0.2660675048828125
1772806478648719000,8.846718994140625,-0.5791473388671875,0.73809814453125,0.2610626220703125
1772806478658650000,8.856650146484375,-0.5916290283203125,0.7359161376953125,0.2587127685546875
1772806478668582100,8.86658203125,-0.582000732421875,0.73004150390625,0.2620391845703125
1772806478678513400,8.876513427734375,-0.5865936279296875,0.7162933349609375,0.270599365234375
1772806478688444200,8.886444091796875,-0.6028289794921875,0.716461181640625,0.2652130126953125
1772806478698376200,8.896376220703125,-0.61553955078125,0.7177276611328125,0.2640533447265625
1772806478708307200,8.90630712890625,-0.635986328125,0.7234344482421875,0.2565460205078125
1772806478718239000,8.916239013671875,-0.6540679931640625,0.7332000732421875,0.24072265625
1772806478728170200,8.926170166015625,-0.6648101806640625,0.745819091796875,0.24151611328125
1772806478738101200,8.936101318359375,-0.6714019775390625,0.7505950927734375,0.2507781982421875
1772806478748033300,8.946033203125,-0.6764984130859375,0.7460784912109375,0.26116943359375
