time,seconds_elapsed,z,y,x
1772806469871827200,0.0698271484375,-0.03292838856577873,-0.585189938545227,-0.4009113013744354
1772806469881759000,0.079759033203125,-0.12483460456132889,-0.7746645212173462,-0.5112988352775574
1772806469891690000,0.08968994140625,-0.22896040976047516,-0.9667101502418518,-0.6614983677864075
1772806469901621000,0.09962109375,-0.34156233072280884,-1.0918833017349243,-0.8223125338554382
1772806469911553000,0.109552978515625,-0.4608548879623413,-1.1120340824127197,-0.950941801071167
1772806469921484000,0.119484130859375,-0.5469839572906494,-1.0103846788406372,-1.0604525804519653
1772806469931416000,0.129416015625,-0.5216224789619446,-0.792169988155365,-1.1508539915084839
1772806469941347000,0.13934716796875,-0.3844606578350067,-0.49375298619270325,-1.2169767618179321
1772806469951279000,0.149279052734375,-0.12118793278932571,-0.2400413602590561,-1.3916760683059692
1772806469961210000,0.159210205078125,0.13351359963417053,-0.11288713663816452,-1.7181689739227295
1772806469971141000,0.16914111328125,0.3221399784088135,-0.19670774042606354,-2.183410406112671
1772806469981073200,0.1790732421875,0.43690091371536255,-0.37354403734207153,-2.7373130321502686
1772806469991004000,0.18900390625,0.4432406425476074,-0.5151389837265015,-3.2392213344573975
1772806470000936000,0.19893603515625,0.36235085129737854,-0.518924355506897,-3.6114931106567383
1772806470010867200,0.2088671875,0.24292896687984467,-0.3605044186115265,-3.7624740600585938
1772806470020799200,0.21879931640625,0.1973273903131485,-0.06251638382673264,-3.6677865982055664
1772806470030730000,0.22872998046875,0.2670242190361023,0.3300577998161316,-3.3402504920959473
1772806470040661000,0.238660888671875,0.43371281027793884,0.7062942981719971,-2.851597309112549
1772806470050593000,0.248593017578125,0.6608656048774719,1.051651120185852,-2.391465425491333
1772806470060524000,0.25852392578125,0.8263243436813354,1.2570303678512573,-2.085646629333496
1772806470070456000,0.2684560546875,0.8953737020492554,1.267730712890625,-2.074842929840088
1772806470080387000,0.278386962890625,0.8236406445503235,1.0931370258331299,-2.313532590866089
1772806470090319000,0.288319091796875,0.6319165825843811,0.7864980697631836,-2.724179267883301
1772806470100250000,0.29825,0.40888240933418274,0.44841238856315613,-3.2495641708374023
1772806470110181000,0.30818115234375,0.18335098028182983,0.17129983007907867,-3.7364296913146973
1772806470120113200,0.318113037109375,0.01845443621277809,0.04765219986438751,-4.096341133117676
1772806470130044000,0.3280439453125,-0.04105178266763687,0.09404633939266205,-4.269861221313477
1772806470139976000,0.337975830078125,0.14824438095092773,0.22669120132923126,-4.206106662750244
1772806470149907200,0.3479072265625,0.5933108329772949,0.4047189950942993,-3.88092041015625
1772806470159839200,0.357839111328125,1.0663124322891235,0.5410674810409546,-3.3628597259521484
1772806470169770000,0.36777001953125,1.3662291765213013,0.6016714572906494,-2.769730567932129
1772806470179701000,0.377700927734375,1.404213547706604,0.6096785068511963,-2.2002294063568115
1772806470189633000,0.387633056640625,1.256416916847229,0.5718427300453186,-1.739289402961731
1772806470199564000,0.39756396484375,1.016814947128296,0.48736751079559326,-1.4393223524093628
1772806470209496000,0.40749609375,0.7498485445976257,0.32386514544487,-1.3205863237380981
1772806470219427000,0.417427001953125,0.5203186869621277,0.10934299230575562,-1.374462604522705
1772806470229359000,0.427359130859375,0.40022313594818115,-0.13368350267410278,-1.527240514755249
1772806470239290000,0.4372900390625,0.43433281779289246,-0.3467167019844055,-1.7281012535095215
1772806470249221000,0.44722119140625,0.5904807448387146,-0.4544375538825989,-1.8760323524475098
1772806470259153000,0.45715283203125,0.7645212411880493,-0.40845274925231934,-1.8998929262161255
1772806470269084000,0.467083984375,0.8677518963813782,-0.24072712659835815,-1.790337085723877
1772806470279016000,0.477015869140625,0.8866044282913208,-0.029933400452136993,-1.5787273645401
1772806470288947000,0.486947021484375,0.8327316045761108,0.1366952657699585,-1.3399423360824585
1772806470298879000,0.49687890625,0.7299975156784058,0.20994576811790466,-1.1363493204116821
1772806470308810000,0.50681005859375,0.5875087380409241,0.19691039621829987,-0.9779924750328064
1772806470318740700,0.51674072265625,0.43538475036621094,0.11196807771921158,-0.882760763168335
1772806470328672800,0.5266728515625,0.30240607261657715,-0.08446216583251953,-0.9113292098045349
1772806470338604000,0.53660400390625,0.2680153250694275,-0.2845563590526581,-1.086470127105713
1772806470348536000,0.5465361328125,0.3245837390422821,-0.46595463156700134,-1.3149746656417847
1772806470358466800,0.556466796875,0.38246992230415344,-0.577795684337616,-1.4790080785751343
1772806470368398800,0.56639892578125,0.4076486825942993,-0.58817458152771,-1.5587866306304932
1772806470378330000,0.576330078125,0.38745155930519104,-0.5518556833267212,-1.540536880493164
1772806470388260900,0.5862607421875,0.30307623744010925,-0.5282838344573975,-1.4410322904586792
1772806470398193000,0.59619287109375,0.18494026362895966,-0.5160809755325317,-1.289222002029419
1772806470408124000,0.6061240234375,0.060501497238874435,-0.4919915795326233,-1.1149787902832031
1772806470418056000,0.616055908203125,-0.05332120507955551,-0.5189976096153259,-0.9188322424888611
1772806470427987000,0.625987060546875,-0.09655826538801193,-0.5795618891716003,-0.7175115942955017
1772806470437918000,0.63591796875,-0.06777508556842804,-0.6173473596572876,-0.5069010853767395
1772806470447850000,0.64585009765625,0.01894279383122921,-0.5631458759307861,-0.2744317650794983
1772806470457780700,0.65578076171875,0.11597426235675812,-0.44316813349723816,-0.05385173112154007
1772806470467712800,0.665712646484375,0.2362232208251953,-0.273385226726532,0.06058904901146889
1772806470477644000,0.67564404296875,0.3228912651538849,-0.13921408355236053,0.05277480185031891
1772806470487576000,0.685576171875,0.3401024639606476,-0.07563670724630356,-0.0446561761200428
1772806470497506800,0.6955068359375,0.2850876748561859,-0.0831843763589859,-0.1882101446390152
1772806470507437800,0.705437744140625,0.16938278079032898,-0.1835930049419403,-0.3484679162502289
1772806470517370000,0.7153701171875,0.03321322053670883,-0.29293495416641235,-0.4925728738307953
1772806470527300900,0.72530078125,-0.05398543179035187,-0.41854292154312134,-0.6196180582046509
1772806470537233000,0.73523291015625,-0.0786534920334816,-0.5634695291519165,-0.7235478758811951
1772806470547164000,0.745163818359375,-0.02949201688170433,-0.6964142322540283,-0.7995103597640991
1772806470557096000,0.755095947265625,0.0898791179060936,-0.8225317001342773,-0.8577193021774292
1772806470567027000,0.76502685546875,0.2339981496334076,-0.8833494782447815,-0.9075006246566772
1772806470576958000,0.7749580078125,0.35000088810920715,-0.8543279767036438,-0.9249754548072815
1772806470586890000,0.784889892578125,0.43944090604782104,-0.7826564311981201,-0.9156219363212585
1772806470596820700,0.79482080078125,0.5070460438728333,-0.7090953588485718,-0.8797580003738403
1772806470606752800,0.804752685546875,0.5623398423194885,-0.7006577253341675,-0.8470277190208435
1772806470616684000,0.81468408203125,0.5836694240570068,-0.7543627619743347,-0.8355222940444946
1772806470626616000,0.824615966796875,0.5492925047874451,-0.810757577419281,-0.838338315486908
1772806470636546800,0.834546875,0.4410840570926666,-0.8252542018890381,-0.8308945298194885
1772806470646477800,0.844477783203125,0.2668435871601105,-0.738666832447052,-0.7686327695846558
1772806470656409900,0.854409912109375,0.012995044700801373,-0.5746222734451294,-0.6500068306922913
1772806470666340900,0.8643408203125,-0.26310640573501587,-0.3294931948184967,-0.4692809581756592
1772806470676273000,0.87427294921875,-0.5157681703567505,-0.05664622783660889,-0.23999716341495514
1772806470686204000,0.884203857421875,-0.6866443157196045,0.19409435987472534,0.015313595533370972
1772806470696136000,0.894135986328125,-0.7154080867767334,0.39338669180870056,0.2594687342643738
1772806470706067000,0.90406689453125,-0.5621211528778076,0.48518744111061096,0.4860093891620636
1772806470715998000,0.913998046875,-0.3054576516151428,0.49934694170951843,0.6881145238876343
1772806470725930000,0.923929931640625,0.05806572735309601,0.5078080892562866,0.7365201115608215
1772806470735860700,0.93386083984375,0.3417845070362091,0.36705201864242554,0.7522721886634827
1772806470745792800,0.943792724609375,0.5736340880393982,0.18054181337356567,0.6525267362594604
1772806470755724000,0.95372412109375,0.7443693280220032,-0.12694036960601807,0.45229801535606384
1772806470765656000,0.963656005859375,0.838892936706543,-0.4879709780216217,0.21253687143325806
1772806470775586800,0.9735869140625,0.8859944343566895,-0.795730710029602,0.01288235280662775
1772806470785517800,0.983517822265625,0.9000899791717529,-1.0030460357666016,-0.11163325607776642
1772806470795449900,0.993449951171875,0.8946473002433777,-1.090649127960205,-0.15985432267189026
1772806470805380900,1.003380859375,0.8761084079742432,-1.0346179008483887,-0.11442297697067261
1772806470815313000,1.01331298828125,0.864172637462616,-0.8866978883743286,-0.02922685630619526
1772806470825244000,1.023243896484375,0.8568819761276245,-0.6677812933921814,0.05301688611507416
1772806470835176000,1.033176025390625,0.8521013259887695,-0.461376428604126,0.06747012585401535
1772806470845107000,1.04310693359375,0.8471909165382385,-0.34827035665512085,-0.01510988362133503
1772806470855038000,1.053037841796875,0.8202325701713562,-0.3640677034854889,-0.14393417537212372
1772806470864970000,1.062969970703125,0.760965883731842,-0.4736219048500061,-0.24742428958415985
1772806470874900700,1.072900634765625,0.6830548048019409,-0.5574774146080017,-0.27536511421203613
1772806470884832800,1.082832763671875,0.5921229124069214,-0.5537923574447632,-0.2149697095155716
1772806470894764000,1.092763916015625,0.48983627557754517,-0.44596707820892334,-0.10429325699806213
1772806470904696000,1.102696044921875,0.401530385017395,-0.3137882947921753,-0.023967335000634193
1772806470914626800,1.112626708984375,0.3325294554233551,-0.20026813447475433,-0.00673961266875267
1772806470924557800,1.122557861328125,0.286626398563385,-0.15561196208000183,-0.07207509130239487
1772806470934489900,1.13248974609375,0.2750573754310608,-0.15853185951709747,-0.19111120700836182
1772806470944420900,1.1424208984375,0.292516827583313,-0.19335827231407166,-0.36526134610176086
1772806470954353000,1.152352783203125,0.35664626955986023,-0.2239827662706375,-0.5410643219947815
1772806470964284000,1.162283935546875,0.44280412793159485,-0.2406807839870453,-0.6745973229408264
1772806470974216000,1.1722158203125,0.5377058982849121,-0.28604450821876526,-0.7649213671684265
1772806470984147000,1.18214697265625,0.6048902869224548,-0.3162977993488312,-0.8032329082489014
1772806470994078000,1.192077880859375,0.6070024371147156,-0.32420551776885986,-0.7918490171432495
1772806471004010000,1.202010009765625,0.5654863119125366,-0.31870102882385254,-0.7328717708587646
1772806471013940700,1.211940673828125,0.492954820394516,-0.28923556208610535,-0.6405050754547119
1772806471023872800,1.221872802734375,0.416778028011322,-0.281267374753952,-0.5498450994491577
1772806471033804000,1.231803955078125,0.360521137714386,-0.2939107120037079,-0.47438281774520874
1772806471043736000,1.241736083984375,0.31049320101737976,-0.3337699770927429,-0.4276147484779358
1772806471053666800,1.251666748046875,0.27842316031455994,-0.3885115087032318,-0.43861812353134155
1772806471063597800,1.261597900390625,0.256820946931839,-0.44303759932518005,-0.4813282787799835
1772806471073529900,1.27152978515625,0.25152257084846497,-0.4769502878189087,-0.5364828705787659
1772806471083460900,1.2814609375,0.2449771761894226,-0.47372496128082275,-0.5948296189308167
1772806471093393000,1.291392822265625,0.21896661818027496,-0.39937856793403625,-0.6246482133865356
1772806471103324000,1.301323974609375,0.20156490802764893,-0.2999683618545532,-0.6291748881340027
1772806471113256000,1.311255859375,0.18742698431015015,-0.22936740517616272,-0.6433194875717163
1772806471123187000,1.32118701171875,0.1553463637828827,-0.27173060178756714,-0.701591968536377
1772806471133118000,1.331117919921875,0.13224449753761292,-0.5013440847396851,-0.8026165962219238
1772806471143050000,1.341050048828125,0.11094263941049576,-0.6457628011703491,-0.7832888960838318
1772806471152980700,1.350980712890625,0.10802700370550156,-0.6747044324874878,-0.7010571360588074
1772806471162912800,1.360912841796875,0.1181047186255455,-0.6812190413475037,-0.6100112199783325
1772806471172844000,1.370843994140625,0.1267125904560089,-0.695094883441925,-0.5481201410293579
1772806471182775000,1.380775146484375,0.13582491874694824,-0.7396125793457031,-0.5390270948410034
1772806471192706800,1.390706787109375,0.15558823943138123,-0.7299929857254028,-0.5439440608024597
1772806471202637800,1.400637939453125,0.19199493527412415,-0.6482145190238953,-0.5673860907554626
1772806471212569900,1.41056982421875,0.24163146317005157,-0.5488189458847046,-0.6202383637428284
1772806471222500900,1.4205009765625,0.3210258483886719,-0.468549907207489,-0.6405858397483826
1772806471232433000,1.430432861328125,0.4192959666252136,-0.4251611530780792,-0.5889649987220764
1772806471242364000,1.440364013671875,0.4896019399166107,-0.4280565679073334,-0.4762464463710785
1772806471252295000,1.450294921875,0.5212400555610657,-0.44987156987190247,-0.3388267755508423
1772806471262227200,1.460227294921875,0.5259501338005066,-0.45052218437194824,-0.2087240368127823
1772806471272158200,1.470158203125,0.5076004266738892,-0.4422115087509155,-0.09881830215454102
1772806471282090200,1.48009033203125,0.4645126760005951,-0.43834537267684937,-0.03452648967504501
1772806471292021200,1.490021240234375,0.41292673349380493,-0.4286658763885498,-0.025429662317037582
1772806471301953300,1.499953369140625,0.36424580216407776,-0.40409183502197266,-0.07784292101860046
1772806471311884300,1.50988427734375,0.3405684232711792,-0.3880670666694641,-0.16780290007591248
1772806471321815300,1.519815185546875,0.346888929605484,-0.4007463753223419,-0.2793092131614685
1772806471331747300,1.529747314453125,0.3699628412723541,-0.43061238527297974,-0.36510801315307617
1772806471341678000,1.539677978515625,0.3745248019695282,-0.4827924966812134,-0.4232631325721741
1772806471351610000,1.549610107421875,0.3595309555530548,-0.5660516619682312,-0.45700299739837646
1772806471361541400,1.559541259765625,0.34701603651046753,-0.6456423997879028,-0.4628041982650757
1772806471371473400,1.569473388671875,0.3448932468891144,-0.7243809103965759,-0.4478428363800049
1772806471381404200,1.579404052734375,0.35347649455070496,-0.7657046318054199,-0.4222192168235779
1772806471391335200,1.589335205078125,0.3763487935066223,-0.7923170924186707,-0.39902013540267944
1772806471401267200,1.59926708984375,0.43560850620269775,-0.838995099067688,-0.3909936845302582
1772806471411198200,1.6091982421875,0.5254968404769897,-0.8885493278503418,-0.4038868248462677
1772806471421130200,1.619130126953125,0.6312574744224548,-0.9210997819900513,-0.4142986834049225
1772806471431061200,1.629061279296875,0.7409639954566956,-0.9593374133110046,-0.4273851811885834
1772806471440993300,1.6389931640625,0.8521485328674316,-1.0082751512527466,-0.4525955617427826
1772806471450924000,1.648924072265625,0.9299620985984802,-1.062394618988037,-0.45752614736557007
1772806471460855300,1.658855224609375,0.9769822955131531,-1.134944200515747,-0.44429048895835876
1772806471470787300,1.668787353515625,1.0139297246932983,-1.2130285501480103,-0.4001310169696808
1772806471480718000,1.678718017578125,1.0386351346969604,-1.2607234716415405,-0.312399297952652
1772806471490650000,1.688650146484375,1.0446040630340576,-1.2972817420959473,-0.2212158590555191
1772806471500581400,1.698581298828125,1.0230993032455444,-1.3219116926193237,-0.1352699100971222
1772806471510513400,1.708513427734375,0.959610641002655,-1.2980918884277344,-0.048365384340286255
1772806471520444200,1.718444091796875,0.9330669045448303,-1.2407786846160889,-0.006355967838317156
1772806471530375200,1.728375244140625,0.9202677607536316,-1.1220592260360718,0.04395114257931709
1772806471540307200,1.73830712890625,0.9236329793930054,-0.9582698345184326,0.14047501981258392
1772806471550238200,1.74823828125,0.9474022388458252,-0.7732049226760864,0.28141000866889954
1772806471560170200,1.758170166015625,0.9214550256729126,-0.5889425873756409,0.46193361282348633
1772806471570101200,1.768101318359375,0.8683564066886902,-0.4596898555755615,0.6230154633522034
1772806471580032000,1.778031982421875,0.8170068264007568,-0.36934900283813477,0.7380950450897217
1772806471589964000,1.787964111328125,0.7829161882400513,-0.27380916476249695,0.795671820640564
1772806471599895300,1.797895263671875,0.7732102870941162,-0.19136250019073486,0.7692422866821289
1772806471609827300,1.807827392578125,0.778003454208374,-0.09033788740634918,0.7168160676956177
1772806471619758000,1.817758056640625,0.7872846126556396,-0.055825717747211456,0.7061061859130859
1772806471629690000,1.827690185546875,0.7692022323608398,-0.11951121687889099,0.7132394313812256
1772806471639621400,1.837621337890625,0.6555877923965454,-0.22208526730537415,0.7723115086555481
1772806471649552100,1.84755224609375,0.48804113268852234,-0.29182547330856323,0.8745100498199463
1772806471659484200,1.857484130859375,0.33322444558143616,-0.363422155380249,0.9294496774673462
1772806471669415200,1.867415283203125,0.20881247520446777,-0.44043201208114624,0.9284480214118958
1772806471679347200,1.87734716796875,0.16039258241653442,-0.4653618335723877,0.8677606582641602
1772806471689278200,1.8872783203125,0.2219158560037613,-0.5731098651885986,0.6210132241249084
1772806471699210200,1.897210205078125,0.38847413659095764,-0.817248523235321,0.17373842000961304
1772806471709141200,1.907141357421875,0.5691086649894714,-0.9466925263404846,-0.215781107544899
1772806471719072000,1.917072021484375,0.7508704662322998,-0.8643049597740173,-0.44022253155708313
1772806471729004000,1.927004150390625,0.8410443067550659,-0.7042396664619446,-0.5047804713249207
1772806471738935300,1.936935302734375,0.807442843914032,-0.6260039806365967,-0.5000084638595581
1772806471748867300,1.946867431640625,0.6482803225517273,-0.6492459177970886,-0.41835567355155945
1772806471758798000,1.956798095703125,0.4259077310562134,-0.7212356925010681,-0.263561487197876
1772806471768729000,1.96672900390625,0.2091173678636551,-0.770779550075531,-0.044711433351039886
1772806471778661400,1.976661376953125,0.08383984118700027,-0.8033260107040405,0.17437675595283508
1772806471788592000,1.986592041015625,0.041958440095186234,-0.7766408920288086,0.3941602408885956
1772806471798524200,1.996524169921875,0.06855882704257965,-0.6525642275810242,0.607753574848175
1772806471808455200,2.006455078125,0.1167077124118805,-0.40239137411117554,0.8243823051452637
1772806471818387200,2.01638720703125,0.13280974328517914,-0.09226948767900467,1.0293368101119995
1772806471828318200,2.026318115234375,0.12820860743522644,0.18339112401008606,1.1714787483215332
1772806471838249200,2.036249267578125,0.09678558260202408,0.37694859504699707,1.2184512615203857
1772806471848181200,2.04618115234375,0.04759140685200691,0.46197375655174255,1.1666322946548462
1772806471858112000,2.056112060546875,0.0008416532073169947,0.440388023853302,1.0310672521591187
1772806471868044000,2.0660439453125,-0.021707065403461456,0.3562244176864624,0.8396061658859253
1772806471877975300,2.075975341796875,-0.02748088911175728,0.19410556554794312,0.6519079804420471
1772806471887907300,2.0859072265625,-0.02093510702252388,0.03770796209573746,0.4608735740184784
1772806471897838000,2.095838134765625,-0.014813004992902279,-0.07645750045776367,0.2927471697330475
1772806471907769000,2.10576904296875,-0.0017960068071261048,-0.12737473845481873,0.15983067452907562
1772806471917701000,2.115701171875,0.0032147399615496397,-0.12456856667995453,0.05463387817144394
1772806471927632100,2.125632080078125,0.001139338593930006,-0.06707091629505157,-0.019651267677545547
1772806471937564200,2.135564208984375,-0.012243887409567833,0.0077508543618023396,-0.07711710780858994
1772806471947495200,2.1454951171875,-0.034408845007419586,0.09285509586334229,-0.12394985556602478
1772806471957427200,2.15542724609375,-0.06915567070245743,0.14677239954471588,-0.16147835552692413
1772806471967358200,2.165358154296875,-0.1041480079293251,0.18472111225128174,-0.18228189647197723
1772806471977289200,2.175289306640625,-0.13315977156162262,0.22300298511981964,-0.19060377776622772
1772806471987221200,2.18522119140625,-0.15003223717212677,0.2528357207775116,-0.16908970475196838
1772806471997152300,2.19515234375,-0.1434372216463089,0.25824061036109924,-0.1513350009918213
1772806472007084000,2.205083984375,-0.12054017186164856,0.22585123777389526,-0.14961940050125122
1772806472017015300,2.215015380859375,-0.08805042505264282,0.19551728665828705,-0.16730494797229767
1772806472026946300,2.2249462890625,-0.06914437562227249,0.16792374849319458,-0.18099546432495117
1772806472036878000,2.234878173828125,-0.06442815065383911,0.1821410357952118,-0.1825004667043686
1772806472046809000,2.24480908203125,-0.08341488987207413,0.20242127776145935,-0.19658832252025604
1772806472056741000,2.2547412109375,-0.10747622698545456,0.180268332362175,-0.2479258030653
1772806472066672400,2.26467236328125,-0.14462760090827942,0.1513431966304779,-0.263633668422699
1772806472076604200,2.274604248046875,-0.16843174397945404,0.1596871167421341,-0.24957361817359924
1772806472086535200,2.28453515625,-0.19088990986347198,0.16764545440673828,-0.2610001862049103
1772806472096466200,2.294466064453125,-0.21650853753089905,0.17515236139297485,-0.2972499132156372
1772806472106398200,2.304398193359375,-0.2596072554588318,0.18165580928325653,-0.3366343379020691
1772806472116329200,2.3143291015625,-0.3275679349899292,0.19711866974830627,-0.36781609058380127
1772806472126261200,2.32426123046875,-0.4157971143722534,0.23304098844528198,-0.41996103525161743
1772806472136192300,2.334192138671875,-0.516869306564331,0.24128292500972748,-0.48865756392478943
1772806472146124000,2.3441240234375,-0.6278551816940308,0.20060262084007263,-0.5956660509109497
1772806472156055300,2.35405517578125,-0.7374436855316162,0.15041346848011017,-0.704312264919281
1772806472165986300,2.363986328125,-0.8175390958786011,0.09665782749652863,-0.7425922751426697
1772806472175918000,2.37391796875,-0.8348114490509033,0.06390254199504852,-0.6856048703193665
1772806472185849000,2.38384912109375,-0.7829024195671082,0.06567060947418213,-0.5478991866111755
1772806472195781000,2.393781005859375,-0.6558099389076233,0.05156145244836807,-0.38439056277275085
1772806472205712400,2.40371240234375,-0.48919615149497986,-0.03815564885735512,-0.21415624022483826
1772806472215643100,2.41364306640625,-0.32350531220436096,-0.14709250628948212,-0.04397621005773544
1772806472225575200,2.4235751953125,-0.1898878663778305,-0.19573141634464264,0.12036187201738358
1772806472235506200,2.433506103515625,-0.11518460512161255,-0.14261147379875183,0.2655383348464966
1772806472245438200,2.443438232421875,-0.0972071960568428,-0.027270236983895302,0.36513787508010864
1772806472255369200,2.453369140625,-0.10161096602678299,0.09044760465621948,0.392700731754303
1772806472265301500,2.463301513671875,-0.11556566506624222,0.1672734171152115,0.3849741220474243
1772806472275232300,2.473232177734375,-0.13828562200069427,0.15421062707901,0.37302473187446594
1772806472285163500,2.48316357421875,-0.1723668873310089,0.09291769564151764,0.3522355556488037
1772806472295095600,2.493095458984375,-0.22552070021629333,0.03912423178553581,0.3177298903465271
1772806472305026600,2.503026611328125,-0.2732962369918823,-0.004807004705071449,0.27055492997169495
1772806472314958300,2.512958251953125,-0.27192407846450806,-0.044436968863010406,0.2554170787334442
1772806472324889300,2.522889404296875,-0.22087474167346954,-0.03671327233314514,0.28429052233695984
1772806472334821400,2.5328212890625,-0.11094516515731812,-0.003956934437155724,0.3409312963485718
1772806472344752400,2.54275244140625,0.051648277789354324,-0.0653768852353096,0.3572101294994354
1772806472354683400,2.552683349609375,0.26358458399772644,-0.12798167765140533,0.36241722106933594
1772806472364615400,2.562615478515625,0.4406901001930237,-0.056680064648389816,0.44697630405426025
1772806472374546400,2.57254638671875,0.5216273069381714,0.18027496337890625,0.5859098434448242
1772806472384478200,2.582478271484375,0.45809435844421387,0.46162378787994385,0.6734969615936279
1772806472394409500,2.592409423828125,0.27115485072135925,0.691068172454834,0.6633928418159485
1772806472404340500,2.602340576171875,0.018769731745123863,0.7561885714530945,0.539696991443634
1772806472414272300,2.612272216796875,-0.24027705192565918,0.6835088133811951,0.35550054907798767
1772806472424203500,2.62220361328125,-0.4479178488254547,0.5314942598342896,0.10833709686994553
1772806472434135600,2.632135498046875,-0.5778204798698425,0.26085424423217773,-0.23474834859371185
1772806472444066600,2.642066650390625,-0.645269513130188,-0.15628521144390106,-0.6553938388824463
1772806472453998300,2.651998291015625,-0.5935907959938049,-0.3389551639556885,-0.84968501329422
1772806472463929300,2.661929443359375,-0.4746848940849304,-0.2249007672071457,-0.8555354475975037
1772806472473860600,2.671860595703125,-0.2786402702331543,0.029507815837860107,-0.6823119521141052
1772806472483792400,2.68179248046875,-0.030689597129821777,0.27872294187545776,-0.4554111361503601
1772806472493723400,2.691723388671875,0.21496637165546417,0.4656260311603546,-0.23870953917503357
1772806472503655400,2.701655517578125,0.3684616684913635,0.5978016257286072,-0.05115934833884239
1772806472513586400,2.71158642578125,0.415878027677536,0.6717756986618042,0.04521644115447998
1772806472523518200,2.721518310546875,0.36621779203414917,0.6549575924873352,0.03364900127053261
1772806472533449500,2.731449462890625,0.23103561997413635,0.6292128562927246,-0.015173044055700302
1772806472543380500,2.74138037109375,0.09793081879615784,0.5883253216743469,-0.07139850407838821
1772806472553312300,2.751312255859375,-0.009044621139764786,0.5030649900436401,-0.1479930281639099
1772806472563243300,2.7612431640625,-0.07619915157556534,0.38401398062705994,-0.2595430016517639
1772806472573175600,2.771175537109375,-0.09838273376226425,0.23843121528625488,-0.41262510418891907
1772806472583106600,2.7811064453125,-0.1009305864572525,0.10531336069107056,-0.579215407371521
1772806472593037300,2.791037353515625,-0.10940276831388474,0.001218926627188921,-0.7305033206939697
1772806472602969300,2.80096923828125,-0.11940906196832657,-0.09838489443063736,-0.8538260459899902
1772806472612900600,2.810900634765625,-0.16350413858890533,-0.1972036361694336,-0.9473989605903625
1772806472622832600,2.82083251953125,-0.2422889620065689,-0.2876187562942505,-1.0014488697052002
1772806472632763400,2.830763427734375,-0.32240283489227295,-0.3584881126880646,-1.0229249000549316
1772806472642695400,2.8406953125,-0.39233025908470154,-0.3981705605983734,-1.0157508850097656
1772806472652626400,2.85062646484375,-0.4369089603424072,-0.40445053577423096,-0.9824677109718323
1772806472662557400,2.860557373046875,-0.4395740032196045,-0.38058435916900635,-0.9256440997123718
1772806472672489500,2.870489501953125,-0.3965544104576111,-0.3667218089103699,-0.8609368205070496
1772806472682420500,2.88042041015625,-0.3250266909599304,-0.34022974967956543,-0.7741063237190247
1772806472692352500,2.8903525390625,-0.2146887630224228,-0.31285297870635986,-0.6759039759635925
1772806472702283300,2.900283203125,-0.11045477539300919,-0.27004292607307434,-0.5897203683853149
1772806472712214500,2.910214599609375,0.001242101308889687,-0.22367677092552185,-0.5107485055923462
1772806472722146600,2.920146484375,0.10292106121778488,-0.1818971037864685,-0.4714418351650238
1772806472732077300,2.930077392578125,0.16731436550617218,-0.13611124455928802,-0.4346258342266083
1772806472742009300,2.94000927734375,0.18809661269187927,-0.10429418832063675,-0.42234787344932556
1772806472751940600,2.949940673828125,0.1859893798828125,-0.09880887717008591,-0.3995911777019501
1772806472761872600,2.95987255859375,0.19612404704093933,-0.08023865520954132,-0.35166600346565247
1772806472771803400,2.969803466796875,0.22015933692455292,-0.08092149347066879,-0.2920338213443756
1772806472781734400,2.979734375,0.26552411913871765,-0.11398860812187195,-0.24563048779964447
1772806472791666400,2.98966650390625,0.32360905408859253,-0.18286381661891937,-0.20239616930484772
1772806472801597400,2.999597412109375,0.38858139514923096,-0.2734765410423279,-0.16169559955596924
1772806472811529500,3.009529541015625,0.45259130001068115,-0.357596218585968,-0.14839290082454681
1772806472821460500,3.01946044921875,0.51418536901474,-0.39159971475601196,-0.17679017782211304
1772806472831391200,3.02939111328125,0.5809234380722046,-0.38138648867607117,-0.23312139511108398
1772806472841323300,3.0393232421875,0.6221328973770142,-0.37139883637428284,-0.2776731550693512
1772806472851254500,3.049254638671875,0.6333325505256653,-0.377953439950943,-0.29922276735305786
1772806472861186600,3.0591865234375,0.6113966107368469,-0.42070356011390686,-0.3093225359916687
1772806472871117300,3.069117431640625,0.5685659646987915,-0.47186076641082764,-0.31693235039711
1772806472881049300,3.07904931640625,0.5090810656547546,-0.5237334966659546,-0.32942309975624084
1772806472890980600,3.088980712890625,0.4414193630218506,-0.5552501678466797,-0.36309513449668884
1772806472900911400,3.098911376953125,0.3696591556072235,-0.5912622213363647,-0.4182356297969818
1772806472910843400,3.108843505859375,0.3034168481826782,-0.6606804728507996,-0.4638940989971161
1772806472920774400,3.1187744140625,0.24436074495315552,-0.7326270937919617,-0.48329442739486694
1772806472930706400,3.12870654296875,0.1937982738018036,-0.8084065318107605,-0.4796935021877289
1772806472940637400,3.138637451171875,0.14699427783489227,-0.8755477666854858,-0.4575836658477783
1772806472950569500,3.148569580078125,0.14220911264419556,-0.9559808373451233,-0.45147618651390076
1772806472960500500,3.15850048828125,0.1690647006034851,-0.9850205183029175,-0.4279343783855438
1772806472970431200,3.16843115234375,0.21798796951770782,-0.9114314913749695,-0.3405952751636505
1772806472980363300,3.17836328125,0.27240675687789917,-0.7753660678863525,-0.17438259720802307
1772806472990294500,3.18829443359375,0.3389695882797241,-0.6291382908821106,0.006393914110958576
1772806473000226600,3.1982265625,0.3882652223110199,-0.5052006244659424,0.17940084636211395
1772806473010157300,3.2081572265625,0.419304221868515,-0.3685665726661682,0.3209843933582306
1772806473020088300,3.21808837890625,0.3949088752269745,-0.21271547675132751,0.4266948401927948
1772806473030020400,3.228020263671875,0.3471943140029907,-0.0028767536859959364,0.5833989977836609
1772806473039951400,3.237951416015625,0.29001089930534363,0.19935518503189087,0.7737553715705872
1772806473049883400,3.24788330078125,0.19166967272758484,0.3662506639957428,1.019033432006836
1772806473059814400,3.257814453125,0.0820411816239357,0.4621279239654541,1.302538275718689
1772806473069746400,3.267746337890625,0.017084559425711632,0.46350958943367004,1.4501700401306152
1772806473079677400,3.277677490234375,-0.03390059247612953,0.3824402987957001,1.4501873254776
1772806473089608400,3.2876083984375,-0.007455436047166586,0.18609026074409485,1.2429015636444092
1772806473099540500,3.29754052734375,0.07975989580154419,-0.10841061919927597,0.9205799698829651
1772806473109471200,3.30747119140625,0.2012251317501068,-0.36369726061820984,0.5969093441963196
1772806473119403300,3.3174033203125,0.32848402857780457,-0.48705726861953735,0.3360077440738678
1772806473129334500,3.32733447265625,0.39874395728111267,-0.4996558725833893,0.14788652956485748
1772806473139266600,3.3372666015625,0.4002569019794464,-0.5139956474304199,-0.014145256020128727
1772806473149197300,3.347197265625,0.3324349820613861,-0.5574504733085632,-0.1284470558166504
1772806473159128300,3.35712841796875,0.2202429324388504,-0.6246534585952759,-0.21553881466388702
1772806473169060400,3.367060302734375,0.05763521417975426,-0.7192571759223938,-0.2145000547170639
1772806473178991400,3.376991455078125,-0.1054501086473465,-0.721182644367218,-0.13664014637470245
1772806473188923400,3.38692333984375,-0.2052115947008133,-0.7060838937759399,-0.02697117254137993
1772806473198854400,3.3968544921875,-0.21378085017204285,-0.678283154964447,0.059462253004312515
1772806473208785400,3.406785400390625,-0.15676230192184448,-0.6048110723495483,0.16457109153270721
1772806473218717400,3.416717529296875,-0.08426759392023087,-0.3938698172569275,0.3395322263240814
1772806473228648400,3.4266484375,-0.018446536734700203,-0.05393514409661293,0.5930148959159851
1772806473238580500,3.43658056640625,-0.0016108308918774128,0.29848894476890564,0.8697428703308105
1772806473248511200,3.44651123046875,-0.025609634816646576,0.5972985625267029,1.0947319269180298
1772806473258443300,3.456443359375,-0.07846193015575409,0.7827531099319458,1.2214850187301636
1772806473268374000,3.4663740234375,-0.1630496382713318,0.8491110801696777,1.2375682592391968
1772806473278305000,3.476304931640625,-0.24299240112304688,0.8355928659439087,1.1605384349822998
1772806473288237000,3.486237060546875,-0.28995758295059204,0.7118781208992004,1.0104539394378662
1772806473298168000,3.49616796875,-0.2795043885707855,0.5391782522201538,0.8162751793861389
1772806473308100000,3.50610009765625,-0.2311025857925415,0.34658297896385193,0.5937285423278809
1772806473318031000,3.516031005859375,-0.15872424840927124,0.19736525416374207,0.3806708753108978
1772806473327962000,3.525962158203125,-0.10680129379034042,0.11034567654132843,0.20047755539417267
1772806473337894000,3.535893798828125,-0.07856406271457672,0.09043801575899124,0.08609772473573685
1772806473347825200,3.5458251953125,-0.09135487675666809,0.1473201960325241,0.013366824947297573
1772806473357757200,3.555757080078125,-0.13347409665584564,0.23908208310604095,-0.02031364105641842
1772806473367688000,3.56568798828125,-0.1908598095178604,0.31602081656455994,-0.058719586580991745
1772806473377620000,3.575619873046875,-0.2234736829996109,0.3647100627422333,-0.09770986437797546
1772806473387551000,3.585551025390625,-0.2452671229839325,0.39774978160858154,-0.15203070640563965
1772806473397482200,3.595482177734375,-0.2548515498638153,0.41959649324417114,-0.19370518624782562
1772806473407414000,3.6054140625,-0.2454645335674286,0.4071696400642395,-0.22954663634300232
1772806473417345000,3.615344970703125,-0.22129981219768524,0.3639785051345825,-0.24764655530452728
1772806473427277000,3.625277099609375,-0.19907283782958984,0.3215644657611847,-0.23319238424301147
1772806473437208000,3.6352080078125,-0.17486444115638733,0.3052683174610138,-0.18244130909442902
1772806473447140000,3.64514013671875,-0.153862863779068,0.3369881510734558,-0.11950928717851639
1772806473457071000,3.655071044921875,-0.14907236397266388,0.39467594027519226,-0.04869876429438591
1772806473467002000,3.665002197265625,-0.1443999707698822,0.4540894627571106,-0.0023096802178770304
1772806473476934000,3.674933837890625,-0.14899127185344696,0.5167672038078308,0.025388794019818306
1772806473486865200,3.684865234375,-0.16285333037376404,0.5527174472808838,0.01075164508074522
1772806473496797200,3.694797119140625,-0.18271438777446747,0.5297951102256775,-0.0662616416811943
1772806473506728000,3.70472802734375,-0.19831882417201996,0.478335976600647,-0.1811472624540329
1772806473516659000,3.714658935546875,-0.20767344534397125,0.4106711745262146,-0.27785754203796387
1772806473526591000,3.724591064453125,-0.21309885382652283,0.3638383746147156,-0.3473367989063263
1772806473536522200,3.734522216796875,-0.2193082720041275,0.35384300351142883,-0.3491203188896179
1772806473546454000,3.7444541015625,-0.23430901765823364,0.3429009020328522,-0.31406107544898987
1772806473556385000,3.754385009765625,-0.26217901706695557,0.31129395961761475,-0.2721138894557953
1772806473566317000,3.764317138671875,-0.32355305552482605,0.23010192811489105,-0.24932093918323517
1772806473576247800,3.774247802734375,-0.41734880208969116,0.11381978541612625,-0.258586585521698
1772806473586179000,3.784178955078125,-0.5162732601165771,-0.03457900136709213,-0.29937103390693665
1772806473596111000,3.794111083984375,-0.5860241055488586,-0.17540934681892395,-0.3344259560108185
1772806473606042000,3.8040419921875,-0.604091465473175,-0.26517975330352783,-0.3439936637878418
1772806473615974000,3.813973876953125,-0.5438435673713684,-0.2821001410484314,-0.3029530346393585
1772806473625905200,3.8239052734375,-0.43772512674331665,-0.1903584897518158,-0.19388651847839355
1772806473635836200,3.833836181640625,-0.3172524869441986,-0.06030115485191345,-0.03274024650454521
1772806473645768000,3.843767822265625,-0.21083153784275055,0.041160210967063904,0.12985046207904816
1772806473655699000,3.853698974609375,-0.13990597426891327,0.05105544999241829,0.24931587278842926
1772806473665631000,3.863630859375,-0.09510284662246704,-0.014111276715993881,0.32285842299461365
1772806473675562200,3.873562255859375,-0.06944195926189423,-0.1088431179523468,0.36490708589553833
1772806473685494000,3.883493896484375,-0.08080311864614487,-0.23984642326831818,0.33697274327278137
1772806473695425000,3.893425048828125,-0.10768799483776093,-0.35226085782051086,0.2599621117115021
1772806473705356000,3.90335595703125,-0.14181917905807495,-0.41982391476631165,0.1450871378183365
1772806473715288000,3.9132880859375,-0.1492757648229599,-0.3910295367240906,0.05444351211190224
1772806473725219000,3.923218994140625,-0.161346435546875,-0.28502026200294495,0.0369635708630085
1772806473735151000,3.933151123046875,-0.20733442902565002,-0.2486870288848877,0.08244184404611588
1772806473745082000,3.94308203125,-0.3203675448894501,-0.3599933087825775,0.047528911381959915
1772806473755012900,3.953012939453125,-0.48925936222076416,-0.546112060546875,-0.05087462440133095
1772806473764945200,3.962945068359375,-0.6372262239456177,-0.626941442489624,-0.13021978735923767
1772806473774876200,3.972876220703125,-0.6351052522659302,-0.4490739703178406,-0.041534386575222015
1772806473784807000,3.982806884765625,-0.47183048725128174,0.01857713796198368,0.24690937995910645
1772806473794739000,3.992739013671875,-0.15996475517749786,0.5123605132102966,0.6570335030555725
1772806473804670200,4.002670166015625,0.18223315477371216,0.8254371881484985,1.0159292221069336
1772806473814602200,4.012602294921875,0.4192717969417572,0.9424364566802979,1.2559499740600586
1772806473824533000,4.022532958984375,0.48563313484191895,0.9070462584495544,1.337319016456604
1772806473834464000,4.032464111328125,0.35080286860466003,0.7232798933982849,1.2512160539627075
1772806473844396000,4.04239599609375,0.1038210541009903,0.4822177588939667,1.0485022068023682
1772806473854327000,4.0523271484375,-0.18539531528949738,0.29638293385505676,0.7576949000358582
1772806473864259000,4.062259033203125,-0.44611719250679016,0.21033699810504913,0.4176340699195862
1772806473874190000,4.072190185546875,-0.6520543694496155,0.2510300874710083,0.06036888062953949
1772806473884122000,4.0821220703125,-0.7544052004814148,0.3723677098751068,-0.25341710448265076
1772806473894052900,4.092052978515625,-0.7314756512641907,0.49709203839302063,-0.504938542842865
1772806473903984000,4.101984130859375,-0.6359971165657043,0.2581271529197693,-0.9673341512680054
1772806473913916200,4.111916259765625,-0.4194834232330322,-0.15737284719944,-1.3109368085861206
1772806473923847000,4.121846923828125,-0.2065904140472412,-0.39447247982025146,-1.4597901105880737
1772806473933779000,4.131779052734375,0.038348499685525894,-0.3962192237377167,-1.3714420795440674
1772806473943710200,4.141710205078125,0.27779045701026917,-0.2716008722782135,-1.1637752056121826
1772806473953641000,4.151640869140625,0.46139490604400635,-0.13074733316898346,-0.9200753569602966
1772806473963573000,4.161572998046875,0.5745803117752075,-0.06621602922677994,-0.723683774471283
1772806473973504000,4.17150390625,0.6050391793251038,-0.05489040166139603,-0.600395679473877
1772806473983436000,4.18143603515625,0.5859953165054321,-0.11156727373600006,-0.5767116546630859
1772806473993367000,4.191366943359375,0.5028977990150452,-0.19535483419895172,-0.6070546507835388
1772806474003299000,4.201299072265625,0.435711532831192,-0.1900964081287384,-0.5632198452949524
1772806474013230000,4.21122998046875,0.35947057604789734,-0.1834305226802826,-0.5229880213737488
1772806474023160800,4.221160888671875,0.3016214072704315,-0.23723171651363373,-0.5081698894500732
1772806474033092900,4.2310927734375,0.27575305104255676,-0.33924171328544617,-0.517754077911377
1772806474043024100,4.241024169921875,0.27672791481018066,-0.5396975874900818,-0.5619521737098694
1772806474052956200,4.2509560546875,0.2929084897041321,-0.7306435704231262,-0.6197102665901184
1772806474062887000,4.260886962890625,0.3140397071838379,-0.8228636980056763,-0.670673668384552
1772806474072818000,4.27081787109375,0.32906630635261536,-0.8499009013175964,-0.6840981245040894
1772806474082750200,4.280750244140625,0.32930174469947815,-0.8902827501296997,-0.6870500445365906
1772806474092681000,4.290680908203125,0.32771581411361694,-0.9374670386314392,-0.6790065169334412
1772806474102613000,4.300613037109375,0.3080269396305084,-0.9967432022094727,-0.6731884479522705
1772806474112544000,4.3105439453125,0.2910405099391937,-1.0476933717727661,-0.6883189678192139
1772806474122475300,4.320475341796875,0.3061698079109192,-1.0836248397827148,-0.7064744234085083
1772806474132407000,4.330406982421875,0.3760330379009247,-1.096031665802002,-0.7019811868667603
1772806474142338000,4.340338134765625,0.4635279178619385,-1.027438759803772,-0.6696686744689941
1772806474152270000,4.35027001953125,0.5607311129570007,-0.8439149856567383,-0.5456388592720032
1772806474162202000,4.3602021484375,0.6121329069137573,-0.7061675190925598,-0.47050026059150696
1772806474172132900,4.3701328125,0.6079019904136658,-0.6668499112129211,-0.40054887533187866
1772806474182065000,4.38006494140625,0.5909417867660522,-0.689480721950531,-0.3635196089744568
1772806474191996200,4.38999609375,0.548148512840271,-0.7347557544708252,-0.3377061188220978
1772806474201928200,4.39992822265625,0.5342389941215515,-0.713781476020813,-0.3042248487472534
1772806474211859000,4.40985888671875,0.5220704674720764,-0.6737602949142456,-0.2982143759727478
1772806474221791000,4.419791015625,0.5054622292518616,-0.6463670134544373,-0.3058367073535919
1772806474231722200,4.42972216796875,0.4992671608924866,-0.6317084431648254,-0.3240484893321991
1772806474241653000,4.439653076171875,0.5086846351623535,-0.6079714894294739,-0.34023579955101013
1772806474251585000,4.4495849609375,0.5370252132415771,-0.6067381501197815,-0.3502085506916046
1772806474261516000,4.45951611328125,0.5759901404380798,-0.5998565554618835,-0.34118738770484924
1772806474271448300,4.4694482421875,0.6005285382270813,-0.600056529045105,-0.3057502806186676
1772806474281379600,4.479379638671875,0.6014182567596436,-0.5616140961647034,-0.2333376109600067
1772806474291310600,4.489310546875,0.5733932852745056,-0.5150353908538818,-0.14784134924411774
1772806474301242400,4.499242431640625,0.5209699869155884,-0.4704596698284149,-0.08780954778194427
1772806474311173400,4.50917333984375,0.4428544342517853,-0.4275510609149933,-0.0665745660662651
1772806474321105400,4.51910546875,0.35247042775154114,-0.3927328884601593,-0.08718373626470566
1772806474331036700,4.52903662109375,0.26305851340293884,-0.3992727994918823,-0.12847338616847992
1772806474340968400,4.538968505859375,0.20893022418022156,-0.44663822650909424,-0.1838894635438919
1772806474350899500,4.5488994140625,0.19477233290672302,-0.5501741766929626,-0.2730174660682678
1772806474360830500,4.55883056640625,0.19844873249530792,-0.6788032650947571,-0.3899184465408325
1772806474370762200,4.56876220703125,0.17948462069034576,-0.7668154239654541,-0.4497074782848358
1772806474380693500,4.578693603515625,0.1919230818748474,-0.8610042333602905,-0.4979565739631653
1772806474390625500,4.58862548828125,0.24702920019626617,-0.9389959573745728,-0.5037739872932434
1772806474400556500,4.598556640625,0.35619935393333435,-0.9924064874649048,-0.4576556086540222
1772806474410487300,4.6084873046875,0.5543611645698547,-1.1040771007537842,-0.4389200210571289
1772806474420419300,4.61841943359375,0.7390136122703552,-1.1679080724716187,-0.4205746650695801
1772806474430350600,4.6283505859375,0.8564989566802979,-1.1706433296203613,-0.3634195029735565
1772806474440282400,4.638282470703125,0.90606689453125,-1.082213282585144,-0.274310439825058
1772806474450213400,4.64821337890625,0.8824017643928528,-0.9242239594459534,-0.14289672672748566
1772806474460145400,4.6581455078125,0.8249108791351318,-0.8959158062934875,-0.05308322608470917
1772806474470076700,4.66807666015625,0.7428455352783203,-0.8816820383071899,0.04751395806670189
1772806474480007400,4.67800732421875,0.6559061408042908,-0.8137360215187073,0.11707700043916702
1772806474489939500,4.687939453125,0.5760624408721924,-0.7157706022262573,0.16615428030490875
1772806474499870500,4.697870361328125,0.5031229257583618,-0.578839123249054,0.2729266285896301
1772806474509802500,4.707802490234375,0.4276169240474701,-0.2816457748413086,0.5828714370727539
1772806474519733500,4.7177333984375,0.4017428457736969,0.0412776879966259,0.989093005657196
1772806474529664500,4.72766455078125,0.36007848381996155,0.2942279279232025,1.3465375900268555
1772806474539596500,4.737596435546875,0.3088966906070709,0.46046721935272217,1.5708051919937134
1772806474549527300,4.74752734375,0.2048991620540619,0.526547908782959,1.685229778289795
1772806474559459300,4.757459228515625,0.06694947928190231,0.45723602175712585,1.6688106060028076
1772806474569390600,4.767390625,-0.014627138152718544,0.2523038983345032,1.4972898960113525
1772806474579322600,4.777322509765625,0.00457060057669878,0.014304646290838718,1.25778067111969
1772806474589253400,4.78725341796875,0.11837812513113022,-0.19905343651771545,0.9902064204216003
1772806474599184600,4.7971845703125,0.29335254430770874,-0.3720976412296295,0.6839928030967712
1772806474609116700,4.80711669921875,0.4569214880466461,-0.5542389154434204,0.3421640992164612
1772806474619047400,4.81704736328125,0.5772514343261719,-0.6549778580665588,0.07076586037874222
1772806474628979500,4.8269794921875,0.5998789668083191,-0.6544537544250488,-0.09566625952720642
1772806474638910500,4.836910400390625,0.5463694334030151,-0.6570377945899963,-0.22214041650295258
1772806474648841500,4.846841552734375,0.4251367747783661,-0.7681049704551697,-0.3139859437942505
1772806474658773500,4.8567734375,0.24226336181163788,-0.912240207195282,-0.3456464409828186
1772806474668704500,4.86670458984375,0.0662531778216362,-0.9620873928070068,-0.28879514336586
1772806474678636500,4.876636474609375,-0.06638499349355698,-0.8534775972366333,-0.11522246897220612
1772806474688567300,4.8865673828125,-0.1541185826063156,-0.6573301553726196,0.10726173222064972
1772806474698499300,4.896499267578125,-0.18929600715637207,-0.4245645999908447,0.3671092689037323
1772806474708430600,4.9064306640625,-0.20337320864200592,-0.09618379920721054,0.7079161405563354
1772806474718361300,4.916361328125,-0.20530083775520325,0.3062893748283386,1.063767433166504
1772806474728293400,4.92629345703125,-0.21919241547584534,0.6631801128387451,1.3440645933151245
1772806474738224400,4.936224365234375,-0.27714604139328003,0.9033293128013611,1.5041645765304565
1772806474748156700,4.94615673828125,-0.35729068517684937,0.961681604385376,1.501362919807434
1772806474758087400,4.95608740234375,-0.4624190330505371,0.8962711691856384,1.3733439445495605
1772806474768018400,4.966018310546875,-0.5865556001663208,0.7789530158042908,1.2061234712600708
1772806474777950500,4.975950439453125,-0.7005038857460022,0.7041746973991394,1.0464450120925903
1772806474787881500,4.985881591796875,-0.7614639401435852,0.7026289701461792,0.9125823974609375
1772806474797813500,4.9958134765625,-0.7935279011726379,0.7524615526199341,0.807915210723877
1772806474807744500,5.00574462890625,-0.7846896648406982,0.8082142472267151,0.7052620649337769
1772806474817676500,5.015676513671875,-0.7445410490036011,0.830777108669281,0.5817102193832397
1772806474827607300,5.025607177734375,-0.6796432733535767,0.8195415139198303,0.44440484046936035
1772806474837538600,5.03553857421875,-0.6012770533561707,0.7849531173706055,0.32326245307922363
1772806474847470600,5.045470703125,-0.5263497829437256,0.7674106359481812,0.22842489182949066
1772806474857401300,5.0554013671875,-0.4532627463340759,0.7498641014099121,0.16504129767417908
1772806474867333400,5.06533349609375,-0.38740038871765137,0.7334169745445251,0.11260019987821579
1772806474877264400,5.075264404296875,-0.3446820080280304,0.6953345537185669,0.05047239735722542
1772806474887195400,5.0851953125,-0.31849542260169983,0.6466171145439148,-0.03273087739944458
1772806474897127400,5.09512744140625,-0.30094942450523376,0.5694730281829834,-0.11021711677312851
1772806474907058400,5.105058349609375,-0.2742368280887604,0.5417495369911194,-0.12231692671775818
1772806474916990500,5.114990478515625,-0.24407736957073212,0.5313533544540405,-0.07344874739646912
1772806474926921500,5.12492138671875,-0.2231515794992447,0.5151419043540955,-0.0016627084696665406
1772806474936853500,5.134853515625,-0.21444697678089142,0.48278743028640747,0.05910041928291321
1772806474946784500,5.144784423828125,-0.2483796328306198,0.48668283224105835,0.1313871294260025
1772806474956715300,5.15471533203125,-0.31820645928382874,0.5058482885360718,0.1885398030281067
1772806474966647300,5.164647216796875,-0.39322903752326965,0.5161911845207214,0.23153866827487946
1772806474976578600,5.17457861328125,-0.471684068441391,0.4921574890613556,0.22140373289585114
1772806474986510600,5.184510498046875,-0.5540436506271362,0.45663759112358093,0.17039993405342102
1772806474996441300,5.19444140625,-0.630553126335144,0.42027345299720764,0.08698615431785583
1772806475006372400,5.204372314453125,-0.681813657283783,0.38002508878707886,-0.04654713720083237
1772806475016304400,5.214304443359375,-0.7060143351554871,0.3027987480163574,-0.2028251439332962
1772806475026235600,5.224235595703125,-0.7048822641372681,0.2191062569618225,-0.38408416509628296
1772806475036167400,5.23416748046875,-0.6753743290901184,0.16962766647338867,-0.5587316155433655
1772806475046098400,5.244098388671875,-0.6006414890289307,0.11978659778833389,-0.7001723647117615
1772806475056030500,5.254030517578125,-0.5016209483146667,0.08616256713867188,-0.7821767926216125
1772806475065961500,5.26396142578125,-0.35773563385009766,0.0975680947303772,-0.7881340384483337
1772806475075892500,5.273892578125,-0.18412639200687408,0.07088401913642883,-0.7281583547592163
1772806475085824500,5.283824462890625,-0.0570768304169178,0.017826125025749207,-0.58696448802948
1772806475095755500,5.293755615234375,-0.03593277186155319,-0.08588907122612,-0.3774007558822632
1772806475105687300,5.303687255859375,-0.05637386441230774,-0.18737894296646118,-0.12044325470924377
1772806475115618600,5.31361865234375,-0.09232889860868454,-0.2654457688331604,0.14420220255851746
1772806475125549600,5.323549560546875,-0.1533467024564743,-0.2728336453437805,0.4083036184310913
1772806475135481300,5.3334814453125,-0.21002791821956635,-0.2382224202156067,0.6329895853996277
1772806475145412400,5.343412353515625,-0.2564667761325836,-0.1279401183128357,0.8100035190582275
1772806475155344400,5.353344482421875,-0.2936510741710663,0.011402862146496773,0.894479513168335
1772806475165275600,5.363275634765625,-0.33740732073783875,0.15468759834766388,0.8636579513549805
1772806475175207400,5.37320751953125,-0.41953253746032715,0.3502693474292755,0.7630921602249146
1772806475185138400,5.383138427734375,-0.5106787085533142,0.5109394788742065,0.6652401089668274
1772806475195069400,5.3930693359375,-0.6002488732337952,0.5950385928153992,0.548335611820221
1772806475205001500,5.40300146484375,-0.6999038457870483,0.5630146265029907,0.4137101471424103
1772806475214932500,5.412932373046875,-0.8418523669242859,0.528043806552887,0.30564558506011963
1772806475224864500,5.422864501953125,-1.074813961982727,0.5186915993690491,0.2708420753479004
1772806475234795500,5.43279541015625,-1.2461885213851929,0.5401614904403687,0.3798246383666992
1772806475244726500,5.4427265625,-1.200736403465271,0.5738111138343811,0.6355527639389038
1772806475254658600,5.452658447265625,-1.0007437467575073,0.5702227354049683,0.9651021361351013
1772806475264589000,5.462589111328125,-0.6843467950820923,0.5509747266769409,1.3063607215881348
1772806475274521000,5.47252099609375,-0.36873266100883484,0.46347367763519287,1.5151622295379639
1772806475284452000,5.4824521484375,-0.17120864987373352,0.39164501428604126,1.566637635231018
1772806475294384000,5.492384033203125,-0.11515317857265472,0.3235626220703125,1.4585422277450562
1772806475304315100,5.502315185546875,-0.18523532152175903,0.27646195888519287,1.2244940996170044
1772806475314246100,5.51224609375,-0.3352091312408447,0.249775230884552,0.8925516605377197
1772806475324178200,5.52217822265625,-0.5109977722167969,0.16866174340248108,0.5371275544166565
1772806475334109200,5.532109130859375,-0.646923303604126,0.011620694771409035,0.19822801649570465
1772806475344041200,5.542041259765625,-0.699446439743042,-0.19020643830299377,-0.1067529246211052
1772806475353972200,5.55197216796875,-0.6706666350364685,-0.36802810430526733,-0.3277161121368408
1772806475363903200,5.5619033203125,-0.6046100854873657,-0.5023819208145142,-0.4533725678920746
1772806475373835000,5.5718349609375,-0.545810341835022,-0.5636252760887146,-0.49995630979537964
1772806475383766300,5.581766357421875,-0.49509096145629883,-0.5443612933158875,-0.474113792181015
1772806475393698300,5.5916982421875,-0.42800965905189514,-0.45179060101509094,-0.40930110216140747
1772806475403629000,5.601629150390625,-0.33394280076026917,-0.33835723996162415,-0.35405170917510986
1772806475413561000,5.61156103515625,-0.2638792097568512,-0.22073981165885925,-0.33306780457496643
1772806475423492000,5.6214921875,-0.24243195354938507,-0.04916379973292351,-0.3374790549278259
1772806475433423400,5.63142333984375,-0.2399638146162033,0.1540825366973877,-0.36859795451164246
1772806475443355100,5.641355224609375,-0.27716419100761414,0.3246619999408722,-0.42482075095176697
1772806475453286100,5.6512861328125,-0.3467784523963928,0.43081799149513245,-0.4768279194831848
1772806475463218200,5.66121826171875,-0.41433513164520264,0.474563866853714,-0.5200273394584656
1772806475473149200,5.671149169921875,-0.4709816575050354,0.4394700229167938,-0.5722131133079529
1772806475483080200,5.681080078125,-0.5286015272140503,0.3295304775238037,-0.6225034594535828
1772806475493012200,5.69101220703125,-0.5789445638656616,0.17160983383655548,-0.6844260096549988
1772806475502943200,5.700943115234375,-0.6184954643249512,0.004123634193092585,-0.7363185286521912
1772806475512875000,5.710875,-0.6293905973434448,-0.1524401158094406,-0.7793350219726562
1772806475522806300,5.72080615234375,-0.5996992588043213,-0.29239562153816223,-0.8005908131599426
1772806475532737300,5.7307373046875,-0.5356542468070984,-0.4076439440250397,-0.7926158905029297
1772806475542669000,5.7406689453125,-0.4476604759693146,-0.4799165427684784,-0.8169150948524475
1772806475552600000,5.75060009765625,-0.3709476590156555,-0.5261708498001099,-0.895500898361206
1772806475562532000,5.760531982421875,-0.30645760893821716,-0.5040069818496704,-0.9845501184463501
1772806475572463400,5.77046337890625,-0.24108052253723145,-0.454203724861145,-1.0715609788894653
1772806475582395100,5.78039501953125,-0.18823355436325073,-0.3882902264595032,-1.1069189310073853
1772806475592326100,5.790326171875,-0.11685577034950256,-0.339781254529953,-1.0576021671295166
1772806475602257200,5.800257080078125,-0.028223108500242233,-0.29676586389541626,-0.9637137651443481
1772806475612189000,5.81018896484375,0.05165707692503929,-0.25194141268730164,-0.8194963335990906
1772806475622120200,5.8201201171875,0.12591266632080078,-0.19328263401985168,-0.617739200592041
1772806475632052200,5.83005224609375,0.18321457505226135,-0.1246979832649231,-0.4232245981693268
1772806475641983200,5.839983154296875,0.22638867795467377,-0.048093486577272415,-0.2682267725467682
1772806475651914200,5.849914306640625,0.27574020624160767,0.023312244564294815,-0.17539869248867035
1772806475661846300,5.85984619140625,0.32574212551116943,0.09248466044664383,-0.11635801196098328
1772806475671777300,5.86977734375,0.34618934988975525,0.140597864985466,-0.08857538551092148
1772806475681709000,5.879708984375,0.3362482786178589,0.15407000482082367,-0.09931724518537521
1772806475691640000,5.88964013671875,0.3355504274368286,0.11550500988960266,-0.1640738546848297
1772806475701572000,5.899572021484375,0.3297966718673706,0.054884281009435654,-0.22101463377475739
1772806475711503400,5.90950341796875,0.3147549033164978,-0.006701847072690725,-0.26402053236961365
1772806475721434000,5.91943408203125,0.2983628809452057,-0.06364129483699799,-0.2971545159816742
1772806475731366100,5.9293662109375,0.2860373556613922,-0.12930631637573242,-0.29774391651153564
1772806475741297200,5.939297119140625,0.2694053649902344,-0.13389547169208527,-0.27500051259994507
1772806475751229200,5.949229248046875,0.2590418756008148,-0.1335255205631256,-0.2534155547618866
1772806475761160200,5.95916015625,0.28275012969970703,-0.10633544623851776,-0.2557561993598938
1772806475771091200,5.96909130859375,0.3271632492542267,-0.05520597845315933,-0.28921499848365784
1772806475781023200,5.979023193359375,0.3833804726600647,-0.009783904068171978,-0.35172736644744873
1772806475790954200,5.988954345703125,0.42387855052948,0.025591949000954628,-0.4046706557273865
1772806475800886300,5.99888623046875,0.45625725388526917,-0.009677890688180923,-0.44975051283836365
1772806475810817300,6.0088173828125,0.47509151697158813,-0.10370348393917084,-0.43568089604377747
1772806475820749300,6.018749267578125,0.5026816129684448,-0.2201206386089325,-0.37375491857528687
1772806475830680000,6.02868017578125,0.5439974069595337,-0.2596336901187897,-0.21881981194019318
1772806475840611300,6.038611328125,0.5777835845947266,-0.256846159696579,-0.02633131481707096
1772806475850543400,6.04854345703125,0.6129869818687439,-0.24203872680664062,0.1591213345527649
1772806475860474000,6.05847412109375,0.6964121460914612,-0.23902535438537598,0.28230851888656616
1772806475870406100,6.06840625,0.83280348777771,-0.33920416235923767,0.293271005153656
1772806475880337200,6.078337158203125,0.9709344506263733,-0.5111612677574158,0.17335578799247742
1772806475890268200,6.08826806640625,1.0426274538040161,-0.6298072338104248,0.04778772220015526
1772806475900200200,6.0982001953125,1.046779751777649,-0.6501719355583191,-0.05653628334403038
1772806475910131200,6.108131103515625,0.9955136775970459,-0.6105826497077942,-0.09862616658210754
1772806475920063200,6.118063232421875,0.9174007773399353,-0.5505052208900452,-0.09277067333459854
1772806475929994000,6.127993896484375,0.8260536193847656,-0.43538182973861694,-0.04681883752346039
1772806475939925200,6.13792529296875,0.7459508180618286,-0.28687888383865356,0.04335126653313637
1772806475949857300,6.147857177734375,0.6719847917556763,-0.12996040284633636,0.15418794751167297
1772806475959788000,6.1577880859375,0.5782204866409302,0.11676442623138428,0.3430313766002655
1772806475969720000,6.167719970703125,0.49662357568740845,0.5351773500442505,0.6776139140129089
1772806475979651300,6.1776513671875,0.4440155029296875,0.9380524158477783,1.0121454000473022
1772806475989583400,6.187583251953125,0.39143675565719604,1.1205931901931763,1.2464548349380493
1772806475999514000,6.19751416015625,0.308948814868927,1.1105538606643677,1.3907240629196167
1772806476009445000,6.207445068359375,0.23536144196987152,0.9666292071342468,1.42975914478302
1772806476019377200,6.217377197265625,0.15060687065124512,0.7219020128250122,1.3841642141342163
1772806476029308200,6.22730810546875,0.09430653601884842,0.4125511050224304,1.235947847366333
1772806476039240200,6.237240234375,0.07713127881288528,0.0871112272143364,1.0225462913513184
1772806476049171200,6.247171142578125,0.11068398505449295,-0.23716911673545837,0.7504613995552063
1772806476059102000,6.25710205078125,0.24590519070625305,-0.5791091322898865,0.3824429214000702
1772806476069034000,6.267033935546875,0.3795466125011444,-0.8185909986495972,0.05707188695669174
1772806476078965200,6.27696533203125,0.48974689841270447,-0.873653769493103,-0.14939579367637634
1772806476088897300,6.286897216796875,0.5623242259025574,-0.7399747371673584,-0.22597230970859528
1772806476098828000,6.296828125,0.5505437254905701,-0.6090798377990723,-0.261726051568985
1772806476108760000,6.306760009765625,0.4748258888721466,-0.4892442524433136,-0.2569180727005005
1772806476118691300,6.31669140625,0.3689769506454468,-0.37304413318634033,-0.20041748881340027
1772806476128622000,6.3266220703125,0.261312872171402,-0.2735289931297302,-0.11691777408123016
1772806476138554000,6.33655419921875,0.16747240722179413,-0.1700635850429535,0.0053133247420191765
1772806476148485000,6.346485107421875,0.08688628673553467,-0.055215831845998764,0.1767600029706955
1772806476158417200,6.356417236328125,0.017896564677357674,0.06416250020265579,0.39238739013671875
1772806476168348200,6.36634814453125,-0.01905030757188797,0.1831386834383011,0.6159105896949768
1772806476178279200,6.376279052734375,-0.051692407578229904,0.2902294397354126,0.8223626017570496
1772806476188211200,6.386211181640625,-0.08318100869655609,0.41636475920677185,0.9908655881881714
1772806476198142000,6.396141845703125,-0.09242484718561172,0.5573727488517761,1.1310735940933228
1772806476208074000,6.406073974609375,-0.09114003926515579,0.679925799369812,1.217566967010498
1772806476218005200,6.416005126953125,-0.09362263977527618,0.7361456751823425,1.2471810579299927
1772806476227937300,6.425937255859375,-0.09571989625692368,0.755169689655304,1.2233483791351318
1772806476237868000,6.435867919921875,-0.09015575796365738,0.7682071924209595,1.1572667360305786
1772806476247799000,6.445799072265625,-0.09662804007530212,0.7283998727798462,1.0288046598434448
1772806476257731000,6.45573095703125,-0.11880524456501007,0.6389200687408447,0.8496659994125366
1772806476267662300,6.465662353515625,-0.15580107271671295,0.5212054252624512,0.6424606442451477
1772806476277594400,6.475594482421875,-0.2174532562494278,0.4168244004249573,0.447536438703537
1772806476287525000,6.485525146484375,-0.29527488350868225,0.3529873788356781,0.2804468870162964
1772806476297456400,6.495456298828125,-0.3575044572353363,0.30373087525367737,0.14447732269763947
1772806476307388400,6.505388427734375,-0.39951378107070923,0.25428342819213867,-0.01142384298145771
1772806476317319400,6.5153193359375,-0.40753069519996643,0.15949514508247375,-0.1699482500553131
1772806476327251200,6.525251220703125,-0.36477845907211304,0.08360596001148224,-0.2870895266532898
1772806476337182200,6.53518212890625,-0.2877108156681061,0.016258882358670235,-0.3461182117462158
1772806476347113500,6.545113525390625,-0.1864096224308014,0.01569882594048977,-0.3587035834789276
1772806476357045500,6.55504541015625,-0.07611614465713501,0.05739567056298256,-0.32807108759880066
1772806476366976300,6.564976318359375,0.013871955685317516,0.1379150152206421,-0.2669667899608612
1772806476376908300,6.574908203125,0.06063546985387802,0.2065795660018921,-0.18650203943252563
1772806476386839300,6.58483935546875,0.08311106264591217,0.258289098739624,-0.10770569741725922
1772806476396771000,6.59477099609375,0.08325807005167007,0.29795047640800476,-0.031830109655857086
1772806476406702300,6.604702392578125,0.0442490354180336,0.30330690741539,0.016419192776083946
1772806476416633300,6.61463330078125,-0.02476252056658268,0.3152620792388916,0.03961000218987465
1772806476426565400,6.6245654296875,-0.1417541205883026,0.35937848687171936,0.012038950808346272
1772806476436496400,6.634496337890625,-0.2978411912918091,0.42274147272109985,-0.042305249720811844
1772806476446428400,6.644428466796875,-0.4613942503929138,0.4392058849334717,-0.13959954679012299
1772806476456359400,6.654359375,-0.6023662686347961,0.3672139644622803,-0.273621529340744
1772806476466290200,6.664290283203125,-0.7025622725486755,0.25789040327072144,-0.4238966703414917
1772806476476222200,6.67422216796875,-0.7490270137786865,0.1526785045862198,-0.5564419031143188
1772806476486153500,6.684153564453125,-0.7567673921585083,0.09093926101922989,-0.6226507425308228
1772806476496085500,6.69408544921875,-0.7149078249931335,0.07616643607616425,-0.6445608139038086
1772806476506016300,6.704016357421875,-0.6181849837303162,0.055440954864025116,-0.639750063419342
1772806476515948300,6.7139482421875,-0.4716967046260834,0.0073202988132834435,-0.6232951879501343
1772806476525879300,6.72387939453125,-0.31892064213752747,-0.07773151993751526,-0.5474722385406494
1772806476535810300,6.733810302734375,-0.22077569365501404,-0.1500754952430725,-0.3401419222354889
1772806476545742300,6.743742431640625,-0.1801210343837738,-0.18799783289432526,-0.04352181404829025
1772806476555673300,6.75367333984375,-0.21625879406929016,-0.20067155361175537,0.2812000811100006
1772806476565605400,6.76360546875,-0.28264105319976807,-0.2641562521457672,0.48816829919815063
1772806476575536000,6.7735361328125,-0.35746628046035767,-0.35295379161834717,0.5850753784179688
1772806476585467400,6.78346728515625,-0.4466587007045746,-0.3190557062625885,0.6413414478302002
1772806476595399400,6.7933994140625,-0.5422219634056091,-0.16720996797084808,0.6797972321510315
1772806476605330200,6.803330078125,-0.6323862671852112,0.08355803787708282,0.7005778551101685
1772806476615262200,6.81326220703125,-0.6891502141952515,0.3812887966632843,0.6678832769393921
1772806476625193500,6.823193359375,-0.7498552203178406,0.6503109335899353,0.5898799300193787
1772806476635125500,6.83312548828125,-0.847335934638977,0.8536328673362732,0.4850190579891205
1772806476645056300,6.84305615234375,-0.9440423846244812,0.9284181594848633,0.4047154188156128
1772806476654987300,6.8529873046875,-0.8841409683227539,0.9241341948509216,0.5153692364692688
1772806476664919300,6.862919189453125,-0.6806762218475342,0.8925483226776123,0.7932865023612976
1772806476674850300,6.872850341796875,-0.4341053366661072,0.7941234707832336,1.1138373613357544
1772806476684782300,6.8827822265625,-0.23394609987735748,0.5996230244636536,1.3324038982391357
1772806476694713300,6.89271337890625,-0.10635485500097275,0.3535013794898987,1.416960597038269
1772806476704644000,6.90264404296875,-0.0888233408331871,0.09390628337860107,1.3792951107025146
1772806476714576100,6.912576171875,-0.16947823762893677,-0.10115721821784973,1.2237929105758667
1772806476724507400,6.92250732421875,-0.34594398736953735,-0.18292292952537537,0.9950604438781738
1772806476734439400,6.932439453125,-0.5576735138893127,-0.107524573802948,0.732938289642334
1772806476744370200,6.9423701171875,-0.7474397420883179,0.12485650181770325,0.51850825548172
1772806476754301200,6.95230126953125,-0.8792835474014282,0.3790893256664276,0.32813966274261475
1772806476764233500,6.9622333984375,-0.9481715559959412,0.588934600353241,0.11959756165742874
1772806476774164200,6.972164306640625,-0.9611624479293823,0.7589430809020996,-0.07143711298704147
1772806476784096300,6.98209619140625,-0.952343761920929,0.8918420672416687,-0.19227735698223114
1772806476794027300,6.99202734375,-0.927241325378418,1.036704182624817,-0.2696070075035095
1772806476803959300,7.001959228515625,-0.8817206025123596,1.2007559537887573,-0.3073260486125946
1772806476813890300,7.011890380859375,-0.838951051235199,1.0764816999435425,-0.45580658316612244
1772806476823821300,7.0218212890625,-0.6869171857833862,0.28768667578697205,-0.8760494589805603
1772806476833753300,7.03175341796875,-0.33920422196388245,-0.014238301664590836,-0.8235010504722595
1772806476843684000,7.04168408203125,0.015634246170520782,-0.11185035854578018,-0.5705893039703369
1772806476853616000,7.0516162109375,0.3386642336845398,-0.09993084520101547,-0.3124496638774872
1772806476863547400,7.06154736328125,0.4742620289325714,0.017655475065112114,-0.08400283753871918
1772806476873478400,7.071478515625,0.430957168340683,0.13782502710819244,0.05939427390694618
1772806476883410200,7.08141015625,0.2395700216293335,0.24249549210071564,0.08078403770923615
1772806476893341200,7.091341064453125,-0.06527216732501984,0.29443007707595825,0.02076171711087227
1772806476903273500,7.1012734375,-0.344887375831604,0.2705495059490204,-0.08412379026412964
1772806476913204200,7.111204345703125,-0.5811411738395691,0.18811801075935364,-0.23459506034851074
1772806476923136300,7.12113623046875,-0.7562535405158997,0.01643090508878231,-0.4184916615486145
1772806476933067300,7.1310673828125,-0.8491967916488647,-0.18549102544784546,-0.5918373465538025
1772806476942998500,7.14099853515625,-0.8561602830886841,-0.3353758752346039,-0.7162790894508362
1772806476952930300,7.150930419921875,-0.7639297246932983,-0.4367866516113281,-0.7931387424468994
1772806476962861300,7.160861328125,-0.5963009595870972,-0.484923779964447,-0.8565893173217773
1772806476972793300,7.17079345703125,-0.3703911304473877,-0.5180968642234802,-0.928195595741272
1772806476982724000,7.18072412109375,-0.15058474242687225,-0.58682781457901,-1.0127124786376953
1772806476992655400,7.1906552734375,0.007098623085767031,-0.6403480768203735,-1.0639666318893433
1772806477002587400,7.20058740234375,0.07597200572490692,-0.605812132358551,-1.055857539176941
1772806477012518400,7.210518310546875,0.09248040616512299,-0.5669877529144287,-0.9898545742034912
1772806477022450200,7.2204501953125,0.08469118922948837,-0.5335187911987305,-0.8851404786109924
1772806477032381200,7.230381103515625,0.08420010656118393,-0.4743063151836395,-0.7500391006469727
1772806477042313200,7.240313232421875,0.09446139633655548,-0.41824281215667725,-0.5930153131484985
1772806477052244200,7.250244140625,0.1317022442817688,-0.3196619153022766,-0.42644473910331726
1772806477062175200,7.26017529296875,0.1842758059501648,-0.21671125292778015,-0.2692163288593292
1772806477072107300,7.270107177734375,0.26473096013069153,-0.1363796591758728,-0.11976134032011032
1772806477082038500,7.28003857421875,0.3428589999675751,-0.08629622310400009,0.02081305906176567
1772806477091970300,7.28997021484375,0.4133440852165222,-0.04639274999499321,0.14547376334667206
1772806477101901300,7.2999013671875,0.4710727035999298,-0.005432309117168188,0.2536556124687195
1772806477111832300,7.309832275390625,0.5292353630065918,0.03465358912944794,0.3425961136817932
1772806477121764000,7.31976416015625,0.5903707146644592,0.06954211741685867,0.39653337001800537
1772806477131695400,7.3296953125,0.6425239443778992,0.09279577434062958,0.3970734775066376
1772806477141627400,7.33962744140625,0.6772432327270508,0.07929084450006485,0.33524036407470703
1772806477151558400,7.349558349609375,0.6716881394386292,-0.016792811453342438,0.22318333387374878
1772806477161489200,7.3594892578125,0.6107598543167114,-0.11696038395166397,0.07275156676769257
1772806477171421200,7.369421142578125,0.5358192920684814,-0.2333676815032959,-0.09613066166639328
1772806477181352400,7.3793525390625,0.4789503812789917,-0.3604537546634674,-0.2646060883998871
1772806477191284200,7.3892841796875,0.44140300154685974,-0.4732186496257782,-0.38057026267051697
1772806477201215200,7.39921533203125,0.4307117462158203,-0.6013542413711548,-0.451921671628952
1772806477211147300,7.409147216796875,0.4372852146625519,-0.7311851978302002,-0.4821227192878723
1772806477221078300,7.419078369140625,0.46582651138305664,-0.8143802285194397,-0.4514066278934479
1772806477231009300,7.42900927734375,0.5562314987182617,-0.9065687656402588,-0.4303503632545471
1772806477240941300,7.43894140625,0.7162424325942993,-1.046907901763916,-0.4570441246032715
1772806477250872300,7.448872314453125,0.8396599888801575,-1.1091228723526,-0.45865747332572937
1772806477260804000,7.45880419921875,0.8906162977218628,-1.0654468536376953,-0.43439018726348877
1772806477270734800,7.46873486328125,0.8814912438392639,-0.9636701345443726,-0.40169215202331543
1772806477280665600,7.47866552734375,0.8366614580154419,-0.8401247262954712,-0.32927608489990234
1772806477290597600,7.48859765625,0.7981414794921875,-0.7361037731170654,-0.24403095245361328
1772806477300528600,7.498528564453125,0.7471309304237366,-0.656246542930603,-0.14789894223213196
1772806477310460700,7.508460693359375,0.6833820343017578,-0.6127957701683044,-0.0662674680352211
1772806477320391700,7.5183916015625,0.6013490557670593,-0.5302215218544006,0.015460189431905746
1772806477330322700,7.52832275390625,0.5151553153991699,-0.3668067455291748,0.12793372571468353
1772806477340254700,7.538254638671875,0.41463661193847656,-0.10795943439006805,0.27820447087287903
1772806477350185700,7.548185791015625,0.3018357455730438,0.3661993443965912,0.5618636608123779
1772806477360117800,7.55811767578125,0.22763867676258087,0.8342346549034119,0.8781094551086426
1772806477370048800,7.568048828125,0.14141564071178436,1.167229413986206,1.1776785850524902
1772806477379980500,7.57798046875,0.043044060468673706,1.2794513702392578,1.3767873048782349
1772806477389911600,7.58791162109375,-0.055469997227191925,1.1806001663208008,1.4661574363708496
1772806477399842800,7.5978427734375,-0.10887835174798965,0.8989899754524231,1.4334399700164795
1772806477409774800,7.60777490234375,-0.09513085335493088,0.48550230264663696,1.279641032218933
1772806477419705600,7.61770556640625,-0.040750086307525635,0.08302061259746552,1.0347026586532593
1772806477429637600,7.6276376953125,0.05286455526947975,-0.24181526899337769,0.7017504572868347
1772806477439568600,7.637568603515625,0.20053449273109436,-0.5553179979324341,0.25715169310569763
1772806477449499600,7.647499755859375,0.36070767045021057,-0.7882639169692993,-0.18746010959148407
1772806477459431700,7.657431640625,0.502164900302887,-0.8530677556991577,-0.4905999004840851
1772806477469362700,7.66736279296875,0.6182781457901001,-0.7736546993255615,-0.6500452160835266
1772806477479294700,7.677294677734375,0.6322323679924011,-0.7419675588607788,-0.7558874487876892
1772806477489225700,7.687225830078125,0.5689610242843628,-0.7053365707397461,-0.7581729888916016
1772806477499156700,7.69715673828125,0.4263039529323578,-0.6795676350593567,-0.647747278213501
1772806477509088800,7.7070888671875,0.26773935556411743,-0.5907397270202637,-0.43135136365890503
1772806477519019500,7.71701953125,0.13142700493335724,-0.4499572813510895,-0.14993374049663544
1772806477528951600,7.72695166015625,0.042956262826919556,-0.30242109298706055,0.14623506367206573
1772806477538882800,7.7368828125,-0.0018507381901144981,-0.19841159880161285,0.3978627324104309
1772806477548814800,7.74681494140625,-0.023271607235074043,-0.11879932135343552,0.5895658731460571
1772806477558745600,7.75674560546875,-0.030217744410037994,-0.052364081144332886,0.7177299857139587
1772806477568676600,7.766676513671875,-0.031190596520900726,0.010172801092267036,0.7760308980941772
1772806477578608600,7.776608642578125,-0.051821425557136536,0.09751810133457184,0.7844024896621704
1772806477588539600,7.78653955078125,-0.0985628291964531,0.1930275708436966,0.7733767628669739
1772806477598471700,7.7964716796875,-0.1568615436553955,0.2855857014656067,0.7304088473320007
1772806477608402700,7.806402587890625,-0.21941760182380676,0.38675758242607117,0.654473602771759
1772806477618333700,7.816333740234375,-0.2937266230583191,0.4582088887691498,0.5667757391929626
1772806477628265700,7.826265625,-0.3584531545639038,0.525395929813385,0.44151821732521057
1772806477638196700,7.83619677734375,-0.4152131676673889,0.5763709545135498,0.3303052484989166
1772806477648128800,7.846128662109375,-0.4416855275630951,0.6628310084342957,0.24460896849632263
1772806477658059500,7.8560595703125,-0.43072789907455444,0.7174769043922424,0.22232845425605774
1772806477667990800,7.86599072265625,-0.3999846279621124,0.7351826429367065,0.24552325904369354
1772806477677922800,7.8759228515625,-0.3595219552516937,0.7629286050796509,0.2777281701564789
1772806477687853600,7.885853515625,-0.32517677545547485,0.7816436886787415,0.32254889607429504
1772806477697785600,7.89578564453125,-0.30029821395874023,0.7817589640617371,0.33191925287246704
1772806477707716600,7.905716552734375,-0.2952946424484253,0.7408016920089722,0.3015405833721161
1772806477717648600,7.915648681640625,-0.30640485882759094,0.6434745788574219,0.2128848433494568
1772806477727579600,7.92557958984375,-0.2998659908771515,0.4179096519947052,0.06346046924591064
1772806477737510700,7.9355107421875,-0.24098122119903564,0.14557214081287384,-0.12073399871587753
1772806477747442700,7.945442626953125,-0.17581580579280853,0.01513691060245037,-0.19351738691329956
1772806477757373700,7.955373779296875,-0.12472027540206909,0.0023377807810902596,-0.1981521099805832
1772806477767305700,7.9653056640625,-0.10853172093629837,0.05688251554965973,-0.2013002336025238
1772806477777236700,7.97523681640625,-0.13356167078018188,0.07704205811023712,-0.23348228633403778
1772806477787167700,7.985167724609375,-0.18215318024158478,0.04056021198630333,-0.30366992950439453
1772806477797098800,7.9950986328125,-0.25660184025764465,-0.009884834289550781,-0.38460397720336914
1772806477807029800,8.00502978515625,-0.3446187973022461,-0.032165106385946274,-0.4566768407821655
1772806477816961800,8.0149619140625,-0.42452093958854675,-0.01632377877831459,-0.48041605949401855
1772806477826892500,8.024892578125,-0.4886261820793152,-0.0036500608548521996,-0.48125362396240234
1772806477836824600,8.034824462890626,-0.543350100517273,-0.018785085529088974,-0.4884708523750305
1772806477846755800,8.044755859375,-0.602966845035553,-0.036964088678359985,-0.5144798159599304
1772806477856686600,8.0546865234375,-0.6508401036262512,-0.041422754526138306,-0.547243595123291
1772806477866618600,8.06461865234375,-0.6619177460670471,-0.023350808769464493,-0.5631306767463684
1772806477876549600,8.074549560546876,-0.630059003829956,0.050264522433280945,-0.5081602334976196
1772806477886481700,8.084481689453124,-0.5436589121818542,0.12816359102725983,-0.3787708580493927
1772806477896412700,8.09441259765625,-0.4293510615825653,0.12303624302148819,-0.19366276264190674
1772806477906343700,8.10434375,-0.28496938943862915,0.047793157398700714,0.043013956397771835
1772806477916275700,8.114275634765624,-0.16607357561588287,0.005401186645030975,0.30343863368034363
1772806477926206500,8.12420654296875,-0.11717714369297028,0.05043071135878563,0.5362673401832581
1772806477936138800,8.134138671875,-0.10612813383340836,0.12982192635536194,0.6763133406639099
1772806477946069800,8.14406982421875,-0.1253471076488495,0.23136799037456512,0.7175151109695435
1772806477956001800,8.154001708984374,-0.15873871743679047,0.3745531737804413,0.6793485283851624
1772806477965932500,8.1639326171875,-0.20117725431919098,0.5562071204185486,0.6388863325119019
1772806477975863800,8.17386376953125,-0.2859567105770111,0.8671867847442627,0.6712707877159119
1772806477985795800,8.1837958984375,-0.40404263138771057,1.1873855590820312,0.7506007552146912
1772806477995726600,8.1937265625,-0.5329702496528625,1.2956525087356567,0.7209624648094177
1772806478005658600,8.20365869140625,-0.6549531817436218,1.026286244392395,0.5481742024421692
1772806478015589600,8.213589599609374,-0.7177508473396301,0.7910369038581848,0.47683706879615784
1772806478025520600,8.223520751953124,-0.7046864628791809,0.6715118885040283,0.5422189831733704
1772806478035452700,8.23345263671875,-0.614992618560791,0.6450325846672058,0.6543259620666504
1772806478045383700,8.2433837890625,-0.4708268940448761,0.549900472164154,0.6740498542785645
1772806478055315700,8.253315673828125,-0.32118216156959534,0.3807593286037445,0.5928846001625061
1772806478065246500,8.26324658203125,-0.2468288391828537,0.30082881450653076,0.46391090750694275
1772806478075177700,8.273177734375,-0.22985978424549103,0.33411088585853577,0.24655690789222717
1772806478085109800,8.28310986328125,-0.27346479892730713,0.40624845027923584,-0.026452520862221718
1772806478095040500,8.29304052734375,-0.36846834421157837,0.46212056279182434,-0.3296281397342682
1772806478104972500,8.30297265625,-0.49733230471611023,0.482277512550354,-0.5479817986488342
1772806478114903800,8.31290380859375,-0.5874682068824768,0.5057748556137085,-0.5782273411750793
1772806478124835800,8.3228359375,-0.6119897961616516,0.4829155504703522,-0.46343228220939636
1772806478134766600,8.3327666015625,-0.5854103565216064,0.3928740620613098,-0.22976262867450714
1772806478144697600,8.342697509765625,-0.5121838450431824,0.27268534898757935,0.026406578719615936
1772806478154629600,8.352629638671875,-0.41282254457473755,0.1529906690120697,0.2217530906200409
1772806478164561700,8.362561767578125,-0.3242194354534149,0.08518791198730469,0.3423066735267639
1772806478174492700,8.37249267578125,-0.2491806447505951,0.06150731444358826,0.36679941415786743
1772806478184423700,8.382423583984375,-0.19127579033374786,0.0692477896809578,0.27572622895240784
1772806478194355700,8.392355712890625,-0.1747380495071411,0.0826970562338829,0.047314442694187164
1772806478204286500,8.402286376953125,-0.18805013597011566,0.1034550666809082,-0.2515268325805664
1772806478214218500,8.412218505859375,-0.19937823712825775,0.1183924451470375,-0.4885980188846588
1772806478224149800,8.422149658203125,-0.18730531632900238,0.09268548339605331,-0.6069129109382629
1772806478234080500,8.43208056640625,-0.1484837383031845,0.029271656647324562,-0.6188293695449829
1772806478244012500,8.442012451171875,-0.10968148708343506,-0.04988468438386917,-0.5348561406135559
1772806478253943800,8.45194384765625,-0.0855206772685051,-0.13367946445941925,-0.4035494029521942
1772806478263875800,8.461875732421875,-0.08550895750522614,-0.23937314748764038,-0.2742452025413513
1772806478273807400,8.471807373046875,-0.11088355630636215,-0.28739845752716064,-0.16859281063079834
1772806478283739100,8.4817392578125,-0.14887620508670807,-0.2829560339450836,-0.1006033718585968
1772806478293670100,8.491670166015625,-0.1911715865135193,-0.2625106871128082,-0.10420908778905869
1772806478303601200,8.50160107421875,-0.22951684892177582,-0.24441397190093994,-0.1621144562959671
1772806478313533200,8.511533203125,-0.26246410608291626,-0.23131123185157776,-0.2599411904811859
1772806478323464200,8.521464111328125,-0.26566946506500244,-0.22778280079364777,-0.34888356924057007
1772806478333396200,8.531396240234375,-0.24193328619003296,-0.23344282805919647,-0.4049392640590668
1772806478343327200,8.5413271484375,-0.19010551273822784,-0.2343275249004364,-0.42166686058044434
1772806478353258200,8.55125830078125,-0.12723031640052795,-0.21079419553279877,-0.40349966287612915
1772806478363190300,8.561190185546875,-0.0590379424393177,-0.16746030747890472,-0.3549627363681793
1772806478373121300,8.571121337890625,-0.00791761465370655,-0.10356680303812027,-0.2772970199584961
1772806478383053000,8.581052978515626,0.02391754649579525,-0.042332474142313004,-0.19674548506736755
1772806478392984000,8.590984130859376,0.03665681183338165,0.008314743638038635,-0.0911235585808754
1772806478402915300,8.600915283203125,0.034564897418022156,0.03703799843788147,0.008695443160831928
1772806478412847400,8.610847412109376,0.03819608688354492,0.0360800102353096,0.0750642642378807
1772806478422778000,8.620778076171876,0.05101042240858078,0.02174448035657406,0.08405429869890213
1772806478432710100,8.630710205078126,0.0735430046916008,0.008639086037874222,0.0650544986128807
1772806478442641200,8.64064111328125,0.09480195492506027,-0.002408771077170968,0.04447438567876816
1772806478452573200,8.6505732421875,0.12161040306091309,-0.018463153392076492,0.010625487193465233
1772806478462504200,8.660504150390626,0.15730687975883484,-0.04840001463890076,-0.03915219008922577
1772806478472435200,8.670435302734376,0.1853247880935669,-0.09367983788251877,-0.08498554676771164
1772806478482367200,8.6803671875,0.1950216144323349,-0.16848723590373993,-0.1310901939868927
1772806478492298200,8.69029833984375,0.18667151033878326,-0.24668191373348236,-0.16651597619056702
1772806478502230300,8.700230224609374,0.16621629893779755,-0.2986242175102234,-0.18007120490074158
1772806478512161300,8.710161376953126,0.12777851521968842,-0.2842141091823578,-0.17326155304908752
1772806478522092000,8.720092041015626,0.09341814368963242,-0.2527832090854645,-0.16889236867427826
1772806478532024000,8.730024169921874,0.061243124306201935,-0.21820607781410217,-0.1520664095878601
1772806478541955300,8.739955322265626,0.030512642115354538,-0.16133293509483337,-0.11012586951255798
1772806478551887400,8.749887451171874,-0.0011758175678551197,-0.09049151092767715,-0.0528915673494339
1772806478561818000,8.759818115234374,-0.04231180250644684,-0.03600670024752617,0.010668500326573849
1772806478571749000,8.7697490234375,-0.0660155788064003,0.012186141684651375,0.07222751528024673
1772806478581681200,8.77968115234375,-0.07302740961313248,0.05150798335671425,0.11401303857564926
1772806478591612200,8.789612060546874,-0.060960594564676285,0.06911522150039673,0.13409742712974548
1772806478601544200,8.799544189453124,-0.02158335968852043,0.07381996512413025,0.1372431516647339
1772806478611475200,8.80947509765625,0.0165726225823164,0.0826435536146164,0.1260041743516922
1772806478621407200,8.8194072265625,0.038216132670640945,0.10133148729801178,0.1030578538775444
1772806478631338200,8.829338134765624,0.05078907683491707,0.09961343556642532,0.06798543781042099
1772806478641269200,8.839269287109374,0.04849449545145035,0.07300366461277008,0.025533849373459816
1772806478651201300,8.849201171875,0.04783749207854271,0.06322558224201202,0.012142748571932316
1772806478661132000,8.859132080078124,0.040105804800987244,0.030200518667697906,-0.022965170443058014
1772806478671064000,8.86906396484375,0.037185970693826675,-0.045187320560216904,-0.07212650775909424
1772806478680995300,8.878995361328125,0.02932138927280903,-0.10340669006109238,-0.10434835404157639
1772806478690926000,8.888926025390624,0.028733154758810997,-0.11905896663665771,-0.124892957508564
1772806478700858000,8.898858154296875,0.02405105158686638,-0.127180278301239,-0.13148321211338043
1772806478710789000,8.9087890625,0.007554099895060062,-0.1342240869998932,-0.12574516236782074
1772806478720721200,8.91872119140625,-0.008809959515929222,-0.1317148506641388,-0.1115606352686882
1772806478730652200,8.928652099609375,-0.016168812289834023,-0.13374626636505127,-0.09527840465307236
1772806478740583200,8.938583251953125,-0.0074988906271755695,-0.11528044939041138,-0.065250463783741
1772806478750515200,8.94851513671875,0.014064960181713104,-0.08778495341539383,-0.03879816457629204
