time,seconds_elapsed,z,y,x
1772806469859414000,0.0574140625,0.04508225619792938,-0.3508802652359009,-0.304960697889328
1772806469869345000,0.067344970703125,-0.015688149258494377,-0.5353448987007141,-0.3802322745323181
1772806469879277000,0.077277099609375,-0.10156737267971039,-0.7193394899368286,-0.48238900303840637
1772806469889208000,0.0872080078125,-0.20389613509178162,-0.9168429970741272,-0.6218118667602539
1772806469899138800,0.097138916015625,-0.3108321726322174,-1.0653754472732544,-0.7830079793930054
1772806469909070800,0.10707080078125,-0.4317125380039215,-1.1109695434570312,-0.9243373870849609
1772806469919002000,0.117002197265625,-0.5315490961074829,-1.0446816682815552,-1.0380200147628784
1772806469928934100,0.12693408203125,-0.5370245575904846,-0.8526507019996643,-1.1283835172653198
1772806469938865000,0.136864990234375,-0.435749351978302,-0.5582355856895447,-1.1948295831680298
1772806469948797000,0.146796875,-0.1916179060935974,-0.2973659038543701,-1.335573434829712
1772806469958728200,0.156728271484375,0.07814859598875046,-0.11652182042598724,-1.6183550357818604
1772806469968659200,0.1666591796875,0.27802708745002747,-0.15535789728164673,-2.056347608566284
1772806469978591000,0.176591064453125,0.41454392671585083,-0.32272398471832275,-2.5981900691986084
1772806469988522000,0.18652197265625,0.44883638620376587,-0.48615020513534546,-3.1207470893859863
1772806469998454000,0.1964541015625,0.3861663341522217,-0.5297647714614868,-3.5354433059692383
1772806470008385000,0.206385009765625,0.26929032802581787,-0.4099094867706299,-3.7501039505004883
1772806470018317000,0.216317138671875,0.19767819344997406,-0.14313958585262299,-3.713484048843384
1772806470028248000,0.226248046875,0.2407577484846115,0.23506097495555878,-3.4456875324249268
1772806470038179000,0.236178955078125,0.3802514672279358,0.620007336139679,-2.9771225452423096
1772806470048110800,0.24611083984375,0.6054869890213013,0.9742527604103088,-2.4979615211486816
1772806470058042000,0.2560419921875,0.7918038368225098,1.232259750366211,-2.136884927749634
1772806470067974100,0.26597412109375,0.8917672038078308,1.285678505897522,-2.0508499145507812
1772806470077905000,0.27590478515625,0.8563578128814697,1.1575660705566406,-2.2373340129852295
1772806470087837000,0.2858369140625,0.6859272122383118,0.8740342855453491,-2.603508472442627
1772806470097768200,0.295768310546875,0.4663671851158142,0.5434576869010925,-3.118330478668213
1772806470107699200,0.30569921875,0.2353704422712326,0.2337975800037384,-3.623945474624634
1772806470117631000,0.315630859375,0.05148928984999657,0.06701391935348511,-4.018377780914307
1772806470127562000,0.32556201171875,-0.048047419637441635,0.07487663626670837,-4.251036167144775
1772806470137494000,0.335493896484375,0.07299830764532089,0.19399504363536835,-4.247520923614502
1772806470147425000,0.345425048828125,0.46996110677719116,0.3647124469280243,-3.982621908187866
1772806470157357000,0.355357177734375,0.9540393948554993,0.5194964408874512,-3.5047152042388916
1772806470167288000,0.3652880859375,1.3182562589645386,0.5997406840324402,-2.918569326400757
1772806470177219000,0.375218994140625,1.4162882566452026,0.6190353035926819,-2.3342292308807373
1772806470187150800,0.38515087890625,1.305296778678894,0.5900025367736816,-1.8376400470733643
1772806470197082000,0.39508203125,1.081013560295105,0.5187989473342896,-1.4949947595596313
1772806470207014100,0.40501416015625,0.8155786991119385,0.3765278458595276,-1.3283476829528809
1772806470216945000,0.41494482421875,0.5703297853469849,0.1736101359128952,-1.3464359045028687
1772806470226877000,0.424876953125,0.41684091091156006,-0.0647726058959961,-1.4808754920959473
1772806470236808000,0.434807861328125,0.40943437814712524,-0.2954005002975464,-1.6786972284317017
1772806470246739200,0.4447392578125,0.5431008338928223,-0.43304890394210815,-1.8492639064788818
1772806470256671000,0.4546708984375,0.7234135866165161,-0.4299044907093048,-1.9059545993804932
1772806470266601700,0.464601806640625,0.8485430479049683,-0.2833603322505951,-1.8272504806518555
1772806470276533800,0.47453369140625,0.8881511688232422,-0.07417569309473038,-1.6380488872528076
1772806470286465000,0.484465087890625,0.851109504699707,0.10989028215408325,-1.3985313177108765
1772806470296397000,0.49439697265625,0.7581926584243774,0.2017917037010193,-1.1835594177246094
1772806470306327800,0.504327880859375,0.6251370906829834,0.21193702518939972,-1.0146616697311401
1772806470316258800,0.5142587890625,0.4710455536842346,0.15343590080738068,-0.894299328327179
1772806470326190800,0.52419091796875,0.33032065629959106,-0.023662185296416283,-0.8921815752983093
1772806470336122000,0.5341220703125,0.2653096914291382,-0.23243537545204163,-1.029900312423706
1772806470346054000,0.544053955078125,0.3073040246963501,-0.4174851179122925,-1.2584290504455566
1772806470355985000,0.55398486328125,0.3677476644515991,-0.5543558597564697,-1.4464945793151855
1772806470365917000,0.5639169921875,0.4052031636238098,-0.584511935710907,-1.5484925508499146
1772806470375848000,0.573847900390625,0.4008888304233551,-0.5570081472396851,-1.5551409721374512
1772806470385779000,0.583779052734375,0.32884153723716736,-0.5285570621490479,-1.4700369834899902
1772806470395711000,0.5937109375,0.21642658114433289,-0.5165680050849915,-1.334527850151062
1772806470405642000,0.60364208984375,0.08713729679584503,-0.48003318905830383,-1.1599477529525757
1772806470415573800,0.61357373046875,-0.03062688559293747,-0.5030176043510437,-0.9705645442008972
1772806470425505000,0.623505126953125,-0.0909043401479721,-0.5603610277175903,-0.7667983770370483
1772806470435436000,0.63343603515625,-0.08030762523412704,-0.6181127429008484,-0.5594883561134338
1772806470445367800,0.643367919921875,-0.0070856064558029175,-0.573682963848114,-0.33758869767189026
1772806470455298800,0.653298828125,0.08573221415281296,-0.4774467349052429,-0.10709050297737122
1772806470465230800,0.66323095703125,0.20412063598632812,-0.31144389510154724,0.04234559088945389
1772806470475162000,0.673162109375,0.30498361587524414,-0.165421724319458,0.06475502997636795
1772806470485094000,0.683093994140625,0.34381940960884094,-0.07600794732570648,-0.016498282551765442
1772806470495025000,0.69302490234375,0.30217504501342773,-0.07233677804470062,-0.14512629806995392
1772806470504956000,0.702955810546875,0.20254644751548767,-0.14438940584659576,-0.31178611516952515
1772806470514888000,0.712887939453125,0.06411320716142654,-0.25830718874931335,-0.4577617049217224
1772806470524819000,0.72281884765625,-0.04061347246170044,-0.37910017371177673,-0.5885679125785828
1772806470534751000,0.7327509765625,-0.08092734217643738,-0.51905757188797,-0.6999437212944031
1772806470544682000,0.742681884765625,-0.05169728398323059,-0.6572692394256592,-0.7842381000518799
1772806470554613800,0.75261376953125,0.0537889301776886,-0.7890618443489075,-0.8447067737579346
1772806470564545000,0.762544921875,0.19700627028942108,-0.8712904453277588,-0.8990799784660339
1772806470574476000,0.77247607421875,0.3254087269306183,-0.862235963344574,-0.9230154156684875
1772806470584407800,0.78240771484375,0.4179770052433014,-0.7966492176055908,-0.9195008277893066
1772806470594338800,0.7923388671875,0.4889393150806427,-0.7178465723991394,-0.8917275071144104
1772806470604270800,0.802270751953125,0.5451046228408813,-0.6894612312316895,-0.8550211787223816
1772806470614202000,0.8122021484375,0.580781102180481,-0.7336723804473877,-0.8364173769950867
1772806470624134000,0.8221337890625,0.5616321563720703,-0.7935096025466919,-0.8397775292396545
1772806470634065000,0.83206494140625,0.47343119978904724,-0.8267349600791931,-0.8375505805015564
1772806470643996000,0.841995849609375,0.31403863430023193,-0.7607418298721313,-0.7921066880226135
1772806470653927700,0.851927734375,0.08155851066112518,-0.6206368803977966,-0.6858862042427063
1772806470663859000,0.86185888671875,-0.19859112799167633,-0.39101356267929077,-0.5192556977272034
1772806470673791000,0.871791015625,-0.45816490054130554,-0.11836046725511551,-0.30025410652160645
1772806470683722000,0.881721923828125,-0.6562862396240234,0.13950437307357788,-0.05050045624375343
1772806470693653800,0.89165380859375,-0.7265356183052063,0.3584076762199402,0.2001405507326126
1772806470703585000,0.9015849609375,-0.6123302578926086,0.4789103865623474,0.43306806683540344
1772806470713516000,0.91151611328125,-0.389951229095459,0.48625245690345764,0.6521961688995361
1772806470723448000,0.921447998046875,-0.025069134309887886,0.5295349359512329,0.7314435839653015
1772806470733378800,0.93137890625,0.2721090018749237,0.4134232699871063,0.7536042928695679
1772806470743310800,0.941310791015625,0.5181062817573547,0.2387167066335678,0.6911592483520508
1772806470753242000,0.9512421875,0.7092839479446411,-0.03356275334954262,0.5090888142585754
1772806470763174000,0.961173828125,0.8217868208885193,-0.3942956328392029,0.27298226952552795
1772806470773105000,0.97110498046875,0.8768250346183777,-0.7216293215751648,0.057733338326215744
1772806470783036000,0.981035888671875,0.8952580690383911,-0.9550223350524902,-0.08577722311019897
1772806470792968000,0.990968017578125,0.8980914354324341,-1.077637791633606,-0.15848605334758759
1772806470802899000,1.00089892578125,0.8800135850906372,-1.0545017719268799,-0.12997983396053314
1772806470812831000,1.0108310546875,0.8641529083251953,-0.9272844791412354,-0.05428667366504669
1772806470822762000,1.020761962890625,0.8550861477851868,-0.7190950512886047,0.035769183188676834
1772806470832693800,1.03069384765625,0.852066695690155,-0.49794507026672363,0.07315277308225632
1772806470842625000,1.040625,0.852605402469635,-0.3600796163082123,0.012635367922484875
1772806470852556000,1.05055615234375,0.8270316123962402,-0.3471326529979706,-0.11214544624090195
1772806470862488000,1.060488037109375,0.7799248099327087,-0.43707454204559326,-0.22985796630382538
1772806470872418800,1.070418701171875,0.7021970152854919,-0.5386075377464294,-0.2814804017543793
1772806470882350800,1.080350830078125,0.6145883202552795,-0.5608502626419067,-0.23769111931324005
1772806470892282000,1.0902822265625,0.514427125453949,-0.473522812128067,-0.13234391808509827
1772806470902214000,1.1002138671875,0.42112433910369873,-0.3405040502548218,-0.038288798183202744
1772806470912145000,1.110144775390625,0.3472064137458801,-0.22021865844726562,-0.00410499656572938
1772806470922076000,1.120075927734375,0.2952902317047119,-0.15602928400039673,-0.04676857218146324
1772806470932008000,1.130008056640625,0.27461639046669006,-0.1511269360780716,-0.15763330459594727
1772806470941939000,1.13993896484375,0.2834881842136383,-0.17790715396404266,-0.3195053040981293
1772806470951871000,1.14987109375,0.33756524324417114,-0.21246352791786194,-0.49873045086860657
1772806470961802000,1.159802001953125,0.42241835594177246,-0.23123641312122345,-0.6467457413673401
1772806470971733800,1.169733642578125,0.5147115588188171,-0.2697491943836212,-0.7473719716072083
1772806470981665000,1.1796650390625,0.5944020748138428,-0.3072829842567444,-0.7977964878082275
1772806470991596000,1.189595947265625,0.6088670492172241,-0.3201836049556732,-0.8001914620399475
1772806471001528000,1.199528076171875,0.5803861618041992,-0.319563090801239,-0.7499722838401794
1772806471011458800,1.209458740234375,0.5126542448997498,-0.28910690546035767,-0.6660392880439758
1772806471021390800,1.219390869140625,0.43457674980163574,-0.2755897641181946,-0.5681454539299011
1772806471031322000,1.229322021484375,0.3706800639629364,-0.28450363874435425,-0.49319666624069214
1772806471041254000,1.23925390625,0.3216552734375,-0.3142428994178772,-0.4359078109264374
1772806471051185000,1.249184814453125,0.28260454535484314,-0.3704291880130768,-0.43448248505592346
1772806471061116000,1.259115966796875,0.26037272810935974,-0.4250953793525696,-0.4657791554927826
1772806471071048000,1.2690478515625,0.2503589689731598,-0.4654606282711029,-0.5232989192008972
1772806471080979000,1.27897900390625,0.24823883175849915,-0.4756578803062439,-0.5826341509819031
1772806471090911000,1.288910888671875,0.2243308424949646,-0.41951897740364075,-0.6187524795532227
1772806471100842000,1.298842041015625,0.20309612154960632,-0.3197503089904785,-0.6265823841094971
1772806471110773800,1.308773681640625,0.19067354500293732,-0.23775264620780945,-0.641829252243042
1772806471120704800,1.318704833984375,0.16437189280986786,-0.22962386906147003,-0.6731909513473511
1772806471130636000,1.328635986328125,0.13394448161125183,-0.4385656416416168,-0.7906264662742615
1772806471140568000,1.338568115234375,0.11315850913524628,-0.6181915998458862,-0.7962042093276978
1772806471150498800,1.348498779296875,0.10682791471481323,-0.6658930778503418,-0.7252339124679565
1772806471160430800,1.358430908203125,0.11325199156999588,-0.6784139275550842,-0.6316791772842407
1772806471170362000,1.368362060546875,0.12118927389383316,-0.6825271844863892,-0.5595074892044067
1772806471180292900,1.37829296875,0.13075748085975647,-0.7224141359329224,-0.5417343378067017
1772806471190225000,1.388224853515625,0.14913435280323029,-0.7325493097305298,-0.5438950061798096
1772806471200156000,1.398156005859375,0.17829251289367676,-0.6648262143135071,-0.5569231510162354
1772806471210088000,1.408087890625,0.22956688702106476,-0.5683140158653259,-0.6074598431587219
1772806471220019000,1.41801904296875,0.2982412874698639,-0.4808662235736847,-0.6415022611618042
1772806471229951000,1.427950927734375,0.39395076036453247,-0.4258759319782257,-0.6080806255340576
1772806471239882000,1.437882080078125,0.4781191647052765,-0.4184108376502991,-0.5062448382377625
1772806471249812700,1.447812744140625,0.5144100785255432,-0.4417204260826111,-0.370972216129303
1772806471259745000,1.4577451171875,0.5265410542488098,-0.44834983348846436,-0.2393430769443512
1772806471269676300,1.46767626953125,0.513984203338623,-0.43801623582839966,-0.12222205102443695
1772806471279608300,1.4776083984375,0.4769340753555298,-0.4346148371696472,-0.04512619972229004
1772806471289539000,1.4875390625,0.4257742166519165,-0.42926162481307983,-0.023449400439858437
1772806471299471000,1.49747119140625,0.37392377853393555,-0.4010416865348816,-0.05843747779726982
1772806471309402000,1.507402099609375,0.3398835361003876,-0.3849412798881531,-0.14168629050254822
1772806471319333400,1.51733349609375,0.3399759531021118,-0.389654278755188,-0.252580851316452
1772806471329265200,1.52726513671875,0.36577239632606506,-0.4170025587081909,-0.34827327728271484
1772806471339196200,1.537196044921875,0.3724209666252136,-0.4625135660171509,-0.40913450717926025
1772806471349128200,1.547128173828125,0.36380696296691895,-0.539164662361145,-0.45106518268585205
1772806471359059200,1.55705908203125,0.3450644612312317,-0.6173763871192932,-0.46695971488952637
1772806471368991200,1.5669912109375,0.3434492349624634,-0.7029283046722412,-0.45180314779281616
1772806471378922200,1.576922119140625,0.3508051633834839,-0.7506774663925171,-0.4280371069908142
1772806471388853200,1.586853271484375,0.3680989146232605,-0.7756770849227905,-0.4023791253566742
1772806471398785000,1.596784912109375,0.4188199043273926,-0.8230088949203491,-0.39358192682266235
1772806471408716300,1.60671630859375,0.49598097801208496,-0.8718329071998596,-0.3982491195201874
1772806471418648300,1.6166484375,0.6061123013496399,-0.9109904170036316,-0.4127870500087738
1772806471428579300,1.626579345703125,0.7089135050773621,-0.9429898858070374,-0.42288467288017273
1772806471438511000,1.636510986328125,0.828093409538269,-0.991054117679596,-0.4469450116157532
1772806471448442000,1.646442138671875,0.912151038646698,-1.0415269136428833,-0.45569536089897156
1772806471458373400,1.656373291015625,0.967297375202179,-1.1056917905807495,-0.45055943727493286
1772806471468305200,1.66630517578125,1.0040920972824097,-1.1919586658477783,-0.4120147228240967
1772806471478236200,1.676236083984375,1.0368069410324097,-1.2457401752471924,-0.33899828791618347
1772806471488168200,1.686168212890625,1.0419529676437378,-1.2850391864776611,-0.24093671143054962
1772806471498099200,1.69609912109375,1.0286742448806763,-1.307551622390747,-0.15523645281791687
1772806471508031200,1.70603125,0.9731688499450684,-1.3051401376724243,-0.06668049097061157
1772806471517962200,1.715962158203125,0.9329479336738586,-1.2537837028503418,-0.010900318622589111
1772806471527893200,1.725893310546875,0.9252234101295471,-1.1502131223678589,0.026396187022328377
1772806471537825000,1.735824951171875,0.9183865785598755,-0.9967210292816162,0.11163944751024246
1772806471547756300,1.74575634765625,0.9411938786506653,-0.8147400617599487,0.23658537864685059
1772806471557688300,1.755688232421875,0.9314272403717041,-0.6244505643844604,0.4172305166721344
1772806471567619300,1.765619384765625,0.8806003332138062,-0.4791133403778076,0.5862922668457031
1772806471577550000,1.775550048828125,0.8299261927604675,-0.38894349336624146,0.7152212262153625
1772806471587482000,1.785482177734375,0.7921016216278076,-0.29216820001602173,0.7880921959877014
1772806471597413400,1.795413330078125,0.7730469703674316,-0.2082328349351883,0.7826370000839233
1772806471607345200,1.80534521484375,0.7758222222328186,-0.11470154672861099,0.7249281406402588
1772806471617276200,1.815276123046875,0.7853693962097168,-0.04890042915940285,0.7068184018135071
1772806471627208200,1.825208251953125,0.7785990834236145,-0.09164150059223175,0.7068002820014954
1772806471637139200,1.83513916015625,0.6939494609832764,-0.19073426723480225,0.7506553530693054
1772806471647070200,1.8450703125,0.5293948650360107,-0.2723087668418884,0.8496551513671875
1772806471657002200,1.855002197265625,0.36878496408462524,-0.34201300144195557,0.9259046912193298
1772806471666933200,1.864933349609375,0.23199860751628876,-0.4134831726551056,0.9317111372947693
1772806471676865000,1.874864990234375,0.16340996325016022,-0.4600927531719208,0.8936069011688232
1772806471686796300,1.88479638671875,0.1938142031431198,-0.5154870748519897,0.7134273052215576
1772806471696728300,1.894728271484375,0.3469686210155487,-0.7545526027679443,0.2857489287853241
1772806471706659300,1.904659423828125,0.5222259163856506,-0.9301936626434326,-0.13259026408195496
1772806471716590000,1.914590087890625,0.7110746502876282,-0.8973172307014465,-0.4025661051273346
1772806471726522000,1.924522216796875,0.8292990326881409,-0.7332680821418762,-0.4981434643268585
1772806471736453400,1.934453369140625,0.8279163241386414,-0.6306370496749878,-0.5108938813209534
1772806471746385200,1.94438525390625,0.6975333094596863,-0.6302288174629211,-0.44256889820098877
1772806471756316200,1.954316162109375,0.48260927200317383,-0.6968059539794922,-0.3106204569339752
1772806471766247200,1.9642470703125,0.2575649619102478,-0.753679633140564,-0.1027495488524437
1772806471776179200,1.97417919921875,0.10351813584566116,-0.7945858240127563,0.1217581257224083
1772806471786110200,1.984110107421875,0.04369421675801277,-0.7861534357070923,0.33839136362075806
1772806471796042200,1.994042236328125,0.0551210418343544,-0.6910519599914551,0.5547758936882019
1772806471805973200,2.00397314453125,0.10225339978933334,-0.4693925380706787,0.7690117359161377
1772806471815905000,2.013905029296875,0.13235138356685638,-0.1640738844871521,0.9813575148582458
1772806471825836300,2.023836181640625,0.12965519726276398,0.12899260222911835,1.143619179725647
1772806471835767300,2.033767333984375,0.10561244934797287,0.3428095579147339,1.2163852453231812
1772806471845699300,2.04369921875,0.058995943516492844,0.4569188058376312,1.1910157203674316
1772806471855630000,2.053630126953125,0.011572233401238918,0.4588189721107483,1.0719716548919678
1772806471865562000,2.06356201171875,-0.021586785092949867,0.3975084722042084,0.8892710208892822
1772806471875493400,2.073493408203125,-0.02816878817975521,0.2402525544166565,0.6984869837760925
1772806471885425400,2.08342529296875,-0.02027544379234314,0.08017420023679733,0.5096560716629028
1772806471895356200,2.093356201171875,-0.017495369538664818,-0.04944398254156113,0.3327518701553345
1772806471905287200,2.103287109375,-0.0046269758604466915,-0.11564457416534424,0.1897353082895279
1772806471915219200,2.11321923828125,0.0033545177429914474,-0.12850044667720795,0.07894674688577652
1772806471925150200,2.123150146484375,0.001386707997880876,-0.07753393799066544,-0.0026905916165560484
1772806471935082200,2.133082275390625,-0.012012454681098461,-0.003998470026999712,-0.06646531075239182
1772806471945013200,2.14301318359375,-0.02935975231230259,0.0776793509721756,-0.11065886914730072
1772806471954945300,2.1529453125,-0.05914294719696045,0.14151105284690857,-0.15497760474681854
1772806471964876300,2.162876220703125,-0.09665543586015701,0.17639553546905518,-0.17573854327201843
1772806471974807300,2.172807373046875,-0.1259818971157074,0.2205353081226349,-0.18876858055591583
1772806471984739300,2.1827392578125,-0.1482456624507904,0.2506266236305237,-0.1756298840045929
1772806471994670000,2.192670166015625,-0.15016873180866241,0.26604127883911133,-0.1529405415058136
1772806472004602000,2.20260205078125,-0.1269872486591339,0.2441548854112625,-0.15246224403381348
1772806472014533400,2.212533447265625,-0.09779926389455795,0.20968319475650787,-0.16334019601345062
1772806472024464100,2.222464111328125,-0.07588597387075424,0.17730288207530975,-0.1776493489742279
1772806472034396200,2.232396240234375,-0.06679660826921463,0.18101398646831512,-0.18264144659042358
1772806472044327200,2.2423271484375,-0.07729824632406235,0.20346470177173615,-0.18807776272296906
1772806472054259200,2.25225927734375,-0.10161450505256653,0.19281844794750214,-0.23370037972927094
1772806472064190200,2.262190185546875,-0.13416872918605804,0.15932893753051758,-0.26415547728538513
1772806472074122200,2.272122314453125,-0.164547398686409,0.1644858866930008,-0.2537350654602051
1772806472084053200,2.28205322265625,-0.18772755563259125,0.17373503744602203,-0.25486186146736145
1772806472093984000,2.29198388671875,-0.20988506078720093,0.17978841066360474,-0.2903628647327423
1772806472103916300,2.301916259765625,-0.24871741235256195,0.18727321922779083,-0.3285650908946991
1772806472113847300,2.311847412109375,-0.30600598454475403,0.19462540745735168,-0.36100825667381287
1772806472123779300,2.321779296875,-0.3913235664367676,0.2297397255897522,-0.4053823947906494
1772806472133710000,2.3317099609375,-0.4926254153251648,0.2509291470050812,-0.47052890062332153
1772806472143642000,2.34164208984375,-0.6011316180229187,0.21954381465911865,-0.564042866230011
1772806472153573400,2.351573486328125,-0.7094317674636841,0.17076268792152405,-0.6819945573806763
1772806472163504000,2.361504150390625,-0.8019813895225525,0.11403016746044159,-0.7407475709915161
1772806472173436200,2.371436279296875,-0.8369635939598083,0.074969582259655,-0.7068929672241211
1772806472183367200,2.3813671875,-0.8046019673347473,0.06727491319179535,-0.5890523195266724
1772806472193299200,2.39129931640625,-0.6948125958442688,0.06354435533285141,-0.4240061342716217
1772806472203230200,2.401230224609375,-0.5308763980865479,-0.0010841728653758764,-0.2533678114414215
1772806472213161200,2.4111611328125,-0.3629488945007324,-0.11826352775096893,-0.08921456336975098
1772806472223093200,2.42109326171875,-0.21701087057590485,-0.18463057279586792,0.08121629059314728
1772806472233024000,2.43102392578125,-0.12837927043437958,-0.15931083261966705,0.2322247177362442
1772806472242956300,2.440956298828125,-0.09845626354217529,-0.054309844970703125,0.34478560090065
1772806472252887300,2.45088720703125,-0.09894522279500961,0.07035751640796661,0.39145591855049133
1772806472262819600,2.460819580078125,-0.11349247395992279,0.16085359454154968,0.38571521639823914
1772806472272750300,2.470750244140625,-0.12920644879341125,0.1686771661043167,0.3769203722476959
1772806472282681300,2.480681396484375,-0.1621638685464859,0.11591488122940063,0.3598519265651703
1772806472292613600,2.490613525390625,-0.2124858945608139,0.0533287338912487,0.325430303812027
1772806472302544400,2.50054443359375,-0.26185664534568787,0.01312139444053173,0.2838708758354187
1772806472312476400,2.510476318359375,-0.278326153755188,-0.030911576002836227,0.25382933020591736
1772806472322407400,2.520407470703125,-0.23983736336231232,-0.04172055050730705,0.2734096944332123
1772806472332339500,2.53033935546875,-0.14524507522583008,-0.0008748483960516751,0.3291427493095398
1772806472342270500,2.5402705078125,0.0046786414459347725,-0.03614442050457001,0.35872647166252136
1772806472352201500,2.550201416015625,0.21071437001228333,-0.11105115711688995,0.3556118905544281
1772806472362133500,2.560133544921875,0.401265949010849,-0.08861854672431946,0.4192289710044861
1772806472372064300,2.570064208984375,0.5107436776161194,0.11879748851060867,0.5509454607963562
1772806472381996300,2.579996337890625,0.4845339357852936,0.398845911026001,0.6606135964393616
1772806472391927600,2.589927490234375,0.3249930143356323,0.650934636592865,0.6765068173408508
1772806472401858300,2.5998583984375,0.0799262598156929,0.7622132301330566,0.5780817270278931
1772806472411790300,2.609790283203125,-0.17935962975025177,0.7148571610450745,0.40363800525665283
1772806472421721300,2.619721435546875,-0.4035610556602478,0.5828123092651367,0.17705893516540527
1772806472431653400,2.6296533203125,-0.5518621206283569,0.3519042432308197,-0.13782711327075958
1772806472441584400,2.63958447265625,-0.6406795978546143,-0.0589115209877491,-0.5657912492752075
1772806472451516400,2.649516357421875,-0.6147568821907043,-0.32023900747299194,-0.8227439522743225
1772806472461447400,2.659447509765625,-0.5137740969657898,-0.2731971740722656,-0.8709719181060791
1772806472471378400,2.66937841796875,-0.33319446444511414,-0.03056243620812893,-0.7374279499053955
1772806472481310500,2.679310546875,-0.09840700030326843,0.22640037536621094,-0.512565553188324
1772806472491241500,2.689241455078125,0.15833371877670288,0.4301694929599762,-0.2917442321777344
1772806472501173500,2.699173583984375,0.34402209520339966,0.5730547308921814,-0.09085161238908768
1772806472511104300,2.709104248046875,0.4101470410823822,0.6710268259048462,0.03586212545633316
1772806472521036300,2.719036376953125,0.38376471400260925,0.6660440564155579,0.042209237813949585
1772806472530967600,2.728967529296875,0.2700096368789673,0.6396068930625916,0.00004846953015658073
1772806472540898300,2.738898193359375,0.12759311497211456,0.6033971905708313,-0.05452316254377365
1772806472550830300,2.748830322265625,0.012812734581530094,0.5351420044898987,-0.1245856061577797
1772806472560761300,2.75876123046875,-0.06474943459033966,0.41848352551460266,-0.22648321092128754
1772806472570693400,2.768693359375,-0.0972924679517746,0.28207242488861084,-0.37145769596099854
1772806472580624400,2.778624267578125,-0.10148907452821732,0.14084367454051971,-0.5385558605194092
1772806472590555400,2.788555419921875,-0.10928601026535034,0.028377845883369446,-0.6960278153419495
1772806472600487400,2.7984873046875,-0.11359553784132004,-0.06677210330963135,-0.8239926695823669
1772806472610418400,2.80841845703125,-0.15222841501235962,-0.17313742637634277,-0.9275438189506531
1772806472620350500,2.8183505859375,-0.22120028734207153,-0.26220712065696716,-0.9933971762657166
1772806472630281500,2.828281494140625,-0.30048659443855286,-0.33864596486091614,-1.0193581581115723
1772806472640213500,2.838213623046875,-0.379978209733963,-0.38468217849731445,-1.020777702331543
1772806472650144300,2.848144287109375,-0.4331120252609253,-0.40075621008872986,-0.9949237108230591
1772806472660075500,2.858075439453125,-0.4438626766204834,-0.379866361618042,-0.9426780343055725
1772806472670007600,2.868007568359375,-0.41211244463920593,-0.36310815811157227,-0.8780865669250488
1772806472679938300,2.877938232421875,-0.3457542061805725,-0.3442162275314331,-0.7978606820106506
1772806472689870300,2.887870361328125,-0.2463517189025879,-0.3145848214626312,-0.6977258324623108
1772806472699801300,2.89780126953125,-0.13423530757427216,-0.2769032418727875,-0.614108681678772
1772806472709732600,2.907732666015625,-0.026929618790745735,-0.23156984150409698,-0.5248619318008423
1772806472719664400,2.917664306640625,0.07919708639383316,-0.19003704190254211,-0.48237571120262146
1772806472729595400,2.927595458984375,0.15468572080135345,-0.14168256521224976,-0.44214120507240295
1772806472739527400,2.93752734375,0.1862201988697052,-0.10104326158761978,-0.4221211373806
1772806472749458400,2.94745849609375,0.18609210848808289,-0.09625622630119324,-0.40923944115638733
1772806472759390500,2.957390380859375,0.189820796251297,-0.08416414260864258,-0.3642192482948303
1772806472769321500,2.967321533203125,0.21221639215946198,-0.07341456413269043,-0.3056209087371826
1772806472779252500,2.97725244140625,0.24974697828292847,-0.09635849297046661,-0.2564789354801178
1772806472789184300,2.987184326171875,0.3073793947696686,-0.15866820514202118,-0.21608249843120575
1772806472799115500,2.997115478515625,0.36991971731185913,-0.24458551406860352,-0.169065460562706
1772806472809047600,3.007047607421875,0.43499699234962463,-0.33596041798591614,-0.14673803746700287
1772806472818978300,3.016978271484375,0.49879196286201477,-0.3842131793498993,-0.16559456288814545
1772806472828909300,3.026909423828125,0.5653275847434998,-0.38514500856399536,-0.21818186342716217
1772806472838841300,3.03684130859375,0.614702582359314,-0.3691471517086029,-0.2689845860004425
1772806472848772600,3.046772705078125,0.6337292790412903,-0.36631619930267334,-0.29636508226394653
1772806472858704400,3.056704345703125,0.618288516998291,-0.40247127413749695,-0.3067881762981415
1772806472868635400,3.066635498046875,0.5788188576698303,-0.45599788427352905,-0.3122636377811432
1772806472878567400,3.0765673828125,0.5261295437812805,-0.5050147175788879,-0.3251189589500427
1772806472888498400,3.08649853515625,0.45676249265670776,-0.5475789308547974,-0.3534603416919708
1772806472898429400,3.096429443359375,0.3885229825973511,-0.5701971650123596,-0.4039221704006195
1772806472908361500,3.106361572265625,0.3170567750930786,-0.6348667144775391,-0.4560575485229492
1772806472918292500,3.11629248046875,0.2584347426891327,-0.7084037661552429,-0.48122361302375793
1772806472928224300,3.126224365234375,0.2038724422454834,-0.7814574837684631,-0.4818989932537079
1772806472938155500,3.136155517578125,0.15601569414138794,-0.8526240587234497,-0.4632989466190338
1772806472948087600,3.146087646484375,0.13818423449993134,-0.9303942322731018,-0.4530300498008728
1772806472958018300,3.156018310546875,0.15909138321876526,-0.9808667302131653,-0.43840131163597107
1772806472967949300,3.16594921875,0.20605942606925964,-0.9338073134422302,-0.3706073462963104
1772806472977881300,3.17588134765625,0.2563963532447815,-0.8033198714256287,-0.22185809910297394
1772806472987812600,3.1858125,0.3209841549396515,-0.6594164967536926,-0.039014242589473724
1772806472997744400,3.195744384765625,0.3773952126502991,-0.5316929221153259,0.13719646632671356
1772806473007675400,3.20567529296875,0.413897305727005,-0.3975697457790375,0.28918254375457764
1772806473017606400,3.2156064453125,0.40298765897750854,-0.25460192561149597,0.39736413955688477
1772806473027538400,3.225538330078125,0.3581030070781708,-0.0548696406185627,0.5389497876167297
1772806473037469400,3.235469482421875,0.3034951686859131,0.162118598818779,0.7247790098190308
1772806473047401500,3.2454013671875,0.21820956468582153,0.3360064923763275,0.9500483274459839
1772806473057332500,3.25533251953125,0.10599754005670547,0.45314937829971313,1.2407640218734741
1772806473067264300,3.26526416015625,0.035641882568597794,0.4730226695537567,1.4255014657974243
1772806473077195500,3.275195556640625,-0.026753583922982216,0.41775861382484436,1.4691588878631592
1772806473087126500,3.28512646484375,-0.022546853870153427,0.25532522797584534,1.311901330947876
1772806473097058600,3.29505859375,0.05379052832722664,-0.03075338527560234,1.0036391019821167
1772806473106989300,3.3049892578125,0.17195604741573334,-0.30468320846557617,0.6748202443122864
1772806473116921300,3.31492138671875,0.3029311001300812,-0.46928998827934265,0.392120361328125
1772806473126852600,3.3248525390625,0.38836798071861267,-0.4986707866191864,0.19041015207767487
1772806473136784400,3.334784423828125,0.41116970777511597,-0.5010324716567993,0.017845043912529945
1772806473146715400,3.34471533203125,0.35353970527648926,-0.5335747003555298,-0.09897611290216446
1772806473156646400,3.354646484375,0.25143304467201233,-0.5990226864814758,-0.20010805130004883
1772806473166578400,3.364578369140625,0.09689405560493469,-0.7030007243156433,-0.22349807620048523
1772806473176509400,3.374509521484375,-0.0685548260807991,-0.7177035212516785,-0.1591595560312271
1772806473186441500,3.38444140625,-0.18869908154010773,-0.7070378661155701,-0.05342034623026848
1772806473196372500,3.39437255859375,-0.2194300889968872,-0.6780663728713989,0.040041424334049225
1772806473206303200,3.40430322265625,-0.175474613904953,-0.6297925710678101,0.1321958601474762
1772806473216235500,3.414235595703125,-0.10370242595672607,-0.463248610496521,0.28957509994506836
1772806473226166500,3.42416650390625,-0.03239096328616142,-0.13781405985355377,0.5253300666809082
1772806473236098600,3.4340986328125,-0.0030075078830122948,0.21796108782291412,0.8029979467391968
1772806473246029300,3.444029296875,-0.020607540383934975,0.5348189473152161,1.0465607643127441
1772806473255961300,3.45396142578125,-0.06489644199609756,0.7556631565093994,1.199661374092102
1772806473265892000,3.46389208984375,-0.14230307936668396,0.8501366972923279,1.2466826438903809
1772806473275823000,3.473822998046875,-0.2278273105621338,0.853783369064331,1.1878806352615356
1772806473285755100,3.483755126953125,-0.28498831391334534,0.75831538438797,1.053600788116455
1772806473295686000,3.493685791015625,-0.2916198670864105,0.5891854763031006,0.8675452470779419
1772806473305618000,3.503617919921875,-0.24487179517745972,0.39570313692092896,0.6498395204544067
1772806473315549200,3.513549072265625,-0.17916229367256165,0.23500186204910278,0.4323631227016449
1772806473325480000,3.52347998046875,-0.11668427288532257,0.13118945062160492,0.2419079691171646
1772806473335412000,3.533411865234375,-0.08144159615039825,0.09555714577436447,0.1100199744105339
1772806473345343200,3.54334326171875,-0.08638335764408112,0.13346591591835022,0.03068174608051777
1772806473355275300,3.553275146484375,-0.12215147167444229,0.2220543771982193,-0.011176222003996372
1772806473365206000,3.5632060546875,-0.17791886627674103,0.302903950214386,-0.049674078822135925
1772806473375138000,3.573137939453125,-0.21641805768013,0.359051376581192,-0.08736526221036911
1772806473385069000,3.583069091796875,-0.23921231925487518,0.3967425525188446,-0.13736239075660706
1772806473395000000,3.593,-0.25851890444755554,0.42272621393203735,-0.1826489120721817
1772806473404932000,3.60293212890625,-0.2524471580982208,0.4233454167842865,-0.2227981835603714
1772806473414863000,3.612863037109375,-0.22958019375801086,0.3804488182067871,-0.24277162551879883
1772806473424795100,3.622795166015625,-0.2014891803264618,0.33412817120552063,-0.24251703917980194
1772806473434726000,3.632725830078125,-0.18174849450588226,0.31569698452949524,-0.19981856644153595
1772806473444658000,3.642657958984375,-0.15984505414962769,0.3303832411766052,-0.13450081646442413
1772806473454589200,3.652589111328125,-0.14743153750896454,0.3846786916255951,-0.06297044456005096
1772806473464520000,3.66252001953125,-0.1445864737033844,0.44354549050331116,-0.011038536205887794
1772806473474452000,3.672451904296875,-0.1482512503862381,0.5029987096786499,0.021442973986268044
1772806473484383200,3.68238330078125,-0.15920163691043854,0.5496761798858643,0.01877155713737011
1772806473494315300,3.692315185546875,-0.1793718934059143,0.5485427379608154,-0.04001665860414505
1772806473504246000,3.70224609375,-0.19556550681591034,0.4933319389820099,-0.15015913546085358
1772806473514177000,3.712177001953125,-0.20524290204048157,0.4304552376270294,-0.25866004824638367
1772806473524109000,3.722109130859375,-0.21294023096561432,0.3728737235069275,-0.33402857184410095
1772806473534040000,3.7320400390625,-0.2191544473171234,0.3628852665424347,-0.35743510723114014
1772806473543972000,3.74197216796875,-0.23260395228862762,0.35176071524620056,-0.3230701982975006
1772806473553903000,3.751903076171875,-0.25113874673843384,0.3292636573314667,-0.282429575920105
1772806473563835100,3.761835205078125,-0.30568641424179077,0.2610805928707123,-0.25243356823921204
1772806473573766000,3.771765869140625,-0.39461761713027954,0.15060842037200928,-0.25312307476997375
1772806473583697200,3.781697265625,-0.4923681616783142,0.006996124051511288,-0.2886160910129547
1772806473593629200,3.791629150390625,-0.5709289908409119,-0.13902926445007324,-0.32653844356536865
1772806473603560000,3.801559814453125,-0.6050305366516113,-0.24954697489738464,-0.3421517610549927
1772806473613492000,3.811491943359375,-0.5666077733039856,-0.28459951281547546,-0.3186195194721222
1772806473623423000,3.821423095703125,-0.4686407148838043,-0.21717865765094757,-0.22479769587516785
1772806473633354000,3.83135400390625,-0.34967517852783203,-0.08666911721229553,-0.07444094121456146
1772806473643286000,3.8412861328125,-0.23321513831615448,0.029737655073404312,0.09145907312631607
1772806473653217000,3.851217041015625,-0.15889857709407806,0.06278695166110992,0.22390393912792206
1772806473663149000,3.861149169921875,-0.10448406636714935,0.008038485422730446,0.30601903796195984
1772806473673080000,3.871080078125,-0.07279804348945618,-0.07902397960424423,0.3597741425037384
1772806473683012000,3.88101220703125,-0.07551605999469757,-0.2062881886959076,0.34954574704170227
1772806473692943000,3.890943115234375,-0.09763121604919434,-0.31889036297798157,0.281613290309906
1772806473702873900,3.900873779296875,-0.1377333700656891,-0.4024449288845062,0.17615638673305511
1772806473712806000,3.910805908203125,-0.14903582632541656,-0.4044039249420166,0.0692690834403038
1772806473722737200,3.920737060546875,-0.1555914580821991,-0.3049367368221283,0.032344624400138855
1772806473732669200,3.930669189453125,-0.1880713701248169,-0.24032045900821686,0.07341908663511276
1772806473742600000,3.940599853515625,-0.28634893894195557,-0.3135099709033966,0.06403438001871109
1772806473752531000,3.950531005859375,-0.44659000635147095,-0.4977562427520752,-0.026399916037917137
1772806473762463000,3.960462890625,-0.6090452075004578,-0.6223024725914001,-0.11744247376918793
1772806473772394000,3.97039404296875,-0.6518020033836365,-0.5164335370063782,-0.08142055571079254
1772806473782324000,3.980323974609375,-0.5290835499763489,-0.11205410212278366,0.1575089395046234
1772806473792256000,3.990256103515625,-0.24687449634075165,0.40651583671569824,0.552906334400177
1772806473802187000,4.00018701171875,0.10204780846834183,0.7740376591682434,0.9364691376686096
1772806473812119000,4.010119140625,0.37270352244377136,0.9358084201812744,1.2103906869888306
1772806473822050000,4.020050048828125,0.4868175983428955,0.9335740208625793,1.3343778848648071
1772806473831982000,4.029982177734375,0.39961984753608704,0.7813032865524292,1.2842899560928345
1772806473841913000,4.0399130859375,0.1684473305940628,0.5479105114936829,1.10680091381073
1772806473851844000,4.049843994140625,-0.11592713743448257,0.33851519227027893,0.834896981716156
1772806473861776100,4.059776123046875,-0.38657355308532715,0.22839829325675964,0.5087620615959167
1772806473871707000,4.069706787109375,-0.6085940599441528,0.23741415143013,0.14868055284023285
1772806473881639000,4.079638916015625,-0.7391153573989868,0.344448983669281,-0.1802472621202469
1772806473891570200,4.089570068359375,-0.7490183115005493,0.48004835844039917,-0.4422471821308136
1772806473901501000,4.0995009765625,-0.6715914607048035,0.3578486740589142,-0.8408928513526917
1772806473911433000,4.109432861328125,-0.475839227437973,-0.05185813829302788,-1.2435723543167114
1772806473921364000,4.119364013671875,-0.26349130272865295,-0.35210344195365906,-1.4442439079284668
1772806473931296000,4.1292958984375,-0.023738352581858635,-0.40137779712677,-1.4103786945343018
1772806473941227000,4.13922705078125,0.22281603515148163,-0.3065356910228729,-1.2227517366409302
1772806473951159000,4.149158935546875,0.4196372330188751,-0.15331977605819702,-0.977531909942627
1772806473961090000,4.159090087890625,0.5555098056793213,-0.07060306519269943,-0.7655637264251709
1772806473971021000,4.16902099609375,0.598257839679718,-0.04760080948472023,-0.6251038312911987
1772806473980953000,4.178953125,0.5945842862129211,-0.08799111098051071,-0.5718328952789307
1772806473990884000,4.188884033203125,0.5248331427574158,-0.172596275806427,-0.6040939092636108
1772806474000816000,4.198816162109375,0.4501495957374573,-0.19219394028186798,-0.5752318501472473
1772806474010747000,4.208746826171875,0.37789297103881836,-0.17353449761867523,-0.5364884734153748
1772806474020678100,4.21867822265625,0.3125928044319153,-0.21581751108169556,-0.5109724402427673
1772806474030610200,4.228610107421875,0.28198349475860596,-0.299241840839386,-0.5112286806106567
1772806474040541000,4.238541015625,0.2705042064189911,-0.48547881841659546,-0.5511947274208069
1772806474050473000,4.248472900390625,0.2838892340660095,-0.6835871338844299,-0.6001161932945251
1772806474060404000,4.258404052734375,0.308139443397522,-0.8046472072601318,-0.6627577543258667
1772806474070336000,4.2683359375,0.3260473608970642,-0.8365042209625244,-0.6839407682418823
1772806474080267000,4.27826708984375,0.3303789794445038,-0.8747820854187012,-0.688369870185852
1772806474090198000,4.288197998046875,0.3271922469139099,-0.9183599352836609,-0.6793630719184875
1772806474100130000,4.298130126953125,0.314109742641449,-0.9753246903419495,-0.672229528427124
1772806474110061000,4.30806103515625,0.2930683493614197,-1.0317120552062988,-0.6832312941551208
1772806474119993000,4.3179931640625,0.2976926863193512,-1.0732475519180298,-0.702558696269989
1772806474129924000,4.327924072265625,0.3520187735557556,-1.0911461114883423,-0.7071598172187805
1772806474139856100,4.337856201171875,0.4463021159172058,-1.0533795356750488,-0.6833328008651733
1772806474149787000,4.347786865234375,0.5285032391548157,-0.8931041359901428,-0.576977550983429
1772806474159718100,4.35771826171875,0.6053948402404785,-0.721538245677948,-0.4854165017604828
1772806474169650200,4.367650146484375,0.6126365065574646,-0.6625710129737854,-0.415168434381485
1772806474179581000,4.377580810546875,0.5982850193977356,-0.6754394173622131,-0.3690408766269684
1772806474189513000,4.387512939453125,0.5582984089851379,-0.7201554775238037,-0.34576353430747986
1772806474199444000,4.39744384765625,0.535797119140625,-0.7162744998931885,-0.31151846051216125
1772806474209375200,4.407375244140625,0.5216184258460999,-0.6823458075523376,-0.29661303758621216
1772806474219307000,4.41730712890625,0.509120762348175,-0.6460277438163757,-0.30429863929748535
1772806474229238000,4.427238037109375,0.4985296428203583,-0.631961464881897,-0.31924325227737427
1772806474239170000,4.437170166015625,0.5025046467781067,-0.6110867857933044,-0.33785367012023926
1772806474249101000,4.44710107421875,0.5265719294548035,-0.603635311126709,-0.3479779362678528
1772806474259032000,4.457031982421875,0.5670250654220581,-0.5958364605903625,-0.34140074253082275
1772806474268964600,4.466964599609375,0.5975270867347717,-0.5964894890785217,-0.3166269361972809
1772806474278895400,4.476895263671875,0.6047570109367371,-0.5698871612548828,-0.2545430660247803
1772806474288827400,4.486827392578125,0.5836604833602905,-0.5179685950279236,-0.1679338812828064
1772806474298758400,4.49675830078125,0.5382158160209656,-0.4781985282897949,-0.10063207149505615
1772806474308690400,4.5066904296875,0.46227335929870605,-0.43183955550193787,-0.0668456107378006
1772806474318621400,4.516621337890625,0.3724425435066223,-0.3951134979724884,-0.07659677416086197
1772806474328552400,4.526552490234375,0.28180158138275146,-0.38850221037864685,-0.12006968259811401
1772806474338484500,4.536484375,0.2183310091495514,-0.4291825294494629,-0.16592425107955933
1772806474348415500,4.54641552734375,0.19347599148750305,-0.5132167339324951,-0.24798662960529327
1772806474358347500,4.556347412109375,0.20092564821243286,-0.6452895402908325,-0.3651862144470215
1772806474368278500,4.566278564453125,0.18291176855564117,-0.7389265298843384,-0.4328928291797638
1772806474378210600,4.57621044921875,0.18637627363204956,-0.8321179747581482,-0.49166107177734375
1772806474388141300,4.586141357421875,0.22811199724674225,-0.9220705032348633,-0.506886899471283
1772806474398072600,4.596072509765625,0.32446783781051636,-0.9705291390419006,-0.4760887622833252
1772806474408004600,4.606004638671875,0.49988919496536255,-1.0678473711013794,-0.4395800232887268
1772806474417935400,4.615935302734375,0.6982957720756531,-1.1585386991500854,-0.42966002225875854
1772806474427867400,4.625867431640625,0.8317712545394897,-1.1768327951431274,-0.37909483909606934
1772806474437798400,4.63579833984375,0.9029399752616882,-1.1130540370941162,-0.306640625
1772806474447729400,4.6457294921875,0.8924689292907715,-0.9496126770973206,-0.16977837681770325
1772806474457661400,4.655661376953125,0.8438785076141357,-0.8953803181648254,-0.07592832297086716
1772806474467592400,4.665592529296875,0.7599950432777405,-0.8832083344459534,0.02599085494875908
1772806474477524500,4.6755244140625,0.6760460734367371,-0.8285778760910034,0.10907508432865143
1772806474487455500,4.68545556640625,0.5996770262718201,-0.744644045829773,0.14804911613464355
1772806474497387500,4.695387451171875,0.514735758304596,-0.613574206829071,0.23927436769008636
1772806474507318500,4.705318603515625,0.44256117939949036,-0.3624785840511322,0.48737633228302
1772806474517249300,4.715249267578125,0.4057115614414215,-0.03106098063290119,0.887419581413269
1772806474527181300,4.725181396484375,0.3724907338619232,0.24320092797279358,1.2701462507247925
1772806474537112600,4.735112548828125,0.3246539831161499,0.43471232056617737,1.5280933380126953
1772806474547044600,4.745044677734375,0.23174402117729187,0.5231683850288391,1.6632159948349
1772806474556975400,4.754975341796875,0.09699419140815735,0.4972473382949829,1.685120701789856
1772806474566906400,4.76490625,-0.0073529877699911594,0.3117251396179199,1.5475075244903564
1772806474576838400,4.77483837890625,-0.009818541817367077,0.07998138666152954,1.3237411975860596
1772806474586769400,4.784769287109375,0.07685483247041702,-0.14627279341220856,1.05710768699646
1772806474596701400,4.794701416015625,0.252616286277771,-0.32405051589012146,0.7660068869590759
1772806474606632400,4.804632568359375,0.41697779297828674,-0.5084767937660217,0.42461732029914856
1772806474616564500,4.814564453125,0.5528490543365479,-0.6332072615623474,0.1293470710515976
1772806474626495500,4.82449560546875,0.6019521951675415,-0.6537735462188721,-0.06106175482273102
1772806474636426500,4.834426513671875,0.5636130571365356,-0.6459659337997437,-0.19631358981132507
1772806474646358500,4.844358642578125,0.45987623929977417,-0.7250850200653076,-0.29693686962127686
1772806474656289500,4.85428955078125,0.28918254375457764,-0.8684864044189453,-0.3432697355747223
1772806474666221300,4.86422119140625,0.10410536080598831,-0.961759626865387,-0.3138764500617981
1772806474676152600,4.874152587890625,-0.0339350625872612,-0.8901965022087097,-0.16653119027614594
1772806474686083600,4.88408349609375,-0.13908597826957703,-0.704147219657898,0.054295994341373444
1772806474696015400,4.894015380859375,-0.1843504011631012,-0.4872271716594696,0.2958356440067291
1772806474705946400,4.9039462890625,-0.20238745212554932,-0.17969945073127747,0.6149614453315735
1772806474715878400,4.91387841796875,-0.20638538897037506,0.21162809431552887,0.9761635661125183
1772806474725809700,4.9238095703125,-0.21613043546676636,0.5873767137527466,1.2811280488967896
1772806474735741400,4.933741455078125,-0.2605586051940918,0.8646135926246643,1.4767385721206665
1772806474745672400,4.94367236328125,-0.33638760447502136,0.9703152775764465,1.5185035467147827
1772806474755603500,4.953603515625,-0.4365096688270569,0.9215717315673828,1.4113951921463013
1772806474765535200,4.96353515625,-0.5565271377563477,0.8106065988540649,1.2508732080459595
1772806474775466500,4.973466552734375,-0.6799721121788025,0.7197869420051575,1.083546757698059
1772806474785398500,4.9833984375,-0.7517733573913574,0.7025466561317444,0.941436231136322
1772806474795329500,4.99332958984375,-0.7909939885139465,0.7391166687011719,0.8331561088562012
1772806474805260500,5.003260498046875,-0.7925980091094971,0.8031973838806152,0.7339237928390503
1772806474815192600,5.013192626953125,-0.758009135723114,0.8341667652130127,0.615667462348938
1772806474825123600,5.02312353515625,-0.6949476003646851,0.8298289775848389,0.4766765236854553
1772806474835055400,5.033055419921875,-0.6198920011520386,0.796035885810852,0.34924906492233276
1772806474844986400,5.042986328125,-0.5421674251556396,0.7785194516181946,0.2492777407169342
1772806474854917600,5.052917724609375,-0.4727499783039093,0.7595353722572327,0.17959186434745789
1772806474864849700,5.062849609375,-0.4015471637248993,0.7436456680297852,0.1244918629527092
1772806474874780400,5.072780517578125,-0.35147202014923096,0.7074580788612366,0.06780993938446045
1772806474884712400,5.08271240234375,-0.3266492187976837,0.6697384119033813,-0.008549013175070286
1772806474894643500,5.0926435546875,-0.30682066082954407,0.5928114056587219,-0.0969017818570137
1772806474904575200,5.1025751953125,-0.28150466084480286,0.5489720106124878,-0.12760749459266663
1772806474914506500,5.112506591796875,-0.25209614634513855,0.5400781631469727,-0.09152672439813614
1772806474924437500,5.1224375,-0.22783130407333374,0.5244163870811462,-0.022013690322637558
1772806474934369500,5.13236962890625,-0.21386462450027466,0.4958358407020569,0.04279327020049095
1772806474944300300,5.14230029296875,-0.23492196202278137,0.4878900349140167,0.11288953572511673
1772806474954232600,5.152232666015625,-0.30066874623298645,0.5031043887138367,0.17495423555374146
1772806474964163600,5.16216357421875,-0.37632036209106445,0.5257327556610107,0.22160989046096802
1772806474974094300,5.17209423828125,-0.4546266198158264,0.5024149417877197,0.23247238993644714
1772806474984026400,5.1820263671875,-0.5326761603355408,0.4718647301197052,0.18644843995571136
1772806474993957600,5.19195751953125,-0.6132498383522034,0.4384186267852783,0.11176355183124542
1772806475003889700,5.2018896484375,-0.672004222869873,0.3973095417022705,-0.00555322365835309
1772806475013820400,5.2118203125,-0.7038092613220215,0.33056193590164185,-0.16225069761276245
1772806475023752400,5.22175244140625,-0.7084181308746338,0.24104297161102295,-0.3362525701522827
1772806475033683500,5.231683349609375,-0.6865895390510559,0.1866907924413681,-0.5202291011810303
1772806475043614500,5.241614501953125,-0.6219202876091003,0.14108015596866608,-0.6681634187698364
1772806475053546500,5.25154638671875,-0.5305331349372864,0.09698034077882767,-0.7672058343887329
1772806475063477500,5.2614775390625,-0.39943766593933105,0.10173674672842026,-0.7914142608642578
1772806475073409500,5.271409423828125,-0.22726485133171082,0.08437906205654144,-0.7495786547660828
1772806475083340300,5.28134033203125,-0.08153640478849411,0.04030641168355942,-0.6285994648933411
1772806475093272300,5.291272216796875,-0.0347963310778141,-0.05162644386291504,-0.4363538920879364
1772806475103203600,5.30120361328125,-0.05107756331562996,-0.15972201526165009,-0.1824270635843277
1772806475113134300,5.31113427734375,-0.08353297412395477,-0.2439655214548111,0.07484947144985199
1772806475123066400,5.32106640625,-0.1416303664445877,-0.27295243740081787,0.3448095917701721
1772806475132997600,5.33099755859375,-0.19647444784641266,-0.24631044268608093,0.5798865556716919
1772806475142929700,5.3409296875,-0.24879011511802673,-0.1585283875465393,0.7717577219009399
1772806475152860400,5.3508603515625,-0.2846040427684784,-0.01549507025629282,0.8830884695053101
1772806475162791400,5.36079150390625,-0.3246814012527466,0.1181948184967041,0.8821015357971191
1772806475172723500,5.370723388671875,-0.3970637321472168,0.3080872595310211,0.7910917401313782
1772806475182654500,5.380654541015625,-0.49043017625808716,0.4848923981189728,0.6861962080001831
1772806475192586500,5.39058642578125,-0.5789169073104858,0.5890864133834839,0.5816061496734619
1772806475202517500,5.400517578125,-0.6773380041122437,0.5805765986442566,0.44592955708503723
1772806475212448300,5.4104482421875,-0.796864926815033,0.5372672080993652,0.32987749576568604
1772806475222380300,5.42038037109375,-1.0144965648651123,0.5283003449440002,0.26686978340148926
1772806475232311600,5.4303115234375,-1.219085931777954,0.532289445400238,0.33932000398635864
1772806475242243600,5.44024365234375,-1.2327815294265747,0.574721097946167,0.5640780329704285
1772806475252174300,5.45017431640625,-1.0616071224212646,0.5765365362167358,0.8796237111091614
1772806475262106400,5.4601064453125,-0.77108234167099,0.568293035030365,1.2247231006622314
1772806475272037400,5.470037353515625,-0.44077765941619873,0.49232181906700134,1.476780652999878
1772806475281968000,5.479968017578125,-0.20986507833003998,0.41122135519981384,1.5692157745361328
1772806475291900200,5.489900146484375,-0.11707548797130585,0.3480839431285858,1.4984930753707886
1772806475301831200,5.4998310546875,-0.1594221442937851,0.29163745045661926,1.2983810901641846
1772806475311763200,5.50976318359375,-0.2985587418079376,0.26063746213912964,0.9791707992553711
1772806475321694200,5.519694091796875,-0.46554240584373474,0.1988992542028427,0.6283422112464905
1772806475331625200,5.529625244140625,-0.6198430061340332,0.05898502469062805,0.27717167139053345
1772806475341557200,5.53955712890625,-0.6957787871360779,-0.13267868757247925,-0.038247521966695786
1772806475351488000,5.549488037109375,-0.6828725934028625,-0.32398393750190735,-0.2808074355125427
1772806475361420000,5.559419921875,-0.6205415725708008,-0.4690801501274109,-0.4304334223270416
1772806475371351300,5.569351318359375,-0.5593759417533875,-0.5499722957611084,-0.4942456781864166
1772806475381283300,5.579283447265625,-0.5086661577224731,-0.5515707731246948,-0.48565566539764404
1772806475391214000,5.589214111328125,-0.4488523602485657,-0.4791626036167145,-0.43120279908180237
1772806475401145300,5.599145263671875,-0.36030837893486023,-0.36085620522499084,-0.36381709575653076
1772806475411077400,5.609077392578125,-0.27542492747306824,-0.24386565387248993,-0.3383261263370514
1772806475421008100,5.619008056640625,-0.2464742213487625,-0.09360558539628983,-0.3341630697250366
1772806475430940200,5.628940185546875,-0.2356783002614975,0.10764816403388977,-0.3577898442745209
1772806475440871200,5.63887109375,-0.2653816044330597,0.2963230013847351,-0.407397598028183
1772806475450802200,5.64880224609375,-0.32870757579803467,0.41697779297828674,-0.4623732268810272
1772806475460734200,5.658734130859375,-0.40103957056999207,0.47600382566452026,-0.5058187246322632
1772806475470665200,5.668665283203125,-0.45745542645454407,0.4620720148086548,-0.557687520980835
1772806475480597200,5.67859716796875,-0.5139381289482117,0.36958736181259155,-0.6070126891136169
1772806475490528000,5.688528076171875,-0.5692104697227478,0.21417327225208282,-0.6689144372940063
1772806475500460000,5.6984599609375,-0.6079229712486267,0.05251540616154671,-0.7227187752723694
1772806475510391300,5.708391357421875,-0.6305840611457825,-0.1094181016087532,-0.7684756517410278
1772806475520322000,5.718322021484375,-0.6133222579956055,-0.2575761377811432,-0.7993645668029785
1772806475530254000,5.728254150390625,-0.5554872155189514,-0.37220871448516846,-0.7928086519241333
1772806475540185000,5.73818505859375,-0.4711344838142395,-0.4600866436958313,-0.8034676909446716
1772806475550117400,5.748117431640625,-0.3879733085632324,-0.5127503871917725,-0.8753765225410461
1772806475560048000,5.758048095703125,-0.324273943901062,-0.5151869058609009,-0.9578295946121216
1772806475569979100,5.767979248046875,-0.25919321179389954,-0.4610927700996399,-1.052757978439331
1772806475579911200,5.7779111328125,-0.19919300079345703,-0.39702698588371277,-1.1068840026855469
1772806475589842200,5.78784228515625,-0.13696052134037018,-0.345601350069046,-1.0760451555252075
1772806475599774200,5.797774169921875,-0.051303666085004807,-0.3017728924751282,-0.9907063245773315
1772806475609705200,5.807705322265625,0.03475744649767876,-0.25752049684524536,-0.8605784177780151
1772806475619637200,5.81763720703125,0.10842953622341156,-0.20361517369747162,-0.6701107025146484
1772806475629568000,5.827568115234375,0.17135311663150787,-0.13667716085910797,-0.46794402599334717
1772806475639499300,5.837499267578125,0.21414078772068024,-0.06035282090306282,-0.30144479870796204
1772806475649431300,5.847431396484375,0.26071786880493164,0.012871590442955494,-0.19333137571811676
1772806475659362000,5.857362060546875,0.3134998679161072,0.08207782357931137,-0.12674783170223236
1772806475669294000,5.867294189453125,0.3427738547325134,0.13775520026683807,-0.09625569730997086
1772806475679225000,5.87722509765625,0.33687177300453186,0.16300542652606964,-0.09408974647521973
1772806475689156000,5.887156005859375,0.33589571714401245,0.13420628011226654,-0.14514201879501343
1772806475699088100,5.897088134765625,0.33353856205940247,0.07385371625423431,-0.21139372885227203
1772806475709019100,5.90701904296875,0.31366443634033203,0.011111240833997726,-0.2512918710708618
1772806475718951200,5.916951171875,0.3023904860019684,-0.04157647117972374,-0.2932169735431671
1772806475728882200,5.926882080078125,0.28430017828941345,-0.1116945743560791,-0.29719358682632446
1772806475738814200,5.936814208984375,0.2700005769729614,-0.1258932203054428,-0.2824239730834961
1772806475748745200,5.9467451171875,0.26561596989631653,-0.12954920530319214,-0.257923424243927
1772806475758676000,5.956676025390625,0.27532851696014404,-0.11230230331420898,-0.2524415850639343
1772806475768608000,5.96660791015625,0.31372782588005066,-0.060441773384809494,-0.27596819400787354
1772806475778539300,5.976539306640625,0.3694339692592621,-0.017882859334349632,-0.33562007546424866
1772806475788471300,5.98647119140625,0.4131990373134613,0.028113393113017082,-0.39221012592315674
1772806475798402000,5.996402099609375,0.4547986686229706,0.012114985845983028,-0.4456259310245514
1772806475808333000,6.0063330078125,0.4682258069515228,-0.06981663405895233,-0.44396254420280457
1772806475818265000,6.01626513671875,0.49772828817367554,-0.1923856884241104,-0.4022201597690582
1772806475828196400,6.0261962890625,0.5300971269607544,-0.250190407037735,-0.26071786880493164
1772806475838128000,6.036128173828125,0.5712275505065918,-0.25048893690109253,-0.07506678998470306
1772806475848059100,6.04605908203125,0.5950436592102051,-0.24306724965572357,0.11687042564153671
1772806475857990100,6.055990234375,0.6698116660118103,-0.22492791712284088,0.25965580344200134
1772806475867922200,6.065922119140625,0.7940790057182312,-0.2976343631744385,0.3031984865665436
1772806475877853200,6.075853271484375,0.9410580396652222,-0.46546462178230286,0.20567886531352997
1772806475887785200,6.08578515625,1.0323541164398193,-0.6060952544212341,0.07699411362409592
1772806475897716200,6.09571630859375,1.0533816814422607,-0.648471474647522,-0.03431589528918266
1772806475907648000,6.10564794921875,1.0128824710845947,-0.6181641817092896,-0.09429294615983963
1772806475917579300,6.115579345703125,0.9355735182762146,-0.5622548460960388,-0.09968291968107224
1772806475927510300,6.12551025390625,0.8487662076950073,-0.46696558594703674,-0.06113579124212265
1772806475937442000,6.135442138671875,0.7638726234436035,-0.31856146454811096,0.019809657707810402
1772806475947373000,6.145373046875,0.6888055801391602,-0.16654983162879944,0.1245397999882698
1772806475957305000,6.15530517578125,0.6074351072311401,0.038484275341033936,0.28137895464897156
1772806475967236400,6.165236328125,0.5135674476623535,0.4281036853790283,0.5901532769203186
1772806475977167000,6.1751669921875,0.4546668529510498,0.858123779296875,0.9343660473823547
1772806475987099100,6.18509912109375,0.40710410475730896,1.1004407405853271,1.198027491569519
1772806475997030100,6.195030029296875,0.33081120252609253,1.1330890655517578,1.3644812107086182
1772806476006962200,6.204962158203125,0.25385144352912903,1.0156491994857788,1.430154800415039
1772806476016893200,6.21489306640625,0.16832482814788818,0.795452892780304,1.4053854942321777
1772806476026825200,6.2248251953125,0.106349878013134,0.4937545955181122,1.2809253931045532
1772806476036756200,6.234756103515625,0.07400738447904587,0.17959213256835938,1.084086298942566
1772806476046687200,6.244687255859375,0.09453662484884262,-0.1501159965991974,0.8260006904602051
1772806476056619300,6.254619384765625,0.20649725198745728,-0.4924624264240265,0.47621768712997437
1772806476066550300,6.26455029296875,0.34592464566230774,-0.7682199478149414,0.13072152435779572
1772806476076482000,6.27448193359375,0.4612906575202942,-0.879270076751709,-0.11438995599746704
1772806476086413000,6.2844130859375,0.5556679964065552,-0.774825394153595,-0.20697475969791412
1772806476096344300,6.29434423828125,0.5637181997299194,-0.6365079879760742,-0.2560855746269226
1772806476106276400,6.3042763671875,0.5016356706619263,-0.5136476159095764,-0.2619354724884033
1772806476116207000,6.31420703125,0.3961699903011322,-0.3955017924308777,-0.2152864784002304
1772806476126139100,6.32413916015625,0.2859278917312622,-0.2950257956981659,-0.14216487109661102
1772806476136070100,6.334070068359375,0.18848495185375214,-0.19190526008605957,-0.03127536550164223
1772806476146002200,6.344002197265625,0.10553334653377533,-0.07927937805652618,0.13117186725139618
1772806476155933200,6.35393310546875,0.02972567081451416,0.039569247514009476,0.337309330701828
1772806476165864200,6.3638642578125,-0.01312086172401905,0.15978007018566132,0.5577538013458252
1772806476175796200,6.373796142578125,-0.04411446303129196,0.2670271694660187,0.7767548561096191
1772806476185727200,6.383727294921875,-0.07628225535154343,0.38717222213745117,0.9516217708587646
1772806476195659300,6.3936591796875,-0.09032882750034332,0.5315179228782654,1.0984731912612915
1772806476205590300,6.40359033203125,-0.09193231910467148,0.6627603769302368,1.2038729190826416
1772806476215521000,6.41352099609375,-0.09497365355491638,0.7332050204277039,1.243584394454956
1772806476225453000,6.423453125,-0.09738780558109283,0.7574714422225952,1.2352685928344727
1772806476235384300,6.43338427734375,-0.09000685811042786,0.7732296586036682,1.1786251068115234
1772806476245316400,6.44331640625,-0.09382502734661102,0.7510313987731934,1.0669142007827759
1772806476255247000,6.4532470703125,-0.11363335698843002,0.6720726490020752,0.9002246260643005
1772806476265178000,6.46317822265625,-0.14629623293876648,0.5538027286529541,0.694277286529541
1772806476275110100,6.473110107421875,-0.1977705955505371,0.4447993040084839,0.49267521500587463
1772806476285041400,6.48304150390625,-0.27748382091522217,0.3750164806842804,0.31995269656181335
1772806476294973400,6.492973388671875,-0.34272992610931396,0.32030531764030457,0.18153516948223114
1772806476304904200,6.502904296875,-0.3929491639137268,0.2772073745727539,0.02810646966099739
1772806476314836200,6.512836181640625,-0.4128192663192749,0.18927165865898132,-0.13045653700828552
1772806476324767200,6.522767333984375,-0.37839123606681824,0.10565372556447983,-0.2630089819431305
1772806476334698200,6.5326982421875,-0.31119677424430847,0.031570177525281906,-0.33489304780960083
1772806476344630300,6.54263037109375,-0.2107686996459961,0.015505989082157612,-0.3561895489692688
1772806476354561300,6.552561279296875,-0.10509126633405685,0.04860801622271538,-0.34228330850601196
1772806476364493300,6.562493408203125,-0.0049406965263187885,0.12025690078735352,-0.2859598398208618
1772806476374424300,6.57242431640625,0.05084400624036789,0.19876369833946228,-0.20583997666835785
1772806476384355300,6.582355224609375,0.07922344654798508,0.2508591115474701,-0.12786048650741577
1772806476394287400,6.592287353515625,0.08450343459844589,0.29772382974624634,-0.05096517875790596
1772806476404218000,6.602218017578125,0.054960984736680984,0.3101631999015808,0.003846669802442193
1772806476414150100,6.612150146484375,-0.00626002624630928,0.31739261746406555,0.040463268756866455
1772806476424081400,6.622081298828125,-0.10678450018167496,0.348664253950119,0.023674435913562775
1772806476434013400,6.632013427734375,-0.25428101420402527,0.4101789891719818,-0.02401026152074337
1772806476443944200,6.641944091796875,-0.42352384328842163,0.45021748542785645,-0.10989826917648315
1772806476453875200,6.651875244140625,-0.5720999836921692,0.39772605895996094,-0.24008210003376007
1772806476463807200,6.66180712890625,-0.684346616268158,0.29227206110954285,-0.38542118668556213
1772806476473738200,6.67173828125,-0.7447649836540222,0.17855456471443176,-0.5256680250167847
1772806476483670300,6.681670166015625,-0.7610983848571777,0.10751554369926453,-0.6103126406669617
1772806476493601300,6.691601318359375,-0.7327149510383606,0.0849902555346489,-0.6428556442260742
1772806476503532300,6.7015322265625,-0.6481460332870483,0.0666317567229271,-0.6449140310287476
1772806476513464300,6.71146435546875,-0.5123589038848877,0.031389880925416946,-0.6301265358924866
1772806476523395300,6.721395263671875,-0.35477912425994873,-0.051357198506593704,-0.57831209897995
1772806476533327400,6.731327392578125,-0.24229200184345245,-0.12944826483726501,-0.40210777521133423
1772806476543258000,6.741258056640625,-0.18278765678405762,-0.17718356847763062,-0.12060151249170303
1772806476553190100,6.751190185546875,-0.2032170295715332,-0.19174227118492126,0.2030167579650879
1772806476563121400,6.761121337890625,-0.26565563678741455,-0.23383167386054993,0.44958871603012085
1772806476573052400,6.771052490234375,-0.338655561208725,-0.3356485664844513,0.5658831000328064
1772806476582984200,6.780984130859375,-0.423498272895813,-0.33458569645881653,0.6307286620140076
1772806476592915200,6.790915283203125,-0.5186684727668762,-0.20817530155181885,0.672080397605896
1772806476602847200,6.80084716796875,-0.613876461982727,0.01968422159552574,0.6980800032615662
1772806476612778200,6.8107783203125,-0.6783074140548706,0.3101797103881836,0.6843221187591553
1772806476622709200,6.820709228515625,-0.7335538864135742,0.594295859336853,0.6117488741874695
1772806476632641300,6.830641357421875,-0.8167353272438049,0.8140209913253784,0.5156122446060181
1772806476642572300,6.840572265625,-0.9281028509140015,0.9281012415885925,0.4107089638710022
1772806476652504300,6.85050439453125,-0.9195753931999207,0.9382414817810059,0.46898773312568665
1772806476662435300,6.860435302734375,-0.7426586747169495,0.9065048694610596,0.7130645513534546
1772806476672366300,6.870366455078125,-0.4942707121372223,0.8380288481712341,1.040134072303772
1772806476682298000,6.880298095703125,-0.27609923481941223,0.6546680927276611,1.2892186641693115
1772806476692229400,6.8902294921875,-0.13102379441261292,0.4240255653858185,1.409236192703247
1772806476702161400,6.900161376953125,-0.08188341557979584,0.1604786217212677,1.4013407230377197
1772806476712092400,6.910092529296875,-0.14211426675319672,-0.05413833633065224,1.2684489488601685
1772806476722024200,6.920024169921875,-0.29691556096076965,-0.17155498266220093,1.0568022727966309
1772806476731955200,6.929955078125,-0.5075281858444214,-0.14000557363033295,0.7964302897453308
1772806476741886500,6.939886474609375,-0.7047632336616516,0.06621576845645905,0.5658532977104187
1772806476751818200,6.949818359375,-0.8536480665206909,0.3223322331905365,0.37645432353019714
1772806476761749200,6.959749267578125,-0.9377480149269104,0.5483328700065613,0.1710553616285324
1772806476771681300,6.969681396484375,-0.9612509608268738,0.725060224533081,-0.03297552838921547
1772806476781612300,6.9796123046875,-0.9576157331466675,0.8627792596817017,-0.16824732720851898
1772806476791543300,6.989543212890625,-0.9342579245567322,1.0037864446640015,-0.25767281651496887
1772806476801475300,6.999475341796875,-0.8971009850502014,1.1649785041809082,-0.30265119671821594
1772806476811406300,7.00940625,-0.8309536576271057,1.2357405424118042,-0.3351271152496338
1772806476821338000,7.019338134765625,-0.775934100151062,0.4485434293746948,-0.838549792766571
1772806476831269400,7.029269287109375,-0.4185016453266144,0.031312648206949234,-0.858950674533844
1772806476841200400,7.039200439453125,-0.08074997365474701,-0.08631864190101624,-0.6392657160758972
1772806476851132400,7.04913232421875,0.2721202075481415,-0.11332256346940994,-0.37129896879196167
1772806476861063200,7.059063232421875,0.4578123092651367,-0.008680573664605618,-0.13620923459529877
1772806476870995200,7.0689951171875,0.45411184430122375,0.1136900782585144,0.032163795083761215
1772806476880926500,7.078926513671875,0.3006197512149811,0.22414015233516693,0.08542435616254807
1772806476890858500,7.0888583984375,0.016563531011343002,0.2945496141910553,0.04541515186429024
1772806476900789200,7.098789306640625,-0.2794300317764282,0.28772926330566406,-0.05445924773812294
1772806476910720300,7.10872021484375,-0.5274550318717957,0.2248498946428299,-0.1912543773651123
1772806476920652300,7.11865234375,-0.7194111347198486,0.07242413610219955,-0.3710925877094269
1772806476930583300,7.128583251953125,-0.8362070322036743,-0.13370080292224884,-0.5521380305290222
1772806476940515300,7.138515380859375,-0.8625177145004272,-0.2985787093639374,-0.688376247882843
1772806476950446300,7.1484462890625,-0.7974614500999451,-0.412699431180954,-0.7769870758056641
1772806476960377300,7.15837744140625,-0.6458924412727356,-0.4715222418308258,-0.838625431060791
1772806476970309400,7.168309326171875,-0.4291481673717499,-0.506963312625885,-0.9056310653686523
1772806476980240400,7.178240478515625,-0.20172379910945892,-0.560464084148407,-0.9906567931175232
1772806476990172400,7.18817236328125,-0.025143703445792198,-0.6295249462127686,-1.0580826997756958
1772806477000103200,7.198103271484375,0.06501468271017075,-0.6141025424003601,-1.0627357959747314
1772806477010035200,7.20803515625,0.09179037064313889,-0.5709295272827148,-1.011518120765686
1772806477019966500,7.217966552734375,0.08585897833108902,-0.5427338480949402,-0.9133768677711487
1772806477029897200,7.227897216796875,0.08515377342700958,-0.48140472173690796,-0.7863662242889404
1772806477039829200,7.237829345703125,0.08857806771993637,-0.43135273456573486,-0.6336743831634521
1772806477049760300,7.24776025390625,0.12077648192644119,-0.34473979473114014,-0.4664127230644226
1772806477059692300,7.2576923828125,0.17251184582710266,-0.23653051257133484,-0.30705979466438293
1772806477069623300,7.267623291015625,0.24166162312030792,-0.14599396288394928,-0.15347132086753845
1772806477079554300,7.27755419921875,0.3227141499519348,-0.09265350550413132,-0.012861736118793488
1772806477089486300,7.287486328125,0.39585039019584656,-0.05193537101149559,0.11720412224531174
1772806477099417000,7.2974169921875,0.4558921754360199,-0.008437693119049072,0.22993598878383636
1772806477109349400,7.307349365234375,0.510398805141449,0.029945382848381996,0.3229122757911682
1772806477119280400,7.3172802734375,0.5726541876792908,0.06677716225385666,0.3866465091705322
1772806477129212400,7.32721240234375,0.6299835443496704,0.09303406625986099,0.3995937407016754
1772806477139143200,7.33714306640625,0.6714106202125549,0.09582266211509705,0.3555586338043213
1772806477149074400,7.347074462890625,0.6775577068328857,0.014176805503666401,0.2567116916179657
1772806477159006500,7.35700634765625,0.6264825463294983,-0.0891469195485115,0.11377929896116257
1772806477168937200,7.366937255859375,0.551868736743927,-0.19906117022037506,-0.05236174166202545
1772806477178869200,7.376869140625,0.49208930134773254,-0.32277193665504456,-0.2262568324804306
1772806477188800300,7.38680029296875,0.44925689697265625,-0.4409717917442322,-0.3596354126930237
1772806477198731300,7.396731201171875,0.42867040634155273,-0.5620976686477661,-0.4359472095966339
1772806477208663300,7.406663330078125,0.43497809767723083,-0.6950286030769348,-0.4756797254085541
1772806477218594300,7.41659423828125,0.4521504342556,-0.7909764051437378,-0.46142327785491943
1772806477228526300,7.4265263671875,0.5252233147621155,-0.8753544092178345,-0.4310254156589508
1772806477238457000,7.43645703125,0.6746490001678467,-1.0087372064590454,-0.452005535364151
1772806477248388400,7.446388427734375,0.8147925138473511,-1.1010797023773193,-0.4581502676010132
1772806477258320400,7.4563203125,0.8871375918388367,-1.0744951963424683,-0.44500410556793213
1772806477268250600,7.466250732421875,0.8878890872001648,-0.9880151748657227,-0.41432952880859375
1772806477278182700,7.4761826171875,0.8479363918304443,-0.8660160303115845,-0.3447491228580475
1772806477288113700,7.48611376953125,0.8109170794487,-0.7561910152435303,-0.27041205763816833
1772806477298045700,7.496045654296875,0.7609143853187561,-0.6710015535354614,-0.16459853947162628
1772806477307976700,7.505976806640625,0.7014225721359253,-0.6165319085121155,-0.08431567996740341
1772806477317907500,7.515907470703125,0.6229591965675354,-0.5545545816421509,-0.004878378473222256
1772806477327839500,7.525839599609375,0.5346463918685913,-0.4073251485824585,0.09622479975223541
1772806477337770800,7.535770751953125,0.4413292109966278,-0.18679918348789215,0.22849655151367188
1772806477347702800,7.545702880859375,0.3243336081504822,0.246864914894104,0.4857097268104553
1772806477357633500,7.555633544921875,0.24456314742565155,0.7313394546508789,0.8002644777297974
1772806477367564800,7.565564697265625,0.16362328827381134,1.1073684692382812,1.1047497987747192
1772806477377496800,7.575496826171875,0.07064061611890793,1.279598593711853,1.33854341506958
1772806477387427600,7.585427490234375,-0.03128335252404213,1.228336215019226,1.450034499168396
1772806477397359600,7.595359619140625,-0.10443905740976334,0.9882716536521912,1.45596182346344
1772806477407290600,7.60529052734375,-0.10293996334075928,0.604607343673706,1.3303825855255127
1772806477417222000,7.615221923828125,-0.05764279142022133,0.1832856684923172,1.1059958934783936
1772806477427153700,7.625153564453125,0.025958629325032234,-0.161650151014328,0.7938161492347717
1772806477437084700,7.635084716796875,0.1560218185186386,-0.47215530276298523,0.3783488869667053
1772806477447016700,7.6450166015625,0.32333916425704956,-0.7380931973457336,-0.08551037311553955
1772806477456947500,7.654947509765625,0.46369442343711853,-0.8545032143592834,-0.4350276291370392
1772806477466879500,7.66487939453125,0.6007103323936462,-0.7865145802497864,-0.6125174760818481
1772806477476810800,7.674810791015625,0.6336698532104492,-0.7454121112823486,-0.7393853664398193
1772806477486741800,7.68474169921875,0.5948276519775391,-0.7085022926330566,-0.7685890793800354
1772806477496673500,7.694673583984375,0.46844762563705444,-0.6814184784889221,-0.6877429485321045
1772806477506604500,7.7046044921875,0.30461689829826355,-0.615081787109375,-0.4932989180088043
1772806477516536800,7.714536865234375,0.15812279284000397,-0.47992080450057983,-0.22539158165454865
1772806477526467600,7.724467529296875,0.05800684541463852,-0.32957923412323,0.07392482459545135
1772806477536398600,7.734398681640625,0.005148156546056271,-0.21510139107704163,0.34125345945358276
1772806477546330600,7.74433056640625,-0.018925221636891365,-0.1333838850259781,0.5464606881141663
1772806477556262000,7.754261962890625,-0.032168589532375336,-0.06198853626847267,0.6922804713249207
1772806477566193700,7.764193603515625,-0.03165273368358612,0.0011864382540807128,0.7677776217460632
1772806477576124700,7.774124755859375,-0.045890260487794876,0.07934941351413727,0.7857654094696045
1772806477586055700,7.7840556640625,-0.08625312894582748,0.17382186651229858,0.7791365385055542
1772806477595987500,7.793987548828125,-0.14190253615379333,0.26779603958129883,0.7441809177398682
1772806477605918700,7.803918701171875,-0.20486685633659363,0.36883875727653503,0.6726963520050049
1772806477615850800,7.813850830078125,-0.2743692398071289,0.4489578306674957,0.5907865762710571
1772806477625781800,7.82378173828125,-0.34382715821266174,0.5135802030563354,0.4752860963344574
1772806477635713500,7.833713623046875,-0.4021594226360321,0.569581151008606,0.354902446269989
1772806477645644500,7.84364453125,-0.4399259686470032,0.6417158246040344,0.2638548016548157
1772806477655575800,7.853575927734375,-0.4374431073665619,0.7159581184387207,0.22154010832309723
1772806477665507600,7.863507568359375,-0.4099734127521515,0.7296475172042847,0.23852549493312836
1772806477675438600,7.8734384765625,-0.3707037568092346,0.7609772086143494,0.2653065025806427
1772806477685370600,7.88337060546875,-0.3332669138908386,0.7880317568778992,0.3128686845302582
1772806477695302000,7.893302001953125,-0.3035348355770111,0.784980833530426,0.3355782628059387
1772806477705232600,7.903232666015625,-0.29566335678100586,0.760392427444458,0.3117371201515198
1772806477715164700,7.91316455078125,-0.30547282099723816,0.6837929487228394,0.2407633364200592
1772806477725095700,7.923095703125,-0.3053561747074127,0.49614450335502625,0.1113709956407547
1772806477735027500,7.93302734375,-0.2637733221054077,0.20723041892051697,-0.08292923867702484
1772806477744958700,7.942958740234375,-0.19063040614128113,0.040586840361356735,-0.1828497052192688
1772806477754889700,7.9528896484375,-0.13811606168746948,0.0017134778900071979,-0.19822654128074646
1772806477764821800,7.96282177734375,-0.10957416146993637,0.0488429069519043,-0.19943773746490479
1772806477774752500,7.97275244140625,-0.12455125153064728,0.082122303545475,-0.2234725058078766
1772806477784684500,7.9826845703125,-0.1688595861196518,0.05896984413266182,-0.27977171540260315
1772806477794615800,7.99261572265625,-0.23406869173049927,0.007248325273394585,-0.3646099269390106
1772806477804547800,8.0025478515625,-0.3238012492656708,-0.024178307503461838,-0.44427332282066345
1772806477814478600,8.012478515625,-0.4058274030685425,-0.015807725489139557,-0.47739851474761963
1772806477824409600,8.02240966796875,-0.47561100125312805,0.0006359628750942647,-0.4795450270175934
1772806477834342000,8.032341796875,-0.5335134267807007,-0.007958856411278248,-0.48501089215278625
1772806477844272600,8.042272705078124,-0.5889002680778503,-0.028798624873161316,-0.5091074705123901
1772806477854204700,8.05220458984375,-0.6393408179283142,-0.038057636469602585,-0.5361654162406921
1772806477864135700,8.0621357421875,-0.6639417409896851,-0.03296380862593651,-0.565753161907196
1772806477874066700,8.072066650390624,-0.6438660621643066,0.03488714247941971,-0.5264190435409546
1772806477883998700,8.081998779296875,-0.5685641169548035,0.11745738983154297,-0.4172920286655426
1772806477893929700,8.0919296875,-0.4587063193321228,0.1406862735748291,-0.24393516778945923
1772806477903861800,8.10186181640625,-0.3241056501865387,0.0711601972579956,-0.019533753395080566
1772806477913792500,8.11179248046875,-0.18990682065486908,0.012030031532049179,0.23904427886009216
1772806477923723800,8.121723876953125,-0.12236905843019485,0.03639848902821541,0.4873795211315155
1772806477933655800,8.13165576171875,-0.10517861694097519,0.11583312600851059,0.6494328379631042
1772806477943586600,8.141586669921875,-0.11880335211753845,0.20799873769283295,0.7194963693618774
1772806477953518600,8.1515185546875,-0.14930559694766998,0.33769628405570984,0.6935079097747803
1772806477963449600,8.16144970703125,-0.18905141949653625,0.5080333948135376,0.6436351537704468
1772806477973381600,8.171381591796875,-0.26344603300094604,0.7831720113754272,0.6561328172683716
1772806477983312600,8.181312744140625,-0.3783086836338043,1.123818278312683,0.7284009456634521
1772806477993243600,8.19124365234375,-0.49403050541877747,1.3209137916564941,0.7608195543289185
1772806478003175700,8.20117578125,-0.6352672576904297,1.1042685508728027,0.5816274285316467
1772806478013106700,8.211106689453125,-0.7080471515655518,0.8473150730133057,0.48746341466903687
1772806478023038700,8.221038818359375,-0.7173078060150146,0.6965154409408569,0.5150803923606873
1772806478032969700,8.2309697265625,-0.6456466317176819,0.6573699116706848,0.630770742893219
1772806478042900500,8.240900390625,-0.5088557600975037,0.5883482098579407,0.6819122433662415
1772806478052832500,8.25083251953125,-0.35383132100105286,0.42125508189201355,0.6217040419578552
1772806478062763800,8.260763671875,-0.2582366168498993,0.31231689453125,0.5039086937904358
1772806478072695800,8.27069580078125,-0.22865687310695648,0.3227335810661316,0.31071045994758606
1772806478082626600,8.28062646484375,-0.25735777616500854,0.39216139912605286,0.0474250391125679
1772806478092557600,8.2905576171875,-0.34394484758377075,0.4594632089138031,-0.25679290294647217
1772806478102489600,8.300489501953125,-0.46544331312179565,0.48023319244384766,-0.5138510465621948
1772806478112420600,8.310420654296875,-0.5719069242477417,0.5063705444335938,-0.5799317955970764
1772806478122352600,8.3203525390625,-0.6097877025604248,0.4988827705383301,-0.5038753747940063
1772806478132283600,8.33028369140625,-0.5943405628204346,0.42347589135169983,-0.293003112077713
1772806478142214700,8.340214599609375,-0.5365079045295715,0.3095615804195404,-0.03352466970682144
1772806478152146700,8.350146728515625,-0.4379560351371765,0.18363827466964722,0.18046991527080536
1772806478162079500,8.36007958984375,-0.3455592691898346,0.09906213730573654,0.3170322775840759
1772806478172010800,8.3700107421875,-0.2679837644100189,0.07176660001277924,0.36968857049942017
1772806478181941800,8.379941650390625,-0.2023933231830597,0.0729471743106842,0.31245458126068115
1772806478191873800,8.389873779296876,-0.17608527839183807,0.08472847193479538,0.11534949392080307
1772806478201804500,8.399804443359375,-0.1829109638929367,0.09746503829956055,-0.174500972032547
1772806478211736600,8.409736572265626,-0.19726140797138214,0.12308145314455032,-0.4405752718448639
1772806478221667800,8.419667724609376,-0.19506242871284485,0.1072726622223854,-0.5863537788391113
1772806478231598600,8.4295986328125,-0.1619042158126831,0.05540253967046738,-0.6245022416114807
1772806478241530600,8.439530517578126,-0.12014584988355637,-0.024751951918005943,-0.560681164264679
1772806478251461600,8.449461669921876,-0.0893852710723877,-0.10985219478607178,-0.4380340576171875
1772806478261393700,8.4593935546875,-0.08336972445249557,-0.2095891833305359,-0.30245041847229004
1772806478271325200,8.4693251953125,-0.10530005395412445,-0.27809980511665344,-0.19143813848495483
1772806478281257200,8.47925732421875,-0.1385328471660614,-0.28141143918037415,-0.11522272974252701
1772806478291188200,8.489188232421874,-0.17907574772834778,-0.2612989842891693,-0.09445912390947342
1772806478301119000,8.499118896484376,-0.2217177450656891,-0.24425368010997772,-0.14434146881103516
1772806478311051000,8.509051025390624,-0.2570270001888275,-0.22760573029518127,-0.23627538979053497
1772806478320982300,8.518982177734374,-0.26895982027053833,-0.2240602672100067,-0.3276127576828003
1772806478330914300,8.528914306640624,-0.25206607580184937,-0.2281210571527481,-0.3930452764034271
1772806478340845000,8.538844970703124,-0.20579950511455536,-0.23081617057323456,-0.4219246208667755
1772806478350776300,8.5487763671875,-0.14313824474811554,-0.2178250104188919,-0.4120967388153076
1772806478360708400,8.558708251953124,-0.07730144262313843,-0.17404556274414062,-0.36726483702659607
1772806478370639000,8.56863916015625,-0.02135615423321724,-0.11577533185482025,-0.3009401261806488
1772806478380571100,8.578571044921874,0.018609371036291122,-0.04975104331970215,-0.21633629500865936
1772806478390502100,8.588502197265624,0.0353233702480793,-0.0018010957865044475,-0.11651942133903503
1772806478400433200,8.59843310546875,0.034390997141599655,0.037995852530002594,-0.014345383271574974
1772806478410365200,8.608365234375,0.034688204526901245,0.042879823595285416,0.06409989297389984
1772806478420296200,8.618296142578124,0.04614778608083725,0.03354118391871452,0.08626697957515717
1772806478430228200,8.628228271484375,0.06693749129772186,0.01684822142124176,0.070130355656147
1772806478440159000,8.638158935546874,0.08848059922456741,0.008479771204292774,0.0483827106654644
1772806478450091000,8.648091064453125,0.11369061470031738,-0.006406500469893217,0.021930066868662834
1772806478460022300,8.658022216796875,0.14790131151676178,-0.036433108150959015,-0.027948543429374695
1772806478469953000,8.667953125,0.1777058094739914,-0.07608038932085037,-0.074129618704319
1772806478479885000,8.677885009765625,0.19101309776306152,-0.14204342663288116,-0.12098341435194016
1772806478489816000,8.687816162109375,0.18920721113681793,-0.22384588420391083,-0.16173216700553894
1772806478499748400,8.697748291015625,0.17214086651802063,-0.2833739221096039,-0.17994552850723267
1772806478509679000,8.70767919921875,0.13804841041564941,-0.2885631024837494,-0.17358191311359406
1772806478519610000,8.717610107421875,0.10103181004524231,-0.25258299708366394,-0.1678401380777359
1772806478529542100,8.727542236328125,0.06718356162309647,-0.22460700571537018,-0.1605505347251892
1772806478539473200,8.73747314453125,0.036260802298784256,-0.16965508460998535,-0.12304896116256714
1772806478549405200,8.7474052734375,0.007893077097833157,-0.10702046006917953,-0.06547994166612625
1772806478559336200,8.757336181640625,-0.03315342590212822,-0.04246862977743149,-0.0017670074012130499
1772806478569267200,8.76726708984375,-0.062421832233667374,0.005997172556817532,0.05795358121395111
1772806478579199000,8.777198974609375,-0.0735117644071579,0.04947993531823158,0.10439937561750412
1772806478589130200,8.787130126953125,-0.06769835203886032,0.07078815251588821,0.1310213953256607
1772806478599062300,8.797062255859375,-0.03427781164646149,0.07739891856908798,0.13667848706245422
1772806478608993000,8.806992919921875,0.006456833798438311,0.08268316090106964,0.13104642927646637
1772806478618925000,8.816925048828125,0.0345635712146759,0.10218442231416702,0.10934752970933914
1772806478628856000,8.82685595703125,0.04824955388903618,0.10831555724143982,0.07564735412597656
1772806478638787300,8.836787353515625,0.05023733898997307,0.08867554366588593,0.03478541225194931
1772806478648719000,8.846718994140625,0.04532061144709587,0.05771203339099884,0.0014881744282320142
1772806478658650000,8.856650146484375,0.03803366795182228,0.05071777105331421,-0.00566986994817853
1772806478668582100,8.86658203125,0.04177168011665344,-0.015221296809613705,-0.058454256504774094
1772806478678513400,8.876513427734375,0.03129880130290985,-0.08814450353384018,-0.09645143896341324
1772806478688444200,8.886444091796875,0.02719540148973465,-0.10805243253707886,-0.12214828282594681
1772806478698376200,8.896376220703125,0.026553580537438393,-0.12043347209692001,-0.1338408887386322
1772806478708307200,8.90630712890625,0.009951700456440449,-0.12744131684303284,-0.12939687073230743
1772806478718239000,8.916239013671875,-0.005404352676123381,-0.12937742471694946,-0.11368608474731445
1772806478728170200,8.926170166015625,-0.018004300072789192,-0.1264341026544571,-0.09933670610189438
1772806478738101200,8.936101318359375,-0.015225292183458805,-0.1166621670126915,-0.07191413640975952
1772806478748033300,8.946033203125,0.008887501433491707,-0.09032589942216873,-0.04703328758478165
