time,seconds_elapsed,z,y,x
1772807446891379000,0.02037890625,-0.1433868408203125,0.9714813232421875,0.1487884521484375
1772807446901310000,0.03031005859375,-0.1397247314453125,0.9735565185546875,0.1484375
1772807446911242000,0.040241943359375,-0.1325531005859375,0.97296142578125,0.151031494140625
1772807446921174000,0.050174072265625,-0.1322174072265625,0.970489501953125,0.157928466796875
1772807446931105800,0.060105712890625,-0.1367950439453125,0.9702911376953125,0.1547088623046875
1772807446941037800,0.070037841796875,-0.1428680419921875,0.9716033935546875,0.1564788818359375
1772807446950969000,0.079968994140625,-0.15167236328125,0.9689483642578125,0.158660888671875
1772807446960901000,0.089901123046875,-0.15130615234375,0.9697723388671875,0.1520843505859375
1772807446970833200,0.099833251953125,-0.1517486572265625,0.972259521484375,0.1603546142578125
1772807446980765000,0.109764892578125,-0.1481475830078125,0.9810791015625,0.1589202880859375
1772807446990696200,0.1196962890625,-0.1378936767578125,0.98681640625,0.1515655517578125
1772807447000628200,0.129628173828125,-0.134063720703125,0.9888763427734375,0.149658203125
1772807447010559200,0.139559326171875,-0.1392364501953125,0.9869232177734375,0.1505584716796875
1772807447020491000,0.149490966796875,-0.1432037353515625,0.9792022705078125,0.154083251953125
1772807447030423000,0.159423095703125,-0.1471099853515625,0.97235107421875,0.1602020263671875
1772807447040355300,0.169355224609375,-0.1506195068359375,0.956787109375,0.163177490234375
1772807447050287400,0.179287353515625,-0.14984130859375,0.9395904541015625,0.1820831298828125
1772807447060219400,0.189219482421875,-0.1507110595703125,0.9541015625,0.17999267578125
1772807447070150100,0.199150146484375,-0.157196044921875,0.96826171875,0.1772003173828125
1772807447080082200,0.209082275390625,-0.1650238037109375,0.9695892333984375,0.171051025390625
1772807447090014200,0.21901416015625,-0.1699371337890625,0.96539306640625,0.1695709228515625
1772807447099946200,0.2289462890625,-0.1691131591796875,0.96136474609375,0.1630401611328125
1772807447109878300,0.238878173828125,-0.154510498046875,0.96124267578125,0.1556243896484375
1772807447119809000,0.24880908203125,-0.12591552734375,0.956939697265625,0.152130126953125
1772807447129741300,0.2587412109375,-0.1380615234375,0.9603271484375,0.16790771484375
1772807447139673300,0.26867333984375,-0.1800079345703125,0.960174560546875,0.1813812255859375
1772807447149605400,0.27860546875,-0.197174072265625,0.94403076171875,0.1832733154296875
1772807447159537400,0.288537353515625,-0.188507080078125,0.9497833251953125,0.1593780517578125
1772807447169469200,0.29846923828125,-0.16339111328125,0.962554931640625,0.1412200927734375
1772807447179400200,0.308400146484375,-0.1426239013671875,0.96240234375,0.109832763671875
1772807447189332200,0.318332275390625,-0.121368408203125,0.9619598388671875,0.0784759521484375
1772807447199264300,0.32826416015625,-0.1179962158203125,0.9452667236328125,0.07427978515625
1772807447209196300,0.3381962890625,-0.1199188232421875,0.9324493408203125,0.081268310546875
1772807447219128000,0.348128173828125,-0.1498870849609375,0.9464874267578125,0.132110595703125
1772807447229059300,0.358059326171875,-0.180206298828125,0.983673095703125,0.1707916259765625
1772807447238991400,0.367991455078125,-0.1678924560546875,1.005859375,0.196502685546875
1772807447248923400,0.37792333984375,-0.1484527587890625,1.0169677734375,0.2351226806640625
1772807447258855200,0.387855224609375,-0.157989501953125,1.013336181640625,0.2447052001953125
1772807447268787200,0.397787109375,-0.1734619140625,1.0246429443359375,0.21380615234375
1772807447278719200,0.40771923828125,-0.1865997314453125,1.0233306884765625,0.21185302734375
1772807447288650200,0.417650146484375,-0.1826629638671875,1.0079803466796875,0.18072509765625
1772807447298582300,0.427582275390625,-0.16925048828125,0.9920654296875,0.1500701904296875
1772807447308514000,0.43751416015625,-0.165679931640625,0.9784698486328125,0.121673583984375
1772807447318446000,0.447446044921875,-0.1720428466796875,0.9683074951171875,0.0983428955078125
1772807447328378000,0.457378173828125,-0.1613922119140625,0.960052490234375,0.0665740966796875
1772807447338310100,0.46731005859375,-0.149078369140625,0.95721435546875,0.05828857421875
1772807447348241400,0.477241455078125,-0.1449127197265625,0.96075439453125,0.0863189697265625
1772807447358173200,0.487173095703125,-0.142486572265625,0.95703125,0.1219635009765625
1772807447368105200,0.497105224609375,-0.1362152099609375,0.9456329345703125,0.155426025390625
1772807447378037200,0.507037353515625,-0.13128662109375,0.946258544921875,0.1829833984375
1772807447387969300,0.51696923828125,-0.1346893310546875,0.9511566162109375,0.2034912109375
1772807447397901300,0.5269013671875,-0.123260498046875,0.9460601806640625,0.21282958984375
1772807447407832000,0.53683203125,-0.11236572265625,0.9461822509765625,0.2212677001953125
1772807447417764000,0.54676416015625,-0.1030426025390625,0.9441070556640625,0.2255859375
1772807447427696000,0.556696044921875,-0.0924224853515625,0.9479827880859375,0.2262420654296875
1772807447437628200,0.566628173828125,-0.090484619140625,0.9542999267578125,0.232940673828125
1772807447447560200,0.576560302734375,-0.09185791015625,0.961212158203125,0.2403106689453125
1772807447457491200,0.5864912109375,-0.0919952392578125,0.97021484375,0.2269744873046875
1772807447467423200,0.59642333984375,-0.086151123046875,0.97650146484375,0.2114105224609375
1772807447477355300,0.606355224609375,-0.0840606689453125,0.9661407470703125,0.2245025634765625
1772807447487287300,0.616287353515625,-0.084625244140625,0.9619293212890625,0.219482421875
1772807447497219300,0.62621923828125,-0.08367919921875,0.9633941650390625,0.2234954833984375
1772807447507151000,0.636151123046875,-0.08367919921875,0.9613037109375,0.229400634765625
1772807447517082000,0.64608203125,-0.0878143310546875,0.9649200439453125,0.2288055419921875
1772807447527014100,0.65601416015625,-0.08245849609375,0.9727020263671875,0.2234954833984375
1772807447536946200,0.6659462890625,-0.0795440673828125,0.993499755859375,0.222991943359375
1772807447546878200,0.675878173828125,-0.0831451416015625,0.9980621337890625,0.2134552001953125
1772807447556810200,0.685810302734375,-0.082916259765625,0.993743896484375,0.212127685546875
1772807447566742300,0.6957421875,-0.0965423583984375,0.9769134521484375,0.20806884765625
1772807447576673300,0.70567333984375,-0.09857177734375,0.9697265625,0.2108154296875
1772807447586605300,0.715605224609375,-0.081634521484375,0.9841461181640625,0.2137298583984375
1772807447596537000,0.725537109375,-0.0576019287109375,0.9998016357421875,0.2158966064453125
1772807447606469000,0.73546923828125,-0.0572662353515625,1.0049896240234375,0.1962890625
1772807447616401200,0.745401123046875,-0.0423583984375,0.9736480712890625,0.1976470947265625
1772807447626333200,0.755333251953125,-0.0483551025390625,0.9549560546875,0.1748504638671875
1772807447636264400,0.765264404296875,-0.06048583984375,0.951904296875,0.1706695556640625
1772807447646196200,0.7751962890625,-0.070037841796875,0.953338623046875,0.1742706298828125
1772807447656128300,0.785128173828125,-0.0697174072265625,0.94537353515625,0.17578125
1772807447666060300,0.795060302734375,-0.0522003173828125,0.9390869140625,0.1840667724609375
1772807447675992300,0.804992431640625,-0.029937744140625,0.9438629150390625,0.1937713623046875
1772807447685924400,0.81492431640625,-0.01446533203125,0.95770263671875,0.2043914794921875
1772807447695855000,0.824855224609375,-0.006378173828125,0.9656524658203125,0.2164459228515625
1772807447705787100,0.834787109375,-0.002166748046875,0.9719085693359375,0.2350006103515625
1772807447715719200,0.84471923828125,0.004913330078125,0.971099853515625,0.2408447265625
1772807447725651200,0.854651123046875,0.0048065185546875,0.969268798828125,0.2421112060546875
1772807447735583200,0.864583251953125,0.0143585205078125,0.965576171875,0.244873046875
1772807447745515000,0.874514892578125,0.0272674560546875,0.9564208984375,0.24066162109375
1772807447755446300,0.8844462890625,0.0356597900390625,0.9453125,0.2371978759765625
1772807447765378300,0.89437841796875,0.032623291015625,0.9449462890625,0.22662353515625
1772807447775310300,0.904310302734375,0.03155517578125,0.95745849609375,0.22021484375
1772807447785242400,0.914242431640625,0.0295257568359375,0.9754486083984375,0.214752197265625
1772807447795174100,0.924174072265625,0.025054931640625,0.9844970703125,0.2179718017578125
1772807447805105200,0.934105224609375,0.0258941650390625,0.9974365234375,0.2246246337890625
1772807447815037200,0.944037109375,0.03399658203125,0.9978485107421875,0.2314453125
1772807447824969200,0.95396923828125,0.0426788330078125,0.9840087890625,0.2417755126953125
1772807447834901000,0.96390087890625,0.0453033447265625,0.9720458984375,0.2464141845703125
1772807447844833000,0.9738330078125,0.0491180419921875,0.970947265625,0.2620697021484375
1772807447854765000,0.98376513671875,0.0571136474609375,0.984130859375,0.2701568603515625
1772807447864696300,0.9936962890625,0.0534515380859375,1.00146484375,0.271759033203125
1772807447874628400,1.00362841796875,0.0404205322265625,1.0015869140625,0.2783203125
1772807447884560100,1.01356005859375,0.0333709716796875,1.0037994384765625,0.2723846435546875
1772807447894492200,1.0234921875,0.0291748046875,0.9992828369140625,0.2469329833984375
1772807447904424200,1.033424072265625,0.0246429443359375,0.9994964599609375,0.23443603515625
1772807447914356200,1.043356201171875,0.026275634765625,1.006561279296875,0.2313690185546875
1772807447924287200,1.053287353515625,0.02813720703125,1.0021209716796875,0.226715087890625
1772807447934219000,1.063218994140625,0.0232086181640625,0.98681640625,0.2202911376953125
1772807447944151000,1.073151123046875,0.009063720703125,0.9642181396484375,0.219329833984375
1772807447954083300,1.083083251953125,-0.0034942626953125,0.9549560546875,0.2148590087890625
1772807447964015400,1.093015380859375,-0.00262451171875,0.9571685791015625,0.2017974853515625
1772807447973946000,1.102946044921875,0.002838134765625,0.9693450927734375,0.192047119140625
1772807447983878100,1.112878173828125,0.0062713623046875,0.98358154296875,0.1883392333984375
1772807447993810400,1.122810546875,0.0221099853515625,0.9904327392578125,0.1928558349609375
1772807448003742500,1.132742431640625,0.02911376953125,0.995574951171875,0.2122955322265625
1772807448013674500,1.142674560546875,0.0276336669921875,0.992218017578125,0.23309326171875
1772807448023606500,1.1526064453125,0.0200347900390625,0.9905548095703125,0.253387451171875
1772807448033537300,1.162537353515625,0.0057830810546875,0.9925537109375,0.278717041015625
1772807448043469300,1.17246923828125,-0.0004730224609375,0.986572265625,0.2933349609375
1772807448053401300,1.1824013671875,0.00335693359375,0.9749908447265625,0.305389404296875
1772807448063333600,1.192333740234375,0.0123748779296875,0.95135498046875,0.3142547607421875
1772807448073265700,1.202265625,0.02874755859375,0.9287872314453125,0.320465087890625
1772807448083197400,1.212197509765625,0.038787841796875,0.9199676513671875,0.314666748046875
1772807448093128400,1.22212841796875,0.040283203125,0.9271087646484375,0.300537109375
1772807448103060500,1.232060546875,0.0308990478515625,0.942901611328125,0.2884063720703125
1772807448112992500,1.241992431640625,0.0195770263671875,0.950592041015625,0.28277587890625
1772807448122924500,1.251924560546875,0.009796142578125,0.95172119140625,0.2814788818359375
1772807448132856300,1.261856201171875,0.000885009765625,0.9524078369140625,0.2848052978515625
1772807448142788400,1.271788330078125,-0.0038299560546875,0.9495697021484375,0.2816619873046875
1772807448152719600,1.2817197265625,-0.0022430419921875,0.9486083984375,0.27496337890625
1772807448162651600,1.291651611328125,0.008392333984375,0.944915771484375,0.2655029296875
1772807448172583700,1.301583740234375,0.0231170654296875,0.9417572021484375,0.255950927734375
1772807448182515500,1.311515380859375,0.028839111328125,0.940826416015625,0.24969482421875
1772807448192447500,1.321447509765625,0.025909423828125,0.9384613037109375,0.2465362548828125
1772807448202379500,1.331379638671875,0.0150604248046875,0.9380340576171875,0.2398834228515625
1772807448212310500,1.341310546875,0.0039215087890625,0.9382781982421875,0.235687255859375
1772807448222242300,1.3512421875,-0.0010986328125,0.93499755859375,0.233428955078125
1772807448232174300,1.36117431640625,0.00390625,0.9377899169921875,0.234283447265625
1772807448242106400,1.3711064453125,0.0071258544921875,0.944061279296875,0.2377777099609375
1772807448252038400,1.381038330078125,0.0128936767578125,0.9620513916015625,0.2396087646484375
1772807448261969700,1.3909697265625,0.0117645263671875,0.96661376953125,0.2498321533203125
1772807448271901400,1.4009013671875,0.00146484375,0.9603271484375,0.2500152587890625
1772807448281833500,1.41083349609375,-0.0059356689453125,0.961639404296875,0.2362060546875
1772807448291765500,1.420765625,-0.009124755859375,0.9588623046875,0.236480712890625
1772807448301697500,1.430697509765625,-0.0133056640625,0.9574432373046875,0.2331695556640625
1772807448311629600,1.440629638671875,-0.0184326171875,0.958343505859375,0.230804443359375
1772807448321560300,1.450560302734375,-0.0202484130859375,0.9583282470703125,0.235137939453125
1772807448331492400,1.460492431640625,-0.0183563232421875,0.9611663818359375,0.2429351806640625
1772807448341424400,1.47042431640625,-0.0157470703125,0.9617156982421875,0.25079345703125
1772807448351356400,1.4803564453125,-0.0151824951171875,0.9584808349609375,0.2561187744140625
1772807448361288400,1.490288330078125,-0.0209197998046875,0.9619903564453125,0.2657318115234375
1772807448371220200,1.50022021484375,-0.0204010009765625,0.9705810546875,0.2740631103515625
1772807448381151500,1.5101513671875,-0.0139007568359375,0.9696502685546875,0.2794189453125
1772807448391083500,1.52008349609375,-0.0022125244140625,0.968017578125,0.278839111328125
1772807448401015600,1.530015625,0.0098419189453125,0.9642791748046875,0.2833251953125
1772807448410947600,1.539947509765625,0.0130462646484375,0.963958740234375,0.290069580078125
1772807448420879400,1.54987939453125,0.011138916015625,0.9683837890625,0.28863525390625
1772807448430811400,1.559811279296875,0.0072174072265625,0.976959228515625,0.287139892578125
1772807448440742400,1.569742431640625,-0.0025177001953125,0.98345947265625,0.2908477783203125
1772807448450674400,1.57967431640625,-0.0061492919921875,0.9829254150390625,0.2939300537109375
1772807448460606500,1.5896064453125,-0.0058135986328125,0.978271484375,0.292816162109375
1772807448470538500,1.59953857421875,-0.0036163330078125,0.9725799560546875,0.280670166015625
1772807448480470500,1.609470458984375,0.004425048828125,0.9681854248046875,0.27105712890625
1772807448490401500,1.619401611328125,0.0058135986328125,0.968597412109375,0.2649688720703125
1772807448500333600,1.62933349609375,0.011016845703125,0.9727325439453125,0.2535858154296875
1772807448510265300,1.639265380859375,0.0077056884765625,0.972625732421875,0.2530517578125
1772807448520197400,1.649197265625,0.0110321044921875,0.9719696044921875,0.250640869140625
1772807448530129400,1.65912939453125,0.0067291259765625,0.9689788818359375,0.2549591064453125
1772807448540061400,1.6690615234375,0.010589599609375,0.964935302734375,0.246124267578125
1772807448549993500,1.678993408203125,0.014892578125,0.961761474609375,0.2422943115234375
1772807448559924500,1.688924560546875,0.009796142578125,0.9566497802734375,0.2481536865234375
1772807448569856500,1.6988564453125,0.008575439453125,0.9579620361328125,0.249969482421875
1772807448579788500,1.70878857421875,0.005126953125,0.9651336669921875,0.2545318603515625
1772807448589720600,1.718720458984375,0.008087158203125,0.9714813232421875,0.2503814697265625
1772807448599652600,1.728652587890625,0.010589599609375,0.9716644287109375,0.2495574951171875
1772807448609583400,1.738583251953125,0.0134124755859375,0.9648590087890625,0.253082275390625
1772807448619515400,1.748515380859375,0.016021728515625,0.957855224609375,0.258514404296875
1772807448629447400,1.758447509765625,0.0159912109375,0.959442138671875,0.2622833251953125
1772807448639379500,1.76837939453125,0.0126495361328125,0.9642791748046875,0.2594757080078125
1772807448649311500,1.7783115234375,0.0073394775390625,0.9649505615234375,0.2573699951171875
1772807448659243300,1.7882431640625,0.0073394775390625,0.9649505615234375,0.24945068359375
1772807448669174500,1.798174560546875,0.0089569091796875,0.9660186767578125,0.2447509765625
1772807448679106600,1.8081064453125,0.0102691650390625,0.966400146484375,0.24310302734375
1772807448689038600,1.81803857421875,0.0141143798828125,0.966461181640625,0.2401885986328125
1772807448698970600,1.827970703125,0.0117340087890625,0.9670257568359375,0.241363525390625
1772807448708902400,1.83790234375,0.0065765380859375,0.9696197509765625,0.2365264892578125
1772807448718834400,1.84783447265625,0.0023040771484375,0.97216796875,0.2381439208984375
1772807448728765400,1.857765380859375,0.0080413818359375,0.96807861328125,0.2373504638671875
1772807448738697500,1.867697509765625,0.0164794921875,0.9574432373046875,0.244354248046875
1772807448748629500,1.87762939453125,0.0206298828125,0.9559326171875,0.2563934326171875
1772807448758561300,1.887561279296875,0.0221405029296875,0.95703125,0.2628631591796875
1772807448768493300,1.897493408203125,0.0233612060546875,0.9620361328125,0.2618865966796875
1772807448778424600,1.907424560546875,0.02178955078125,0.96356201171875,0.2601470947265625
1772807448788356600,1.917356689453125,0.0196380615234375,0.9700469970703125,0.2566375732421875
1772807448798288400,1.927288330078125,0.0220184326171875,0.971466064453125,0.256744384765625
1772807448808220400,1.937220458984375,0.02435302734375,0.9694366455078125,0.2562713623046875
1772807448818152400,1.94715234375,0.018768310546875,0.9697418212890625,0.2596282958984375
1772807448828084500,1.95708447265625,0.0187530517578125,0.9684600830078125,0.2650909423828125
1772807448838015500,1.967015380859375,0.01837158203125,0.9667816162109375,0.2741851806640625
1772807448847947300,1.976947265625,0.0151824951171875,0.96356201171875,0.2776641845703125
1772807448857879300,1.98687939453125,0.0197906494140625,0.955535888671875,0.2772064208984375
1772807448867811300,1.996811279296875,0.019439697265625,0.950836181640625,0.263824462890625
1772807448877743400,2.006743408203125,0.0227203369140625,0.9552001953125,0.2546844482421875
1772807448887675600,2.016675537109375,0.0229339599609375,0.9569854736328125,0.253326416015625
1772807448897606400,2.0266064453125,0.016693115234375,0.961090087890625,0.2529144287109375
1772807448907538400,2.036538330078125,0.0143280029296875,0.96746826171875,0.2507476806640625
1772807448917470500,2.046470458984375,0.0115203857421875,0.9730377197265625,0.251220703125
1772807448927402500,2.056402587890625,0.0147857666015625,0.97296142578125,0.254058837890625
1772807448937334500,2.06633447265625,0.01495361328125,0.9727020263671875,0.2559661865234375
1772807448947266600,2.0762666015625,0.0114593505859375,0.9643096923828125,0.2534027099609375
1772807448957197300,2.086197265625,0.0165863037109375,0.9594573974609375,0.25433349609375
1772807448967129300,2.09612939453125,0.0129547119140625,0.9593353271484375,0.2522735595703125
1772807448977061600,2.1060615234375,0.01177978515625,0.9589385986328125,0.246978759765625
1772807448986994000,2.115993896484375,0.011077880859375,0.960784912109375,0.2454681396484375
1772807448996926000,2.125926025390625,0.00946044921875,0.964599609375,0.24127197265625
1772807449006858000,2.13585791015625,0.012176513671875,0.968994140625,0.23779296875
1772807449016789000,2.1457890625,0.0139923095703125,0.9719085693359375,0.2353363037109375
1772807449026721000,2.155720947265625,0.0131072998046875,0.9717254638671875,0.238006591796875
1772807449036653000,2.165653076171875,0.015350341796875,0.970184326171875,0.237274169921875
1772807449046585000,2.175585205078125,0.0110626220703125,0.96270751953125,0.2423858642578125
1772807449056517000,2.18551708984375,0.00372314453125,0.964813232421875,0.2397308349609375
1772807449066449000,2.195448974609375,-0.0056610107421875,0.9662933349609375,0.23822021484375
1772807449076380000,2.2053798828125,-0.0057830810546875,0.965667724609375,0.2371978759765625
1772807449086312000,2.21531201171875,-0.002227783203125,0.9649505615234375,0.239166259765625
1772807449096244200,2.225244140625,0.0001220703125,0.96527099609375,0.242218017578125
1772807449106176000,2.235176025390625,0.002838134765625,0.9673919677734375,0.2451934814453125
1772807449116108000,2.24510791015625,-0.0012664794921875,0.9681396484375,0.242828369140625
1772807449126039000,2.2550390625,-0.0011138916015625,0.962677001953125,0.2385101318359375
1772807449135971000,2.26497119140625,-0.0012054443359375,0.9569091796875,0.2424163818359375
1772807449145903000,2.274903076171875,-0.0032958984375,0.9608612060546875,0.2401123046875
1772807449155835000,2.2848349609375,-0.0060577392578125,0.9647979736328125,0.244659423828125
1772807449165767000,2.294766845703125,-0.0070343017578125,0.9685516357421875,0.246795654296875
1772807449175699000,2.304698974609375,-0.005645751953125,0.968658447265625,0.246368408203125
1772807449185630200,2.314630126953125,-0.0041046142578125,0.97076416015625,0.2466278076171875
1772807449195562200,2.324562255859375,-0.0040283203125,0.9695892333984375,0.248260498046875
1772807449205494000,2.334493896484375,0.0004119873046875,0.9679718017578125,0.2485809326171875
1772807449215426000,2.344426025390625,0.0012969970703125,0.9691162109375,0.249786376953125
1772807449225358000,2.354358154296875,0.0031585693359375,0.9717254638671875,0.2521820068359375
1772807449235290000,2.3642900390625,0.00604248046875,0.9723968505859375,0.254852294921875
1772807449245220900,2.374220947265625,0.005859375,0.9768829345703125,0.25897216796875
1772807449255153000,2.38415283203125,0.002044677734375,0.9787445068359375,0.2598876953125
1772807449265085000,2.3940849609375,0.0032196044921875,0.9774932861328125,0.2611541748046875
1772807449275017000,2.404016845703125,0.006378173828125,0.973846435546875,0.263153076171875
1772807449284949000,2.413948974609375,0.009124755859375,0.9665985107421875,0.26300048828125
1772807449294881000,2.423881103515625,0.0077972412109375,0.967376708984375,0.2650604248046875
1772807449304812000,2.43381201171875,0.0097198486328125,0.973907470703125,0.2624969482421875
1772807449314744000,2.443744140625,0.0096588134765625,0.9771575927734375,0.26190185546875
1772807449324676000,2.453676025390625,0.0043487548828125,0.97552490234375,0.2633819580078125
1772807449334608100,2.463608154296875,0.003021240234375,0.973785400390625,0.263427734375
1772807449344540200,2.4735400390625,0.002288818359375,0.9736785888671875,0.2625579833984375
1772807449354472000,2.483471923828125,0.0068817138671875,0.9763031005859375,0.2592315673828125
1772807449364403000,2.49340283203125,0.012451171875,0.9779052734375,0.25323486328125
1772807449374335000,2.5033349609375,0.0149993896484375,0.97772216796875,0.2515716552734375
1772807449384267000,2.51326708984375,0.02386474609375,0.9775848388671875,0.2521209716796875
1772807449394198800,2.52319873046875,0.0255584716796875,0.9771728515625,0.245147705078125
1772807449404130800,2.533130859375,0.0300445556640625,0.98358154296875,0.2531280517578125
1772807449414063000,2.54306298828125,0.0252685546875,0.9774627685546875,0.27215576171875
1772807449423994000,2.552994140625,0.0286407470703125,0.9688568115234375,0.2776336669921875
1772807449433926100,2.562926025390625,0.0279998779296875,0.9683380126953125,0.2582244873046875
1772807449443858000,2.57285791015625,0.026611328125,0.9782562255859375,0.243621826171875
1772807449453790000,2.5827900390625,0.034454345703125,0.9903411865234375,0.2347564697265625
1772807449463722000,2.592721923828125,0.0386962890625,0.99658203125,0.228271484375
1772807449473653000,2.602653076171875,0.0423431396484375,0.9863739013671875,0.2250518798828125
1772807449483585000,2.6125849609375,0.0414276123046875,0.9561614990234375,0.2294769287109375
1772807449493516800,2.622516845703125,0.0355682373046875,0.9239349365234375,0.2351531982421875
1772807449503449000,2.632448974609375,0.0167083740234375,0.90350341796875,0.2369537353515625
1772807449513381000,2.642381103515625,-0.00439453125,0.901702880859375,0.23699951171875
1772807449523313200,2.652313232421875,-0.026214599609375,0.9049224853515625,0.23193359375
1772807449533244000,2.662243896484375,-0.039154052734375,0.91766357421875,0.224365234375
1772807449543176000,2.672176025390625,-0.056610107421875,0.930206298828125,0.2122344970703125
1772807449553108000,2.68210791015625,-0.0695343017578125,0.9405059814453125,0.2001800537109375
1772807449563040000,2.6920400390625,-0.0768890380859375,0.9511566162109375,0.1896820068359375
1772807449572972000,2.701971923828125,-0.080047607421875,0.9539337158203125,0.17633056640625
1772807449582904000,2.711904052734375,-0.0911712646484375,0.954925537109375,0.16778564453125
1772807449592835000,2.7218349609375,-0.0984344482421875,0.952423095703125,0.163055419921875
1772807449602767000,2.73176708984375,-0.1107940673828125,0.9539337158203125,0.160675048828125
1772807449612699100,2.74169921875,-0.1183013916015625,0.9565582275390625,0.15802001953125
1772807449622631200,2.751631103515625,-0.118682861328125,0.951385498046875,0.1615753173828125
1772807449632563200,2.761563232421875,-0.1100311279296875,0.9505157470703125,0.1753997802734375
1772807449642495000,2.771494873046875,-0.104217529296875,0.9604949951171875,0.1889495849609375
1772807449652426000,2.781426025390625,-0.0987091064453125,0.9723663330078125,0.196197509765625
1772807449662358000,2.79135791015625,-0.0877685546875,0.985595703125,0.206146240234375
1772807449672290000,2.8012900390625,-0.0801849365234375,0.9964599609375,0.2130889892578125
1772807449682221800,2.811221923828125,-0.074249267578125,1.0010528564453125,0.218292236328125
1772807449692153900,2.82115380859375,-0.0727691650390625,1.0027008056640625,0.2179412841796875
1772807449702086000,2.8310859375,-0.06640625,0.996490478515625,0.218597412109375
1772807449712017200,2.84101708984375,-0.0643310546875,0.98846435546875,0.2191925048828125
1772807449721949200,2.85094921875,-0.067352294921875,0.9829864501953125,0.221435546875
1772807449731881000,2.860880859375,-0.070770263671875,0.9776153564453125,0.2283172607421875
1772807449741813000,2.87081298828125,-0.0762176513671875,0.9784698486328125,0.2308502197265625
1772807449751745000,2.8807451171875,-0.087432861328125,0.9855804443359375,0.2287445068359375
1772807449761677000,2.890677001953125,-0.0931854248046875,0.99273681640625,0.2220001220703125
1772807449771608000,2.900608154296875,-0.0900115966796875,0.9976959228515625,0.2058563232421875
1772807449781539800,2.910539794921875,-0.091064453125,0.9989776611328125,0.1944580078125
1772807449791471900,2.920471923828125,-0.10064697265625,0.998809814453125,0.180267333984375
1772807449801404000,2.93040380859375,-0.1033782958984375,0.99676513671875,0.1694183349609375
1772807449811336000,2.9403359375,-0.1032867431640625,0.99456787109375,0.165771484375
1772807449821268000,2.95026806640625,-0.1041717529296875,0.990386962890625,0.168792724609375
1772807449831199000,2.960198974609375,-0.0966949462890625,0.990447998046875,0.1788482666015625
1772807449841131000,2.970131103515625,-0.0875396728515625,0.985382080078125,0.195037841796875
1772807449851063000,2.98006298828125,-0.0788421630859375,0.9740142822265625,0.201995849609375
1772807449860995000,2.9899951171875,-0.0779876708984375,0.9676971435546875,0.2162933349609375
1772807449870927000,2.999927001953125,-0.0670928955078125,0.970306396484375,0.2182159423828125
1772807449880857900,3.00985791015625,-0.0519256591796875,0.97650146484375,0.2210540771484375
1772807449890790000,3.019789794921875,-0.0428924560546875,0.9792633056640625,0.22100830078125
1772807449900722000,3.029721923828125,-0.0416412353515625,0.98260498046875,0.220245361328125
1772807449910654000,3.039654052734375,-0.04559326171875,0.9824981689453125,0.218414306640625
1772807449920586000,3.0495859375,-0.048675537109375,0.9810028076171875,0.220672607421875
1772807449930518000,3.05951806640625,-0.04705810546875,0.9778900146484375,0.22265625
1772807449940449000,3.069448974609375,-0.0425567626953125,0.9779815673828125,0.2211151123046875
1772807449950381000,3.079381103515625,-0.0403900146484375,0.9753570556640625,0.216522216796875
1772807449960313000,3.08931298828125,-0.04632568359375,0.9641265869140625,0.209686279296875
1772807449970245000,3.0992451171875,-0.061248779296875,0.9543304443359375,0.2036590576171875
1772807449980177000,3.109177001953125,-0.072357177734375,0.9521636962890625,0.2021331787109375
1772807449990108400,3.1191083984375,-0.0759735107421875,0.9604644775390625,0.1942901611328125
1772807450000039700,3.129039794921875,-0.0699005126953125,0.9709014892578125,0.186065673828125
1772807450009971500,3.138971435546875,-0.0592193603515625,0.9805450439453125,0.1844635009765625
1772807450019903500,3.148903564453125,-0.049835205078125,0.981842041015625,0.18194580078125
1772807450029835500,3.15883544921875,-0.0428314208984375,0.9704437255859375,0.1793365478515625
1772807450039767600,3.168767578125,-0.046142578125,0.962738037109375,0.1781158447265625
1772807450049699600,3.178699462890625,-0.0543670654296875,0.962493896484375,0.182373046875
1772807450059630300,3.18863037109375,-0.064208984375,0.9548492431640625,0.187103271484375
1772807450069562400,3.198562255859375,-0.0745697021484375,0.9486846923828125,0.1915283203125
1772807450079494400,3.208494384765625,-0.0803680419921875,0.95404052734375,0.1995391845703125
1772807450089426400,3.218426513671875,-0.0826263427734375,0.96990966796875,0.20269775390625
1772807450099358500,3.2283583984375,-0.075439453125,0.989959716796875,0.1996612548828125
1772807450109289500,3.23828955078125,-0.062347412109375,1.0012359619140625,0.193145751953125
1772807450119221500,3.248221435546875,-0.0524444580078125,1.0020599365234375,0.185791015625
1772807450129153500,3.258153564453125,-0.0464935302734375,0.9853057861328125,0.185211181640625
1772807450139085600,3.26808544921875,-0.0490875244140625,0.9575042724609375,0.18231201171875
1772807450149017600,3.278017578125,-0.062957763671875,0.93475341796875,0.1856842041015625
1772807450158949400,3.287949462890625,-0.0806427001953125,0.9314117431640625,0.191864013671875
1772807450168880400,3.29788037109375,-0.0954132080078125,0.9444427490234375,0.2046661376953125
1772807450178812400,3.3078125,-0.108245849609375,0.959930419921875,0.2244720458984375
1772807450188744400,3.317744384765625,-0.109222412109375,0.9914398193359375,0.2237701416015625
1772807450198676200,3.32767626953125,-0.0901641845703125,0.9832000732421875,0.1653289794921875
1772807450208608500,3.3376083984375,-0.0895233154296875,0.9727935791015625,0.138824462890625
1772807450218540500,3.34754052734375,-0.0939178466796875,0.9887847900390625,0.165679931640625
1772807450228471600,3.357471435546875,-0.0827178955078125,1.0166015625,0.18896484375
1772807450238403600,3.367403564453125,-0.083099365234375,0.9966888427734375,0.1854400634765625
1772807450248335400,3.37733544921875,-0.0951995849609375,0.95489501953125,0.1754302978515625
1772807450258267400,3.387267333984375,-0.1060638427734375,0.9317626953125,0.1780242919921875
1772807450268199400,3.397199462890625,-0.1195831298828125,0.9348297119140625,0.186676025390625
1772807450278131500,3.40713134765625,-0.121826171875,0.9514617919921875,0.188934326171875
1772807450288062500,3.4170625,-0.1163482666015625,0.964324951171875,0.186248779296875
1772807450297994500,3.426994384765625,-0.1127777099609375,0.985595703125,0.1796417236328125
1772807450307926500,3.436926513671875,-0.116455078125,0.996002197265625,0.176116943359375
1772807450317858600,3.446858642578125,-0.1161651611328125,0.9960174560546875,0.1725311279296875
1772807450327790600,3.45679052734375,-0.108367919921875,0.991790771484375,0.1782379150390625
1772807450337722600,3.46672265625,-0.10040283203125,0.9803924560546875,0.176177978515625
1772807450347653400,3.4766533203125,-0.0961456298828125,0.9645843505859375,0.174224853515625
1772807450357585400,3.48658544921875,-0.096099853515625,0.9551239013671875,0.178924560546875
1772807450367517400,3.496517333984375,-0.0997161865234375,0.951171875,0.183349609375
1772807450377449500,3.506449462890625,-0.1043701171875,0.9517822265625,0.18377685546875
1772807450387381500,3.516381591796875,-0.108917236328125,0.967132568359375,0.1843109130859375
1772807450397312500,3.5263125,-0.10589599609375,0.9761962890625,0.187103271484375
1772807450407244500,3.53624462890625,-0.10040283203125,0.977630615234375,0.186126708984375
1772807450417176600,3.546176513671875,-0.0951385498046875,0.98004150390625,0.1828460693359375
1772807450427108600,3.556108642578125,-0.0926971435546875,0.9777069091796875,0.1807403564453125
1772807450437040600,3.56604052734375,-0.0965728759765625,0.976959228515625,0.184906005859375
1772807450446972400,3.575972412109375,-0.098602294921875,0.9738616943359375,0.18878173828125
1772807450456903400,3.5859033203125,-0.0983428955078125,0.9723968505859375,0.190399169921875
1772807450466835500,3.59583544921875,-0.0944366455078125,0.9698944091796875,0.1918792724609375
1772807450476767500,3.605767578125,-0.0894317626953125,0.9689788818359375,0.1927947998046875
1772807450486699500,3.615699462890625,-0.0882110595703125,0.969573974609375,0.1941375732421875
1772807450496631300,3.62563134765625,-0.089569091796875,0.9715423583984375,0.19354248046875
1772807450506563300,3.635563232421875,-0.0875396728515625,0.9720458984375,0.1964263916015625
1772807450516494600,3.64549462890625,-0.086181640625,0.97222900390625,0.196990966796875
1772807450526426600,3.655426513671875,-0.0860748291015625,0.97344970703125,0.1958465576171875
1772807450536358400,3.6653583984375,-0.087982177734375,0.972869873046875,0.1911773681640625
1772807450546290400,3.67529052734375,-0.0855865478515625,0.9720458984375,0.1849822998046875
1772807450556222500,3.685222412109375,-0.085296630859375,0.9729156494140625,0.180572509765625
1772807450566154500,3.695154541015625,-0.0898284912109375,0.97332763671875,0.18017578125
1772807450576085500,3.70508544921875,-0.0916290283203125,0.97161865234375,0.181365966796875
1772807450586017300,3.715017333984375,-0.08917236328125,0.9705352783203125,0.1802825927734375
1772807450595949300,3.72494921875,-0.08868408203125,0.97137451171875,0.1806488037109375
1772807450605881300,3.73488134765625,-0.0845794677734375,0.972259521484375,0.1810455322265625
1772807450615813400,3.7448134765625,-0.0842437744140625,0.9742889404296875,0.180999755859375
1772807450625745400,3.754745361328125,-0.084716796875,0.9728240966796875,0.1752471923828125
1772807450635676400,3.764676513671875,-0.083892822265625,0.9727020263671875,0.172393798828125
1772807450645608400,3.7746083984375,-0.0838775634765625,0.9777984619140625,0.1679534912109375
1772807450655540500,3.78454052734375,-0.085723876953125,0.9798431396484375,0.161834716796875
1772807450665472500,3.794472412109375,-0.0861663818359375,0.979705810546875,0.1636810302734375
1772807450675404500,3.804404541015625,-0.0843658447265625,0.9814910888671875,0.16107177734375
1772807450685336300,3.81433642578125,-0.0875396728515625,0.9831390380859375,0.165435791015625
1772807450695267300,3.824267333984375,-0.0910186767578125,0.976898193359375,0.1674346923828125
1772807450705199400,3.834199462890625,-0.088470458984375,0.975189208984375,0.165924072265625
1772807450715131600,3.844131591796875,-0.0763397216796875,0.9755401611328125,0.171661376953125
1772807450725063700,3.854063720703125,-0.0727081298828125,0.9756317138671875,0.172698974609375
1772807450734995500,3.863995361328125,-0.067779541015625,0.9774017333984375,0.17498779296875
1772807450744927500,3.873927490234375,-0.069091796875,0.9797210693359375,0.1744384765625
1772807450754858500,3.8838583984375,-0.074432373046875,0.984039306640625,0.173858642578125
1772807450764790500,3.89379052734375,-0.07440185546875,0.98333740234375,0.1737060546875
1772807450774722600,3.90372265625,-0.0770111083984375,0.97930908203125,0.1778564453125
1772807450784654300,3.913654296875,-0.0811004638671875,0.9787750244140625,0.18060302734375
1772807450794584600,3.92358447265625,-0.0817413330078125,0.9811553955078125,0.183502197265625
1772807450804516600,3.9335166015625,-0.0835723876953125,0.983673095703125,0.1829071044921875
1772807450814448400,3.943448486328125,-0.0853424072265625,0.9832763671875,0.1839447021484375
1772807450824380400,3.95338037109375,-0.0829315185546875,0.980712890625,0.1839141845703125
1772807450834311400,3.9633115234375,-0.0800933837890625,0.9807891845703125,0.18157958984375
1772807450844243500,3.973243408203125,-0.078765869140625,0.979644775390625,0.184783935546875
1772807450854175500,3.983175537109375,-0.0764007568359375,0.9804534912109375,0.1860198974609375
1772807450864107300,3.993107177734375,-0.0752410888671875,0.9791107177734375,0.1880645751953125
1772807450874039300,4.003039306640625,-0.0723876953125,0.9803466796875,0.19012451171875
1772807450883971300,4.012971435546875,-0.0727691650390625,0.9722900390625,0.19329833984375
1772807450893902600,4.022902587890625,-0.0828399658203125,0.96502685546875,0.197540283203125
1772807450903834600,4.032834716796875,-0.0859832763671875,0.9798583984375,0.1940765380859375
1772807450913766400,4.042766357421875,-0.0799102783203125,0.9803314208984375,0.192138671875
1772807450923698400,4.052698486328125,-0.0759429931640625,0.974151611328125,0.1903228759765625
1772807450933630500,4.06263037109375,-0.074249267578125,0.9732208251953125,0.18768310546875
1772807450943562500,4.0725625,-0.0763702392578125,0.97711181640625,0.185272216796875
1772807450953493200,4.0824931640625,-0.0820770263671875,0.9813690185546875,0.1810455322265625
1772807450963425300,4.09242529296875,-0.0825653076171875,0.978912353515625,0.184051513671875
1772807450973357300,4.102357421875,-0.0774383544921875,0.97467041015625,0.183990478515625
1772807450983289600,4.11228955078125,-0.075469970703125,0.97259521484375,0.1851043701171875
1772807450993221600,4.1222216796875,-0.0744476318359375,0.9734649658203125,0.181549072265625
1772807451003153700,4.132153564453125,-0.0773162841796875,0.974334716796875,0.1810150146484375
1772807451013084700,4.142084716796875,-0.0851593017578125,0.97528076171875,0.186859130859375
1772807451023016700,4.1520166015625,-0.0843048095703125,0.9752044677734375,0.1875
1772807451032948500,4.161948486328125,-0.0780792236328125,0.97052001953125,0.1837310791015625
1772807451042880500,4.171880615234375,-0.0769500732421875,0.9730377197265625,0.18408203125
1772807451052812500,4.1818125,-0.0778656005859375,0.9768524169921875,0.180511474609375
1772807451062744600,4.19174462890625,-0.08111572265625,0.9782562255859375,0.1777496337890625
1772807451072675600,4.201675537109375,-0.0807037353515625,0.9801025390625,0.1796417236328125
1772807451082607600,4.211607666015625,-0.0762786865234375,0.979522705078125,0.1797943115234375
1772807451092539600,4.22153955078125,-0.0735931396484375,0.9760589599609375,0.1800079345703125
1772807451102471700,4.2314716796875,-0.073394775390625,0.9756927490234375,0.1776885986328125
1772807451112403700,4.24140380859375,-0.0701904296875,0.9780426025390625,0.1792449951171875
1772807451122335700,4.251335693359375,-0.0692901611328125,0.976531982421875,0.1802520751953125
1772807451132266500,4.2612666015625,-0.07000732421875,0.9754180908203125,0.181304931640625
1772807451142198500,4.271198486328125,-0.071746826171875,0.9749298095703125,0.1794891357421875
1772807451152130600,4.281130615234375,-0.071258544921875,0.97625732421875,0.18121337890625
1772807451162062600,4.2910625,-0.069305419921875,0.9756011962890625,0.183135986328125
1772807451171994600,4.30099462890625,-0.0694122314453125,0.974884033203125,0.187225341796875
1772807451181926400,4.310926513671875,-0.0684356689453125,0.9773406982421875,0.1875457763671875
1772807451191858400,4.3208583984375,-0.072662353515625,0.9763641357421875,0.190673828125
1772807451201790500,4.33079052734375,-0.081085205078125,0.9750823974609375,0.1922607421875
1772807451211721700,4.3407216796875,-0.085418701171875,0.9748077392578125,0.188812255859375
1772807451221653800,4.35065380859375,-0.0891265869140625,0.97454833984375,0.1845703125
1772807451231585500,4.36058544921875,-0.0870361328125,0.97222900390625,0.182281494140625
1772807451241517600,4.370517578125,-0.08544921875,0.96856689453125,0.17999267578125
1772807451251449600,4.38044970703125,-0.082000732421875,0.9632568359375,0.1812744140625
1772807451261381600,4.390381591796875,-0.0796661376953125,0.964202880859375,0.1785430908203125
1772807451271312400,4.4003125,-0.0778656005859375,0.9670867919921875,0.17474365234375
1772807451281244400,4.410244384765625,-0.0814666748046875,0.972381591796875,0.17236328125
1772807451291176400,4.420176513671875,-0.0826568603515625,0.9763031005859375,0.171844482421875
1772807451301108500,4.4301083984375,-0.085296630859375,0.9717254638671875,0.1705322265625
1772807451311040500,4.44004052734375,-0.0881195068359375,0.97235107421875,0.1714630126953125
1772807451320972800,4.449972900390625,-0.087493896484375,0.9728546142578125,0.174285888671875
1772807451330903600,4.459903564453125,-0.0869293212890625,0.9706268310546875,0.17633056640625
1772807451340835600,4.469835693359375,-0.08599853515625,0.968597412109375,0.1797027587890625
1772807451350767600,4.479767578125,-0.083740234375,0.9653472900390625,0.18267822265625
1772807451360699600,4.48969970703125,-0.0836639404296875,0.9678497314453125,0.181915283203125
1772807451370631700,4.499631591796875,-0.0829925537109375,0.9747314453125,0.1828765869140625
1772807451380563500,4.5095634765625,-0.0798187255859375,0.977935791015625,0.1812286376953125
1772807451390494500,4.519494384765625,-0.07757568359375,0.9809112548828125,0.178436279296875
1772807451400426800,4.5294267578125,-0.0779266357421875,0.9786224365234375,0.1744537353515625
1772807451410358800,4.53935888671875,-0.0812835693359375,0.9740142822265625,0.171875
1772807451420290600,4.54929052734375,-0.0849456787109375,0.9709014892578125,0.17633056640625
1772807451430222600,4.55922265625,-0.087738037109375,0.9682159423828125,0.1796875
1772807451440154600,4.569154541015625,-0.0889892578125,0.97308349609375,0.176513671875
1772807451450085600,4.579085693359375,-0.088623046875,0.97747802734375,0.174346923828125
1772807451460017700,4.589017578125,-0.0904998779296875,0.983184814453125,0.1761016845703125
1772807451469949400,4.598949462890625,-0.0904998779296875,0.9842987060546875,0.1744384765625
1772807451479881500,4.608881591796875,-0.0906982421875,0.980072021484375,0.1698150634765625
1772807451489813500,4.6188134765625,-0.09356689453125,0.9763336181640625,0.1666259765625
1772807451499745500,4.62874560546875,-0.0959014892578125,0.973907470703125,0.1658477783203125
1772807451509676800,4.6386767578125,-0.0976104736328125,0.96923828125,0.1678924560546875
1772807451519608600,4.648608642578125,-0.0966644287109375,0.9715728759765625,0.1686248779296875
1772807451529540600,4.65854052734375,-0.09844970703125,0.9761505126953125,0.1689910888671875
1772807451539472600,4.66847265625,-0.0955352783203125,0.9805908203125,0.17010498046875
1772807451549404700,4.67840478515625,-0.092681884765625,0.980377197265625,0.170562744140625
1772807451559336700,4.688336669921875,-0.0894775390625,0.981048583984375,0.1675872802734375
1772807451569267500,4.698267333984375,-0.08746337890625,0.9799346923828125,0.166717529296875
1772807451579199500,4.708199462890625,-0.083404541015625,0.9758148193359375,0.1679840087890625
1772807451589131500,4.718131591796875,-0.078582763671875,0.975006103515625,0.170806884765625
1772807451599063600,4.7280634765625,-0.08160400390625,0.9734039306640625,0.1702728271484375
1772807451608995600,4.73799560546875,-0.0828704833984375,0.975067138671875,0.1632080078125
1772807451618927400,4.74792724609375,-0.084930419921875,0.9791259765625,0.1646728515625
1772807451628858600,4.757858642578125,-0.0905609130859375,0.978271484375,0.1727752685546875
1772807451638790700,4.767790771484375,-0.0904083251953125,0.9744415283203125,0.1782073974609375
1772807451648722700,4.77772265625,-0.0871124267578125,0.9740142822265625,0.1785125732421875
1772807451658654700,4.78765478515625,-0.0810089111328125,0.97479248046875,0.1842193603515625
1772807451668586500,4.79758642578125,-0.0720977783203125,0.97509765625,0.1893463134765625
1772807451678518500,4.8075185546875,-0.0642547607421875,0.9695281982421875,0.194061279296875
1772807451688449500,4.817449462890625,-0.064697265625,0.968170166015625,0.19964599609375
1772807451698381600,4.827381591796875,-0.06378173828125,0.9691925048828125,0.205780029296875
1772807451708313600,4.837313720703125,-0.0581512451171875,0.9734344482421875,0.2090911865234375
1772807451718245600,4.84724560546875,-0.0512542724609375,0.9766998291015625,0.2172088623046875
1772807451728177700,4.857177734375,-0.0530548095703125,0.9825439453125,0.227020263671875
1772807451738109700,4.867109619140625,-0.054046630859375,0.9827117919921875,0.231658935546875
1772807451748040700,4.877040771484375,-0.04833984375,0.9758758544921875,0.2313995361328125
1772807451757972500,4.886972412109375,-0.046417236328125,0.9731597900390625,0.2304534912109375
1772807451767904500,4.896904541015625,-0.04400634765625,0.9759368896484375,0.227294921875
1772807451777836500,4.90683642578125,-0.042022705078125,0.9832916259765625,0.225311279296875
1772807451787768600,4.9167685546875,-0.0405120849609375,0.9950103759765625,0.223114013671875
1772807451797700600,4.92670068359375,-0.032806396484375,0.9984283447265625,0.2211456298828125
1772807451807631600,4.936631591796875,-0.0258941650390625,0.9978179931640625,0.217041015625
1772807451817563600,4.946563720703125,-0.0200958251953125,0.9972381591796875,0.217742919921875
1772807451827495700,4.95649560546875,-0.0178070068359375,0.9975738525390625,0.2139434814453125
1772807451837427700,4.966427734375,-0.02001953125,0.998199462890625,0.2068939208984375
1772807451847359700,4.97635986328125,-0.02166748046875,0.9992828369140625,0.1947784423828125
1772807451857291800,4.986291748046875,-0.0246124267578125,0.992401123046875,0.17901611328125
1772807451867222500,4.996222412109375,-0.0213623046875,0.9729156494140625,0.16796875
1772807451877154600,5.006154541015625,-0.0263519287109375,0.9646148681640625,0.1649169921875
1772807451887086600,5.016086669921875,-0.032012939453125,0.968536376953125,0.15869140625
1772807451897018600,5.0260185546875,-0.0321807861328125,0.9765625,0.1551513671875
1772807451906950400,5.035950439453125,-0.0350189208984375,0.9800262451171875,0.15771484375
1772807451916882400,5.04588232421875,-0.034820556640625,0.984466552734375,0.1623992919921875
1772807451926813700,5.055813720703125,-0.0305328369140625,0.9842376708984375,0.1596832275390625
1772807451936745700,5.065745849609375,-0.01751708984375,0.979522705078125,0.1572418212890625
1772807451946677800,5.075677734375,-0.014129638671875,0.9759063720703125,0.16259765625
1772807451956609500,5.085609619140625,-0.0137786865234375,0.97430419921875,0.1758575439453125
1772807451966541600,5.09554150390625,-0.016204833984375,0.974395751953125,0.1864776611328125
1772807451976473600,5.1054736328125,-0.015655517578125,0.9746856689453125,0.1892547607421875
1772807451986404600,5.115404541015625,-0.01507568359375,0.973724365234375,0.1873626708984375
1772807451996336600,5.125336669921875,-0.016693115234375,0.969573974609375,0.1933441162109375
1772807452006268700,5.1352685546875,-0.012786865234375,0.9667816162109375,0.2020263671875
1772807452016200400,5.145200439453125,-0.00732421875,0.9672393798828125,0.207733154296875
1772807452026132500,5.155132568359375,-0.0094146728515625,0.9678192138671875,0.210906982421875
1772807452036064500,5.165064453125,-0.0144500732421875,0.9693603515625,0.2077178955078125
1772807452045995800,5.174995849609375,-0.0186920166015625,0.972686767578125,0.2071533203125
1772807452055927600,5.184927490234375,-0.0204315185546875,0.975433349609375,0.210601806640625
1772807452065859600,5.194859619140625,-0.0226898193359375,0.976531982421875,0.217071533203125
1772807452075791600,5.20479150390625,-0.022491455078125,0.9741668701171875,0.214935302734375
1772807452085723600,5.2147236328125,-0.025360107421875,0.973297119140625,0.2108306884765625
1772807452095655700,5.22465576171875,-0.0326995849609375,0.97296142578125,0.2073974609375
1772807452105586400,5.23458642578125,-0.0383148193359375,0.970947265625,0.205963134765625
1772807452115518500,5.2445185546875,-0.0453643798828125,0.9708099365234375,0.207855224609375
1772807452125450500,5.254450439453125,-0.051116943359375,0.9702301025390625,0.2074737548828125
1772807452135382500,5.264382568359375,-0.054107666015625,0.9692230224609375,0.21002197265625
1772807452145314800,5.274314697265625,-0.0546722412109375,0.973114013671875,0.20928955078125
1772807452155246800,5.284246826171875,-0.056884765625,0.9727325439453125,0.207733154296875
1772807452165177600,5.294177490234375,-0.05792236328125,0.97503662109375,0.2066802978515625
1772807452175109600,5.304109619140625,-0.0569305419921875,0.9752044677734375,0.204193115234375
1772807452185041700,5.314041748046875,-0.058135986328125,0.9714813232421875,0.2041168212890625
1772807452194973700,5.3239736328125,-0.05926513671875,0.968719482421875,0.2014007568359375
1772807452204905700,5.33390576171875,-0.058837890625,0.9661865234375,0.203460693359375
1772807452214837500,5.34383740234375,-0.05743408203125,0.973663330078125,0.204925537109375
1772807452224768500,5.3537685546875,-0.061767578125,0.97564697265625,0.201812744140625
1772807452234700800,5.36370068359375,-0.068328857421875,0.9693756103515625,0.20379638671875
1772807452244632800,5.3736328125,-0.0684356689453125,0.96636962890625,0.2029571533203125
1772807452254564600,5.383564697265625,-0.0671539306640625,0.9673309326171875,0.2027130126953125
1772807452264496600,5.39349658203125,-0.0635986328125,0.972991943359375,0.2023773193359375
1772807452274428700,5.4034287109375,-0.06500244140625,0.9789581298828125,0.201568603515625
1772807452284359700,5.413359619140625,-0.0648956298828125,0.9816131591796875,0.197601318359375
1772807452294291700,5.423291748046875,-0.068023681640625,0.982452392578125,0.1961669921875
1772807452304223500,5.433223388671875,-0.0649261474609375,0.9790802001953125,0.1953582763671875
1772807452314155500,5.443155517578125,-0.0666961669921875,0.97601318359375,0.198486328125
1772807452324087600,5.453087646484375,-0.0673370361328125,0.9710540771484375,0.20147705078125
1772807452334019600,5.46301953125,-0.064239501953125,0.9669036865234375,0.202362060546875
1772807452343950800,5.472950927734375,-0.0602569580078125,0.9666900634765625,0.2038421630859375
1772807452353882600,5.482882568359375,-0.0579681396484375,0.9704437255859375,0.20599365234375
1772807452363814700,5.492814697265625,-0.060302734375,0.971405029296875,0.203033447265625
1772807452373746700,5.50274658203125,-0.0667724609375,0.971405029296875,0.2011871337890625
1772807452383678700,5.5126787109375,-0.0674896240234375,0.9711456298828125,0.202392578125
1772807452393610800,5.52261083984375,-0.06536865234375,0.9718475341796875,0.2046966552734375
1772807452403541500,5.53254150390625,-0.06427001953125,0.96978759765625,0.20660400390625
1772807452413473500,5.5424736328125,-0.06353759765625,0.9699859619140625,0.2064361572265625
1772807452423405600,5.552405517578125,-0.0675506591796875,0.9739837646484375,0.2051849365234375
1772807452433337600,5.562337646484375,-0.07159423828125,0.983642578125,0.206390380859375
1772807452443269600,5.57226953125,-0.069427490234375,0.9878692626953125,0.204864501953125
1772807452453200600,5.58220068359375,-0.065643310546875,0.983551025390625,0.2037506103515625
1772807452463132700,5.592132568359375,-0.0554962158203125,0.972900390625,0.2053985595703125
1772807452473064700,5.602064697265625,-0.049346923828125,0.9668731689453125,0.205047607421875
1772807452482996700,5.611996826171875,-0.0485992431640625,0.96746826171875,0.2043304443359375
1772807452492928800,5.6219287109375,-0.055633544921875,0.9683074951171875,0.2048187255859375
1772807452502860500,5.631860595703125,-0.0619964599609375,0.97509765625,0.199310302734375
1772807452512792600,5.64179248046875,-0.0615081787109375,0.975494384765625,0.1947021484375
1772807452522723600,5.6517236328125,-0.0627593994140625,0.975189208984375,0.1922149658203125
1772807452532655600,5.661655517578125,-0.064422607421875,0.9749298095703125,0.188323974609375
1772807452542587400,5.67158740234375,-0.0663604736328125,0.9762420654296875,0.181060791015625
1772807452552519700,5.681519775390625,-0.0666961669921875,0.9785919189453125,0.1772918701171875
1772807452562451700,5.69145166015625,-0.0618896484375,0.97991943359375,0.173614501953125
1772807452572383700,5.7013837890625,-0.0562896728515625,0.98052978515625,0.1776885986328125
1772807452582314800,5.711314697265625,-0.0544586181640625,0.975799560546875,0.182586669921875
1772807452592246500,5.72124658203125,-0.0543975830078125,0.9713592529296875,0.1858367919921875
1772807452602178600,5.731178466796875,-0.0543365478515625,0.9741973876953125,0.18817138671875
1772807452612110600,5.741110595703125,-0.0506744384765625,0.9765167236328125,0.1915130615234375
1772807452622042600,5.751042724609375,-0.0553436279296875,0.9753875732421875,0.19635009765625
1772807452631974700,5.760974609375,-0.05810546875,0.972625732421875,0.1998291015625
1772807452641905700,5.77090576171875,-0.060150146484375,0.9712677001953125,0.2009429931640625
1772807452651837700,5.780837646484375,-0.057220458984375,0.97271728515625,0.2057037353515625
1772807452661769700,5.790769775390625,-0.0536956787109375,0.9715728759765625,0.2092437744140625
1772807452671701800,5.80070166015625,-0.0533294677734375,0.9729156494140625,0.20855712890625
1772807452681633800,5.8106337890625,-0.05975341796875,0.9748077392578125,0.207427978515625
1772807452691565600,5.820565673828125,-0.0616912841796875,0.975738525390625,0.21026611328125
1772807452701496600,5.83049658203125,-0.0616912841796875,0.973052978515625,0.2091064453125
1772807452711428600,5.8404287109375,-0.06109619140625,0.966217041015625,0.20703125
1772807452721360600,5.850360595703125,-0.060455322265625,0.9626617431640625,0.2088775634765625
1772807452731292700,5.860292724609375,-0.058380126953125,0.966278076171875,0.2059478759765625
1772807452741224400,5.870224365234375,-0.0597381591796875,0.97265625,0.20782470703125
1772807452751155700,5.88015576171875,-0.0658111572265625,0.9761199951171875,0.2050323486328125
1772807452761087700,5.890087646484375,-0.069122314453125,0.972900390625,0.20458984375
1772807452771019800,5.900019775390625,-0.0672607421875,0.9738006591796875,0.2055816650390625
1772807452780951800,5.909951904296875,-0.065643310546875,0.9735870361328125,0.206451416015625
1772807452790883600,5.919883544921875,-0.059906005859375,0.97564697265625,0.2103271484375
1772807452800815600,5.929815673828125,-0.0585174560546875,0.9745941162109375,0.2144012451171875
1772807452810747600,5.93974755859375,-0.0588226318359375,0.97296142578125,0.2151031494140625
1772807452820678700,5.9496787109375,-0.0626068115234375,0.9726409912109375,0.2147216796875
1772807452830610400,5.9596103515625,-0.0599212646484375,0.9741668701171875,0.207672119140625
1772807452840542500,5.96954248046875,-0.0580291748046875,0.9756927490234375,0.2052001953125
1772807452850474500,5.979474609375,-0.0577545166015625,0.9744720458984375,0.20343017578125
1772807452860406500,5.989406494140625,-0.05950927734375,0.9750213623046875,0.200469970703125
1772807452870338600,5.999338623046875,-0.0609588623046875,0.97540283203125,0.1981658935546875
1772807452880269600,6.00926953125,-0.0571441650390625,0.9735107421875,0.1988677978515625
1772807452890201600,6.01920166015625,-0.05743408203125,0.9707794189453125,0.2003631591796875
1772807452900133600,6.029133544921875,-0.0585479736328125,0.9710540771484375,0.2008819580078125
1772807452910065700,6.039065673828125,-0.0572052001953125,0.975128173828125,0.200439453125
1772807452919997700,6.048997802734375,-0.0567626953125,0.977996826171875,0.19976806640625
1772807452929928400,6.058928466796875,-0.0571746826171875,0.975830078125,0.1995697021484375
1772807452939860500,6.068860595703125,-0.059844970703125,0.9705963134765625,0.1977996826171875
1772807452949792500,6.07879248046875,-0.058319091796875,0.9740447998046875,0.1947021484375
1772807452959724500,6.088724609375,-0.054931640625,0.9772796630859375,0.189910888671875
1772807452969656800,6.09865673828125,-0.0538177490234375,0.976226806640625,0.18994140625
1772807452979588900,6.1085888671875,-0.0533447265625,0.97491455078125,0.188995361328125
1772807452989519600,6.11851953125,-0.056121826171875,0.97576904296875,0.18707275390625
1772807452999452200,6.1284521484375,-0.0555877685546875,0.9741058349609375,0.190093994140625
1772807453009384200,6.13838427734375,-0.054168701171875,0.9766693115234375,0.1929473876953125
1772807453019316200,6.148316162109375,-0.05364990234375,0.9763641357421875,0.19659423828125
1772807453029248300,6.158248291015625,-0.0549468994140625,0.9736175537109375,0.201416015625
1772807453039180000,6.168179931640625,-0.0551605224609375,0.971038818359375,0.203369140625
1772807453049112000,6.178112060546875,-0.0507965087890625,0.96966552734375,0.201812744140625
1772807453059043000,6.18804296875,-0.0484161376953125,0.973114013671875,0.205291748046875
1772807453068975000,6.19797509765625,-0.046783447265625,0.97503662109375,0.20880126953125
1772807453078907100,6.2079072265625,-0.044036865234375,0.975494384765625,0.2069854736328125
1772807453088839200,6.217839111328125,-0.0429534912109375,0.9721527099609375,0.208404541015625
1772807453098771200,6.227771240234375,-0.0455169677734375,0.972503662109375,0.2085113525390625
1772807453108703200,6.237703125,-0.049407958984375,0.9742279052734375,0.2100830078125
1772807453118634200,6.24763427734375,-0.0524444580078125,0.972320556640625,0.2100372314453125
1772807453128566000,6.25756591796875,-0.0503997802734375,0.9705352783203125,0.20965576171875
1772807453138498000,6.267498046875,-0.04949951171875,0.9682159423828125,0.2083282470703125
1772807453148430000,6.27743017578125,-0.0494384765625,0.9704437255859375,0.2088623046875
1772807453158362000,6.287362060546875,-0.0493927001953125,0.9727325439453125,0.207916259765625
1772807453168294100,6.297294189453125,-0.0512847900390625,0.9757537841796875,0.2061004638671875
1772807453178225200,6.30722509765625,-0.053314208984375,0.9743194580078125,0.202789306640625
1772807453188157200,6.3171572265625,-0.0568695068359375,0.97576904296875,0.20281982421875
1772807453198089200,6.327089111328125,-0.0599822998046875,0.975860595703125,0.199981689453125
1772807453208021200,6.337021240234375,-0.0604248046875,0.9768524169921875,0.19964599609375
1772807453217953300,6.346953369140625,-0.058929443359375,0.974090576171875,0.203460693359375
1772807453227885300,6.35688525390625,-0.059722900390625,0.9692535400390625,0.2023773193359375
1772807453237816000,6.366816162109375,-0.0584716796875,0.970916748046875,0.2010955810546875
1772807453247748000,6.376748046875,-0.0593719482421875,0.9716339111328125,0.2025299072265625
1772807453257680100,6.38668017578125,-0.0597686767578125,0.9731597900390625,0.2040863037109375
1772807453267612200,6.396612060546875,-0.06378173828125,0.973175048828125,0.201690673828125
1772807453277544000,6.4065439453125,-0.066162109375,0.9759979248046875,0.199432373046875
1772807453287476000,6.41647607421875,-0.0628204345703125,0.978668212890625,0.1999664306640625
1772807453297407200,6.4264072265625,-0.059783935546875,0.9767913818359375,0.1993865966796875
1772807453307339300,6.43633935546875,-0.0592803955078125,0.9773406982421875,0.1975555419921875
1772807453317271300,6.446271240234375,-0.0570220947265625,0.9760284423828125,0.1968841552734375
1772807453327203000,6.456203125,-0.0565185546875,0.974578857421875,0.199005126953125
1772807453337135000,6.466135009765625,-0.0544586181640625,0.974822998046875,0.19964599609375
1772807453347067100,6.476067138671875,-0.0546875,0.9754638671875,0.19830322265625
1772807453356998100,6.485998046875,-0.05267333984375,0.974456787109375,0.1963653564453125
1772807453366930200,6.49593017578125,-0.0511474609375,0.9748992919921875,0.200531005859375
1772807453376862000,6.505862060546875,-0.05352783203125,0.976104736328125,0.2030487060546875
1772807453386794000,6.5157939453125,-0.052093505859375,0.9756927490234375,0.2041015625
1772807453396726000,6.52572607421875,-0.0480499267578125,0.97479248046875,0.202972412109375
1772807453406658000,6.535657958984375,-0.04931640625,0.9746246337890625,0.2037353515625
1772807453416589000,6.545589111328125,-0.0491943359375,0.9741363525390625,0.2024078369140625
1772807453426521000,6.55552099609375,-0.05120849609375,0.97467041015625,0.2022247314453125
1772807453436453000,6.565453125,-0.05010986328125,0.9735107421875,0.2016143798828125
1772807453446385200,6.57538525390625,-0.0512237548828125,0.9713897705078125,0.203125
1772807453456317200,6.585317138671875,-0.0522003173828125,0.97076416015625,0.199737548828125
1772807453466249200,6.595249267578125,-0.052001953125,0.969024658203125,0.199188232421875
1772807453476180000,6.605179931640625,-0.052337646484375,0.9677886962890625,0.196502685546875
1772807453486112000,6.615112060546875,-0.0531768798828125,0.9703521728515625,0.194915771484375
1772807453496044000,6.6250439453125,-0.0526885986328125,0.971527099609375,0.194976806640625
1772807453505976300,6.634976318359375,-0.053314208984375,0.972625732421875,0.1962890625
1772807453515908400,6.644908447265625,-0.0553436279296875,0.9731903076171875,0.1934661865234375
1772807453525840100,6.654840087890625,-0.0545806884765625,0.971771240234375,0.195068359375
1772807453535771100,6.664771240234375,-0.0513458251953125,0.9727325439453125,0.1953277587890625
1772807453545703200,6.674703125,-0.0512847900390625,0.97479248046875,0.193878173828125
1772807453555635200,6.68463525390625,-0.051361083984375,0.975860595703125,0.193389892578125
1772807453565567000,6.69456689453125,-0.053619384765625,0.9760284423828125,0.1943511962890625
1772807453575499000,6.7044990234375,-0.0547943115234375,0.975677490234375,0.19464111328125
1772807453585431000,6.71443115234375,-0.0570220947265625,0.9739227294921875,0.1949310302734375
1772807453595362300,6.7243623046875,-0.0565032958984375,0.9741973876953125,0.1948699951171875
1772807453605294300,6.73429443359375,-0.0571441650390625,0.97454833984375,0.1950836181640625
1772807453615226000,6.74422607421875,-0.055877685546875,0.9745330810546875,0.196075439453125
1772807453625158100,6.754158203125,-0.05572509765625,0.9726409912109375,0.1981658935546875
1772807453635090200,6.764090087890625,-0.0582733154296875,0.9745635986328125,0.1975555419921875
1772807453645022200,6.774022216796875,-0.0580902099609375,0.9756011962890625,0.19989013671875
1772807453654953200,6.783953125,-0.0567169189453125,0.9763336181640625,0.20037841796875
1772807453664885000,6.793885009765625,-0.0557098388671875,0.97479248046875,0.2022552490234375
1772807453674817000,6.803817138671875,-0.0556488037109375,0.9705963134765625,0.2021636962890625
1772807453684749000,6.8137490234375,-0.0567474365234375,0.9724578857421875,0.200469970703125
1772807453694681000,6.82368115234375,-0.0576019287109375,0.973602294921875,0.20367431640625
1772807453704613000,6.833613037109375,-0.05487060546875,0.97442626953125,0.2067108154296875
1772807453714544000,6.843544189453125,-0.05145263671875,0.9728851318359375,0.2132415771484375
1772807453724476200,6.85347607421875,-0.0544586181640625,0.9669036865234375,0.21258544921875
1772807453734408200,6.863408203125,-0.0596923828125,0.969024658203125,0.2135772705078125
1772807453744340200,6.87334033203125,-0.0635833740234375,0.9720306396484375,0.207763671875
1772807453754272300,6.883272216796875,-0.06451416015625,0.973724365234375,0.201873779296875
1772807453764204000,6.8932041015625,-0.0686492919921875,0.9711151123046875,0.195526123046875
1772807453774135000,6.903135009765625,-0.0676727294921875,0.9694976806640625,0.19091796875
1772807453784067000,6.913067138671875,-0.06146240234375,0.9719390869140625,0.189788818359375
1772807453793999000,6.9229990234375,-0.0655059814453125,0.975921630859375,0.19268798828125
1772807453803931100,6.93293115234375,-0.0654296875,0.9800567626953125,0.1934967041015625
1772807453813863000,6.94286279296875,-0.0643463134765625,0.9776611328125,0.1934814453125
1772807453823795200,6.952795166015625,-0.0602874755859375,0.9781036376953125,0.193206787109375
1772807453833726200,6.962726318359375,-0.0576629638671875,0.979766845703125,0.19573974609375
1772807453843658200,6.972658203125,-0.059295654296875,0.977142333984375,0.1994171142578125
1772807453853590000,6.982590087890625,-0.060546875,0.9774169921875,0.199737548828125
1772807453863522000,6.99252197265625,-0.0629425048828125,0.9760589599609375,0.2019195556640625
1772807453873454000,7.0024541015625,-0.064056396484375,0.9769287109375,0.2001495361328125
1772807453883386000,7.01238623046875,-0.0642852783203125,0.9762420654296875,0.20257568359375
1772807453893318100,7.022318115234375,-0.0607757568359375,0.9779815673828125,0.20660400390625
1772807453903249200,7.032249267578125,-0.0627288818359375,0.9770660400390625,0.2060546875
1772807453913181200,7.04218115234375,-0.06427001953125,0.9761199951171875,0.202545166015625
1772807453923113200,7.05211328125,-0.0647430419921875,0.9709320068359375,0.2000732421875
1772807453933045200,7.062045166015625,-0.0642852783203125,0.973907470703125,0.19927978515625
1772807453942977300,7.071977294921875,-0.0621490478515625,0.975982666015625,0.2003631591796875
1772807453952908000,7.081907958984375,-0.05712890625,0.9736480712890625,0.19879150390625
1772807453962840000,7.091840087890625,-0.055511474609375,0.970855712890625,0.199554443359375
1772807453972772000,7.101772216796875,-0.056121826171875,0.9707794189453125,0.2011871337890625
1772807453982704000,7.1117041015625,-0.0560302734375,0.972015380859375,0.20050048828125
1772807453992636200,7.12163623046875,-0.0552978515625,0.9726104736328125,0.2011260986328125
1772807454002567200,7.131567138671875,-0.055419921875,0.9702301025390625,0.1993408203125
1772807454012499500,7.14149951171875,-0.0561981201171875,0.97186279296875,0.197601318359375
1772807454022430200,7.15143017578125,-0.056671142578125,0.9721221923828125,0.1967926025390625
1772807454032362200,7.1613623046875,-0.0565185546875,0.970977783203125,0.1974945068359375
1772807454042294300,7.171294189453125,-0.0577392578125,0.969573974609375,0.1956939697265625
1772807454052226300,7.181226318359375,-0.0579376220703125,0.97210693359375,0.1985015869140625
1772807454062158300,7.191158447265625,-0.056365966796875,0.9756927490234375,0.1998443603515625
1772807454072090000,7.201090087890625,-0.059600830078125,0.9782562255859375,0.201995849609375
1772807454082021000,7.211021240234375,-0.062408447265625,0.976226806640625,0.204315185546875
1772807454091953200,7.220953125,-0.06207275390625,0.9734954833984375,0.2014923095703125
1772807454101885400,7.230885498046875,-0.0562896728515625,0.9724273681640625,0.2017974853515625
1772807454111817500,7.2408173828125,-0.05438232421875,0.972686767578125,0.2052154541015625
1772807454121749200,7.250749267578125,-0.0551605224609375,0.9713592529296875,0.2042236328125
1772807454131681300,7.260681396484375,-0.05462646484375,0.9706268310546875,0.2035980224609375
1772807454141612300,7.2706123046875,-0.055755615234375,0.973907470703125,0.2031402587890625
1772807454151544300,7.28054443359375,-0.0543060302734375,0.974609375,0.201141357421875
1772807454161476400,7.290476318359375,-0.0563201904296875,0.97479248046875,0.2000274658203125
1772807454171408100,7.300408203125,-0.06072998046875,0.9757232666015625,0.19927978515625
1772807454181340200,7.310340087890625,-0.06121826171875,0.9737091064453125,0.2011260986328125
1772807454191272200,7.320272216796875,-0.0591278076171875,0.9731597900390625,0.203582763671875
1772807454201203500,7.330203369140625,-0.05889892578125,0.97412109375,0.2037353515625
1772807454211135200,7.34013525390625,-0.058563232421875,0.9730682373046875,0.202117919921875
1772807454221067300,7.3500673828125,-0.0577239990234375,0.973968505859375,0.1998443603515625
1772807454230999300,7.359999267578125,-0.0573883056640625,0.9736480712890625,0.2006378173828125
1772807454240931300,7.369931396484375,-0.0576629638671875,0.9708709716796875,0.2003326416015625
1772807454250863400,7.37986328125,-0.0574493408203125,0.9700927734375,0.1993560791015625
1772807454260794000,7.389794189453125,-0.0562896728515625,0.97125244140625,0.1999664306640625
1772807454270726100,7.39972607421875,-0.0582427978515625,0.9737548828125,0.2000274658203125
1772807454280658200,7.409658203125,-0.05816650390625,0.975433349609375,0.200347900390625
1772807454290590200,7.419590087890625,-0.05804443359375,0.977264404296875,0.201263427734375
1772807454300522200,7.429522216796875,-0.0624847412109375,0.9735107421875,0.199127197265625
1772807454310454300,7.439454345703125,-0.05902099609375,0.9734954833984375,0.196258544921875
1772807454320385300,7.44938525390625,-0.0572052001953125,0.975982666015625,0.1961822509765625
1772807454330317300,7.4593173828125,-0.0557861328125,0.974578857421875,0.197113037109375
1772807454340249300,7.469249267578125,-0.055908203125,0.9740447998046875,0.197845458984375
1772807454350181400,7.479181396484375,-0.059112548828125,0.9728240966796875,0.19677734375
1772807454360113200,7.489113037109375,-0.0565032958984375,0.97308349609375,0.1980438232421875
1772807454370045200,7.499045166015625,-0.055419921875,0.974151611328125,0.197906494140625
1772807454379977200,7.508977294921875,-0.059600830078125,0.9678955078125,0.1980743408203125
1772807454389908200,7.518908203125,-0.0620880126953125,0.9678192138671875,0.1965179443359375
1772807454399840300,7.52884033203125,-0.0634307861328125,0.97296142578125,0.1945953369140625
1772807454409772000,7.53877197265625,-0.0613861083984375,0.9792327880859375,0.195281982421875
1772807454419704300,7.548704345703125,-0.057373046875,0.979705810546875,0.1950531005859375
1772807454429636400,7.55863623046875,-0.05853271484375,0.978546142578125,0.1951904296875
1772807454439568400,7.568568359375,-0.0585174560546875,0.9749755859375,0.196319580078125
1772807454449499400,7.57849951171875,-0.0575408935546875,0.97265625,0.1964569091796875
1772807454459431200,7.58843115234375,-0.059326171875,0.9718475341796875,0.1957244873046875
1772807454469363200,7.59836328125,-0.063812255859375,0.9736175537109375,0.1945037841796875
1772807454479295200,7.608295166015625,-0.065216064453125,0.974884033203125,0.1904754638671875
1772807454489227300,7.618227294921875,-0.06610107421875,0.974700927734375,0.1914520263671875
1772807454499159300,7.6281591796875,-0.0654754638671875,0.9755706787109375,0.1962890625
1772807454509090300,7.63809033203125,-0.0631561279296875,0.9789886474609375,0.1994781494140625
1772807454519022300,7.648022216796875,-0.0609588623046875,0.9788360595703125,0.1981658935546875
1772807454528954400,7.657954345703125,-0.0599365234375,0.9763946533203125,0.1964111328125
1772807454538886400,7.667886474609375,-0.0561676025390625,0.9769439697265625,0.1961517333984375
1772807454548818400,7.677818359375,-0.05706787109375,0.978271484375,0.19879150390625
1772807454558750200,7.687750244140625,-0.0623321533203125,0.9772491455078125,0.1998138427734375
1772807454568681200,7.69768115234375,-0.0665740966796875,0.9779815673828125,0.199432373046875
1772807454578613200,7.70761328125,-0.0679931640625,0.9765472412109375,0.1999053955078125
1772807454588545300,7.717545166015625,-0.06500244140625,0.97698974609375,0.2002716064453125
1772807454598477300,7.727477294921875,-0.0605010986328125,0.9741363525390625,0.2022552490234375
1772807454608409000,7.7374091796875,-0.058441162109375,0.97412109375,0.2023773193359375
1772807454618341000,7.747341064453125,-0.061614990234375,0.970367431640625,0.2049713134765625
1772807454628272400,7.7572724609375,-0.0642242431640625,0.9674530029296875,0.20233154296875
1772807454638204400,7.767204345703125,-0.0655670166015625,0.9703216552734375,0.19891357421875
1772807454648136200,7.77713623046875,-0.06298828125,0.97418212890625,0.1982574462890625
1772807454658068200,7.787068115234375,-0.06365966796875,0.9734039306640625,0.2005767822265625
1772807454668000300,7.797000244140625,-0.0627593994140625,0.97454833984375,0.2055206298828125
1772807454677932300,7.806932373046875,-0.047760009765625,0.9730682373046875,0.20751953125
