time,seconds_elapsed,z,y,x
1772807446903791900,0.0327919921875,-0.18821970174089073,-0.10877426297366619,0.19561668012440203
1772807446913724000,0.042723876953125,-0.1093542548187077,-0.10490005188882351,0.20489728029742835
1772807446923656000,0.052656005859375,-0.08530914316885173,-0.12368249377012253,0.2921304503314197
1772807446933588000,0.062587890625,-0.11972637655548751,-0.14271744910776615,0.2730988559946418
1772807446943520000,0.07252001953125,-0.17079042803421615,-0.12673720516562462,0.2729066944234073
1772807446953451000,0.082450927734375,-0.26189035649895664,-0.1445364812284708,0.3079430826216936
1772807446963383000,0.092383056640625,-0.2725636531393975,-0.1371598149806261,0.23624153597950934
1772807446973315000,0.102315185546875,-0.28428981983363627,-0.1332996324211359,0.2946056082732975
1772807446983247000,0.1122470703125,-0.261085031465441,-0.0449035560876131,0.31274902159869666
1772807446993178000,0.12217822265625,-0.17126893226616083,0.019421324306726453,0.24533172814697027
1772807447003110100,0.132110107421875,-0.1011222138505429,0.05732347719967365,0.19252412093654273
1772807447013041200,0.142041259765625,-0.13081051901914179,0.041733693879842756,0.206342364539206
1772807447022973200,0.15197314453125,-0.17264781940393148,-0.02095335617959499,0.20093714449480174
1772807447032905200,0.1619052734375,-0.2136209772400558,-0.09440262327194213,0.27354280036985873
1772807447042837200,0.171837158203125,-0.23501506292447447,-0.19838789840340612,0.281962838190794
1772807447052769300,0.181769287109375,-0.24949834630712867,-0.42652270029485223,0.4632939494617283
1772807447062701300,0.191701416015625,-0.24783085148632525,-0.3336398339360952,0.4723638294935226
1772807447072632300,0.20163232421875,-0.2981178541779518,-0.1744166557073593,0.43469007852897046
1772807447082564000,0.211564208984375,-0.39066359753683205,-0.12057342183887958,0.3750634389534592
1772807447092496100,0.22149609375,-0.4420393453132361,-0.16611469130814074,0.3382672014757991
1772807447102428200,0.23142822265625,-0.4606687155246734,-0.21335691947638988,0.2898784336209297
1772807447112360200,0.241360107421875,-0.37545711444616314,-0.21346739411354063,0.19522198171839117
1772807447122291200,0.251291259765625,-0.10873970311693847,-0.24186989725530147,0.1261969608090818
1772807447132223200,0.26122314453125,-0.10234919836223125,-0.23303426437079905,0.21592530865967272
1772807447142155300,0.2711552734375,-0.5315022471606731,-0.19679566077589988,0.3379818086631596
1772807447152087300,0.28108740234375,-0.7996825706493109,-0.3353665115982294,0.36847353916913267
1772807447162019300,0.291019287109375,-0.7673029805701226,-0.3405506362378597,0.12333046546205878
1772807447171951400,0.300951416015625,-0.5452700757503509,-0.21011983725130556,-0.08978709230050444
1772807447181882000,0.310882080078125,-0.3714455407172441,-0.17716332406699656,-0.3871465293265879
1772807447191814100,0.320814208984375,-0.16557152434214947,-0.17305881135761736,-0.7711521302789449
1772807447201746200,0.33074609375,-0.12379296840727329,-0.2974228576511144,-0.8787849681325256
1772807447211678200,0.34067822265625,-0.16138240208923815,-0.46380058380961414,-0.8736107803650199
1772807447221610200,0.3506103515625,-0.377809230530262,-0.4047609503418207,-0.5006009129405021
1772807447231541200,0.360541259765625,-0.7632553856797516,-0.04512392084002494,-0.05061228912323713
1772807447241473300,0.370473388671875,-0.7363995274581014,0.19385142401754854,0.17686156464144587
1772807447251405300,0.3804052734375,-0.5009375244837254,0.3638730596363544,0.49734571053683757
1772807447261337300,0.39033740234375,-0.5045755887251347,0.3235661836892366,0.7127183537498116
1772807447271269400,0.400269287109375,-0.654582537253946,0.43455753819048404,0.37011911441907286
1772807447281201200,0.410201171875,-0.7608825921338052,0.4500006065160036,0.34060821164399385
1772807447291132200,0.420132080078125,-0.7788239800810813,0.3460188385158777,0.08722454833611845
1772807447301064200,0.430064208984375,-0.6378951679557562,0.168059395635128,-0.23338716946169732
1772807447310996200,0.439996337890625,-0.5497077659368514,0.03207271608710289,-0.5022423965372145
1772807447320928000,0.449927978515625,-0.6051994976647198,-0.06647007572948932,-0.7299854226320982
1772807447330860000,0.459860107421875,-0.5405939006328583,-0.16049918951392173,-1.0073252771973609
1772807447340792000,0.4697919921875,-0.4010235173791647,-0.20438041681647298,-1.1816536700993776
1772807447350723300,0.479723388671875,-0.3558153523217886,-0.17751403720080852,-0.9659702073715627
1772807447360655400,0.4896552734375,-0.3368308850623667,-0.19690145923793315,-0.6283813435487449
1772807447370587100,0.499587158203125,-0.3118944505959749,-0.28472587316334247,-0.2858107457906008
1772807447380519200,0.509519287109375,-0.2557137136906385,-0.3351595908492803,-0.012520751138031482
1772807447390451200,0.519451171875,-0.30855931482389565,-0.2622761409461498,0.1999957719914615
1772807447400383200,0.52938330078125,-0.24635142658352852,-0.3084218060493469,0.3013175270020962
1772807447410314200,0.539314208984375,-0.15122684571258724,-0.31608430350124833,0.3752475633487105
1772807447420246000,0.54924609375,-0.07858414576277137,-0.3349503320127725,0.4343836429283023
1772807447430178000,0.559177978515625,-0.001746697536855936,-0.31990415405035016,0.4472393251091242
1772807447440110000,0.569110107421875,0.034683775368332864,-0.25835925976336,0.4827564825616777
1772807447450042400,0.57904248046875,-0.01811323738284409,-0.1867249331384897,0.5627978413954376
1772807447459973000,0.58897314453125,-0.04963942550309002,-0.12972995724081993,0.5343709344647825
1772807447469905200,0.5989052734375,-0.024260581031441686,-0.02500117026567459,0.2777064959205687
1772807447479837200,0.608837158203125,-0.011808511215448379,-0.11901157934963702,0.4105966707579791
1772807447489769200,0.618769287109375,-0.0474655155301094,-0.1803209113150835,0.39206674233302474
1772807447499701200,0.628701171875,-0.07489836992211639,-0.1760077242910862,0.391891824157536
1772807447509633300,0.63863330078125,-0.09196282890439032,-0.17608663474619388,0.4695345974169671
1772807447519564000,0.64856396484375,-0.15737492001354694,-0.17326865471601485,0.46022667084559793
1772807447529496300,0.658496337890625,-0.1560913099437952,-0.12207798118293285,0.4020607514724135
1772807447539428400,0.668428466796875,-0.13119360005259514,0.08297522032856941,0.41020723304897544
1772807447549360400,0.6783603515625,-0.1880804394006729,0.16809738955795764,0.2958674449026584
1772807447559292400,0.68829248046875,-0.2069290053207427,0.1421013630360365,0.27457462763562795
1772807447569224200,0.69822412109375,-0.3198463594485074,0.01362578977048397,0.22857041682973503
1772807447579155200,0.7081552734375,-0.40699265491664405,-0.11439502546489239,0.21969109093397854
1772807447589087200,0.718087158203125,-0.29547523071467874,-0.003187397864460945,0.2418221125908196
1772807447599019300,0.728019287109375,-0.045322658282518385,0.15721593005955217,0.29347733489573
1772807447608951300,0.737951416015625,-0.05985862170048058,0.2541442724168301,0.07627893756031989
1772807447618883000,0.747883056640625,0.06689622871968895,0.022173837885260582,0.08058861745297909
1772807447628815000,0.757815185546875,0.02139821387026459,-0.22079028434753417,-0.123889560649544
1772807447638746400,0.767746337890625,-0.13168927461504937,-0.27676176241636274,-0.2232861928164959
1772807447648678400,0.777678466796875,-0.26537293791770933,-0.2693663914680481,-0.2008456668190658
1772807447658610200,0.787610107421875,-0.33212763927485794,-0.30732056680917735,-0.19944120684862135
1772807447668542200,0.797542236328125,-0.24324640977289527,-0.39636721600592134,-0.14919702038541435
1772807447678474200,0.80747412109375,-0.04939615479912608,-0.36912966499030586,-0.08112082463353872
1772807447688406300,0.81740625,0.0739911188840866,-0.241964005279541,-0.0018866905294358729
1772807447698337300,0.827337158203125,0.14653731792317704,-0.14259236142337323,0.08825038425251841
1772807447708269000,0.83726904296875,0.14793838036013765,-0.08596329622864722,0.24064517776593564
1772807447718201000,0.847201171875,0.1980863033746369,-0.05629238058626652,0.32488354989811774
1772807447728133000,0.857133056640625,0.171297062382102,-0.0796551359951496,0.29339783991873264
1772807447738065200,0.867065185546875,0.19574761302769184,-0.1009048447728157,0.31992505070790644
1772807447747997200,0.8769970703125,0.2855459573745727,-0.17452479225695133,0.26252470887973905
1772807447757928200,0.88692822265625,0.33756139129400253,-0.2762403688907623,0.21057883306518196
1772807447767860200,0.896860107421875,0.2731915027141571,-0.31341186942160126,0.1021808560580015
1772807447777792300,0.906792236328125,0.20759762529730796,-0.21532149754762647,0.012027268532663582
1772807447787724300,0.916724365234375,0.1379553310061805,-0.034416064342856406,-0.06553162583559752
1772807447797656300,0.92665625,0.06540798118961974,0.06958908453285693,-0.05202127913832664
1772807447807587000,0.936587158203125,0.0031131635844707487,0.19316461079716682,-0.0041598961584269996
1772807447817519000,0.94651904296875,0.04006895727170631,0.2445306408971548,0.05221417136192322
1772807447827451100,0.956451171875,0.1013291893984191,0.14405600423514842,0.1429763923048973
1772807447837383200,0.966383056640625,0.11633150995280593,0.012137597039341926,0.17008111072108148
1772807447847315200,0.976315185546875,0.12412205423116683,-0.026687515917420385,0.2972448707357049
1772807447857247200,0.986247314453125,0.19718374677803366,0.06428980908095837,0.38791576013341544
1772807447867178200,0.99617822265625,0.20079145241379737,0.25549334893822667,0.4060626805901527
1772807447877110300,1.0061103515625,0.08635722744967787,0.2933972553968429,0.4509443171069026
1772807447887042300,1.016042236328125,0.008546842538379132,0.3067272770911455,0.45087183639258144
1772807447896974300,1.025974365234375,-0.022985775322653352,0.27863223246335983,0.2090128989227116
1772807447906906000,1.035906005859375,-0.05036478063557297,0.2523807698756456,0.03718509066477418
1772807447916838100,1.045838134765625,-0.03672667937278747,0.31949089707434175,-0.004357172296196222
1772807447926769200,1.05576904296875,-0.00288404927002266,0.32347499827444554,-0.04417144242078066
1772807447936701200,1.065701171875,-0.018017302727699278,0.18630349285602568,-0.13481836642101405
1772807447946633200,1.07563330078125,-0.13837386694550513,-0.020761048477888105,-0.14451719200611113
1772807447956565200,1.085565185546875,-0.2894680992543697,-0.16239771661162375,-0.18164660696089266
1772807447966497300,1.095497314453125,-0.3042307841002941,-0.15069851098954676,-0.29847178218215703
1772807447976428300,1.10542822265625,-0.257564912781585,-0.05479074385166168,-0.41189080222174523
1772807447986360300,1.1153603515625,-0.22981535712322218,0.09110825790166854,-0.4711008238203823
1772807447996292400,1.125292236328125,-0.09308277284502983,0.17596505419313907,-0.46618280277103186
1772807448006224400,1.135224365234375,0.005846369674336165,0.22911387605667113,-0.2941827066861093
1772807448016156400,1.145156494140625,0.004576788129936903,0.21732173145413397,-0.08417714346423745
1772807448026088400,1.15508837890625,-0.05330138207674026,0.18592238458395002,0.12117694068998097
1772807448036019500,1.16501953125,-0.18078093004226684,0.21055296797156334,0.3571025425881147
1772807448045951500,1.174951416015625,-0.2753682256987318,0.1663648666769266,0.5382005757555365
1772807448055883500,1.184883544921875,-0.24484690377209334,0.07151683772504329,0.65437459359169
1772807448065815600,1.194815673828125,-0.15715572430491445,-0.13673545208871363,0.7523473304353654
1772807448075747600,1.20474755859375,-0.004379274530149996,-0.36777065159678457,0.8282968899108469
1772807448085679600,1.2146796875,0.12369418420791625,-0.5007657481133938,0.8059745834656059
1772807448095610400,1.2246103515625,0.16532732205642386,-0.4707259991586208,0.6779172356121241
1772807448105542400,1.23454248046875,0.10021277085542678,-0.32005320713222024,0.5522504361569881
1772807448115474400,1.244474365234375,-0.004639934760332107,-0.2237128937959671,0.4830111879751086
1772807448125406500,1.254406494140625,-0.09781971997274086,-0.19982348416447637,0.4709088083796203
1772807448135338500,1.26433837890625,-0.17895955983400344,-0.1947813983440399,0.5056691561155021
1772807448145270300,1.274270263671875,-0.23572132976399734,-0.22795243106186389,0.49930400499776
1772807448155201500,1.284201416015625,-0.21815641044629736,-0.22986966286003588,0.4417221691228449
1772807448165133600,1.294133544921875,-0.12654316216455772,-0.26012159326076506,0.35754429500624535
1772807448175065600,1.304065673828125,0.03359132222281769,-0.2954565260142088,0.2635229261368513
1772807448184997600,1.31399755859375,0.1302080778802745,-0.31049042901694773,0.1932685095630586
1772807448194929400,1.323929443359375,0.12958381763524376,-0.33817397023439405,0.1653974829494953
1772807448204861400,1.333861328125,0.06495673029078171,-0.34418227073848245,0.09582564181238412
1772807448214792400,1.34379248046875,-0.040370597966248166,-0.33280572119951246,0.05064633752331137
1772807448224724500,1.353724365234375,-0.0929109325426165,-0.36351474771797654,0.019554010775685308
1772807448234656500,1.363656494140625,-0.04793663104004226,-0.3388075919628143,-0.0017645254544913767
1772807448244588300,1.37358837890625,-0.005292252056067809,-0.31712475246489047,0.061931409386545413
1772807448254520300,1.383520263671875,0.05761398457884788,-0.12389175260663032,0.034735797816514966
1772807448264451600,1.39345166015625,0.08230534910983406,-0.06408639546334743,0.14052490749955177
1772807448274383600,1.403383544921875,-0.008551559812691994,-0.0874766234010458,0.15213146640211342
1772807448284315400,1.4133154296875,-0.10512626186013221,-0.12225567583739756,0.05470876465663314
1772807448294247400,1.423247314453125,-0.15192074626088142,-0.10667699843347073,0.01589315018057823
1772807448304179500,1.433179443359375,-0.18237784384489059,-0.13700491667985915,-0.004266279142349958
1772807448314111500,1.443111572265625,-0.24750410374999046,-0.1384364107877016,-0.03791691207066178
1772807448324042500,1.45304248046875,-0.28399112914800645,-0.13217208969593047,-0.007653291232138872
1772807448333974300,1.462974365234375,-0.28074937074780465,-0.1168079318255186,0.06239873463734984
1772807448343906300,1.47290625,-0.25553777260184285,-0.10360942755639553,0.14419643561914564
1772807448353838300,1.48283837890625,-0.25570260777473447,-0.12878010917007923,0.19749241086840627
1772807448363770400,1.492770263671875,-0.3216670720696449,-0.11608721633553504,0.2803670934319496
1772807448373702400,1.502702392578125,-0.3561141160726547,-0.030234979265928268,0.37226957045122977
1772807448383633400,1.51263330078125,-0.31183541388511654,-0.01850479398369789,0.42376843315064905
1772807448393565400,1.5225654296875,-0.2160462864245288,-0.029422493839263913,0.43492491019815205
1772807448403497500,1.53249755859375,-0.10843231766819954,-0.058953124228119845,0.44857188888713717
1772807448413429500,1.542429443359375,-0.05660628710733726,-0.07720072858035563,0.5298752304807305
1772807448423361500,1.552361572265625,-0.08399932094560936,-0.05288754057884216,0.5365560234189033
1772807448433293600,1.56229345703125,-0.1034323539564386,0.038783611902594564,0.5181320395864546
1772807448443224300,1.572224365234375,-0.19578562521683052,0.10813830315768717,0.526203117839247
1772807448453156400,1.58215625,-0.2692553505753167,0.1140939966917038,0.5777503497250378
1772807448463088600,1.592088623046875,-0.2691758190657012,0.07383622058331966,0.5594228120043874
1772807448473020700,1.602020751953125,-0.2732675088261254,0.0198462717205286,0.49741176151037214
1772807448482952400,1.611952392578125,-0.1912660836994648,-0.03249883254468441,0.3546269462548196
1772807448492883500,1.621883544921875,-0.17942483925819397,-0.038567923325300214,0.3216530435442924
1772807448502815500,1.6318154296875,-0.13065112720634786,0.0007423427999019623,0.20290406065359712
1772807448512747500,1.64174755859375,-0.14933131428956983,0.01581131711602211,0.18220643280074
1772807448522679600,1.651679443359375,-0.12565118176089599,0.004072364005446433,0.15138649325370787
1772807448532611300,1.661611328125,-0.14851765981912612,-0.015723638832569123,0.2072415053360164
1772807448542543400,1.67154345703125,-0.14387071079611777,-0.06412029773294925,0.13709756339937448
1772807448552475400,1.681475341796875,-0.09742463797423988,-0.0834375771433115,0.07130918632373213
1772807448562406700,1.69140673828125,-0.12250062704179435,-0.1390951669573784,0.1349658120676875
1772807448572338700,1.701338623046875,-0.1472983471572399,-0.15318272902071475,0.14697335298657416
1772807448582270500,1.7112705078125,-0.18081833944320677,-0.09468845447599887,0.20522066703289746
1772807448592202500,1.721202392578125,-0.1697030346563086,-0.016427987709641455,0.17214286555647848
1772807448602134500,1.731134521484375,-0.14068861016128212,0.002347439908981323,0.1675536380700767
1772807448612065500,1.7410654296875,-0.10382864153133704,-0.051396425238251685,0.18706629392206667
1772807448621997300,1.750997314453125,-0.08147880775835364,-0.13109306228756903,0.23483590696528553
1772807448631929300,1.760929443359375,-0.06439794563055037,-0.13522387848198414,0.2799433150619268
1772807448641861400,1.770861328125,-0.08795653413878753,-0.08329787641167641,0.2621675660051405
1772807448651793400,1.78079345703125,-0.14337386718988418,-0.07892039197981357,0.2481457626543939
1772807448661725400,1.790725341796875,-0.16533203476415947,-0.06869885769486427,0.17797522497177123
1772807448671656400,1.800656494140625,-0.13026305947052313,-0.05931202066838741,0.11637933114990591
1772807448681588500,1.81058837890625,-0.12709261274086311,-0.051474166649579996,0.10004939698725938
1772807448691520500,1.8205205078125,-0.09169393056882545,-0.04819090719521046,0.07456380420550704
1772807448701452500,1.83045263671875,-0.08647884453535079,-0.0592559065669775,0.08926642942726612
1772807448711384600,1.840384521484375,-0.1373369433795102,-0.027897476229071617,0.037771073859184975
1772807448721316600,1.850316650390625,-0.18835401391135528,-0.01063771387040615,0.04528773309960961
1772807448731247400,1.860247314453125,-0.15597033217893913,-0.013289105162024497,0.03949278308525681
1772807448741179400,1.870179443359375,-0.07076689614057541,-0.12247136441469192,0.08590542856156826
1772807448751111400,1.880111328125,-0.009818798702955246,-0.16453122150897978,0.1890073449872434
1772807448761043500,1.89004345703125,0.0011526771664619444,-0.15313830535709858,0.27901275621354577
1772807448770975200,1.899975341796875,0.022860651105642317,-0.10885784960389136,0.2938109507642686
1772807448780906500,1.909906494140625,0.01250993748307228,-0.08469839085936545,0.27501827974990006
1772807448790838500,1.919838623046875,-0.005396306085586547,-0.04076338754296303,0.23391586951091883
1772807448800770600,1.9297705078125,-0.010182353052031249,-0.010243161594867706,0.2267056458711624
1772807448810702600,1.93970263671875,0.027660726597439497,-0.024812369695305824,0.2189981402337551
1772807448820634400,1.94963427734375,-0.022982213392388075,-0.02843231375813484,0.25185966861099
1772807448830566400,1.95956640625,-0.031577041524648665,-0.02566168000102043,0.29631182766929265
1772807448840497400,1.969497314453125,-0.029255338845122603,-0.055173605689406394,0.3859408067986369
1772807448850429400,1.979429443359375,-0.07628945895433425,-0.07271744568645953,0.4377076727844774
1772807448860361500,1.989361572265625,-0.020288773057330397,-0.13873860860466955,0.45223158043846484
1772807448870293500,1.99929345703125,-0.012907412368059158,-0.2130681656628847,0.3429538979873061
1772807448880225500,2.0092255859375,0.006177209063898772,-0.18020985215604304,0.22315452926084398
1772807448890157600,2.019157470703125,0.029395605832338332,-0.15831600025594234,0.2066385710068047
1772807448900088600,2.029088623046875,-0.01740589283108711,-0.11988953122794628,0.2069226486451924
1772807448910020400,2.039020263671875,-0.04493102861642837,-0.06369476579725741,0.1789079757772386
1772807448919952400,2.048952392578125,-0.07144961770772934,-0.002691138780117035,0.18553309300541876
1772807448929884400,2.058884521484375,-0.05681086976872757,0.0018447510838508604,0.19942484023571014
1772807448939816400,2.06881640625,-0.029256507888901977,0.008128361397981643,0.23626725494265555
1772807448949748500,2.07874853515625,-0.06574232771052048,-0.052560208320617675,0.217315155582875
1772807448959679500,2.088679443359375,-0.02475565280569717,-0.12764613670408725,0.22305662184432148
1772807448969611500,2.098611572265625,-0.02596095520853996,-0.12386018842458724,0.21168986304700374
1772807448979543600,2.10854345703125,-0.05875497130751609,-0.12725450703799723,0.1567819225564599
1772807448989475800,2.118475830078125,-0.05169860478891059,-0.1244587388396263,0.14940233369916678
1772807448999408000,2.128408203125,-0.06843112840307876,-0.08704875337779522,0.10005699577182531
1772807449009340200,2.138340087890625,-0.043735115096438675,-0.04689794477522373,0.0765402188450098
1772807449019271000,2.14827099609375,-0.00921324315839447,-0.006558920124173164,0.04153261834979057
1772807449029203000,2.158202880859375,-0.005273538222443312,-0.007803951749205589,0.06921908217668533
1772807449039135000,2.168135009765625,0.007974047619104386,-0.018919804525375367,0.06541603663191199
1772807449049067000,2.17806689453125,-0.01567570803761482,-0.08702011180520057,0.11110577466115355
1772807449058999000,2.1879990234375,-0.06739304492645896,-0.0846744254618883,0.10264920422211289
1772807449068931000,2.19793115234375,-0.16426351048350332,-0.06699497638642787,0.08344342236220836
1772807449078861800,2.20786181640625,-0.2055763303364627,-0.07339549107849598,0.0706372784115374
1772807449088794000,2.217794189453125,-0.14546061033606528,-0.08276303888261317,0.08541063078194856
1772807449098726100,2.22772607421875,-0.13084756309390067,-0.07854162179529667,0.11614333043694496
1772807449108658200,2.237658203125,-0.10096912391437217,-0.06648118164539336,0.1632540411800146
1772807449118590200,2.247590087890625,-0.11838203100813552,-0.049347676014900206,0.14291808624640107
1772807449128521000,2.25752099609375,-0.14472645084261893,-0.08746902461647987,0.09816562906727194
1772807449138453000,2.267452880859375,-0.10687164422273636,-0.1468926889657974,0.1324612819008529
1772807449148385000,2.277385009765625,-0.14309095859527587,-0.137128250798583,0.12839958541989327
1772807449158317000,2.287317138671875,-0.15388006363511084,-0.09551847555935382,0.15260843626409767
1772807449168248800,2.297248779296875,-0.17699439724087715,-0.05661503666937351,0.17794672952964902
1772807449178180900,2.307180908203125,-0.16600538571476936,-0.049047816285490986,0.19415990544483064
1772807449188112100,2.317112060546875,-0.14272972406744955,-0.029620646759867666,0.18646262894049287
1772807449198044200,2.327044189453125,-0.1404734604401048,-0.040734745970368386,0.2147938204117119
1772807449207976200,2.33697607421875,-0.09990414329767226,-0.06340718102753162,0.2235625255398452
1772807449217908000,2.346907958984375,-0.07989245188236237,-0.06272095232903957,0.23228636861294508
1772807449227840000,2.356840087890625,-0.07007716031074523,-0.026596915024518965,0.2584638891816139
1772807449237772000,2.36677197265625,-0.031740707653760906,-0.016218728873133657,0.28315687028095127
1772807449247703000,2.376703125,-0.028398411488533018,0.019216157123446462,0.3196829125151038
1772807449257635000,2.386635009765625,-0.05849193645715713,0.03540156824886798,0.3585391512624919
1772807449267566800,2.39656689453125,-0.05657002848386764,0.036411622074246405,0.3650191609315574
1772807449277499000,2.406498779296875,-0.021481179445981977,0.0008048866420984267,0.3873815071262419
1772807449287431000,2.416430908203125,0.014679682737588882,-0.06167056649327278,0.39934579342529175
1772807449297363000,2.426363037109375,0.014915829581022262,-0.09092237994074821,0.41794659512937066
1772807449307294000,2.4362939453125,0.032416410391661335,-0.021067337948083877,0.4044203202106058
1772807449317226000,2.44622607421875,0.045046763950586315,0.01338438223004341,0.4008481608122587
1772807449327158000,2.456157958984375,0.004380407041311264,0.0028109657675027848,0.4172264641612768
1772807449337090000,2.466090087890625,-0.008742109382152558,-0.014465747725963592,0.4254965721175074
1772807449347022000,2.47602197265625,-0.00859948604106903,-0.018752631264925,0.43323739550262685
1772807449356954000,2.4859541015625,0.021204113786981907,-0.005528408032655715,0.41598990810364483
1772807449366884900,2.495884765625,0.10554010335803031,0.01962766053378582,0.3582569733202457
1772807449376817000,2.50581689453125,0.1390150874584913,0.020703765332698822,0.337201471940428
1772807449386749000,2.5157490234375,0.2187672540873289,0.015319734206795691,0.3533941895894706
1772807449396681000,2.525680908203125,0.286356689235568,-0.0006067337214946747,0.2926590042501688
1772807449406613000,2.535613037109375,0.32957799132466314,0.060168929758667944,0.33350787811949845
1772807449416545000,2.545544921875,0.3246569015353918,0.03590074994266033,0.5049272517070174
1772807449426476000,2.55547607421875,0.3485889812648296,-0.057719783040881156,0.6373235055476427
1772807449436408000,2.565407958984375,0.3837070563971996,-0.09805354699492454,0.4868688863165676
1772807449446340000,2.575340087890625,0.38442718736529347,-0.016140402939915657,0.3299235898919403
1772807449456272000,2.58527197265625,0.4639899689018726,0.09479834459125995,0.24336115872636435
1772807449466204000,2.595203857421875,0.542770660150051,0.18570260435342786,0.19613456651866434
1772807449476135000,2.605135009765625,0.6027993046551943,0.12670564098358153,0.15524506837800145
1772807449486067000,2.61506689453125,0.6370312446027994,-0.13290449562370776,0.20710867273658512
1772807449495999000,2.6249990234375,0.6161930392354726,-0.4625847782790661,0.28111484305933115
1772807449505931000,2.634930908203125,0.4871837974846363,-0.7074076801210641,0.3295426277503371
1772807449515863000,2.644863037109375,0.3105038730204105,-0.7589666024446488,0.3415257648803294
1772807449525795000,2.654795166015625,0.09649462711513042,-0.7394324654132127,0.31919498286768794
1772807449535726000,2.66472607421875,-0.02986377133335918,-0.6449474245548248,0.2533807406984269
1772807449545658000,2.674658203125,-0.183771892019175,-0.5062596693545579,0.1554345996007323
1772807449555590000,2.68458984375,-0.3248082927048206,-0.4037298537284136,0.025105653553456068
1772807449565522000,2.69452197265625,-0.4103303114393726,-0.29916122575104237,-0.07304360890090465
1772807449575454000,2.704453857421875,-0.4469733676493168,-0.25434125629365445,-0.19893764124065635
1772807449585386000,2.714385986328125,-0.5193710433294997,-0.23647709830105304,-0.2959169831328094
1772807449595317000,2.72431689453125,-0.6165437523692846,-0.2524731243342161,-0.35904300913140175
1772807449605249000,2.7342490234375,-0.7064034715145826,-0.257488322147727,-0.38819691516235466
1772807449615181000,2.74418115234375,-0.7978092510581016,-0.21526772153377532,-0.41563218070715663
1772807449625113000,2.754113037109375,-0.8151461703062057,-0.26441958271563054,-0.4041777436263859
1772807449635045000,2.764045166015625,-0.7586720034122466,-0.28352643424570556,-0.29801132506355643
1772807449644977200,2.77397705078125,-0.6832908914744854,-0.2116512846022844,-0.14307254615575074
1772807449654908000,2.783907958984375,-0.636142186808586,-0.09095920481979847,-0.07317702602222562
1772807449664840000,2.79383984375,-0.5590548554748297,0.03793547064065933,0.027097704153507946
1772807449674772000,2.80377197265625,-0.4688654659837484,0.15100304689407348,0.07997165459841489
1772807449684704000,2.8137041015625,-0.41435700967218725,0.21943945426046846,0.14372370354086159
1772807449694636000,2.823635986328125,-0.3929974107792601,0.23552315857708453,0.14251169740259648
1772807449704567800,2.83356787109375,-0.3481096367826685,0.20323183130323885,0.15694471190273762
1772807449714499000,2.8434990234375,-0.3099567239990458,0.10570903018414973,0.15991422923281787
1772807449724431000,2.85343115234375,-0.3166226116290316,0.05876432365775108,0.17844123504832385
1772807449734363100,2.863363037109375,-0.35380229546632613,-0.0005073650002479553,0.24032412911802528
1772807449744295200,2.873295166015625,-0.38671500604152675,-0.018259879311919212,0.29607378112971783
1772807449754227000,2.88322705078125,-0.48538639267385003,0.04422317260801792,0.2825410764701664
1772807449764159000,2.893158935546875,-0.5601262840986252,0.11155834073424338,0.24979879055842755
1772807449774090000,2.903090087890625,-0.5477303283840418,0.17348142068386077,0.09217588713318109
1772807449784022000,2.91302197265625,-0.5298503883004189,0.2030249105542898,-0.01714563445970416
1772807449793953800,2.922953857421875,-0.603564443808794,0.18710370332300663,-0.15274126886352896
1772807449803885800,2.9328857421875,-0.6439069755911827,0.17852409102618694,-0.26079014017209406
1772807449813817900,2.94281787109375,-0.6400012003242969,0.15680442664921282,-0.31521526558175683
1772807449823750100,2.952750244140625,-0.6483914275288581,0.11103870077431201,-0.2925539364404976
1772807449833681200,2.96268115234375,-0.5794493721952662,0.10200491496920586,-0.21656068395376205
1772807449843613000,2.972613037109375,-0.47612351082060483,0.08041209184229374,-0.046040889554470776
1772807449853545000,2.982544921875,-0.3734182655623182,-0.02621756031811237,0.04587620051205158
1772807449863477000,2.99247705078125,-0.34693010814189906,-0.10997954711019992,0.1796082330010831
1772807449873409000,3.002408935546875,-0.2584294389227405,-0.11399287440478802,0.237087046892941
1772807449883340000,3.012340087890625,-0.0940337899595499,-0.04638415003418922,0.265108734023571
1772807449893271800,3.022271728515625,0.017881693649291992,-0.010288169780373573,0.2660666192702949
1772807449903203800,3.032203857421875,0.06354110960550606,0.02305880402624607,0.27098303288444875
1772807449913136000,3.04213623046875,0.04271854019872844,0.03161445092558861,0.240833832205832
1772807449923068200,3.052068115234375,0.007521627676486968,0.005897825866937637,0.2741192850835621
1772807449933000200,3.062000244140625,0.038079774482175706,-0.015542437046766281,0.2922735120639205
1772807449942931000,3.071930908203125,0.08918174681849778,-0.027129414466023443,0.3086244890145957
1772807449952863000,3.081863037109375,0.13599080773387104,-0.031332711374759674,0.26572029005065556
1772807449962795000,3.091794921875,0.11443659958429633,-0.13455343187451363,0.21580241293236613
1772807449972727000,3.10172705078125,-0.0015331643840298056,-0.24024141927063464,0.16030439759418366
1772807449982659000,3.1116591796875,-0.12398878324031828,-0.27835224647819995,0.15013152475655078
1772807449992590300,3.12159033203125,-0.1646042502125725,-0.2264268289297819,0.09377017058730125
1772807450002521600,3.131521484375,-0.12856146145071834,-0.1177010812729597,0.02055193577185273
1772807450012453600,3.14145361328125,-0.02238243913464248,-0.02797346407473087,-0.009996493357419967
1772807450022385400,3.151385498046875,0.07318389415442943,0.017459668844938277,-0.01515972133949399
1772807450032317400,3.1613173828125,0.15785777162704615,-0.08035305513143538,-0.039124242033809424
1772807450042249500,3.17124951171875,0.16624978892989456,-0.16614625549018383,-0.04634060315340757
1772807450052181500,3.181181396484375,0.09869885916113853,-0.17618191181421278,-0.017561521784216164
1772807450062112500,3.191112548828125,0.016155600509047508,-0.2365969252884388,0.04856324763894081
1772807450072044300,3.201044189453125,-0.07685293805599212,-0.31446283977925776,0.0900318608418107
1772807450081976300,3.210976318359375,-0.1396989050041884,-0.2929407438009977,0.17346227759197352
1772807450091908400,3.220908447265625,-0.16033610790669917,-0.1548661520630121,0.2235821070231497
1772807450101840400,3.23084033203125,-0.11456212566010654,0.044450551623106,0.21324673710018396
1772807450111771400,3.240771484375,0.016015899777412412,0.17665011384785173,0.15523659281060098
1772807450121703400,3.250703369140625,0.132236387103796,0.21126783824265002,0.09088979284539818
1772807450131635500,3.260635498046875,0.2087819397110492,0.09727379479408263,0.07354658998697995
1772807450141567500,3.2705673828125,0.2171254051644355,-0.1722434033215046,0.05949409923702478
1772807450151499500,3.28049951171875,0.12610358343720435,-0.41527591461539265,0.07409604056328535
1772807450161431600,3.290431640625,-0.040485082058236,-0.508040707552433,0.14261369647234678
1772807450171362300,3.3003623046875,-0.1857183864444494,-0.40663551204204557,0.2464088558591902
1772807450181294300,3.31029443359375,-0.3027092005562037,-0.2509375853300094,0.42061566820815205
1772807450191226400,3.320226318359375,-0.38305304946787655,0.016285948890447616,0.5526838591381907
1772807450201158400,3.330158447265625,-0.24484854773990808,0.060063131296634674,0.08569397776797413
1772807450211090700,3.340090576171875,-0.15280680838041005,-0.0757563749909401,-0.33149156986102457
1772807450221022500,3.3500224609375,-0.2316256396818906,-0.016183657559752464,-0.15754428523108363
1772807450230953500,3.359953369140625,-0.1252607028722763,0.31014497658014295,0.1415619954623282
1772807450240885500,3.369885498046875,-0.06933591348938643,0.22069500727951524,0.1516729089796543
1772807450250817500,3.379817626953125,-0.16403028624951838,-0.17485037094950676,0.07129705749452114
1772807450260749600,3.38974951171875,-0.257954113028571,-0.46285132026076314,0.049611295387148854
1772807450270681300,3.399681396484375,-0.39047107063941655,-0.49633565671145913,0.1543430049717426
1772807450280613400,3.40961328125,-0.44275421558432276,-0.3469938210278749,0.18596081689819693
1772807450290544400,3.41954443359375,-0.4024339686989784,-0.2148977191776037,0.17904197742044925
1772807450300476700,3.4294765625,-0.3670551968038082,-0.0322118322968483,0.11609671481624245
1772807450310408400,3.439408447265625,-0.39092992032282053,0.1201537351220846,0.0860690946906805
1772807450320340500,3.449340576171875,-0.4089402818530798,0.13283143038749695,0.03701192605495453
1772807450330272500,3.4592724609375,-0.3493395804364234,0.0989350060045719,0.07993029967471957
1772807450340204500,3.46920458984375,-0.2568820998828858,0.0201034613519907,0.08448504036962985
1772807450350135600,3.479135498046875,-0.19983393249325454,-0.14486147539913655,0.057050359346717594
1772807450360067300,3.4890673828125,-0.1811608692705631,-0.25864918262064457,0.09099266869798302
1772807450369999400,3.498999267578125,-0.20859255461879073,-0.3023649902284145,0.14521584179475902
1772807450379931400,3.508931396484375,-0.24298976813070475,-0.3230710936486721,0.16243761023059486
1772807450389863400,3.518863525390625,-0.3054412558685988,-0.19795126055181025,0.152318805667758
1772807450399794700,3.528794677734375,-0.30232524273991584,-0.07668985644876956,0.1879474606707692
1772807450409726500,3.5387265625,-0.24475918895602225,-0.05713000045418739,0.1908078185379505
1772807450419658500,3.548658447265625,-0.20155198845751582,-0.03645663025975227,0.1678594891488552
1772807450429590500,3.558590576171875,-0.16908230894207954,-0.042186698344349856,0.13253449326753616
1772807450439522600,3.5685224609375,-0.20134207203388213,-0.05417816491127014,0.16713877365887164
1772807450449454600,3.57845458984375,-0.21588088499605654,-0.08696984292268753,0.21085238930955527
1772807450459385300,3.58838525390625,-0.21687932144887745,-0.10663549737930297,0.22461364202797413
1772807450469317400,3.5983173828125,-0.1954179426819086,-0.11840484562814235,0.2473451137959957
1772807450479249400,3.60824951171875,-0.13352226219587027,-0.1382102008163929,0.245620335830003
1772807450489181400,3.618181396484375,-0.10646423246562481,-0.13633330102860927,0.2663984815731644
1772807450499113500,3.628113525390625,-0.12282609613649546,-0.12108838562369346,0.26713439463227984
1772807450509045200,3.638045166015625,-0.11810659333392977,-0.11247604010105132,0.29720190837681293
1772807450518976500,3.6479765625,-0.09448971703350544,-0.11419979515373706,0.29700287867337466
1772807450528908500,3.657908447265625,-0.09485855034589767,-0.09384031321406364,0.2951481907173991
1772807450538840600,3.667840576171875,-0.11029109727740287,-0.09968436306715012,0.2605650992445648
1772807450548772600,3.677772705078125,-0.09856558817028999,-0.11144786609709262,0.20003201234862208
1772807450558704400,3.687704345703125,-0.08425532326698303,-0.10897066232860088,0.15613529521599412
1772807450568636400,3.697636474609375,-0.11434358753859997,-0.1008218426644802,0.12665288788303733
1772807450578567400,3.7075673828125,-0.16586984970159827,-0.10691022266745567,0.14625029940903186
1772807450588499500,3.71749951171875,-0.1368944420427084,-0.1204027414470911,0.13166764730513095
1772807450598431200,3.72743115234375,-0.14042261616885662,-0.11598726309239864,0.1330707921013236
1772807450608363300,3.73736328125,-0.09519465043246746,-0.10381401021778583,0.13549787311777473
1772807450618295600,3.747295654296875,-0.09665478611290454,-0.08530570910274982,0.1425767254628241
1772807450628227600,3.7572275390625,-0.1009177042543888,-0.09028992725610732,0.10166530775129795
1772807450638158600,3.76715869140625,-0.1006044005215168,-0.10562661259770392,0.053853170740604396
1772807450648090400,3.77709033203125,-0.09531389289796352,-0.0626496406584978,0.017320991026610135
1772807450658022400,3.7870224609375,-0.11580554984994232,-0.0327694661796093,-0.05447437137886881
1772807450667954400,3.796954345703125,-0.1352216134596616,-0.030839374899864196,-0.04482888341620564
1772807450677886500,3.806886474609375,-0.11891812891252339,-0.03013034984767437,-0.06165376148894429
1772807450687818500,3.816818603515625,-0.14254333464987576,0.0054787236720323556,-0.04261266867145896
1772807450697749500,3.82674951171875,-0.1847334670603275,-0.040434301719069476,-0.010298691174387932
1772807450707681500,3.836681640625,-0.18374262939207256,-0.08573767077922821,-0.027190058612078426
1772807450717613600,3.846613525390625,-0.09621288756430149,-0.07223872225880622,0.014056874664127826
1772807450727545600,3.856545654296875,-0.029149010660126803,-0.0820867470562458,0.04354147395417094
1772807450737477600,3.8664775390625,0.0058732759475708,-0.05974924304187298,0.06628916620463132
1772807450747409700,3.87640966796875,0.010885551151633262,-0.04228022184669971,0.06318798531889915
1772807450757340400,3.88634033203125,-0.06183730136230588,-0.002461421677470207,0.05511252315193414
1772807450767272400,3.8962724609375,-0.06474398258924484,0.004922258833050728,0.05281593664735555
1772807450777204500,3.90620458984375,-0.09597031098008155,-0.03088672117292881,0.08029051128923892
1772807450787136500,3.916136474609375,-0.14244688853807747,-0.05535071582198143,0.11754150679707527
1772807450797067500,3.926067626953125,-0.15369243210852146,-0.022755437165498733,0.14409385202750563
1772807450806999600,3.93599951171875,-0.16848894615881144,0.001183072304725647,0.13932269210293888
1772807450816931600,3.945931640625,-0.19086166761703788,0.0020966800183057784,0.1556653396166861
1772807450826863600,3.955863525390625,-0.1688257038325071,-0.022944237735867498,0.15382000401094556
1772807450836794400,3.96579443359375,-0.14462715518660843,-0.033790625920891756,0.13462065189182756
1772807450846726400,3.975726318359375,-0.11704875484406947,-0.04095920237600803,0.15379443117827177
1772807450856658400,3.985658447265625,-0.09752097448818385,-0.025987843215465545,0.1763784572996199
1772807450866590500,3.995590576171875,-0.08122508872561156,-0.03966273282468319,0.19596388612687587
1772807450876522500,4.0055224609375,-0.06611110622398556,-0.035737668335437775,0.21774901695549487
1772807450886454500,4.01545458984375,-0.04247136050462723,-0.06617723026275635,0.2500518885366618
1772807450896385500,4.025385498046875,-0.12276705942563712,-0.2042325327783823,0.29246698880940675
1772807450906317600,4.035317626953125,-0.19979250450432298,-0.062162149402499194,0.27589506258443
1772807450916249600,4.04524951171875,-0.14135427099578082,-0.028920974057912826,0.2575552499040961
1772807450926181600,4.055181640625,-0.10507248584628105,-0.07882219230234623,0.2489167470268905
1772807450936113400,4.065113525390625,-0.0687450349241495,-0.11226502769887446,0.2271532435081899
1772807450946045400,4.07504541015625,-0.0932797567218542,-0.08078150967657566,0.19859847241416573
1772807450955976400,4.0849765625,-0.1345621266376227,-0.03195931884050369,0.16823036828786134
1772807450965908500,4.094908447265625,-0.1615588546346873,-0.03464168979227543,0.16531009692698717
1772807450975840500,4.104840576171875,-0.1149216796875,-0.07495324191451072,0.182607414817065
1772807450985772300,4.114772216796875,-0.0882219618756324,-0.10352817901372909,0.18676614193171262
1772807450995704600,4.12470458984375,-0.06816869634091853,-0.10853168638944626,0.15921864818409084
1772807451005636600,4.13463671875,-0.08964403056800364,-0.09805705412626266,0.13717296672314405
1772807451015567600,4.144567626953125,-0.15102942344434558,-0.0920686273664236,0.19086963172778487
1772807451025499600,4.154499755859375,-0.18920688614733516,-0.07865852617323398,0.21604645082131027
1772807451035431700,4.164431640625,-0.12142908882014453,-0.1230687457859516,0.1785758212134242
1772807451045363700,4.17436376953125,-0.09546871813349425,-0.11610592103600502,0.17628405701443553
1772807451055295700,4.184295654296875,-0.10353928492963313,-0.0754945091843605,0.15596256899759173
1772807451065227500,4.1942275390625,-0.12975859881341456,-0.054286885982751845,0.113405429905653
1772807451075158500,4.204158447265625,-0.13357728031873703,-0.04706862516701221,0.12308920405209063
1772807451085090600,4.214090576171875,-0.09479074580669403,-0.03517535827755928,0.1321107148975134
1772807451095022600,4.224022705078125,-0.0651893152039498,-0.07106617134809494,0.13161284837797282
1772807451104954400,4.233954345703125,-0.055848728471994395,-0.0859340701341629,0.1249332244835794
1772807451114886400,4.243886474609375,-0.03144260149002075,-0.06347498556673527,0.13053937392756343
1772807451124818700,4.253818603515625,-0.013709376400709152,-0.060686816152930256,0.13612506510540842
1772807451134749700,4.263749755859375,-0.010536664648726582,-0.08383797463774681,0.14642448693215845
1772807451144681700,4.273681640625,-0.035492753663659095,-0.08335749764442443,0.13815320993214844
1772807451154613500,4.283613525390625,-0.03880991538763046,-0.07684417022764682,0.1408931562900543
1772807451164546600,4.293546630859375,-0.017356208470463753,-0.07009528048932552,0.16555691129490732
1772807451174478600,4.303478515625,-0.0024299305606633424,-0.08494155196547508,0.19676395046338438
1772807451184410600,4.31341064453125,-0.0013104980766773223,-0.07225158174037932,0.2150394657358527
1772807451194342700,4.3233427734375,-0.019925839762762187,-0.07583060927093029,0.23608064632937312
1772807451204274700,4.333274658203125,-0.09884097104556858,-0.0840209299892187,0.27979148550108074
1772807451214205400,4.343205322265625,-0.14282324756979942,-0.08126900093257426,0.24898674352318048
1772807451224137500,4.353137451171875,-0.1874930679667741,-0.08926993655860424,0.2067149972438812
1772807451234069500,4.363069580078125,-0.18181845639646052,-0.10974866096377373,0.17326617049798368
1772807451244001500,4.37300146484375,-0.15449797633774578,-0.14065116422772406,0.14822203787341712
1772807451253933600,4.38293359375,-0.12153379130363463,-0.18620529317855833,0.1578311393484473
1772807451263865300,4.392865234375,-0.09945581500828266,-0.1990560069233179,0.13431085529029368
1772807451273796600,4.402796630859375,-0.07183372165448963,-0.17005612241029738,0.10084361610487103
1772807451283728600,4.412728759765625,-0.1051099683124572,-0.12325520826876163,0.07068871633782982
1772807451293660700,4.42266064453125,-0.13008710011541844,-0.07527472895383834,0.0550872425802052
1772807451303592700,4.4325927734375,-0.1624661787379533,-0.10315934570133685,0.03900149243697524
1772807451313524500,4.4425244140625,-0.1897148356694728,-0.11606208189427852,0.04389744778499007
1772807451323456500,4.45245654296875,-0.20310608603172003,-0.10063304209411143,0.06325359790101646
1772807451333387500,4.462387451171875,-0.19783318713009357,-0.12743980047702788,0.07440349907726049
1772807451343319600,4.472319580078125,-0.19217625734694302,-0.13371288939714432,0.11149068232551217
1772807451353251600,4.48225146484375,-0.1861808163244277,-0.1730003591686487,0.14428849781677125
1772807451363183600,4.49218359375,-0.17876367193572223,-0.16540391269028185,0.13889306851401925
1772807451373115600,4.50211572265625,-0.18884557855427264,-0.10403028331696987,0.13957622847259044
1772807451383047700,4.512047607421875,-0.1692244208265096,-0.05907996547818183,0.1330646546214819
1772807451392978700,4.521978759765625,-0.1439309165507555,-0.03114507984817028,0.10503200770542025
1772807451402910500,4.531910400390625,-0.157826170912385,-0.036437925559282304,0.053517509045451876
1772807451412842500,4.541842529296875,-0.1875309888243675,-0.07817921822369098,0.02478738138452172
1772807451422774500,4.5517744140625,-0.22912089031934738,-0.11199848571717738,0.05787482747212052
1772807451432706600,4.56170654296875,-0.2764636197200045,-0.14801964716911314,0.09057020550221204
1772807451442638600,4.571638671875,-0.29915662264116105,-0.11996902620494365,0.0805645059250295
1772807451452569600,4.581569580078125,-0.29909802432172,-0.0753811119377613,0.03708279933407903
1772807451462501600,4.591501708984375,-0.3231055439075455,-0.013510054436326026,0.05523074270412325
1772807451472433700,4.60143359375,-0.33848424175996333,0.005778583401441574,0.04216360972970724
1772807451482365700,4.61136572265625,-0.34619244151711465,-0.024386837759613988,-0.0054104807414114475
1772807451492297700,4.621297607421875,-0.36860425287671383,-0.06276829860210419,-0.03630655426457524
1772807451502229800,4.631229736328125,-0.4050525902321562,-0.08352993160188198,-0.058144730454683304
1772807451512160500,4.641160400390625,-0.4176578413158655,-0.13625146796405316,-0.04938698511198163
1772807451522092500,4.651092529296875,-0.4290221889603883,-0.1222018998235464,-0.03434709075987339
1772807451532024600,4.661024658203125,-0.44458669170849024,-0.08863222317695617,-0.04258636518642306
1772807451541956600,4.67095654296875,-0.4292290366441011,-0.035573417684435844,-0.028639526768028733
1772807451551888600,4.680888671875,-0.4056043423634022,-0.022436872735619545,-0.03882335939109325
1772807451561820400,4.6908203125,-0.3727793831368908,-0.029480361506342888,-0.05565349816083908
1772807451571751700,4.700751708984375,-0.35214813505113124,-0.022067454901337623,-0.07887816027328372
1772807451581683700,4.71068359375,-0.3382329704126343,-0.06386252357959747,-0.07854863605797291
1772807451591615700,4.72061572265625,-0.2777543536502868,-0.07907295219302177,-0.055134296592324966
1772807451601547500,4.730547607421875,-0.30289979122485966,-0.09465572125017642,-0.04489259630218148
1772807451611479600,4.7404794921875,-0.3321790406685322,-0.08711246626377105,-0.12137874687239528
1772807451621411600,4.75041162109375,-0.36615496002845466,-0.03930675899386406,-0.1349753105483949
1772807451631342600,4.760342529296875,-0.4292909594317898,-0.04029109385609626,-0.07406169990226626
1772807451641274600,4.770274658203125,-0.4577700714737177,-0.07118132216036319,-0.00032777064964175225
1772807451651206400,4.780206298828125,-0.44418578275740145,-0.08262801432609558,-0.009981149657815694
1772807451661138400,4.790138427734375,-0.3959317471981048,-0.08198094859421252,0.03233560480698943
1772807451671070500,4.800070556640625,-0.3239332269033417,-0.06619301235377788,0.08100918095260858
1772807451681001700,4.810001708984375,-0.24251520942151544,-0.11786416288018225,0.12373071682602166
1772807451690933800,4.819933837890625,-0.23634148922264575,-0.14138824633061886,0.16026932628080248
1772807451700865500,4.829865478515625,-0.25055004731714725,-0.13858195673823356,0.2197515889495611
1772807451710797600,4.839797607421875,-0.21542667495515197,-0.0990881507396698,0.2546829093381762
1772807451720729600,4.8497294921875,-0.1594154859304428,-0.07554360902309418,0.31222061381042004
1772807451730661600,4.85966162109375,-0.1707961636552587,-0.010461188259720802,0.4091263059444725
1772807451740592400,4.86959228515625,-0.21741518189124762,0.01268120239675045,0.46275662771463394
1772807451750524400,4.8795244140625,-0.17962945845220238,-0.041348493954539295,0.46031113425865766
1772807451760456400,4.88945654296875,-0.16081541585624218,-0.08250877186059952,0.45021644122377036
1772807451770388500,4.899388427734375,-0.1591734756018035,-0.06817687964737415,0.43248263161256906
1772807451780320800,4.90932080078125,-0.13890106915738432,-0.011485270610451698,0.4006394864976406
1772807451790252800,4.919252685546875,-0.13497366658058016,0.10740005201101302,0.37128289750143884
1772807451800183600,4.92918359375,-0.08201249450994655,0.15995792224407196,0.3540383327119052
1772807451810115600,4.939115478515625,-0.0012596446722745894,0.15348317327201366,0.3196488641150296
1772807451820047600,4.949047607421875,0.05146658613132313,0.144963182207942,0.3138118285246193
1772807451829979600,4.958979736328125,0.09242343215346335,0.1496416954129934,0.2870714133761823
1772807451839911700,4.96891162109375,0.0620183935502544,0.15638123280107974,0.24005846391916275
1772807451849843500,4.978843505859375,0.05017181534674019,0.16255846013128755,0.12242153392359614
1772807451859774500,4.9887744140625,0.018705284991860388,0.12393792983591556,-0.010056699112057685
1772807451869706800,4.998706787109375,0.05087557970192283,-0.044369303080439564,-0.14617416543290018
1772807451879638800,5.008638671875,0.023387268795631824,-0.1762257509559393,-0.1858122022077441
1772807451889570600,5.018570556640625,-0.03948975087795406,-0.15174246708452702,-0.2304819495394826
1772807451899502600,5.028502685546875,-0.038341695087682454,-0.07479191387295722,-0.28000308242514726
1772807451909434600,5.0384345703125,-0.05746025532186031,-0.03855740193128586,-0.2685293561220169
1772807451919366700,5.04836669921875,-0.06656301470994949,0.012018354573845863,-0.22629750346168875
1772807451929297700,5.058297607421875,-0.03787354785297066,0.020799042400717734,-0.22315701347887515
1772807451939229400,5.0682294921875,0.08970367006706073,-0.019068273085355757,-0.2588822607241571
1772807451949161500,5.078161376953125,0.1594949809074402,-0.06424538541734218,-0.23235592671781777
1772807451959093500,5.088093505859375,0.17032441795766354,-0.07830138329863548,-0.11237024163901806
1772807451969025500,5.098025634765625,0.15984865318331867,-0.07419687058925628,0.003784340844303369
1772807451978957600,5.10795751953125,0.15317520330138504,-0.07089432191252708,0.04689969834089279
1772807451988888800,5.117888916015625,0.17287004731986672,-0.07612170117199421,0.03403860933259129
1772807451998820600,5.127820556640625,0.15878306977842002,-0.11029168179929255,0.06354001362696289
1772807452008752600,5.137752685546875,0.1794493891775608,-0.1575286492705345,0.15799670517370104
1772807452018684700,5.1476845703125,0.2325747936328873,-0.14920798017084597,0.21951018140912054
1772807452028616700,5.15761669921875,0.23814536030683664,-0.14018822289109228,0.2664177707955241
1772807452038548700,5.167548828125,0.19305355163812637,-0.13443828106224537,0.2554777129776776
1772807452048479500,5.1774794921875,0.16107731819543986,-0.11003975286483764,0.23427228173315523
1772807452058411500,5.18741162109375,0.13521456266436724,-0.07605974185168743,0.25954569306895137
1772807452068343600,5.197343505859375,0.11483575496971607,-0.058555064821243286,0.32281025075539943
1772807452078275600,5.207275634765625,0.11616959738936275,-0.07855038962364197,0.3244244079537689
1772807452088207600,5.21720751953125,0.10930380327310413,-0.09056231445670128,0.29033976752236484
1772807452098138600,5.227138671875,0.04114153667297214,-0.09881225640773772,0.25128084580972787
1772807452108070700,5.237070556640625,-0.006375380250811576,-0.1038368065714836,0.2248382445640862
1772807452118002700,5.247002685546875,-0.06287880977187306,-0.11434651014804839,0.24503888268023727
1772807452127934700,5.256934814453125,-0.1132306213280186,-0.12003566170036792,0.2451968497209251
1772807452137866800,5.26686669921875,-0.14992398295309395,-0.13927052352428435,0.26564371768310663
1772807452147798500,5.276798583984375,-0.1458259365171194,-0.09129588942825793,0.27231398922726513
1772807452157729500,5.2867294921875,-0.14701247942056506,-0.09773498256504536,0.24686653649881482
1772807452167661600,5.29666162109375,-0.17437866178452968,-0.07393734287023544,0.23597908565104006
1772807452177593600,5.306593505859375,-0.15380056865811348,-0.06465104360878467,0.20993732029125092
1772807452187525600,5.316525634765625,-0.15130118959043173,-0.09309913945794104,0.20245047166720032
1772807452197457700,5.326457763671875,-0.16259466395583003,-0.13230419164299964,0.18571590222641823
1772807452207389700,5.3363896484375,-0.16519176777694372,-0.1549240197300911,0.1862704673692584
1772807452217320700,5.34632080078125,-0.14344397328402847,-0.10324585494101048,0.21497706802412866
1772807452227252700,5.356252685546875,-0.16219017480816691,-0.06011982991993427,0.1834654929511249
1772807452237184500,5.3661845703125,-0.23110764368977396,-0.10637889226973056,0.18985504785776136
1772807452247116500,5.376116455078125,-0.23996081223096696,-0.1456733763039112,0.1913952630370855
1772807452257048600,5.386048583984375,-0.23690259370412675,-0.1595943496286869,0.18327800755500792
1772807452266980600,5.395980712890625,-0.19727727028038353,-0.10578326446413994,0.1876699589036405
1772807452276911600,5.40591162109375,-0.19404256267547607,-0.04555120634138584,0.17675708135366439
1772807452286843600,5.41584375,-0.1923860276401043,-0.004893617260456085,0.14835048655867575
1772807452296775700,5.425775634765625,-0.21969722841382025,0.00957856020629406,0.11969386252537369
1772807452306707700,5.435707763671875,-0.20130758524239062,-0.022023615759611127,0.10478066329285501
1772807452316639700,5.4456396484375,-0.2040279135843739,-0.04745908578932285,0.13387597100436688
1772807452326571800,5.45557177734375,-0.22279519442915915,-0.09425707732141017,0.17268720156624912
1772807452336502500,5.46550244140625,-0.19242402156293392,-0.1399906544923782,0.17341595423221587
1772807452346434600,5.4754345703125,-0.15119539112839847,-0.1506844824641943,0.19080051201432943
1772807452356366600,5.48536669921875,-0.1243628407170996,-0.12750117527544497,0.21139307205751537
1772807452366298600,5.495298583984375,-0.12992748910691587,-0.09559270983934402,0.1938403181016445
1772807452376230700,5.505230712890625,-0.1889998923331499,-0.10343407098948955,0.16173939883336425
1772807452386162400,5.515162353515625,-0.21816811915040016,-0.10234802931845187,0.17004574714675544
1772807452396093700,5.52509375,-0.20351010025534777,-0.09897592253684998,0.20155001569613812
1772807452406025700,5.535025634765625,-0.19061083466112613,-0.11434358753859997,0.21756270060315727
1772807452415957800,5.544957763671875,-0.17726506740842013,-0.12770225080549716,0.2247898753777146
1772807452425889800,5.554889892578125,-0.21301438964903355,-0.0929968481272459,0.20625965469181537
1772807452435821600,5.564821533203125,-0.256442027965188,-0.012317629781365394,0.2069781782247126
1772807452445753600,5.574753662109375,-0.25446111981365827,0.06077157182693481,0.1969692637771368
1772807452455684600,5.5846845703125,-0.22160160073041915,0.037657822743058206,0.19115926232412456
1772807452465616600,5.59461669921875,-0.1411860017567873,-0.06671908205449581,0.19535218396931886
1772807452475548700,5.604548583984375,-0.06072305651009082,-0.14407120180428026,0.20010697728097437
1772807452485480400,5.61448046875,-0.029859131690859794,-0.14092939664721488,0.19117665185034274
1772807452495412500,5.62441259765625,-0.09598371845092624,-0.13602058181762694,0.19486060106009243
1772807452505344500,5.634344482421875,-0.16520809785723686,-0.07811024464070797,0.15265768223330378
1772807452515275800,5.64427587890625,-0.17326459959540516,-0.0612426964700222,0.09630714171901344
1772807452525207600,5.65420751953125,-0.1920019967585802,-0.06016016193032264,0.07488163798302412
1772807452535139600,5.6641396484375,-0.1931792603770271,-0.07243044543862343,0.045216859820485115
1772807452545071600,5.674071533203125,-0.20612926977779716,-0.05357727640867233,-0.029131109677255154
1772807452555003600,5.684003662109375,-0.21828089534249157,-0.03272854964733123,-0.07163958732187747
1772807452564935700,5.693935791015625,-0.18954758934378624,-0.02211070952117443,-0.11428630439341067
1772807452574866400,5.703866455078125,-0.12426347199585289,-0.008545710027217865,-0.10006444842591881
1772807452584798500,5.713798583984375,-0.10284658995773642,-0.03817395557165146,-0.04463204566985368
1772807452594730500,5.72373046875,-0.09324589098487049,-0.09303776465952396,-0.012546908492594957
1772807452604662800,5.733662841796875,-0.0974842226743698,-0.07197510288655758,0.01785582855567336
1772807452614594800,5.7435947265625,-0.07521572877559811,-0.04800210662484169,0.039365941835194825
1772807452624526800,5.75352685546875,-0.09798808054327965,-0.059691375374794006,0.08570712951049209
1772807452634457600,5.76345751953125,-0.13731412875950336,-0.08035013252198696,0.13525032809749246
1772807452644389600,5.7733896484375,-0.16342183549497274,-0.09689385556578635,0.14594664028733967
1772807452654321700,5.78332177734375,-0.13551091526243836,-0.08702712606787681,0.17942542378008364
1772807452664253700,5.793253662109375,-0.10070263673160225,-0.09726970314085483,0.2230737191095948
1772807452674185500,5.803185546875,-0.08670739259421825,-0.09906476986408233,0.22494535820037126
1772807452684117500,5.813117431640625,-0.14110767582356928,-0.07612228569388389,0.20661548239216207
1772807452694048800,5.823048828125,-0.1675765805542469,-0.05784136359393596,0.23164339453428984
1772807452703980800,5.832980712890625,-0.17460604079961775,-0.06879588832855224,0.22464783655852077
1772807452713912800,5.842912841796875,-0.16372341225743292,-0.1396650757998228,0.20928440934047102
1772807452723844600,5.8528447265625,-0.1556423971325159,-0.18231354643702505,0.21984569697380066
1772807452733776600,5.862776611328125,-0.14390461306571958,-0.17004735458195208,0.19285408354327083
1772807452743708700,5.872708740234375,-0.1414507901728153,-0.10251695614457129,0.20307050326168535
1772807452753639700,5.8826396484375,-0.19633856465816496,-0.05432078825235367,0.19366043149009346
1772807452763571700,5.89257177734375,-0.24744451904986053,-0.07306932786405086,0.17258344893082975
1772807452773503500,5.90250341796875,-0.24004969609081744,-0.07563596348166465,0.18655176852867006
1772807452783435500,5.912435546875,-0.23069091611504552,-0.06948679320216178,0.19414675370231269
1772807452793367600,5.922367431640625,-0.1788168999603018,-0.060441901481151576,0.22507234558090566
1772807452803299600,5.932299560546875,-0.15481526212599128,-0.0606716185837984,0.2682648599669337
1772807452813230600,5.942230712890625,-0.14933010871317237,-0.08012509159445762,0.2720285964146256
1772807452823162600,5.95216259765625,-0.18083236796855925,-0.09326455915272236,0.28107173456996676
1772807452833094700,5.9620947265625,-0.1707271900722757,-0.07958733145594596,0.21711934074983
1772807452843026700,5.972026611328125,-0.14985508243534712,-0.05361702389717102,0.18017551149502395
1772807452852958700,5.981958740234375,-0.14453176852073518,-0.05982406184375286,0.16747092822268606
1772807452862890800,5.991890869140625,-0.1546966041823849,-0.06854688200354575,0.1394793439693749
1772807452872821500,6.001821533203125,-0.17642627849671988,-0.05375146393179893,0.1106646067649126
1772807452882753500,6.01175341796875,-0.14884849920868873,-0.06673194153606891,0.125146574973315
1772807452892685600,6.021685546875,-0.14355799158513546,-0.09555354687273501,0.12848711757287382
1772807452902617600,6.03161767578125,-0.1624350894799456,-0.11436872197985648,0.13249927582368254
1772807452912549600,6.041549560546875,-0.1429986041367054,-0.06842530145049094,0.1315269236601889
1772807452922481700,6.051481689453125,-0.13866141518261282,-0.036983284482359886,0.12232128841951488
1772807452932412700,6.06141259765625,-0.14004848562683908,-0.03712941495478153,0.11546645408868789
1772807452942344700,6.0713447265625,-0.16599369527697563,-0.10182254413962363,0.10833134151175618
1772807452952276700,6.08127685546875,-0.16533435458540915,-0.07449965292811393,0.08109408275708556
1772807452962208800,6.091208740234375,-0.12229016262888907,-0.04042670293450355,0.04177840980440378
1772807452972140500,6.101140625,-0.10837152739167213,-0.04300912064313888,0.01497428176999092
1772807452982072600,6.111072509765625,-0.09701777420639991,-0.054691959652304646,0.022958996913582084
1772807452992004000,6.121004150390625,-0.128624078358151,-0.05104103592932224,-0.00986278397515416
1772807453001936100,6.13093603515625,-0.12521631574127823,-0.05971066459715366,0.015084902537614107
1772807453011868200,6.1408681640625,-0.11979366963803767,-0.052473699080944056,0.03814282978102564
1772807453021800000,6.150800048828125,-0.1143816179940477,-0.038059389281272886,0.08061258285045624
1772807453031732000,6.16073193359375,-0.11954170417096466,-0.07173369534611701,0.12898936800658703
1772807453041664000,6.1706640625,-0.14094221959616987,-0.09018120618462562,0.15720730836167932
1772807453051595300,6.18059521484375,-0.09089837801065295,-0.11214753879904746,0.14165581122562287
1772807453061527000,6.190527099609375,-0.06606445407066494,-0.09666355394124984,0.1756196017563343
1772807453071459000,6.200458984375,-0.05622044786121696,-0.06449906791746617,0.20415479136705397
1772807453081391000,6.21039111328125,-0.028698271217942235,-0.05304945314228535,0.198846017434448
1772807453091323100,6.2203232421875,-0.011128675725124776,-0.08108487653732299,0.20464096744880078
1772807453101255200,6.230255126953125,-0.030431963142752646,-0.08974339928925038,0.21384499525427816
1772807453111186000,6.24018603515625,-0.05191252153422683,-0.07271043142378329,0.21469211360290646
1772807453121118000,6.250117919921875,-0.09324347983207554,-0.09092062637507915,0.22781579907014965
1772807453131050000,6.260050048828125,-0.08497896136641502,-0.10080430700778961,0.22511501567885278
1772807453140982300,6.269982177734375,-0.0638438188791275,-0.12108546301424503,0.2108450827859342
1772807453150914300,6.279914306640625,-0.06892857479751109,-0.11503507693409919,0.20692907838597893
1772807453160846300,6.289846435546875,-0.06642039136886596,-0.08535071728825569,0.20585867267549038
1772807453170777000,6.299777099609375,-0.0788935405055061,-0.056685763818025585,0.18626608345508575
1772807453180709000,6.309709228515625,-0.09574706015083938,-0.06988835974037647,0.1607372360534966
1772807453190641200,6.31964111328125,-0.12911737830042838,-0.06066635788679123,0.14850290064141153
1772807453200573200,6.3295732421875,-0.1700900246798992,-0.05461889441609382,0.12746844204962252
1772807453210505200,6.339505126953125,-0.18089779788758606,-0.04859890347421169,0.11386004180535673
1772807453220437000,6.34943701171875,-0.16123974221553652,-0.05502221451997757,0.14798194550722837
1772807453230368300,6.3593681640625,-0.17425704469885675,-0.10945464645326138,0.1476109202377498
1772807453240300300,6.36930029296875,-0.15407525741364805,-0.10836275956332683,0.12325170113742351
1772807453250232300,6.379232421875,-0.1700642691841349,-0.09800444715619086,0.14399623687192797
1772807453260164000,6.3891640625,-0.16601528605427593,-0.08050853795409202,0.1563465998791158
1772807453270096100,6.39909619140625,-0.20345332856681198,-0.08547931210398674,0.14437208444699645
1772807453280028200,6.409028076171875,-0.23503044315669686,-0.057823827937245366,0.11729922247380017
1772807453289959200,6.418959228515625,-0.22905308578014372,-0.02418283962011337,0.12103051795661449
1772807453299891200,6.42889111328125,-0.17411734396722167,-0.036787469649314876,0.11503303110748529
1772807453309823000,6.438822998046875,-0.17615330677423624,-0.04559972165822983,0.10771554770097136
1772807453319755000,6.448755126953125,-0.14649989025592802,-0.052578913021087643,0.0888869285903871
1772807453329687000,6.45868701171875,-0.13819441872537136,-0.06115618723034858,0.10001359502151608
1772807453339619000,6.468619140625,-0.1277841204026714,-0.06359305898845195,0.11931173133999108
1772807453349550300,6.47855029296875,-0.12428341880533844,-0.05664776989519596,0.11187076768428086
1772807453359482000,6.488482177734375,-0.10080839866101741,-0.06351531757712364,0.09479176872000097
1772807453369414100,6.4984140625,-0.0858989622881636,-0.06324877559542656,0.10625643493384122
1772807453379346200,6.50834619140625,-0.0995627825140953,-0.05747545289099216,0.14439561145305632
1772807453389278200,6.5182783203125,-0.10547346786260604,-0.05638298147916793,0.15917700099945067
1772807453399210200,6.528210205078125,-0.06637655222713947,-0.06843290023505687,0.1628786319963634
1772807453409141000,6.53814111328125,-0.06441895188596099,-0.06608955197930336,0.15294497474208474
1772807453419073000,6.548072998046875,-0.055877954566478726,-0.0628939708083868,0.14720906143859028
1772807453429005000,6.558005126953125,-0.07469955941438675,-0.07300152332484722,0.15475699260011314
1772807453438937000,6.56793701171875,-0.061376588515378534,-0.07240005030035972,0.14270122862532733
1772807453448869000,6.577869140625,-0.07534428705871105,-0.0952583633184433,0.15634411566108464
1772807453458801200,6.58780126953125,-0.08314648524224758,-0.09593465514481067,0.13722922695502637
1772807453468732200,6.597732177734375,-0.08483462099228053,-0.11280454140305518,0.12175649414360523
1772807453478664200,6.607664306640625,-0.0877285158028826,-0.1392985805749893,0.09886369433403014
1772807453488596200,6.61759619140625,-0.08331300091557205,-0.1191127016365528,0.07633592844456434
1772807453498528300,6.6275283203125,-0.08119125952124595,-0.10136544802188872,0.07682356583103538
1772807453508460000,6.6374599609375,-0.08279986376166343,-0.09709785370528698,0.08703443259149789
1772807453518392000,6.64739208984375,-0.10591887354254723,-0.07037760456204414,0.06500555613487959
1772807453528323000,6.657322998046875,-0.10984627611935138,-0.08784545671343803,0.07577727164849639
1772807453538255000,6.667255126953125,-0.06888415113389491,-0.08526070091724396,0.07611030299514532
1772807453548187100,6.677187255859375,-0.061044507016800344,-0.07385317171812057,0.07328282448425888
1772807453558119200,6.687119140625,-0.06391746863722801,-0.05604571234881878,0.06410188529342413
1772807453568051200,6.69705126953125,-0.08816281556691974,-0.046800914141535754,0.06655439301207661
1772807453577983200,6.706983154296875,-0.09262743029296398,-0.049828737530112265,0.07460223651975392
1772807453587915300,6.716915283203125,-0.11624500071313232,-0.06737433109283447,0.07290639238730072
1772807453597846000,6.726845947265625,-0.10941197635531424,-0.07580664387345314,0.0782563751131296
1772807453607778000,6.736778076171875,-0.12345745284259318,-0.06746551650762557,0.07202741759568453
1772807453617710000,6.7467099609375,-0.10983688723649829,-0.06401040761768817,0.0914475728586316
1772807453627642000,6.75664208984375,-0.11607906956169754,-0.08358721474707126,0.1059099595837295
1772807453637574100,6.76657421875,-0.11986439678668975,-0.07451601954102516,0.0993440251968801
1772807453647506200,6.776506103515625,-0.13272267278339714,-0.04822948563992977,0.11882234038785099
1772807453657437200,6.786437255859375,-0.11504910545945167,-0.05694119988381862,0.12580094722881913
1772807453667369200,6.796369140625,-0.09937807359695434,-0.051021162185072896,0.13914353614374994
1772807453677301200,6.80630126953125,-0.10535185077693313,-0.08940613015890121,0.14475348498001694
1772807453687233300,6.8162333984375,-0.11008362853918224,-0.09888064546883106,0.12555252542570233
1772807453697165000,6.8261650390625,-0.12190434164907782,-0.07080138293206692,0.15324483447149395
1772807453707097000,6.83609716796875,-0.09886778598725796,-0.07418050397634506,0.17988251989781856
1772807453717028000,6.846028076171875,-0.06072714816331863,-0.0705880324423313,0.23942440379932522
1772807453726960000,6.855960205078125,-0.08174012557566165,-0.13123217849731444,0.2494566991224885
1772807453736892200,6.86589208984375,-0.12922726841568946,-0.13456453779041766,0.2551904204688966
1772807453746824000,6.875823974609375,-0.17902035011053083,-0.100346626368165,0.22247005412802098
1772807453756756000,6.885755859375,-0.1824164222896099,-0.06939677683115004,0.15850494695678352
1772807453766688000,6.89568798828125,-0.22008122276272624,-0.09770400290489197,0.09532982111945748
1772807453776619300,6.905619384765625,-0.23233283810317515,-0.1136708028435707,0.04524097134843468
1772807453786551300,6.91555126953125,-0.17454408147931097,-0.09185001617968082,0.012921587023884058
1772807453796483000,6.925483154296875,-0.1878793273380026,-0.057680035552382464,0.04455971108600497
1772807453806415000,6.9354150390625,-0.19557751715779303,-0.016794482934474945,0.06191343533843755
1772807453816347100,6.94534716796875,-0.19347557644248006,-0.024692542707920075,0.05112739903852343
1772807453826279200,6.955279052734375,-0.16746022416558115,-0.03580313478708267,0.05204042223021388
1772807453836210000,6.9652099609375,-0.12407766710016875,-0.010392214676737784,0.06629924920722842
1772807453846142000,6.975141845703125,-0.1459650892594829,-0.030652912417054173,0.09691548287570476
1772807453856074000,6.985073974609375,-0.15897358738183975,-0.04543488648533821,0.11067615107223391
1772807453866006000,6.995006103515625,-0.17942487579081207,-0.044724692389369006,0.1279861823134124
1772807453875938300,7.004938232421875,-0.18885080271866173,-0.04357786044180393,0.11912103107348083
1772807453885870300,7.014870361328125,-0.19117898993790147,-0.04559972165822983,0.1297454470708966
1772807453895801000,7.024801025390625,-0.1653501366764307,-0.029372809478640554,0.1726592906460166
1772807453905733000,7.034733154296875,-0.1673760895460844,-0.04439560656547546,0.18296631125733256
1772807453915665200,7.0446650390625,-0.19418986219167708,-0.04635083228647709,0.1582793215073645
1772807453925597200,7.05459716796875,-0.1965244426190853,-0.0900339066684246,0.12534151302352547
1772807453935529200,7.064529296875,-0.19957677939441054,-0.08758066829741,0.11273045325353741
1772807453945461000,7.0744609375,-0.1749520412256941,-0.05904430964291096,0.11745587434023617
1772807453955392000,7.08439208984375,-0.11845452998876571,-0.06823182470500469,0.1138841533333063
1772807453965324300,7.09432421875,-0.0947959699710831,-0.1013753848940134,0.10404898801743984
1772807453975256300,7.10425634765625,-0.10187336101140826,-0.09937748907506465,0.12679419604986905
1772807453985188400,7.114188232421875,-0.10625376805271952,-0.09530220246016978,0.129996499222517
1772807453995119400,7.124119384765625,-0.08629881179332732,-0.07763152121305465,0.12435776268318295
1772807454005051400,7.134051513671875,-0.09223696967065334,-0.1048608889222145,0.11685878522992134
1772807454014982100,7.143982177734375,-0.10098963697943836,-0.09320084626674652,0.09790215582549572
1772807454024914200,7.1539140625,-0.09728552176449447,-0.08743862947821616,0.08940773759409784
1772807454034846200,7.16384619140625,-0.11112754810154438,-0.09272855257987976,0.09501739416942
1772807454044778200,7.1737783203125,-0.1121768014261499,-0.10953414143025875,0.07734612840041517
1772807454054710300,7.183710205078125,-0.12103574212100356,-0.0970318027317524,0.09422916640117764
1772807454064642300,7.193642333984375,-0.11064648658633232,-0.06270049406290054,0.11557079124599695
1772807454074573300,7.2035732421875,-0.12042144614756106,-0.03193418439924717,0.12926833107843994
1772807454084505300,7.21350537109375,-0.15787176361978053,-0.038675475353002545,0.15349939375445246
1772807454094437400,7.223437255859375,-0.16722111818008123,-0.07137070725262165,0.133740508056432
1772807454104369200,7.233369140625,-0.11571721397936344,-0.08587327985763549,0.13932634536474942
1772807454114301200,7.24330126953125,-0.07816226708889007,-0.09198211812674999,0.1640546900384128
1772807454124233200,7.253233154296875,-0.08404197277724743,-0.0894236658155918,0.16939079036936164
1772807454134164200,7.263164306640625,-0.08133684200439602,-0.10737082591652869,0.14892214896678924
1772807454144096300,7.27309619140625,-0.08990301029775291,-0.0765834734648466,0.15079641840606928
1772807454154028300,7.2830283203125,-0.07594283747375011,-0.06158522629737854,0.13035261918380855
1772807454163960300,7.292960205078125,-0.08467731153871863,-0.06145312435030937,0.12747881731316446
1772807454173892400,7.302892333984375,-0.13660514023993164,-0.05624035813808441,0.11223477869108318
1772807454183824400,7.312824462890625,-0.14305238015055655,-0.0637304216325283,0.1292206925444305
1772807454193756400,7.32275634765625,-0.1322708738952875,-0.07854629797041415,0.1477060511752963
1772807454203687200,7.332687255859375,-0.12270455211605875,-0.06820318313241004,0.15647577921673655
1772807454213619200,7.342619140625,-0.11853694757521152,-0.0786444976478815,0.13377236449941993
1772807454223551200,7.35255126953125,-0.10537409914135933,-0.06851414877772331,0.12072963531389831
1772807454233483300,7.362483154296875,-0.11409282764792442,-0.06950491338074206,0.11671966902017593
1772807454243415300,7.372415283203125,-0.10888882926404475,-0.09635492638349533,0.12479542344808578
1772807454253347000,7.38234716796875,-0.11294654368963092,-0.10953121882081031,0.10546133903339505
1772807454263278300,7.3922783203125,-0.09337035761475562,-0.10114625231325626,0.1051693703494966
1772807454273210400,7.40221044921875,-0.10178276011850684,-0.08223170848488807,0.1178320141762495
1772807454283142400,7.412142333984375,-0.11655549143441021,-0.05116787717938423,0.12244038475453853
1772807454293074400,7.422074462890625,-0.10173603489995002,-0.03402209658920765,0.13183145956471562
1772807454303006200,7.432006103515625,-0.13954992498755453,-0.05972820025384426,0.10744257597848772
1772807454312938200,7.441938232421875,-0.1251426294505596,-0.07963292416334151,0.0830075151629746
1772807454322869200,7.451869140625,-0.10584529684968293,-0.05598901372551918,0.07257058456167578
1772807454332801300,7.46180126953125,-0.08931604072265327,-0.05721884778141975,0.08298004263415933
1772807454342733000,7.471733154296875,-0.08208554147984833,-0.06933657107651234,0.09065364600196481
1772807454352665000,7.4816650390625,-0.11578618756234645,-0.07793897972702979,0.08393558979332447
1772807454362597000,7.49159716796875,-0.09906067821085453,-0.07677285855710506,0.08549012575894593
1772807454372529200,7.501529052734375,-0.07630988068785519,-0.060495677495002745,0.0875165170200169
1772807454382460400,7.51146044921875,-0.10343991620838641,-0.10965104580819607,0.08495338853374124
1772807454392392200,7.52139208984375,-0.14429105510003865,-0.13295359546244143,0.08071268222406507
1772807454402324200,7.53132421875,-0.15176767459101975,-0.09426526062786579,0.05602481569126248
1772807454412256300,7.54125634765625,-0.1434820037394762,-0.03078326079845428,0.05238251366615295
1772807454422188300,7.551188232421875,-0.10874452542252838,-0.002585340318083763,0.05616524707525968
1772807454432120300,7.561120361328125,-0.11109488794095813,-0.02356850711405277,0.04856821607500315
1772807454442051000,7.571051025390625,-0.1110655887812376,-0.047745501515269274,0.056129152848571534
1772807454451983000,7.580983154296875,-0.10769530863054096,-0.07477788534760475,0.06421235993057489
1772807454461915100,7.5909150390625,-0.11954294627998023,-0.08809680112600327,0.05561433519423008
1772807454471847200,7.60084716796875,-0.16515318933222442,-0.07820552170872688,0.05031725169941783
1772807454481779500,7.610779541015625,-0.17909345187935977,-0.054228433793783185,0.016801497197151183
1772807454491711200,7.620711181640625,-0.19719485269393772,-0.05933949319720268,0.015502251166850327
1772807454501642200,7.630642333984375,-0.1955009447902441,-0.06086918698251247,0.052271016115695235
1772807454511574300,7.64057421875,-0.16843758129775524,-0.02258826390504837,0.08759864234551787
1772807454521506300,7.65050634765625,-0.14693535906374453,-0.02019406224489212,0.09001534809842705
1772807454531438300,7.660438232421875,-0.1308761681338772,-0.047722120639681814,0.07241554013043641
1772807454541370000,7.6703701171875,-0.10142035654690117,-0.042965866023302074,0.054623132199794054
1772807454551302100,7.68030224609375,-0.08287409804165363,-0.020920038431882858,0.07831380438879132
1772807454561234200,7.690234130859375,-0.13754033873081206,-0.03074935852885246,0.10029635748565197
1772807454571165400,7.70016552734375,-0.17870061663687228,-0.02329845800101757,0.09253624487817287
1772807454581097500,7.710097412109375,-0.19536007501482963,-0.03723287532925606,0.09817264332994818
1772807454591029200,7.720029296875,-0.17197518083937466,-0.0383767846673727,0.1077361520975828
1772807454600961300,7.729961181640625,-0.12028357204683124,-0.06438099449574947,0.12077829676121472
1772807454610893300,7.739893310546875,-0.09400624436549841,-0.05650806916356087,0.11594225490689276
1772807454620825300,7.749825439453125,-0.11358254003822803,-0.08526888422369956,0.14619403917714952
1772807454630756000,7.759756103515625,-0.13542963018715382,-0.12652911537289618,0.12981442065387963
1772807454640688000,7.769688232421875,-0.15700908237583935,-0.10542436802387237,0.10567425113171339
1772807454650620200,7.7796201171875,-0.14629355402886868,-0.07131926932632923,0.07805062340795993
1772807454660552200,7.78955224609375,-0.15698263276033103,-0.06968962229788303,0.09965499084219336
1772807454670484200,7.799484130859375,-0.16793891106061637,-0.06693009445667267,0.14239289332851768
