time,seconds_elapsed,z,y,x
1772807446903791900,0.0327919921875,0.013287169858813286,-0.027166979387402534,0.023860709741711617
1772807446913724000,0.042723876953125,0.011463170871138573,-0.029413089156150818,0.026090307161211967
1772807446923656000,0.052656005859375,0.009488843381404877,-0.03967840597033501,0.013705451972782612
1772807446933588000,0.062587890625,0.014668691903352737,-0.049047406762838364,0.007728520315140486
1772807446943520000,0.07252001953125,0.019937695935368538,-0.04854941368103027,0.0048306589014828205
1772807446953451000,0.082450927734375,0.018940076231956482,-0.0550970621407032,0.0022404685150831938
1772807446963383000,0.092383056640625,0.03153577819466591,-0.059602659195661545,-0.004393912851810455
1772807446973315000,0.102315185546875,0.03976121544837952,-0.0636458694934845,-0.0010726848850026727
1772807446983247000,0.1122470703125,0.04152334854006767,-0.07587359100580215,0.008421383798122406
1772807446993178000,0.12217822265625,0.0501093789935112,-0.09037503600120544,0.016666265204548836
1772807447003110100,0.132110107421875,0.061415452510118484,-0.0783979594707489,0.023448266088962555
1772807447013041200,0.142041259765625,0.0711682140827179,-0.07461893558502197,0.03442581743001938
1772807447022973200,0.15197314453125,0.08247067034244537,-0.08153916150331497,0.027379358187317848
1772807447032905200,0.1619052734375,0.06844533979892731,-0.10117413848638535,0.005994098260998726
1772807447042837200,0.171837158203125,0.055040378123521805,-0.14122939109802246,-0.0227903351187706
1772807447052769300,0.181769287109375,0.06852050125598907,-0.15319177508354187,-0.04819848760962486
1772807447062701300,0.191701416015625,0.07562889903783798,-0.17361818253993988,-0.05932970717549324
1772807447072632300,0.20163232421875,0.08491693437099457,-0.1856146603822708,-0.06402140110731125
1772807447082564000,0.211564208984375,0.09609869122505188,-0.1836218386888504,-0.06395410001277924
1772807447092496100,0.22149609375,0.11209124326705933,-0.19246353209018707,-0.07247195392847061
1772807447102428200,0.23142822265625,0.13703273236751556,-0.2065155804157257,-0.10113424062728882
1772807447112360200,0.241360107421875,0.16781754791736603,-0.2279718667268753,-0.163100928068161
1772807447122291200,0.251291259765625,0.22733770310878754,-0.17829324305057526,-0.22255635261535645
1772807447132223200,0.26122314453125,0.2862633466720581,-0.05204075947403908,-0.21499377489089966
1772807447142155300,0.2711552734375,0.35103490948677063,0.035806357860565186,-0.15798136591911316
1772807447152087300,0.28108740234375,0.3822897672653198,0.09800449013710022,-0.10877653956413269
1772807447162019300,0.291019287109375,0.39382481575012207,0.14348463714122772,-0.10253922641277313
1772807447171951400,0.300951416015625,0.3626945912837982,0.14612649381160736,-0.13285158574581146
1772807447181882000,0.310882080078125,0.2883100211620331,0.09792645275592804,-0.20409266650676727
1772807447191814100,0.320814208984375,0.21815437078475952,0.09174339473247528,-0.26549023389816284
1772807447201746200,0.33074609375,0.17223350703716278,0.058282315731048584,-0.301550954580307
1772807447211678200,0.34067822265625,0.1679372936487198,0.011564075946807861,-0.280777245759964
1772807447221610200,0.3506103515625,0.20801453292369843,0.02345404215157032,-0.18209989368915558
1772807447231541200,0.360541259765625,0.24128247797489166,0.11110746115446091,-0.052189044654369354
1772807447241473300,0.370473388671875,0.2469671368598938,0.1665838658809662,0.07704288512468338
1772807447251405300,0.3804052734375,0.2571324110031128,0.13144531846046448,0.18713344633579254
1772807447261337300,0.39033740234375,0.21043610572814941,0.14320386946201324,0.2493046522140503
1772807447271269400,0.400269287109375,0.1624867022037506,0.13073548674583435,0.18352271616458893
1772807447281201200,0.410201171875,0.08225955069065094,0.015909509733319283,0.11840461939573288
1772807447291132200,0.420132080078125,0.007626591250300407,-0.08231692761182785,0.11593001335859299
1772807447301064200,0.430064208984375,-0.047376472502946854,-0.11626157909631729,0.1148945763707161
1772807447310996200,0.439996337890625,-0.07674714177846909,-0.1340932995080948,0.09186489135026932
1772807447320928000,0.449927978515625,-0.10128801316022873,-0.12116623669862747,0.04726063087582588
1772807447330860000,0.459860107421875,-0.10142303258180618,-0.06383131444454193,0.005354993976652622
1772807447340792000,0.4697919921875,-0.06454919278621674,0.06500951200723648,-0.020670535042881966
1772807447350723300,0.479723388671875,-0.02251492440700531,0.1846671998500824,-0.04756952449679375
1772807447360655400,0.4896552734375,0.018990889191627502,0.2598734498023987,-0.07792539894580841
1772807447370587100,0.499587158203125,0.051503028720617294,0.3034137487411499,-0.12143027037382126
1772807447380519200,0.509519287109375,0.066483274102211,0.3073148727416992,-0.13646851480007172
1772807447390451200,0.519451171875,0.05971166118979454,0.2771865129470825,-0.13996312022209167
1772807447400383200,0.52938330078125,0.04542301595211029,0.23594501614570618,-0.1514415144920349
1772807447410314200,0.539314208984375,0.03061877004802227,0.19194427132606506,-0.1693459451198578
1772807447420246000,0.54924609375,0.014566243626177311,0.14984296262264252,-0.19221630692481995
1772807447430178000,0.559177978515625,0.005985804367810488,0.117315374314785,-0.21125738322734833
1772807447440110000,0.569110107421875,0.011518549174070358,0.09064014256000519,-0.23046088218688965
1772807447450042400,0.57904248046875,0.012110037729144096,0.031595464795827866,-0.2472052425146103
1772807447459973000,0.58897314453125,-0.00805659405887127,-0.0006071710959076881,-0.275112509727478
1772807447469905200,0.5989052734375,-0.0068286107853055,-0.023322604596614838,-0.2971339225769043
1772807447479837200,0.608837158203125,-0.0049539776518940926,-0.044390060007572174,-0.31182965636253357
1772807447489769200,0.618769287109375,0.003269331296905875,-0.057945284992456436,-0.3115028738975525
1772807447499701200,0.628701171875,0.02377670258283615,-0.06704291701316833,-0.3056267499923706
1772807447509633300,0.63863330078125,0.04832971841096878,-0.052489809691905975,-0.2946441173553467
1772807447519564000,0.64856396484375,0.06198408082127571,-0.05169249325990677,-0.2842333912849426
1772807447529496300,0.658496337890625,0.08049704134464264,-0.061114225536584854,-0.2669404149055481
1772807447539428400,0.668428466796875,0.07962769269943237,-0.062348976731300354,-0.24613775312900543
1772807447549360400,0.6783603515625,0.08306317031383514,-0.05902481824159622,-0.23220568895339966
1772807447559292400,0.68829248046875,0.08527471870183945,-0.045996349304914474,-0.2015608847141266
1772807447569224200,0.69822412109375,0.09269614517688751,-0.0035447601694613695,-0.1650143265724182
1772807447579155200,0.7081552734375,0.11388318985700607,0.023831471800804138,-0.14406536519527435
1772807447589087200,0.718087158203125,0.13887350261211395,0.006555011495947838,-0.15687276422977448
1772807447599019300,0.728019287109375,0.12402914464473724,-0.01065730582922697,-0.17859217524528503
1772807447608951300,0.737951416015625,0.13190758228302002,-0.025265542790293694,-0.23745176196098328
1772807447618883000,0.747883056640625,0.10735240578651428,-0.11444323509931564,-0.2985802888870239
1772807447628815000,0.757815185546875,0.08262308686971664,-0.1906823366880417,-0.3573618233203888
1772807447638746400,0.767746337890625,0.08436578512191772,-0.21649578213691711,-0.39673203229904175
1772807447648678400,0.777678466796875,0.10669585317373276,-0.20023716986179352,-0.4176625907421112
1772807447658610200,0.787610107421875,0.1506076157093048,-0.16200990974903107,-0.4265374541282654
1772807447668542200,0.797542236328125,0.19043785333633423,-0.11979854106903076,-0.4349719285964966
1772807447678474200,0.80747412109375,0.22339461743831635,-0.1009022444486618,-0.4244602620601654
1772807447688406300,0.81740625,0.23772935569286346,-0.11635018140077591,-0.4019451141357422
1772807447698337300,0.827337158203125,0.24904443323612213,-0.14145483076572418,-0.3745589256286621
1772807447708269000,0.83726904296875,0.24961408972740173,-0.1608535647392273,-0.36279547214508057
1772807447718201000,0.847201171875,0.2461707592010498,-0.152292400598526,-0.3671739101409912
1772807447728133000,0.857133056640625,0.2450634092092514,-0.14136892557144165,-0.3934102952480316
1772807447738065200,0.867065185546875,0.23292478919029236,-0.14892248809337616,-0.44380325078964233
1772807447747997200,0.8769970703125,0.22390785813331604,-0.1747056096792221,-0.5073689222335815
1772807447757928200,0.88692822265625,0.1978318691253662,-0.18211230635643005,-0.5598517060279846
1772807447767860200,0.896860107421875,0.15973082184791565,-0.17325223982334137,-0.5871062278747559
1772807447777792300,0.906792236328125,0.12492967396974564,-0.16102102398872375,-0.5807318687438965
1772807447787724300,0.916724365234375,0.10006213933229446,-0.1636815220117569,-0.5372599959373474
1772807447797656300,0.92665625,0.09458287805318832,-0.17702730000019073,-0.47669392824172974
1772807447807587000,0.936587158203125,0.09032049030065536,-0.1760248839855194,-0.408947616815567
1772807447817519000,0.94651904296875,0.10389222949743271,-0.16333012282848358,-0.3470882475376129
1772807447827451100,0.956451171875,0.11029686033725739,-0.13342441618442535,-0.2853338122367859
1772807447837383200,0.966383056640625,0.12263360619544983,-0.10605501383543015,-0.2198096513748169
1772807447847315200,0.976315185546875,0.12492605298757553,-0.0895194485783577,-0.15447112917900085
1772807447857247200,0.986247314453125,0.11365094780921936,-0.0938974991440773,-0.08181113004684448
1772807447867178200,0.99617822265625,0.08141551166772842,-0.08569496124982834,-0.003428441472351551
1772807447877110300,1.0061103515625,0.05112960934638977,-0.0778878852725029,0.06433294713497162
1772807447887042300,1.016042236328125,0.043989408761262894,-0.08704756200313568,0.10953877866268158
1772807447896974300,1.025974365234375,0.04657156765460968,-0.09295524656772614,0.14011122286319733
1772807447906906000,1.035906005859375,0.05323506146669388,-0.08178914338350296,0.1424390971660614
1772807447916838100,1.045838134765625,0.053197648376226425,-0.07080376893281937,0.12821930646896362
1772807447926769200,1.05576904296875,0.050741150975227356,-0.04351275786757469,0.09010016173124313
1772807447936701200,1.065701171875,0.06288138031959534,0.01834046095609665,0.04596272110939026
1772807447946633200,1.07563330078125,0.07812877744436264,0.08999787271022797,0.018400069326162338
1772807447956565200,1.085565185546875,0.08527377992868423,0.14896216988563538,0.0027784674894064665
1772807447966497300,1.095497314453125,0.07518333196640015,0.19195809960365295,0.014520877040922642
1772807447976428300,1.10542822265625,0.05829896405339241,0.24100078642368317,0.0411241240799427
1772807447986360300,1.1153603515625,0.03149903938174248,0.272300660610199,0.05843014270067215
1772807447996292400,1.125292236328125,0.00961022637784481,0.2831982374191284,0.06733812391757965
1772807448006224400,1.135224365234375,-0.006060079205781221,0.26556918025016785,0.06473036110401154
1772807448016156400,1.145156494140625,-0.02697904221713543,0.21541360020637512,0.05578994378447533
1772807448026088400,1.15508837890625,-0.031049683690071106,0.16855953633785248,0.05476915463805199
1772807448036019500,1.16501953125,-0.024503296241164207,0.134170800447464,0.06222255527973175
1772807448045951500,1.174951416015625,-0.014560915529727936,0.08980147540569305,0.08605757355690002
1772807448055883500,1.184883544921875,-0.012614005245268345,0.05771501734852791,0.10386498272418976
1772807448065815600,1.194815673828125,-0.012867804616689682,0.05995526537299156,0.10763362050056458
1772807448075747600,1.20474755859375,-0.019994143396615982,0.08976050466299057,0.09528782218694687
1772807448085679600,1.2146796875,-0.03744104504585266,0.10892993956804276,0.07609336078166962
1772807448095610400,1.2246103515625,-0.04471482336521149,0.08772367238998413,0.05758918821811676
1772807448105542400,1.23454248046875,-0.05152905359864235,0.05704832449555397,0.04927027225494385
1772807448115474400,1.244474365234375,-0.06022608280181885,0.017991937696933746,0.05710389092564583
1772807448125406500,1.254406494140625,-0.06441523879766464,-0.030476262792944908,0.07138775289058685
1772807448135338500,1.26433837890625,-0.06365101039409637,-0.07796939462423325,0.09887766093015671
1772807448145270300,1.274270263671875,-0.05657525733113289,-0.09174353629350662,0.1153101697564125
1772807448155201500,1.284201416015625,-0.04232662543654442,-0.09038816392421722,0.12827365100383759
1772807448165133600,1.294133544921875,-0.021564358845353127,-0.07908730208873749,0.12801826000213623
1772807448175065600,1.304065673828125,-0.0035585854202508926,-0.05071069300174713,0.12324658036231995
1772807448184997600,1.31399755859375,0.011705322191119194,-0.01218726672232151,0.11913519352674484
1772807448194929400,1.323929443359375,0.0284284595400095,0.01225556805729866,0.13006623089313507
1772807448204861400,1.333861328125,0.038634225726127625,0.02573755383491516,0.14765188097953796
1772807448214792400,1.34379248046875,0.043055012822151184,0.034793708473443985,0.17046566307544708
1772807448224724500,1.353724365234375,0.045774102210998535,0.04948956146836281,0.18021468818187714
1772807448234656500,1.363656494140625,0.05807331204414368,0.07247906178236008,0.16564758121967316
1772807448244588300,1.37358837890625,0.0455644465982914,0.10265720635652542,0.14230869710445404
1772807448254520300,1.383520263671875,0.03303790092468262,0.10895556956529617,0.09594766795635223
1772807448264451600,1.39345166015625,0.03926650434732437,0.11920634657144547,0.04616919904947281
1772807448274383600,1.403383544921875,0.03375307470560074,0.14683392643928528,-0.008006153628230095
1772807448284315400,1.4133154296875,0.02503947541117668,0.16883963346481323,-0.039243169128894806
1772807448294247400,1.423247314453125,0.014725306071341038,0.171177938580513,-0.05393191799521446
1772807448304179500,1.433179443359375,-0.0006536508444696665,0.18199411034584045,-0.04699971154332161
1772807448314111500,1.443111572265625,-0.007716451771557331,0.1816082000732422,-0.030000673606991768
1772807448324042500,1.45304248046875,-0.011442746967077255,0.1824319064617157,-0.02080397866666317
1772807448333974300,1.462974365234375,-0.006414474919438362,0.1821276992559433,-0.03107418492436409
1772807448343906300,1.47290625,-0.009482170455157757,0.1789124608039856,-0.05516007915139198
1772807448353838300,1.48283837890625,0.0014611068181693554,0.16665837168693542,-0.08124709129333496
1772807448363770400,1.492770263671875,0.009185072034597397,0.1637885421514511,-0.10413403064012527
1772807448373702400,1.502702392578125,0.014457685872912407,0.1719868928194046,-0.11531894654035568
1772807448383633400,1.51263330078125,0.01378204207867384,0.17611558735370636,-0.10678590834140778
1772807448393565400,1.5225654296875,0.012295478954911232,0.16563838720321655,-0.08607042580842972
1772807448403497500,1.53249755859375,0.011385476216673851,0.14863543212413788,-0.05735648795962334
1772807448413429500,1.542429443359375,0.00875131692737341,0.1438743621110916,-0.027399824932217598
1772807448423361500,1.552361572265625,0.007280186749994755,0.13669820129871368,-0.015011599287390709
1772807448433293600,1.56229345703125,0.010643337853252888,0.12259778380393982,-0.022937428206205368
1772807448443224300,1.572224365234375,0.015162455849349499,0.10140861570835114,-0.04159526899456978
1772807448453156400,1.58215625,0.012501214630901814,0.06985258311033249,-0.06116223707795143
1772807448463088600,1.592088623046875,-0.0029192869551479816,0.03776734694838524,-0.07196295261383057
1772807448473020700,1.602020751953125,-0.01646866649389267,-0.00366605375893414,-0.06282094120979309
1772807448482952400,1.611952392578125,-0.02055235765874386,-0.010381214320659637,-0.045851804316043854
1772807448492883500,1.621883544921875,-0.01931700110435486,-0.01918942667543888,-0.02822231315076351
1772807448502815500,1.6318154296875,-0.014975249767303467,-0.016673538833856583,-0.010485393926501274
1772807448512747500,1.64174755859375,-0.017062395811080933,-0.009761719033122063,-0.0011157661210745573
1772807448522679600,1.651679443359375,-0.013034366071224213,0.0015284856781363487,0.005532282870262861
1772807448532611300,1.661611328125,-0.01706833951175213,0.014182059094309807,0.005801280960440636
1772807448542543400,1.67154345703125,-0.026988347992300987,0.004187215119600296,-0.001472877454943955
1772807448552475400,1.681475341796875,-0.027923060581088066,0.007708736229687929,-0.006966369692236185
1772807448562406700,1.69140673828125,-0.024120599031448364,0.018873240798711777,-0.015176096931099892
1772807448572338700,1.701338623046875,-0.008188590407371521,0.0291212759912014,-0.011274931021034718
1772807448582270500,1.7112705078125,-0.005913984961807728,0.024393633008003235,0.0035921656526625156
1772807448592202500,1.721202392578125,-0.00729435496032238,0.007757635321468115,0.0116494819521904
1772807448602134500,1.731134521484375,-0.010587886907160282,-0.005279869772493839,0.018891682848334312
1772807448612065500,1.7410654296875,-0.005423764698207378,-0.0097400713711977,0.01853153668344021
1772807448621997300,1.750997314453125,-0.000615427503362298,-0.011691901832818985,0.017235644161701202
1772807448631929300,1.760929443359375,0.00498625123873353,-0.014608535915613174,0.005883034784346819
1772807448641861400,1.770861328125,0.005541520658880472,-0.030665799975395203,0.00018200601334683597
1772807448651793400,1.78079345703125,-0.001995170023292303,-0.05163230746984482,-0.0014451089082285762
1772807448661725400,1.790725341796875,-0.008180628530681133,-0.061067886650562286,-0.0020531085319817066
1772807448671656400,1.800656494140625,-0.010144750587642193,-0.06123868376016617,0.0012316434876993299
1772807448681588500,1.81058837890625,-0.008796392008662224,-0.04711407795548439,0.002029260154813528
1772807448691520500,1.8205205078125,-0.006011118181049824,-0.03583734855055809,0.0031247942242771387
1772807448701452500,1.83045263671875,-0.006927778013050556,-0.02054681070148945,0.0059104603715240955
1772807448711384600,1.840384521484375,-0.0017637278651818633,-0.011342734098434448,0.01675262302160263
1772807448721316600,1.850316650390625,0.003801746293902397,-0.007463307585567236,0.020688241347670555
1772807448731247400,1.860247314453125,0.0031251083128154278,-0.007694600149989128,0.024044904857873917
1772807448741179400,1.870179443359375,0.0050393883138895035,-0.004352865740656853,0.019473321735858917
1772807448751111400,1.880111328125,0.008666669018566608,0.0018800231628119946,0.019045695662498474
1772807448761043500,1.89004345703125,0.009116742759943008,0.008344579488039017,0.011738779954612255
1772807448770975200,1.899975341796875,0.004387222230434418,-0.0010358127765357494,-0.0015201197238638997
1772807448780906500,1.909906494140625,-0.0006948882946744561,-0.011334523558616638,-0.010672072879970074
1772807448790838500,1.919838623046875,-0.005856296047568321,-0.014522884041070938,-0.021681951358914375
1772807448800770600,1.9297705078125,-0.009981265291571617,-0.02030034549534321,-0.033180948346853256
1772807448810702600,1.93970263671875,-0.015944894403219223,-0.035836901515722275,-0.03953506797552109
1772807448820634400,1.94963427734375,-0.018617110326886177,-0.052451033145189285,-0.028998538851737976
1772807448830566400,1.95956640625,-0.018272409215569496,-0.060163211077451706,-0.02137807011604309
1772807448840497400,1.969497314453125,-0.0163703802973032,-0.062253791838884354,0.00007608867599628866
1772807448850429400,1.979429443359375,-0.015075348317623138,-0.07274709641933441,0.014411691576242447
1772807448860361500,1.989361572265625,-0.013101146556437016,-0.08124658465385437,0.021932192146778107
1772807448870293500,1.99929345703125,-0.004508115351200104,-0.08228135854005814,0.021959368139505386
1772807448880225500,2.0092255859375,0.00044935900950804353,-0.08080090582370758,0.020375054329633713
1772807448890157600,2.019157470703125,0.0017012101598083973,-0.07536673545837402,0.016491981223225594
1772807448900088600,2.029088623046875,-0.0018620993942022324,-0.07474835216999054,0.01922891102731228
1772807448910020400,2.039020263671875,-0.0034750881604850292,-0.07411710917949677,0.02351030707359314
1772807448919952400,2.048952392578125,-0.007475422229617834,-0.07208698242902756,0.026841921731829643
1772807448929884400,2.058884521484375,-0.01046815700829029,-0.0646081268787384,0.02447313256561756
1772807448939816400,2.06881640625,-0.011714516207575798,-0.06532531976699829,0.030146729201078415
1772807448949748500,2.07874853515625,-0.004760119132697582,-0.0705956369638443,0.02337467670440674
1772807448959679500,2.088679443359375,-0.0028836559504270554,-0.07076714932918549,0.022562945261597633
1772807448969611500,2.098611572265625,-0.007487813010811806,-0.0684012696146965,0.024849170818924904
1772807448979543600,2.10854345703125,-0.009173860773444176,-0.0664244070649147,0.026040934026241302
1772807448989475800,2.118475830078125,-0.01661715656518936,-0.06248573958873749,0.03231996297836304
1772807448999408000,2.128408203125,-0.01727335900068283,-0.05437348410487175,0.044815514236688614
1772807449009340200,2.138340087890625,-0.024773620069026947,-0.05170446261763573,0.049095746129751205
1772807449019271000,2.14827099609375,-0.027062606066465378,-0.04635923355817795,0.05151922255754471
1772807449029203000,2.158202880859375,-0.02738811820745468,-0.026942525058984756,0.036596186459064484
1772807449039135000,2.168135009765625,-0.026400085538625717,-0.017019320279359818,0.02641066163778305
1772807449049067000,2.17806689453125,-0.02770215831696987,-0.008156083524227142,0.018606191501021385
1772807449058999000,2.1879990234375,-0.03124735690653324,-0.011119648814201355,0.01959688775241375
1772807449068931000,2.19793115234375,-0.031911663711071014,-0.004639070015400648,0.018832823261618614
1772807449078861800,2.20786181640625,-0.03063174895942211,-0.004497123416513205,0.020942579954862595
1772807449088794000,2.217794189453125,-0.0273592546582222,0.005857513286173344,0.02314501255750656
1772807449098726100,2.22772607421875,-0.02212641015648842,0.011968669481575489,0.024303488433361053
1772807449108658200,2.237658203125,-0.021428577601909637,0.02327599562704563,0.022585581988096237
1772807449118590200,2.247590087890625,-0.024611055850982666,0.027858231216669083,0.03360041603446007
1772807449128521000,2.25752099609375,-0.021734027191996574,0.02462322637438774,0.044686444103717804
1772807449138453000,2.267452880859375,-0.02747740037739277,0.027611825615167618,0.04756106063723564
1772807449148385000,2.277385009765625,-0.03201219066977501,0.02945881523191929,0.05039225518703461
1772807449158317000,2.287317138671875,-0.03231552615761757,0.03219601511955261,0.04885720834136009
1772807449168248800,2.297248779296875,-0.03412109613418579,0.03020293638110161,0.042504049837589264
1772807449178180900,2.307180908203125,-0.03427795693278313,0.02318151295185089,0.03207644075155258
1772807449188112100,2.317112060546875,-0.03557858243584633,0.025437932461500168,0.02268127165734768
1772807449198044200,2.327044189453125,-0.03666968271136284,0.019523318856954575,0.013375919312238693
1772807449207976200,2.33697607421875,-0.03943798318505287,0.019882608205080032,0.005935657303780317
1772807449217908000,2.346907958984375,-0.03797031566500664,0.019646918401122093,0.009803099557757378
1772807449227840000,2.356840087890625,-0.03842407464981079,0.017597336322069168,0.012078879401087761
1772807449237772000,2.36677197265625,-0.04068003594875336,0.01315944641828537,0.024604523554444313
1772807449247703000,2.376703125,-0.043164558708667755,0.0038560298271477222,0.035329677164554596
1772807449257635000,2.386635009765625,-0.04657527059316635,-0.0066338954493403435,0.046638526022434235
1772807449267566800,2.39656689453125,-0.051325056701898575,-0.01678408868610859,0.05149907246232033
1772807449277499000,2.406498779296875,-0.05490168184041977,-0.022407086566090584,0.05272093042731285
1772807449287431000,2.416430908203125,-0.060147058218717575,-0.03589167818427086,0.05821121484041214
1772807449297363000,2.426363037109375,-0.06777142733335495,-0.04746870696544647,0.05584552884101868
1772807449307294000,2.4362939453125,-0.06834796816110611,-0.059269025921821594,0.04991244152188301
1772807449317226000,2.44622607421875,-0.06453831493854523,-0.0650978833436966,0.045901454985141754
1772807449327158000,2.456157958984375,-0.05381452664732933,-0.06496969610452652,0.048593372106552124
1772807449337090000,2.466090087890625,-0.04881284385919571,-0.06647198647260666,0.0553857646882534
1772807449347022000,2.47602197265625,-0.045857254415750504,-0.07232940196990967,0.07289719581604004
1772807449356954000,2.4859541015625,-0.04686899110674858,-0.07419734448194504,0.09208713471889496
1772807449366884900,2.495884765625,-0.049091171473264694,-0.07326479256153107,0.11294741928577423
1772807449376817000,2.50581689453125,-0.048666395246982574,-0.07178034633398056,0.12672927975654602
1772807449386749000,2.5157490234375,-0.0655459463596344,-0.07345493137836456,0.13955925405025482
1772807449396681000,2.525680908203125,-0.08131664991378784,-0.09376579523086548,0.14341230690479279
1772807449406613000,2.535613037109375,-0.07761280983686447,-0.09419544041156769,0.15274418890476227
1772807449416545000,2.545544921875,-0.06230709329247475,-0.07309947162866592,0.15824654698371887
1772807449426476000,2.55547607421875,-0.0639638677239418,-0.05646258592605591,0.177914097905159
1772807449436408000,2.565407958984375,-0.07803548127412796,-0.05323350429534912,0.20475342869758606
1772807449446340000,2.575340087890625,-0.10067083686590195,-0.056913264095783234,0.22247399389743805
1772807449456272000,2.58527197265625,-0.12842097878456116,-0.06129096820950508,0.23554052412509918
1772807449466204000,2.595203857421875,-0.16058708727359772,-0.08054714649915695,0.24378818273544312
1772807449476135000,2.605135009765625,-0.17699481546878815,-0.08665590733289719,0.252313494682312
1772807449486067000,2.61506689453125,-0.17134444415569305,-0.08468695729970932,0.2587440013885498
1772807449495999000,2.6249990234375,-0.15921801328659058,-0.07991776615381241,0.2545234262943268
1772807449505931000,2.634930908203125,-0.14631375670433044,-0.09131115674972534,0.23004360496997833
1772807449515863000,2.644863037109375,-0.11755801737308502,-0.10396330803632736,0.18572168052196503
1772807449525795000,2.654795166015625,-0.08780486136674881,-0.12306053191423416,0.11713630706071854
1772807449535726000,2.66472607421875,-0.05680566281080246,-0.1496679037809372,0.04853567108511925
1772807449545658000,2.674658203125,-0.033058322966098785,-0.17642226815223694,0.004742754623293877
1772807449555590000,2.68458984375,-0.011110945604741573,-0.19580741226673126,-0.0160666536539793
1772807449565522000,2.69452197265625,0.0002551599172875285,-0.2026466727256775,-0.021672340109944344
1772807449575454000,2.704453857421875,0.013295846991240978,-0.17939908802509308,-0.014057117514312267
1772807449585386000,2.714385986328125,0.026891184970736504,-0.1569414734840393,-0.008163461461663246
1772807449595317000,2.72431689453125,0.03445163369178772,-0.1542748361825943,-0.0007247193134389818
1772807449605249000,2.7342490234375,0.032831113785505295,-0.17064668238162994,0.00755380280315876
1772807449615181000,2.74418115234375,0.02635909989476204,-0.18215075135231018,0.00370979611761868
1772807449625113000,2.754113037109375,0.028650637716054916,-0.17641104757785797,-0.01478506252169609
1772807449635045000,2.764045166015625,0.033278413116931915,-0.16479486227035522,-0.045558154582977295
1772807449644977200,2.77397705078125,0.03919275850057602,-0.15702642500400543,-0.07862209528684616
1772807449654908000,2.783907958984375,0.0449686236679554,-0.15354274213314056,-0.1027817651629448
1772807449664840000,2.79383984375,0.045561302453279495,-0.1522855907678604,-0.1124875620007515
1772807449674772000,2.80377197265625,0.04341639205813408,-0.1578497290611267,-0.1035073846578598
1772807449684704000,2.8137041015625,0.03567073121666908,-0.16929534077644348,-0.07278817892074585
1772807449694636000,2.823635986328125,0.017742063850164413,-0.17710372805595398,-0.039891745895147324
1772807449704567800,2.83356787109375,-0.006939378567039967,-0.18545132875442505,-0.00670282868668437
1772807449714499000,2.8434990234375,-0.034033846110105515,-0.1886521875858307,0.018596669659018517
1772807449724431000,2.85343115234375,-0.045533161610364914,-0.19011908769607544,0.03143888711929321
1772807449734363100,2.863363037109375,-0.0531279630959034,-0.18886926770210266,0.017832797020673752
1772807449744295200,2.873295166015625,-0.05158315226435661,-0.18682615458965302,0.00018898973939940333
1772807449754227000,2.88322705078125,-0.04470394179224968,-0.18781791627407074,-0.01581740751862526
1772807449764159000,2.893158935546875,-0.04444122686982155,-0.1976163238286972,-0.028516067191958427
1772807449774090000,2.903090087890625,-0.041347432881593704,-0.20011544227600098,-0.024771662428975105
1772807449784022000,2.91302197265625,-0.03887053206562996,-0.1860225945711136,0.0030393069609999657
1772807449793953800,2.922953857421875,-0.036620959639549255,-0.16154973208904266,0.03595997020602226
1772807449803885800,2.9328857421875,-0.0363890565931797,-0.13613352179527283,0.06110561266541481
1772807449813817900,2.94281787109375,-0.03956301137804985,-0.11302154511213303,0.08077598363161087
1772807449823750100,2.952750244140625,-0.053756725043058395,-0.1000201553106308,0.08959628641605377
1772807449833681200,2.96268115234375,-0.06448579579591751,-0.09932427108287811,0.09052626043558121
1772807449843613000,2.972613037109375,-0.07056358456611633,-0.0874829813838005,0.0873824954032898
1772807449853545000,2.982544921875,-0.07054760307073593,-0.08843612670898438,0.09063448011875153
1772807449863477000,2.99247705078125,-0.06374119967222214,-0.09897421300411224,0.0937141627073288
1772807449873409000,3.002408935546875,-0.05172422528266907,-0.09954439848661423,0.08673960715532303
1772807449883340000,3.012340087890625,-0.039557766169309616,-0.08991293609142303,0.07900340855121613
1772807449893271800,3.022271728515625,-0.028901126235723495,-0.07759901136159897,0.07989849150180817
1772807449903203800,3.032203857421875,-0.028423763811588287,-0.07129115611314774,0.09090569615364075
1772807449913136000,3.04213623046875,-0.03294793888926506,-0.07627099752426147,0.11021973937749863
1772807449923068200,3.052068115234375,-0.04158255085349083,-0.07052279263734818,0.13231731951236725
1772807449933000200,3.062000244140625,-0.052985675632953644,-0.06635547429323196,0.1466006487607956
1772807449942931000,3.071930908203125,-0.0669403225183487,-0.08121481537818909,0.14466193318367004
1772807449952863000,3.081863037109375,-0.07886968553066254,-0.09955627471208572,0.1345866620540619
1772807449962795000,3.091794921875,-0.08866479247808456,-0.11883968859910965,0.12020959705114365
1772807449972727000,3.10172705078125,-0.0939016342163086,-0.13882990181446075,0.091893270611763
1772807449982659000,3.1116591796875,-0.0932488664984703,-0.1524108201265335,0.04987195134162903
1772807449992590300,3.12159033203125,-0.0913471058011055,-0.15710704028606415,0.014803446829319
1772807450002521600,3.131521484375,-0.08279798179864883,-0.1484602689743042,-0.0013732080115005374
1772807450012453600,3.14145361328125,-0.07114825397729874,-0.12757469713687897,0.004247127566486597
1772807450022385400,3.151385498046875,-0.06382236629724503,-0.09618936479091644,0.0256644319742918
1772807450032317400,3.1613173828125,-0.06354247033596039,-0.0650828406214714,0.06495139002799988
1772807450042249500,3.17124951171875,-0.06422927975654602,-0.0452299490571022,0.09878705441951752
1772807450052181500,3.181181396484375,-0.0630526915192604,-0.04097634553909302,0.12063908576965332
1772807450062112500,3.191112548828125,-0.06632540374994278,-0.038054030388593674,0.11556290835142136
1772807450072044300,3.201044189453125,-0.06789426505565643,-0.042465824633836746,0.09482008218765259
1772807450081976300,3.210976318359375,-0.05925271660089493,-0.04808439686894417,0.0688500925898552
1772807450091908400,3.220908447265625,-0.0534941628575325,-0.03866293281316757,0.04173511266708374
1772807450101840400,3.23084033203125,-0.047703422605991364,-0.0341218002140522,0.04110075905919075
1772807450111771400,3.240771484375,-0.050107192248106,-0.0263642780482769,0.05673458054661751
1772807450121703400,3.250703369140625,-0.050269048660993576,-0.02138073369860649,0.08491791039705276
1772807450131635500,3.260635498046875,-0.055742375552654266,-0.018078679218888283,0.11134126037359238
1772807450141567500,3.2705673828125,-0.05862826853990555,-0.017294444143772125,0.12817446887493134
1772807450151499500,3.28049951171875,-0.058121468871831894,-0.013281060382723808,0.11738361418247223
1772807450161431600,3.290431640625,-0.055152662098407745,-0.0278145931661129,0.08149611204862595
1772807450171362300,3.3003623046875,-0.05769411846995354,-0.05711469054222107,0.025039494037628174
1772807450181294300,3.31029443359375,-0.08573592454195023,-0.08244239538908005,-0.0514276921749115
1772807450191226400,3.320226318359375,-0.09449505805969238,-0.01565191149711609,-0.08975963294506073
1772807450201158400,3.330158447265625,-0.04093063250184059,-0.012524029240012169,-0.055915381759405136
1772807450211090700,3.340090576171875,-0.013901414349675179,-0.017419185489416122,0.004694967996329069
1772807450221022500,3.3500224609375,-0.03913259506225586,0.07686027884483337,0.07082117348909378
1772807450230953500,3.359953369140625,-0.06788460910320282,0.02064761146903038,0.1341700553894043
1772807450240885500,3.369885498046875,-0.07590681314468384,-0.02987838163971901,0.16174045205116272
1772807450250817500,3.379817626953125,-0.06285493075847626,-0.009702538140118122,0.1382167488336563
1772807450260749600,3.38974951171875,-0.049317117780447006,0.008016524836421013,0.0844646468758583
1772807450270681300,3.399681396484375,-0.0344228558242321,0.02755027636885643,0.02206358313560486
1772807450280613400,3.40961328125,-0.030108144506812096,0.03258887678384781,-0.04075390473008156
1772807450290544400,3.41954443359375,-0.029518786817789078,0.03744648024439812,-0.06870298087596893
1772807450300476700,3.4294765625,-0.021467657759785652,0.029540516436100006,-0.06321437656879425
1772807450310408400,3.439408447265625,-0.021778181195259094,0.023991022258996964,-0.03353717923164368
1772807450320340500,3.449340576171875,-0.025007214397192,0.024398520588874817,0.002118896460160613
1772807450330272500,3.4592724609375,-0.02697928436100483,0.02298385091125965,0.04683683440089226
1772807450340204500,3.46920458984375,-0.027321118861436844,0.02514442428946495,0.07417871057987213
1772807450350135600,3.479135498046875,-0.01665329560637474,0.034375742077827454,0.08326088637113571
1772807450360067300,3.4890673828125,-0.010214711539447308,0.04985792189836502,0.06974756717681885
1772807450369999400,3.498999267578125,-0.0071430210955441,0.0570729598402977,0.03520637005567551
1772807450379931400,3.508931396484375,-0.012069310992956161,0.0578337088227272,-0.00833560898900032
1772807450389863400,3.518863525390625,-0.015989484265446663,0.04690862074494362,-0.04235056787729263
1772807450399794700,3.528794677734375,-0.021243659779429436,0.03565981239080429,-0.058489229530096054
1772807450409726500,3.5387265625,-0.02674122340977192,0.03385525196790695,-0.04968827962875366
1772807450419658500,3.548658447265625,-0.026162585243582726,0.02959209494292736,-0.028313379734754562
1772807450429590500,3.558590576171875,-0.021150249987840652,0.031845662742853165,-0.002271659206598997
1772807450439522600,3.5685224609375,-0.01141265593469143,0.04384826496243477,0.023371975868940353
1772807450449454600,3.57845458984375,-0.003492148593068123,0.04546879976987839,0.037457965314388275
1772807450459385300,3.58838525390625,-0.003209379967302084,0.03933475539088249,0.03773476928472519
1772807450469317400,3.5983173828125,-0.006058163475245237,0.029015270993113518,0.030118662863969803
1772807450479249400,3.60824951171875,-0.008013329468667507,0.024467021226882935,0.020806478336453438
1772807450489181400,3.618181396484375,-0.014144725166261196,0.020801179111003876,0.009651295840740204
1772807450499113500,3.628113525390625,-0.012402587570250034,0.016743579879403114,-0.0007442720816470683
1772807450509045200,3.638045166015625,-0.011309625580906868,0.0026040575467050076,-0.007050104904919863
1772807450518976500,3.6479765625,-0.006963057443499565,-0.003901623422279954,-0.013066546060144901
1772807450528908500,3.657908447265625,-0.0006239353679120541,-0.009931819513440132,-0.008243028074502945
1772807450538840600,3.667840576171875,0.0039913225919008255,-0.010012039914727211,-0.005188619252294302
1772807450548772600,3.677772705078125,0.004540466237813234,-0.005904913414269686,-0.006017661187797785
1772807450558704400,3.687704345703125,0.007662809919565916,-0.009764603339135647,-0.00885624811053276
1772807450568636400,3.697636474609375,0.008445246145129204,-0.00683512631803751,-0.013220369815826416
1772807450578567400,3.7075673828125,0.011564378626644611,-0.005811046808958054,-0.022253554314374924
1772807450588499500,3.71749951171875,0.006842328235507011,-0.009347724728286266,-0.029106933623552322
1772807450598431200,3.72743115234375,0.00590167474001646,-0.013912800699472427,-0.029243724420666695
1772807450608363300,3.73736328125,0.007899311371147633,-0.013255266472697258,-0.02880297228693962
1772807450618295600,3.747295654296875,0.012724554166197777,-0.012406621128320694,-0.032452479004859924
1772807450628227600,3.7572275390625,0.010433701798319817,-0.0005478318780660629,-0.03833167254924774
1772807450638158600,3.76715869140625,0.015089313499629498,0.007537896279245615,-0.05089096352458
1772807450648090400,3.77709033203125,0.019856639206409454,0.012867679819464684,-0.0545317716896534
1772807450658022400,3.7870224609375,0.022304270416498184,0.025422442704439163,-0.05515732988715172
1772807450667954400,3.796954345703125,0.017600329592823982,0.0294874906539917,-0.0449366495013237
1772807450677886500,3.806886474609375,0.015099547803401947,0.03229246661067009,-0.03979197144508362
1772807450687818500,3.816818603515625,0.012196969240903854,0.03662196546792984,-0.03493649512529373
1772807450697749500,3.82674951171875,0.003931734245270491,0.03366297483444214,-0.042121171951293945
1772807450707681500,3.836681640625,0.001877638278529048,0.03517964482307434,-0.05360738933086395
1772807450717613600,3.846613525390625,-0.0013904409715905786,0.046457912772893906,-0.06338705122470856
1772807450727545600,3.856545654296875,0.0010101323714479804,0.05989702045917511,-0.0648171678185463
1772807450737477600,3.8664775390625,-0.0013693657238036394,0.06980780512094498,-0.05799868702888489
1772807450747409700,3.87640966796875,0.0006370599148795009,0.08193158358335495,-0.046858418732881546
1772807450757340400,3.88634033203125,-0.0034975726157426834,0.08311143517494202,-0.03313646465539932
1772807450767272400,3.8962724609375,-0.002718331292271614,0.08261262625455856,-0.025673221796751022
1772807450777204500,3.90620458984375,-0.0057251411490142345,0.08170686662197113,-0.019573967903852463
1772807450787136500,3.916136474609375,-0.0065653687343001366,0.07493259012699127,-0.018123609945178032
1772807450797067500,3.926067626953125,-0.005882027093321085,0.06758265197277069,-0.010663469322025776
1772807450806999600,3.93599951171875,-0.00981152057647705,0.06053166463971138,0.002352464245632291
1772807450816931600,3.945931640625,-0.010869024321436882,0.057543158531188965,0.011568857356905937
1772807450826863600,3.955863525390625,-0.010506035760045052,0.06186413764953613,0.02085796371102333
1772807450836794400,3.96579443359375,-0.017341697588562965,0.05320657044649124,0.02850913628935814
1772807450846726400,3.975726318359375,-0.021308209747076035,0.04428737983107567,0.028371982276439667
1772807450856658400,3.985658447265625,-0.018991805613040924,0.03246300294995308,0.027315419167280197
1772807450866590500,3.995590576171875,-0.023152196779847145,0.03518395125865936,0.020071886479854584
1772807450876522500,4.0055224609375,-0.024000411853194237,0.01838260143995285,0.010176381096243858
1772807450886454500,4.01545458984375,-0.033438656479120255,-0.0038449401035904884,-0.0201445072889328
1772807450896385500,4.025385498046875,-0.03361031413078308,0.0041639371775090694,-0.03138250857591629
1772807450906317600,4.035317626953125,-0.030499208718538284,-0.003603437915444374,-0.019968999549746513
1772807450916249600,4.04524951171875,-0.02798173576593399,0.004620727617293596,-0.004863903392106295
1772807450926181600,4.055181640625,-0.021269239485263824,0.008535308763384819,0.009210903197526932
1772807450936113400,4.065113525390625,-0.014951980672776699,0.013555750250816345,0.012709591537714005
1772807450946045400,4.07504541015625,-0.004964594263583422,0.017231976613402367,0.006352094002068043
1772807450955976400,4.0849765625,0.0014584566233679652,0.018759924918413162,0.01142540667206049
1772807450965908500,4.094908447265625,0.001050726743414998,0.009243384003639221,0.022785654291510582
1772807450975840500,4.104840576171875,0.0009531024843454361,0.002321516629308462,0.030987128615379333
1772807450985772300,4.114772216796875,0.00975724682211876,0.00954028032720089,0.02976367250084877
1772807450995704600,4.12470458984375,0.014876501634716988,0.013057946227490902,0.01968982256948948
1772807451005636600,4.13463671875,-0.00006329955067485571,-0.0004778360016644001,-0.011023880913853645
1772807451015567600,4.144567626953125,-0.0026176010724157095,-0.010161005891859531,-0.028728768229484558
1772807451025499600,4.154499755859375,-0.0006463293684646487,-0.012186339125037193,-0.02826724201440811
1772807451035431700,4.164431640625,0.001968489261344075,-0.011309466324746609,-0.009844469837844372
1772807451045363700,4.17436376953125,0.0007426362135447562,-0.008062540553510189,0.015239311382174492
1772807451055295700,4.184295654296875,0.004209957085549831,-0.011436982080340385,0.025375032797455788
1772807451065227500,4.1942275390625,0.003552688518539071,-0.010190090164542198,0.021523835137486458
1772807451075158500,4.204158447265625,0.003520858008414507,-0.015780970454216003,0.007974561303853989
1772807451085090600,4.214090576171875,-0.0017287653172388673,-0.01232605054974556,0.0016724566230550408
1772807451095022600,4.224022705078125,-0.004961892031133175,-0.016500594094395638,0.0014364226954057813
1772807451104954400,4.233954345703125,-0.01035266276448965,-0.02091877907514572,0.005437822546809912
1772807451114886400,4.243886474609375,-0.011393019929528236,-0.02196582965552807,0.0006483031320385635
1772807451124818700,4.253818603515625,-0.013580274768173695,-0.020015597343444824,-0.0053155794739723206
1772807451134749700,4.263749755859375,-0.015219008550047874,-0.026117762550711632,-0.005983865354210138
1772807451144681700,4.273681640625,-0.014984915032982826,-0.03234849497675896,-0.004384370520710945
1772807451154613500,4.283613525390625,-0.0117842061445117,-0.03745552897453308,0.0032851214054971933
1772807451164546600,4.293546630859375,-0.008572167716920376,-0.03361018747091293,0.010139831341803074
1772807451174478600,4.303478515625,-0.008910106495022774,-0.030620530247688293,0.017286745831370354
1772807451184410600,4.31341064453125,-0.00828319787979126,-0.02758399397134781,0.01696370542049408
1772807451194342700,4.3233427734375,-0.007637557573616505,-0.02483954280614853,0.018430139869451523
1772807451204274700,4.333274658203125,-0.0020776758901774883,-0.030958954244852066,0.015174957923591137
1772807451214205400,4.343205322265625,-0.0021676195319741964,-0.040330685675144196,0.014317404478788376
1772807451224137500,4.353137451171875,-0.000744159915484488,-0.042435914278030396,0.015171745792031288
1772807451234069500,4.363069580078125,0.008695710450410843,-0.044394854456186295,0.018773073330521584
1772807451244001500,4.37300146484375,0.01981254480779171,-0.03823176771402359,0.021625319495797157
1772807451253933600,4.38293359375,0.0318380743265152,-0.01980440691113472,0.01640569418668747
1772807451263865300,4.392865234375,0.040235284715890884,-0.00765213742852211,-0.0023597371764481068
1772807451273796600,4.402796630859375,0.0385173074901104,-0.005907881073653698,-0.02462146058678627
1772807451283728600,4.412728759765625,0.03642379492521286,-0.00771297188475728,-0.039878711104393005
1772807451293660700,4.42266064453125,0.03460231050848961,-0.01013303454965353,-0.05538549646735191
1772807451303592700,4.4325927734375,0.025202414020895958,-0.015160816721618176,-0.06037359684705734
1772807451313524500,4.4425244140625,0.021494634449481964,-0.021913690492510796,-0.06414338946342468
1772807451323456500,4.45245654296875,0.016155263409018517,-0.022390928119421005,-0.06990354508161545
1772807451333387500,4.462387451171875,0.01749148592352867,-0.0290219783782959,-0.07209745049476624
1772807451343319600,4.472319580078125,0.023485729470849037,-0.028701601549983025,-0.07626423239707947
1772807451353251600,4.48225146484375,0.025032110512256622,-0.02729540504515171,-0.07675053179264069
1772807451363183600,4.49218359375,0.03272358700633049,-0.027333222329616547,-0.08092609792947769
1772807451373115600,4.50211572265625,0.03297469764947891,-0.029726756736636162,-0.08228767663240433
1772807451383047700,4.512047607421875,0.035817354917526245,-0.02104325219988823,-0.0869775041937828
1772807451392978700,4.521978759765625,0.038114096969366074,-0.020046116784214973,-0.08341444283723831
1772807451402910500,4.531910400390625,0.03146897628903389,-0.02332446724176407,-0.0734907016158104
1772807451412842500,4.541842529296875,0.020173173397779465,-0.03365849703550339,-0.06489893049001694
1772807451422774500,4.5517744140625,0.011065696366131306,-0.02741098590195179,-0.07318881899118423
1772807451432706600,4.56170654296875,0.013136212714016438,-0.02624272182583809,-0.08930317312479019
1772807451442638600,4.571638671875,0.021474303677678108,-0.026654180139303207,-0.09946153312921524
1772807451452569600,4.581569580078125,0.025478824973106384,-0.030842458829283714,-0.0996154397726059
1772807451462501600,4.591501708984375,0.028487665578722954,-0.030854709446430206,-0.09406781196594238
1772807451472433700,4.60143359375,0.02833663672208786,-0.0338975191116333,-0.08471017330884933
1772807451482365700,4.61136572265625,0.03242219239473343,-0.027958670631051064,-0.07395899295806885
1772807451492297700,4.621297607421875,0.035844504833221436,-0.02017420530319214,-0.06141524016857147
1772807451502229800,4.631229736328125,0.04123154655098915,-0.009489869698882103,-0.0537826232612133
1772807451512160500,4.641160400390625,0.03919903561472893,-0.004451759625226259,-0.049239449203014374
1772807451522092500,4.651092529296875,0.041838228702545166,0.0009994651190936565,-0.04357463866472244
1772807451532024600,4.661024658203125,0.04136497154831886,-0.000591981690376997,-0.03900633752346039
1772807451541956600,4.67095654296875,0.04344569891691208,0.0014048563316464424,-0.037125613540410995
1772807451551888600,4.680888671875,0.04666987806558609,0.007868926972150803,-0.040318746119737625
1772807451561820400,4.6908203125,0.04696495458483696,0.006877698469907045,-0.043919872492551804
1772807451571751700,4.700751708984375,0.04275280982255936,0.0037614679895341396,-0.05377526581287384
1772807451581683700,4.71068359375,0.040043044835329056,0.013332603499293327,-0.06884289532899857
1772807451591615700,4.72061572265625,0.04063102975487709,0.028554869815707207,-0.07816822081804276
1772807451601547500,4.730547607421875,0.038364946842193604,0.0365733802318573,-0.09253837168216705
1772807451611479600,4.7404794921875,0.042067185044288635,0.03784018009901047,-0.1132940724492073
1772807451621411600,4.75041162109375,0.05165216699242592,0.05109526589512825,-0.1293654441833496
1772807451631342600,4.760342529296875,0.059886544942855835,0.05723097175359726,-0.13065175712108612
1772807451641274600,4.770274658203125,0.06167725473642349,0.069633848965168,-0.1147092878818512
1772807451651206400,4.780206298828125,0.06471484899520874,0.06926952302455902,-0.08989772945642471
1772807451661138400,4.790138427734375,0.06373906135559082,0.07251991331577301,-0.06927288323640823
1772807451671070500,4.800070556640625,0.056784018874168396,0.07131453603506088,-0.06065047159790993
1772807451681001700,4.810001708984375,0.05036526545882225,0.06168640777468681,-0.06632326543331146
1772807451690933800,4.819933837890625,0.04683287441730499,0.05084243416786194,-0.0857338160276413
1772807451700865500,4.829865478515625,0.043056514114141464,0.034208063036203384,-0.11183732002973557
1772807451710797600,4.839797607421875,0.039582010358572006,0.024156125262379646,-0.1340426653623581
1772807451720729600,4.8497294921875,0.043852925300598145,0.014942387118935585,-0.154057115316391
1772807451730661600,4.85966162109375,0.05199180915951729,-0.0021953205578029156,-0.1639595478773117
1772807451740592400,4.86959228515625,0.052878644317388535,-0.018804123625159264,-0.16851435601711273
1772807451750524400,4.8795244140625,0.05078084394335747,-0.031244168058037758,-0.15683124959468842
1772807451760456400,4.88945654296875,0.045232415199279785,-0.04071196913719177,-0.1347893327474594
1772807451770388500,4.899388427734375,0.04229725897312164,-0.052568964660167694,-0.10924944281578064
1772807451780320800,4.90932080078125,0.03631899505853653,-0.06522271037101746,-0.08611802011728287
1772807451790252800,4.919252685546875,0.02500084973871708,-0.08883386850357056,-0.06704428791999817
1772807451800183600,4.92918359375,0.010151862166821957,-0.1133892834186554,-0.05207466334104538
1772807451810115600,4.939115478515625,-0.005245330277830362,-0.1300182193517685,-0.04308045655488968
1772807451820047600,4.949047607421875,-0.015706492587924004,-0.12331131845712662,-0.03653174266219139
1772807451829979600,4.958979736328125,-0.02037743479013443,-0.10703183710575104,-0.03141891211271286
1772807451839911700,4.96891162109375,-0.020999016240239143,-0.0885484367609024,-0.025852372869849205
1772807451849843500,4.978843505859375,-0.02225400321185589,-0.07823881506919861,-0.01911928877234459
1772807451859774500,4.9887744140625,-0.02479572407901287,-0.08034830540418625,-0.005036758724600077
1772807451869706800,4.998706787109375,-0.023281510919332504,-0.057218730449676514,0.011403835378587246
1772807451879638800,5.008638671875,-0.019016191363334656,-0.017869992181658745,0.02560487575829029
1772807451889570600,5.018570556640625,-0.012700062245130539,0.010183680802583694,0.035064324736595154
1772807451899502600,5.028502685546875,-0.0002540457062423229,0.03325198218226433,0.04461521655321121
1772807451909434600,5.0384345703125,0.0032485437113791704,0.04722611978650093,0.049384139478206635
1772807451919366700,5.04836669921875,-0.002477518981322646,0.06613323092460632,0.06311699748039246
1772807451929297700,5.058297607421875,-0.006821831222623587,0.06316249072551727,0.07256873697042465
1772807451939229400,5.0682294921875,-0.007608262822031975,0.06974342465400696,0.07371895760297775
1772807451949161500,5.078161376953125,0.0020761308260262012,0.08144761621952057,0.07138391584157944
1772807451959093500,5.088093505859375,0.006337720900774002,0.09836694598197937,0.07021664828062057
1772807451969025500,5.098025634765625,0.01058827992528677,0.10411567986011505,0.061238065361976624
1772807451978957600,5.10795751953125,0.002733818721026182,0.1075623482465744,0.05622413381934166
1772807451988888800,5.117888916015625,-0.003837595460936427,0.100761778652668,0.050426237285137177
1772807451998820600,5.127820556640625,-0.014884919859468937,0.09111741185188293,0.0435028150677681
1772807452008752600,5.137752685546875,-0.025614870712161064,0.08472270518541336,0.030470389872789383
1772807452018684700,5.1476845703125,-0.02559196762740612,0.09203681349754333,0.022861206904053688
1772807452028616700,5.15761669921875,-0.028787270188331604,0.09770212322473526,0.02932041697204113
1772807452038548700,5.167548828125,-0.029891949146986008,0.09712687879800797,0.0435187928378582
1772807452048479500,5.1774794921875,-0.022824740037322044,0.09695921838283539,0.05578487366437912
1772807452058411500,5.18741162109375,-0.013934843242168427,0.08871300518512726,0.06336928904056549
1772807452068343600,5.197343505859375,-0.011170968413352966,0.07902553677558899,0.06281968951225281
1772807452078275600,5.207275634765625,-0.006972760893404484,0.06956678628921509,0.06282102316617966
1772807452088207600,5.21720751953125,-0.006283086258918047,0.06052841246128082,0.060893625020980835
1772807452098138600,5.227138671875,-0.00457227136939764,0.05408089607954025,0.06898669898509979
1772807452108070700,5.237070556640625,-0.0029526897706091404,0.051632076501846313,0.07809258997440338
1772807452118002700,5.247002685546875,-0.0029044863767921925,0.0564073882997036,0.08792311698198318
1772807452127934700,5.256934814453125,-0.0002968327607959509,0.04805709421634674,0.09696108102798462
1772807452137866800,5.26686669921875,0.002874459372833371,0.049392133951187134,0.09569022059440613
1772807452147798500,5.276798583984375,0.0033558690920472145,0.04877075180411339,0.09210763871669769
1772807452157729500,5.2867294921875,0.006859524175524712,0.050804607570171356,0.08306221663951874
1772807452167661600,5.29666162109375,0.009940877556800842,0.04622436314821243,0.07246231287717819
1772807452177593600,5.306593505859375,0.011227717623114586,0.041972361505031586,0.06024212762713432
1772807452187525600,5.316525634765625,0.012606438249349594,0.04055798053741455,0.05784108117222786
1772807452197457700,5.326457763671875,0.014553475193679333,0.03472379595041275,0.055225323885679245
1772807452207389700,5.3363896484375,0.008760996162891388,0.03468966856598854,0.04774000123143196
1772807452217320700,5.34632080078125,0.008523442782461643,0.030519692227244377,0.036015965044498444
1772807452227252700,5.356252685546875,0.010217097587883472,0.023217352107167244,0.029385223984718323
1772807452237184500,5.3661845703125,0.008062068372964859,0.016536545008420944,0.02558436058461666
1772807452247116500,5.376116455078125,0.001469830283895135,0.0032708575017750263,0.026180371642112732
1772807452257048600,5.386048583984375,0.001190464710816741,0.003786711487919092,0.02322479709982872
1772807452266980600,5.395980712890625,-0.0005982533330097795,0.00632300041615963,0.015993604436516762
1772807452276911600,5.40591162109375,0.0006033648969605565,0.0043730344623327255,0.01066169049590826
1772807452286843600,5.41584375,0.0031046057119965553,0.006132851354777813,0.014063878916203976
1772807452296775700,5.425775634765625,0.0011879288358613849,0.005848425440490246,0.01550491526722908
1772807452306707700,5.435707763671875,0.0024741538800299168,0.00491407560184598,0.019426140934228897
1772807452316639700,5.4456396484375,0.004627053160220385,0.0033824914135038853,0.01710093580186367
1772807452326571800,5.45557177734375,0.005711816251277924,-0.0012320075184106827,0.019869398325681686
1772807452336502500,5.46550244140625,0.006871090270578861,-0.007357277907431126,0.016593975946307182
1772807452346434600,5.4754345703125,0.008844885975122452,-0.010059959255158901,0.007571542635560036
1772807452356366600,5.48536669921875,0.003784880042076111,-0.01152230054140091,-0.006860393099486828
1772807452366298600,5.495298583984375,0.002705038757994771,-0.025965755805373192,-0.014814472757279873
1772807452376230700,5.505230712890625,-0.001034572022035718,-0.0401042141020298,-0.01975330524146557
1772807452386162400,5.515162353515625,0.0010474167065694928,-0.04176755249500275,-0.02548814006149769
1772807452396093700,5.52509375,0.004887961316853762,-0.03494932875037193,-0.025481749325990677
1772807452406025700,5.535025634765625,0.010975882411003113,-0.030584383755922318,-0.030391182750463486
1772807452415957800,5.544957763671875,0.014512293972074986,-0.03565078228712082,-0.0325121246278286
1772807452425889800,5.554889892578125,0.012175535783171654,-0.04121360555291176,-0.02324184589087963
1772807452435821600,5.564821533203125,0.012167546898126602,-0.04344506934285164,-0.010215525515377522
1772807452445753600,5.574753662109375,0.013342038728296757,-0.0509612150490284,-0.001224968465976417
1772807452455684600,5.5846845703125,0.01348611619323492,-0.049750808626413345,-0.0008670397219248116
1772807452465616600,5.59461669921875,0.01100020669400692,-0.044092610478401184,-0.008899137377738953
1772807452475548700,5.604548583984375,0.011283034458756447,-0.037173449993133545,-0.012835022993385792
1772807452485480400,5.61448046875,0.011724296025931835,-0.030264830216765404,-0.018107455223798752
1772807452495412500,5.62441259765625,0.008541285991668701,-0.029867753386497498,-0.02212083898484707
1772807452505344500,5.634344482421875,0.003505805041640997,-0.038866955786943436,-0.02904381975531578
1772807452515275800,5.64427587890625,0.0032813006546348333,-0.04695364087820053,-0.027129273861646652
1772807452525207600,5.65420751953125,0.0064988043159246445,-0.033540260046720505,-0.014636475592851639
1772807452535139600,5.6641396484375,0.01077850442379713,-0.014818503521382809,0.004792083520442247
1772807452545071600,5.674071533203125,0.011900760233402252,-0.007503598928451538,0.024439020082354546
1772807452555003600,5.684003662109375,0.012502901256084442,0.002096298150718212,0.028575176373124123
1772807452564935700,5.693935791015625,0.009110960178077221,0.009322414174675941,0.01771995611488819
1772807452574866400,5.703866455078125,0.008678995072841644,0.017167022451758385,0.01030811294913292
1772807452584798500,5.713798583984375,0.003346015466377139,0.02887188084423542,0.007389287929981947
1772807452594730500,5.72373046875,-0.0020415594335645437,0.038524240255355835,0.007161055225878954
1772807452604662800,5.733662841796875,-0.006219589151442051,0.046407751739025116,0.0029435097239911556
1772807452614594800,5.7435947265625,-0.006720796227455139,0.05003870651125908,-0.006232411600649357
1772807452624526800,5.75352685546875,-0.007642822805792093,0.05166394263505936,-0.01565493270754814
1772807452634457600,5.76345751953125,-0.004873401485383511,0.04759703204035759,-0.013924145139753819
1772807452644389600,5.7733896484375,-0.0011925317812711,0.04226486384868622,-0.0020206389017403126
1772807452654321700,5.78332177734375,-0.0019022643100470304,0.038988642394542694,0.007122259121388197
1772807452664253700,5.793253662109375,0.0028494750149548054,0.039151255041360855,0.015955787152051926
1772807452674185500,5.803185546875,0.004280923865735531,0.03688224032521248,0.020507927983999252
1772807452684117500,5.813117431640625,0.006605238653719425,0.031781960278749466,0.02385649085044861
1772807452694048800,5.823048828125,0.004625444300472736,0.026468422263860703,0.01555967889726162
1772807452703980800,5.832980712890625,0.0017996326787397265,0.01610543765127659,0.007366389036178589
1772807452713912800,5.842912841796875,0.0014787218533456326,0.009391341358423233,0.0033346295822411776
1772807452723844600,5.8528447265625,-0.00031509483233094215,0.006327176932245493,-0.006811649072915316
1772807452733776600,5.862776611328125,0.005711106117814779,0.0034006289206445217,-0.022690214216709137
1772807452743708700,5.872708740234375,0.009615439921617508,-0.0011684522032737732,-0.03248381242156029
1772807452753639700,5.8826396484375,0.0051655638962984085,-0.009830649942159653,-0.027837930247187614
1772807452763571700,5.89257177734375,0.0028856447897851467,-0.02398301288485527,-0.02404363639652729
1772807452773503500,5.90250341796875,0.002978056203573942,-0.02705550193786621,-0.02031814120709896
1772807452783435500,5.912435546875,0.002797693945467472,-0.024441253393888474,-0.017030129209160805
1772807452793367600,5.922367431640625,0.005999612621963024,-0.024992527440190315,-0.00983426719903946
1772807452803299600,5.932299560546875,0.00109914131462574,-0.02564026415348053,-0.0028375242836773396
1772807452813230600,5.942230712890625,0.000641077640466392,-0.021644722670316696,-0.006085249129682779
1772807452823162600,5.95216259765625,0.004656163509935141,-0.01943163201212883,-0.011846015229821205
1772807452833094700,5.9620947265625,0.006155256647616625,-0.017511490732431412,-0.017861830070614815
1772807452843026700,5.972026611328125,0.007003346458077431,-0.014765400439500809,-0.01866592839360237
1772807452852958700,5.981958740234375,0.0048898616805672646,-0.011755762621760368,-0.01757083646953106
1772807452862890800,5.991890869140625,0.007864391431212425,-0.011266758665442467,-0.009526146575808525
1772807452872821500,6.001821533203125,0.00691710552200675,-0.008724505081772804,-0.007113056723028421
1772807452882753500,6.01175341796875,0.01156775001436472,-0.0033229184336960316,-0.004474123008549213
1772807452892685600,6.021685546875,0.011878540739417076,0.001828966662287712,-0.0026562493294477463
1772807452902617600,6.03161767578125,0.008810936473309994,-0.002189147751778364,0.0034326338209211826
1772807452912549600,6.041549560546875,0.00499942060559988,0.004721755627542734,0.007456137798726559
1772807452922481700,6.051481689453125,0.0060489727184176445,0.007498633582144976,0.00992621947079897
1772807452932412700,6.06141259765625,0.005393834784626961,0.00967683270573616,0.011353407986462116
1772807452942344700,6.0713447265625,0.004096922930330038,0.012407680042088032,0.004052962176501751
1772807452952276700,6.08127685546875,0.00493608508259058,0.007401736453175545,0.0007165540591813624
1772807452962208800,6.091208740234375,0.004240153357386589,0.010266190394759178,0.0008701402693986893
1772807452972140500,6.101140625,0.00722289364784956,0.01683034934103489,0.0035159909166395664
1772807452982072600,6.111072509765625,0.0031470530666410923,0.028176376596093178,0.0029352454002946615
1772807452992004000,6.121004150390625,0.0005544655723497272,0.028074907138943672,0.0010888760443776846
1772807453001936100,6.13093603515625,-0.000006836256943643093,0.029410574585199356,-0.007265303283929825
1772807453011868200,6.1408681640625,-0.005139280576258898,0.021221887320280075,-0.013215337879955769
1772807453021800000,6.150800048828125,-0.011998678557574749,0.008772676810622215,-0.019630976021289825
1772807453031732000,6.16073193359375,-0.015155323781073093,0.0001709330826997757,-0.012350957840681076
1772807453041664000,6.1706640625,-0.016757400706410408,-0.010895716026425362,-0.00868084467947483
1772807453051595300,6.18059521484375,-0.014622610993683338,-0.004736622795462608,-0.001832525827921927
1772807453061527000,6.190527099609375,-0.00915699265897274,-0.0050647808238863945,-0.000240401946939528
1772807453071459000,6.200458984375,-0.007694651372730732,-0.008480284363031387,-0.0018460217397660017
1772807453081391000,6.21039111328125,-0.003524026134982705,-0.011460676789283752,-0.0036455155350267887
1772807453091323100,6.2203232421875,0.0021122877951711416,-0.012221008539199829,-0.002516868058592081
1772807453101255200,6.230255126953125,0.0007816576398909092,-0.011543186381459236,0.002779356436803937
1772807453111186000,6.24018603515625,0.008750900626182556,-0.012124820612370968,0.007806605193763971
1772807453121118000,6.250117919921875,0.009380852803587914,-0.021057112142443657,0.004900035448372364
1772807453131050000,6.260050048828125,0.005141367204487324,-0.02155911736190319,-0.0002707579405978322
1772807453140982300,6.269982177734375,0.0048445058055222034,-0.018506722524762154,-0.005839889869093895
1772807453150914300,6.279914306640625,0.003970456309616566,-0.02023165114223957,-0.01119790319353342
1772807453160846300,6.289846435546875,0.004629380535334349,-0.020426103845238686,-0.013949908316135406
1772807453170777000,6.299777099609375,0.00672635342925787,-0.024618452414870262,-0.011117370799183846
1772807453180709000,6.309709228515625,0.005842982791364193,-0.022033054381608963,-0.007991884835064411
1772807453190641200,6.31964111328125,0.002122280653566122,-0.028014248237013817,-0.009706960991024971
1772807453200573200,6.3295732421875,0.002898500533774495,-0.03439551219344139,-0.011096961796283722
1772807453210505200,6.339505126953125,0.0012750375317409635,-0.034064214676618576,-0.011822140775620937
1772807453220437000,6.34943701171875,0.002366086933761835,-0.029960857704281807,-0.008663710206747055
1772807453230368300,6.3593681640625,0.0035767601802945137,-0.02775123342871666,-0.006159539800137281
1772807453240300300,6.36930029296875,0.0024590555112808943,-0.026209643110632896,-0.008088828064501286
1772807453250232300,6.379232421875,0.0009612937574274838,-0.026971040293574333,-0.00898498110473156
1772807453260164000,6.3891640625,0.0004081310471519828,-0.02684602327644825,-0.013809469528496265
1772807453270096100,6.39909619140625,-0.000055525335483253,-0.026173576712608337,-0.013785501010715961
1772807453280028200,6.409028076171875,0.0009327160660177469,-0.03259015828371048,-0.010639081709086895
1772807453289959200,6.418959228515625,-0.001753880875185132,-0.03853166848421097,-0.0041436320170760155
1772807453299891200,6.42889111328125,-0.0014306183438748121,-0.039354365319013596,-0.0012584422947838902
1772807453309823000,6.438822998046875,-0.0012612412683665752,-0.029498806223273277,0.007642640732228756
1772807453319755000,6.448755126953125,0.0010940219508484006,-0.026230940595269203,0.009135350584983826
1772807453329687000,6.45868701171875,0.0005163823370821774,-0.018010294064879417,0.006793100852519274
1772807453339619000,6.468619140625,0.00039175868732854724,-0.014274734072387218,0.006408093497157097
1772807453349550300,6.47855029296875,-0.0027816640213131905,-0.014691784977912903,0.0021616832818835974
1772807453359482000,6.488482177734375,-0.00015197857283055782,-0.00985001027584076,-0.004304667469114065
1772807453369414100,6.4984140625,-0.0016657192027196288,-0.009408459067344666,-0.007584350183606148
1772807453379346200,6.50834619140625,-0.005806509405374527,-0.011252163909375668,-0.004764511715620756
1772807453389278200,6.5182783203125,-0.005294117145240307,-0.015315880998969078,-0.0008233000407926738
1772807453399210200,6.528210205078125,-0.005038237664848566,-0.01586908847093582,0.0077010756358504295
1772807453409141000,6.53814111328125,-0.004436097107827663,-0.00983676128089428,0.012464671395719051
1772807453419073000,6.548072998046875,-0.00014639680739492178,-0.005634706001728773,0.01709454320371151
1772807453429005000,6.558005126953125,-0.0007485374808311462,-0.005607541650533676,0.017375506460666656
1772807453438937000,6.56793701171875,-0.00971688237041235,-0.0055612544529139996,0.011897922493517399
1772807453448869000,6.577869140625,-0.010925957933068275,-0.008759178221225739,0.013084626756608486
1772807453458801200,6.58780126953125,-0.008175086230039597,-0.010973801836371422,0.013989814557135105
1772807453468732200,6.597732177734375,-0.004439203068614006,-0.005995288956910372,0.017201319336891174
1772807453478664200,6.607664306640625,-0.0003967911470681429,-0.0027267916593700647,0.01831171102821827
1772807453488596200,6.61759619140625,-0.0030847194138914347,-0.0013552638702094555,0.016941780224442482
1772807453498528300,6.6275283203125,-0.0023633847013115883,-0.0035469955764710903,0.01187058538198471
1772807453508460000,6.6374599609375,-0.0022065246012061834,-0.001492899376899004,0.009354696609079838
1772807453518392000,6.64739208984375,-0.00020410551223903894,-0.01064772717654705,0.008909597061574459
1772807453528323000,6.657322998046875,-0.00205739913508296,-0.007610125467181206,0.004563318099826574
1772807453538255000,6.667255126953125,0.00065453234128654,-0.007890988141298294,-0.00008204167534131557
1772807453548187100,6.677187255859375,-0.0009162001078948379,-0.009044669568538666,0.0006572518614120781
1772807453558119200,6.687119140625,-0.003011621767655015,-0.007024706806987524,0.001053984509781003
1772807453568051200,6.69705126953125,-0.003045976860448718,-0.0014933212660253048,-0.0033974891994148493
1772807453577983200,6.706983154296875,-0.001728730509057641,0.0003706701099872589,-0.005855242256075144
1772807453587915300,6.716915283203125,-0.0022773416712880135,-0.0009443988092243671,-0.004895173013210297
1772807453597846000,6.726845947265625,-0.006118396762758493,-0.0032886210829019547,-0.0022286430466920137
1772807453607778000,6.736778076171875,-0.0033282027579844,0.0017239805310964584,-0.0016731078503653407
1772807453617710000,6.7467099609375,-0.0016485807718709111,0.005606233142316341,0.0020148451440036297
1772807453627642000,6.75664208984375,-0.0030571268871426582,0.00788030680269003,0.0015751572791486979
1772807453637574100,6.76657421875,-0.001193817937746644,0.006851524580270052,0.007418747991323471
1772807453647506200,6.776506103515625,-0.0000598439946770668,0.005768150556832552,0.00958283245563507
1772807453657437200,6.786437255859375,0.0024531474336981773,0.004163671750575304,0.0073592932894825935
1772807453667369200,6.796369140625,-0.0017392007866874337,0.009687598794698715,0.002910748589783907
1772807453677301200,6.80630126953125,0.0011332184076309204,0.0038300659507513046,0.004938020836561918
1772807453687233300,6.8162333984375,0.002128707943484187,0.005265243351459503,0.00669384328648448
1772807453697165000,6.8261650390625,0.002234056359156966,0.004281454719603062,0.009840925224125385
1772807453707097000,6.83609716796875,-0.0016059555346146226,0.0022752955555915833,0.006175616756081581
1772807453717028000,6.846028076171875,-0.0016078229527920485,-0.007653167471289635,0.004054113756865263
1772807453726960000,6.855960205078125,-0.0007393661653622985,-0.021862996742129326,-0.0003385040909051895
1772807453736892200,6.86589208984375,-0.001016430207528174,-0.032277874648571014,-0.011308695189654827
1772807453746824000,6.875823974609375,0.0016123761888593435,-0.04013153910636902,-0.021244682371616364
1772807453756756000,6.885755859375,0.0033270474523305893,-0.041329532861709595,-0.02389870025217533
1772807453766688000,6.89568798828125,0.004361152648925781,-0.029134385287761688,-0.0166730098426342
1772807453776619300,6.905619384765625,0.0040016258135437965,-0.00916413962841034,-0.007091755047440529
1772807453786551300,6.91555126953125,0.010061648674309254,0.005319461692124605,-0.0023638454731553793
1772807453796483000,6.925483154296875,0.010571322403848171,0.014453842304646969,0.0001356324355583638
1772807453806415000,6.9354150390625,0.007727332413196564,0.015967585146427155,-0.0023176714312285185
1772807453816347100,6.94534716796875,0.007241965737193823,0.020771287381649017,-0.0020438083447515965
1772807453826279200,6.955279052734375,0.007910951972007751,0.026291754096746445,-0.004686995875090361
1772807453836210000,6.9652099609375,0.006307507865130901,0.035617124289274216,-0.00473006023094058
1772807453846142000,6.975141845703125,0.0023447242565453053,0.035126037895679474,-0.0021337447687983513
1772807453856074000,6.985073974609375,-0.001634211279451847,0.03367281332612038,0.0011561558349058032
1772807453866006000,6.995006103515625,-0.00504971481859684,0.0376070998609066,0.0030190369579941034
1772807453875938300,7.004938232421875,-0.005131371319293976,0.03324005380272865,0.008197205141186714
1772807453885870300,7.014870361328125,-0.0075228894129395485,0.029028795659542084,0.010658498853445053
1772807453895801000,7.024801025390625,-0.006217686925083399,0.02428150177001953,0.011140445247292519
1772807453905733000,7.034733154296875,-0.006848589982837439,0.0190313458442688,0.007618414703756571
1772807453915665200,7.0446650390625,-0.0019961008802056313,0.021586421877145767,0.006998324766755104
1772807453925597200,7.05459716796875,-0.003379879519343376,0.01684759370982647,0.016509538516402245
1772807453935529200,7.064529296875,-0.0039299605414271355,0.01893487200140953,0.023180579766631126
1772807453945461000,7.0744609375,-0.0005480124382302165,0.01863100565969944,0.0242794007062912
1772807453955392000,7.08439208984375,-0.002317833248525858,0.01493155863136053,0.02160026505589485
1772807453965324300,7.09432421875,-0.002543669193983078,0.011233759112656116,0.01918317936360836
1772807453975256300,7.10425634765625,-0.004993159789592028,0.013292225077748299,0.017970001325011253
1772807453985188400,7.114188232421875,-0.00559503398835659,0.016202526167035103,0.017239229753613472
1772807453995119400,7.124119384765625,-0.003037897404283285,0.019625909626483917,0.009142162278294563
1772807454005051400,7.134051513671875,-0.0030826381407678127,0.030984023585915565,0.011303317733108997
1772807454014982100,7.143982177734375,-0.0067161382175982,0.03321836143732071,0.0067929914221167564
1772807454024914200,7.1539140625,-0.006120921578258276,0.03237999975681305,-0.0010084727546200156
1772807454034846200,7.16384619140625,-0.0005370127037167549,0.027850983664393425,-0.006736028008162975
1772807454044778200,7.1737783203125,-0.003548515262082219,0.025694889947772026,-0.00652430672198534
1772807454054710300,7.183710205078125,-0.005609616637229919,0.02332988753914833,-0.006476114969700575
1772807454064642300,7.193642333984375,-0.004613594152033329,0.020588962361216545,-0.00791076011955738
1772807454074573300,7.2035732421875,-0.0030205869115889072,0.017284724861383438,-0.006154768634587526
1772807454084505300,7.21350537109375,-0.0017028545262292027,0.013183722272515297,0.005766339134424925
1772807454094437400,7.223437255859375,-0.0015269904397428036,0.008472911082208157,0.013896800577640533
1772807454104369200,7.233369140625,0.000037883000914007425,0.015542538836598396,0.01990489289164543
1772807454114301200,7.24330126953125,0.001367876655422151,0.017672214657068253,0.02263445220887661
1772807454124233200,7.253233154296875,0.000635507283732295,0.017674876376986504,0.019346512854099274
1772807454134164200,7.263164306640625,0.0034488369710743427,0.020217562094330788,0.012832695618271828
1772807454144096300,7.27309619140625,0.000828552758321166,0.022126514464616776,-0.002266096184030175
1772807454154028300,7.2830283203125,-0.0013167394790798426,0.016877740621566772,-0.009494185447692871
1772807454163960300,7.292960205078125,-0.0020853278692811728,0.010334886610507965,-0.009520816616714
1772807454173892400,7.302892333984375,-0.004682199098169804,0.0035788249224424362,-0.003851652378216386
1772807454183824400,7.312824462890625,-0.003952492959797382,-0.0008097984828054905,0.00021153251873329282
1772807454193756400,7.32275634765625,-0.004476857837289572,-0.0018908316269516945,0.0039743990637362
1772807454203687200,7.332687255859375,-0.004601493943482637,-0.00844993069767952,0.006499342154711485
1772807454213619200,7.342619140625,-0.0016010970575734973,-0.006679076235741377,0.007160084322094917
1772807454223551200,7.35255126953125,0.0003840232384391129,-0.0014560846611857414,0.004818100482225418
1772807454233483300,7.362483154296875,-0.0026424499228596687,-0.005059835966676474,0.004502410069108009
1772807454243415300,7.372415283203125,-0.00006983638741075993,-0.0022323578596115112,0.0008653310360386968
1772807454253347000,7.38234716796875,0.0003532122354954481,-0.0018767192959785461,-0.004822205752134323
1772807454263278300,7.3922783203125,0.0013692082138732076,-0.001676982268691063,-0.0034405577462166548
1772807454273210400,7.40221044921875,0.0020976646337658167,-0.0025304120499640703,-0.000834909500554204
1772807454283142400,7.412142333984375,0.001764769433066249,-0.005325665697455406,-0.0019134897738695145
1772807454293074400,7.422074462890625,0.0004700185963883996,-0.009189493022859097,-0.0024875961244106293
1772807454303006200,7.432006103515625,-0.0017755586886778474,-0.015112096443772316,0.00152205943595618
1772807454312938200,7.441938232421875,-0.003944150172173977,-0.015804357826709747,0.0008766820537857711
1772807454322869200,7.451869140625,0.0003342177369631827,-0.009272156283259392,-0.000661559752188623
1772807454332801300,7.46180126953125,0.0006758376257494092,-0.006622524466365576,-0.0032954118214547634
1772807454342733000,7.471733154296875,0.0034766842145472765,-0.00774717703461647,-0.0020788798574358225
1772807454352665000,7.4816650390625,0.007778326515108347,-0.0066544776782393456,-0.000998517731204629
1772807454362597000,7.49159716796875,0.006110121961683035,-0.007585784886032343,-0.007235907483845949
1772807454372529200,7.501529052734375,0.008099133148789406,-0.005250197369605303,-0.011074771173298359
1772807454382460400,7.51146044921875,0.0077646393328905106,-0.004834477789700031,-0.005284526851028204
1772807454392392200,7.52139208984375,0.009556319564580917,-0.0013298126868903637,0.0015282746171578765
1772807454402324200,7.53132421875,0.008258560672402382,0.0015517277643084526,0.004338975064456463
1772807454412256300,7.54125634765625,0.006800604984164238,0.002391824033111334,-0.006878494285047054
1772807454422188300,7.551188232421875,0.0005818578065373003,-0.0021784270647913218,-0.01428820751607418
1772807454432120300,7.561120361328125,-0.0019835620187222958,-0.01416528970003128,-0.016948647797107697
1772807454442051000,7.571051025390625,-0.0034214025363326073,-0.007068498991429806,-0.02112075686454773
1772807454451983000,7.580983154296875,0.001997692044824362,-0.0007916390895843506,-0.025008872151374817
1772807454461915100,7.5909150390625,0.0030280686914920807,0.0059983558021485806,-0.021877260878682137
1772807454471847200,7.60084716796875,0.0030062953010201454,0.01087508350610733,-0.01596825383603573
1772807454481779500,7.610779541015625,0.003388991579413414,0.011458849534392357,-0.006158767268061638
1772807454491711200,7.620711181640625,-0.0027001979760825634,0.01030026562511921,0.002192463492974639
1772807454501642200,7.630642333984375,-0.005815564189106226,0.011406542733311653,0.007195211946964264
1772807454511574300,7.64057421875,-0.005873088259249926,0.011433707550168037,0.00822665449231863
1772807454521506300,7.65050634765625,-0.003640294075012207,0.012156754732131958,0.007175504229962826
1772807454531438300,7.660438232421875,-0.0029587058816105127,0.02945808693766594,0.023128116503357887
1772807454541370000,7.6703701171875,-0.003423427464440465,0.033166538923978806,0.04203442856669426
1772807454551302100,7.68030224609375,0.00010872306302189827,0.039298467338085175,0.04600014165043831
1772807454561234200,7.690234130859375,-0.0018732014577835798,0.03150126338005066,0.03548997640609741
1772807454571165400,7.70016552734375,0.00001968839205801487,0.030234292149543762,0.028124727308750153
1772807454581097500,7.710097412109375,0.0021150633692741394,0.028137587010860443,0.024391241371631622
1772807454591029200,7.720029296875,0.0023336324375122786,0.029257025569677353,0.029218416661024094
1772807454600961300,7.729961181640625,0.001675032777711749,0.023431356996297836,0.033686403185129166
1772807454610893300,7.739893310546875,0.005361584946513176,0.022761888802051544,0.03344661369919777
1772807454620825300,7.749825439453125,0.005557593423873186,0.018660355359315872,0.026328517124056816
1772807454630756000,7.759756103515625,0.004537154920399189,0.007658943068236113,0.0009709722362458706
1772807454640688000,7.769688232421875,-0.0012637425679713488,-0.008759444579482079,-0.032984331250190735
1772807454650620200,7.7796201171875,-0.006906670983880758,-0.04088723286986351,-0.08295448124408722
1772807454660552200,7.78955224609375,-0.010224437341094017,-0.028634831309318542,-0.10914161056280136
1772807454670484200,7.799484130859375,-0.006574724335223436,-0.011639388278126717,-0.0710860937833786
