time,seconds_elapsed,z,y,x
1772807507632667400,0.06066748046875,-0.0714569091796875,0.96844482421875,0.19659423828125
1772807507642599400,0.070599365234375,-0.0752410888671875,0.97113037109375,0.1956024169921875
1772807507652531500,0.080531494140625,-0.0798797607421875,0.97320556640625,0.19537353515625
1772807507662463500,0.09046337890625,-0.08111572265625,0.972198486328125,0.1974639892578125
1772807507672395300,0.100395263671875,-0.0814666748046875,0.9750213623046875,0.1990814208984375
1772807507682328300,0.110328369140625,-0.0813446044921875,0.977630615234375,0.200408935546875
1772807507692260400,0.12026025390625,-0.078887939453125,0.975921630859375,0.1985626220703125
1772807507702192400,0.1301923828125,-0.077667236328125,0.971435546875,0.2007904052734375
1772807507712124400,0.14012451171875,-0.08050537109375,0.9661102294921875,0.2014312744140625
1772807507722056400,0.150056396484375,-0.08001708984375,0.9645233154296875,0.202362060546875
1772807507731988500,0.159988525390625,-0.079986572265625,0.9671783447265625,0.20477294921875
1772807507741920300,0.169920166015625,-0.0777130126953125,0.971466064453125,0.2066497802734375
1772807507751852300,0.179852294921875,-0.079193115234375,0.9692840576171875,0.2093658447265625
1772807507761785300,0.189785400390625,-0.080230712890625,0.9694976806640625,0.208953857421875
1772807507771717400,0.19971728515625,-0.082733154296875,0.9704132080078125,0.2055816650390625
1772807507781649400,0.2096494140625,-0.0836944580078125,0.9717864990234375,0.200347900390625
1772807507791581400,0.21958154296875,-0.0849151611328125,0.9698638916015625,0.1980438232421875
1772807507801513500,0.229513427734375,-0.0861358642578125,0.9719085693359375,0.19464111328125
1772807507811445200,0.2394453125,-0.0878753662109375,0.9721221923828125,0.1945037841796875
1772807507821378300,0.24937841796875,-0.085906982421875,0.9698638916015625,0.196746826171875
1772807507831310300,0.259310302734375,-0.08319091796875,0.9677276611328125,0.197601318359375
1772807507841242400,0.269242431640625,-0.0787200927734375,0.9657745361328125,0.1958160400390625
1772807507851174400,0.27917431640625,-0.077728271484375,0.9673309326171875,0.195831298828125
1772807507861106400,0.2891064453125,-0.078125,0.9698486328125,0.191162109375
1772807507871038500,0.29903857421875,-0.0825958251953125,0.96636962890625,0.194244384765625
1772807507880970200,0.30897021484375,-0.0886077880859375,0.95977783203125,0.1973419189453125
1772807507890902300,0.31890234375,-0.0949859619140625,0.961181640625,0.1957855224609375
1772807507900835300,0.32883544921875,-0.097564697265625,0.965118408203125,0.19696044921875
1772807507910767400,0.338767333984375,-0.093780517578125,0.9691925048828125,0.1948089599609375
1772807507920699400,0.348699462890625,-0.0959930419921875,0.970001220703125,0.1974639892578125
1772807507930631400,0.35863134765625,-0.0924224853515625,0.9694671630859375,0.1952972412109375
1772807507940563200,0.368563232421875,-0.092620849609375,0.9663848876953125,0.19427490234375
1772807507950495200,0.3784951171875,-0.086761474609375,0.96356201171875,0.1956329345703125
1772807507960427300,0.38842724609375,-0.0908966064453125,0.9652252197265625,0.1973724365234375
1772807507970360300,0.3983603515625,-0.0890350341796875,0.9677581787109375,0.2047271728515625
1772807507980292400,0.408292236328125,-0.0862579345703125,0.9686431884765625,0.2019500732421875
1772807507990224400,0.418224365234375,-0.0904541015625,0.9763336181640625,0.2198028564453125
1772807508000156400,0.428156494140625,-0.090240478515625,0.9835052490234375,0.2281951904296875
1772807508010088200,0.438088134765625,-0.075836181640625,0.9877777099609375,0.233978271484375
1772807508020020200,0.448020263671875,-0.073974609375,0.985137939453125,0.238433837890625
1772807508029952300,0.4579521484375,-0.074462890625,0.9805755615234375,0.239349365234375
1772807508039885300,0.46788525390625,-0.0675048828125,0.969268798828125,0.2544708251953125
1772807508049816800,0.47781689453125,-0.0672607421875,0.9620819091796875,0.25653076171875
1772807508059748900,0.487748779296875,-0.06402587890625,0.9676513671875,0.260528564453125
1772807508069681000,0.497680908203125,-0.05670166015625,0.964599609375,0.26324462890625
1772807508079613000,0.507613037109375,-0.04974365234375,0.9660491943359375,0.2573699951171875
1772807508089545000,0.517544921875,-0.04229736328125,0.97015380859375,0.2462615966796875
1772807508099478000,0.52747802734375,-0.0339202880859375,0.97161865234375,0.23675537109375
1772807508109410000,0.53741015625,-0.0299224853515625,0.974822998046875,0.2277069091796875
1772807508119341800,0.547341796875,-0.0244903564453125,0.976287841796875,0.222564697265625
1772807508129273900,0.55727392578125,-0.0154266357421875,0.980438232421875,0.2151641845703125
1772807508139206000,0.567205810546875,-0.0144805908203125,0.9827728271484375,0.211669921875
1772807508149138000,0.577137939453125,-0.0168609619140625,0.976593017578125,0.2047576904296875
1772807508159070000,0.587070068359375,-0.00927734375,0.9696502685546875,0.1970672607421875
1772807508169003000,0.5970029296875,-0.002593994140625,0.97271728515625,0.194427490234375
1772807508178935000,0.60693505859375,0.00238037109375,0.97772216796875,0.1925201416015625
1772807508188866800,0.61686669921875,0.0075225830078125,0.978546142578125,0.189422607421875
1772807508198798800,0.626798828125,0.010498046875,0.9750518798828125,0.1941680908203125
1772807508208731000,0.63673095703125,0.01007080078125,0.9727325439453125,0.2010498046875
1772807508218663000,0.646662841796875,0.0137939453125,0.9708099365234375,0.20611572265625
1772807508228595000,0.656594970703125,0.0156402587890625,0.9691009521484375,0.20550537109375
1772807508238528000,0.666528076171875,0.010498046875,0.9763946533203125,0.206878662109375
1772807508248460000,0.6764599609375,0.00775146484375,0.9723052978515625,0.1981201171875
1772807508258391800,0.686391845703125,0.0138092041015625,0.9670562744140625,0.192474365234375
1772807508268323800,0.69632373046875,0.02288818359375,0.96405029296875,0.1873779296875
1772807508278255900,0.706255859375,0.019195556640625,0.970062255859375,0.18743896484375
1772807508288188000,0.71618798828125,0.0159912109375,0.9736175537109375,0.1889801025390625
1772807508298120000,0.726119873046875,0.0202789306640625,0.9735107421875,0.1938629150390625
1772807508308053000,0.736052978515625,0.0192718505859375,0.9759979248046875,0.1983184814453125
1772807508317985000,0.745985107421875,0.0176544189453125,0.9780426025390625,0.2020721435546875
1772807508327916800,0.755916748046875,0.0196075439453125,0.971160888671875,0.2061920166015625
1772807508337848800,0.765848876953125,0.0222930908203125,0.9688873291015625,0.2090911865234375
1772807508347780900,0.77578076171875,0.0212860107421875,0.9694976806640625,0.2093353271484375
1772807508357713000,0.785712890625,0.0143280029296875,0.9706573486328125,0.2073822021484375
1772807508367645000,0.79564501953125,0.005584716796875,0.9722442626953125,0.2069549560546875
1772807508377578000,0.805577880859375,-0.0016937255859375,0.96893310546875,0.21185302734375
1772807508387510000,0.815510009765625,-0.00103759765625,0.964508056640625,0.22027587890625
1772807508397441800,0.82544189453125,0.003143310546875,0.9654083251953125,0.227264404296875
1772807508407373800,0.835373779296875,0.00286865234375,0.96990966796875,0.2303924560546875
1772807508417305900,0.845305908203125,0.000244140625,0.9766998291015625,0.2275390625
1772807508427238000,0.85523779296875,-0.0059814453125,0.96588134765625,0.218719482421875
1772807508437171000,0.8651708984375,-0.00390625,0.9546356201171875,0.2116546630859375
1772807508447103000,0.87510302734375,-0.00054931640625,0.9666290283203125,0.21246337890625
1772807508457034800,0.88503466796875,-0.0167236328125,0.9784393310546875,0.22161865234375
1772807508466966800,0.894966796875,-0.0214385986328125,0.9673614501953125,0.22247314453125
1772807508476898800,0.90489892578125,-0.016571044921875,0.9693145751953125,0.2238311767578125
1772807508486830800,0.914830810546875,-0.0267181396484375,0.9711151123046875,0.230499267578125
1772807508496763000,0.924762939453125,-0.0167388916015625,0.96820068359375,0.2301177978515625
1772807508506696000,0.934696044921875,-0.0172882080078125,0.9720916748046875,0.2267913818359375
1772807508516628000,0.9446279296875,-0.0281219482421875,0.9709320068359375,0.22454833984375
1772807508526559700,0.954559814453125,-0.0277862548828125,0.970306396484375,0.22344970703125
1772807508536491800,0.96449169921875,-0.020843505859375,0.9721527099609375,0.2265625
1772807508546423800,0.974423828125,-0.0157470703125,0.97857666015625,0.2288818359375
1772807508556355800,0.98435595703125,-0.0146484375,0.978668212890625,0.227447509765625
1772807508566288000,0.994287841796875,-0.0158843994140625,0.976470947265625,0.2291107177734375
1772807508576221000,1.004220947265625,-0.0175323486328125,0.973297119140625,0.23358154296875
1772807508586153000,1.014153076171875,-0.0205535888671875,0.96954345703125,0.2406005859375
1772807508596084700,1.024084716796875,-0.0158843994140625,0.966522216796875,0.2438812255859375
1772807508606016800,1.034016845703125,-0.0124969482421875,0.968841552734375,0.25042724609375
1772807508615948800,1.04394873046875,-0.0139312744140625,0.974761962890625,0.2544708251953125
1772807508625880800,1.053880859375,-0.0132904052734375,0.9724884033203125,0.25299072265625
1772807508635813000,1.063813232421875,-0.003662109375,0.977142333984375,0.251190185546875
1772807508645746000,1.073745849609375,0.0010223388671875,0.96697998046875,0.2593231201171875
1772807508655678000,1.083677978515625,0.0079345703125,0.958526611328125,0.2720489501953125
1772807508665609700,1.093609619140625,0.009002685546875,0.953948974609375,0.281768798828125
1772807508675541800,1.103541748046875,0.0019683837890625,0.960723876953125,0.29461669921875
1772807508685473800,1.113473876953125,-0.00238037109375,0.9643402099609375,0.2977447509765625
1772807508695406000,1.123406005859375,0.0023040771484375,0.96356201171875,0.2960205078125
1772807508705338000,1.133338134765625,0.0048828125,0.959869384765625,0.2913970947265625
1772807508715271000,1.14327099609375,0.0071258544921875,0.95794677734375,0.28729248046875
1772807508725203000,1.153202880859375,0.009674072265625,0.9594268798828125,0.2814788818359375
1772807508735134700,1.163134765625,0.0079498291015625,0.9590911865234375,0.27911376953125
1772807508745067000,1.17306689453125,0.0077972412109375,0.95721435546875,0.275146484375
1772807508754999000,1.1829990234375,0.0099945068359375,0.9571075439453125,0.272308349609375
1772807508764931000,1.19293115234375,0.0066375732421875,0.956207275390625,0.273895263671875
1772807508774864000,1.20286376953125,0.007293701171875,0.9559326171875,0.26959228515625
1772807508784796000,1.2127958984375,0.010498046875,0.95916748046875,0.26458740234375
1772807508794728000,1.22272802734375,0.009765625,0.9606781005859375,0.262298583984375
1772807508804660000,1.232659912109375,0.006134033203125,0.961456298828125,0.2605438232421875
1772807508814592000,1.242592041015625,0.002899169921875,0.964630126953125,0.254730224609375
1772807508824524000,1.25252392578125,0.0007781982421875,0.9654693603515625,0.2534027099609375
1772807508834456000,1.2624560546875,0.0008392333984375,0.966094970703125,0.2516021728515625
1772807508844388900,1.272388916015625,0.00244140625,0.963623046875,0.250152587890625
1772807508854321000,1.28232080078125,0.0042877197265625,0.9604034423828125,0.2501220703125
1772807508864253000,1.2922529296875,0.0053253173828125,0.9591522216796875,0.252288818359375
1772807508874185000,1.30218505859375,0.009185791015625,0.959716796875,0.2571868896484375
1772807508884117000,1.312116943359375,0.011962890625,0.9598541259765625,0.258453369140625
1772807508894049000,1.322049072265625,0.0139923095703125,0.964141845703125,0.25872802734375
1772807508903981000,1.33198095703125,0.0131683349609375,0.966217041015625,0.2590179443359375
1772807508913913900,1.341913818359375,0.01220703125,0.969818115234375,0.261260986328125
1772807508923846000,1.351845947265625,0.01263427734375,0.969879150390625,0.2611236572265625
1772807508933778000,1.36177783203125,0.0123138427734375,0.9670562744140625,0.263885498046875
1772807508943710000,1.3717099609375,0.0074920654296875,0.965484619140625,0.2639007568359375
1772807508953642000,1.38164208984375,0.0096435546875,0.96435546875,0.2649078369140625
1772807508963574000,1.391573974609375,0.0121002197265625,0.9641876220703125,0.26422119140625
1772807508973506000,1.401506103515625,0.0121917724609375,0.9621429443359375,0.262908935546875
1772807508983438800,1.41143896484375,0.014495849609375,0.9595794677734375,0.2652130126953125
1772807508993371100,1.42137109375,0.016632080078125,0.9591827392578125,0.26519775390625
1772807509003303200,1.43130322265625,0.0182952880859375,0.958984375,0.263946533203125
1772807509013235000,1.44123486328125,0.017791748046875,0.961669921875,0.2639923095703125
1772807509023167000,1.4511669921875,0.0135650634765625,0.9622955322265625,0.26324462890625
1772807509033099000,1.46109912109375,0.01458740234375,0.9571533203125,0.26116943359375
1772807509043032300,1.4710322265625,0.016204833984375,0.9565887451171875,0.259033203125
1772807509052964000,1.480964111328125,0.0216827392578125,0.9577789306640625,0.257843017578125
1772807509062896000,1.490896240234375,0.0216827392578125,0.9586029052734375,0.2577056884765625
1772807509072828400,1.500828369140625,0.020599365234375,0.958740234375,0.2558135986328125
1772807509082760400,1.510760498046875,0.018890380859375,0.9610595703125,0.2567596435546875
1772807509092692500,1.5206923828125,0.0186004638671875,0.963287353515625,0.2524261474609375
1772807509102624500,1.53062451171875,0.0176849365234375,0.966796875,0.25079345703125
1772807509112557300,1.540557373046875,0.0134735107421875,0.966339111328125,0.2520599365234375
1772807509122489000,1.550489013671875,0.0096282958984375,0.9639739990234375,0.2484283447265625
1772807509132421400,1.56042138671875,0.0072784423828125,0.962799072265625,0.24688720703125
1772807509142353400,1.570353515625,0.0068359375,0.96209716796875,0.2424468994140625
1772807509152285400,1.580285400390625,0.0060272216796875,0.9602203369140625,0.24114990234375
1772807509162217500,1.590217529296875,0.0074615478515625,0.960205078125,0.2373199462890625
1772807509172149500,1.6001494140625,0.0054473876953125,0.962158203125,0.2371673583984375
1772807509182082300,1.610082275390625,0.0057220458984375,0.9621429443359375,0.2387542724609375
1772807509192014300,1.620014404296875,0.00457763671875,0.9628143310546875,0.240325927734375
1772807509201946400,1.6299462890625,0.0044403076171875,0.9622802734375,0.240692138671875
1772807509211878400,1.63987841796875,0.004302978515625,0.9622039794921875,0.24249267578125
1772807509221810400,1.649810546875,0.0047454833984375,0.9623870849609375,0.2422943115234375
1772807509231742500,1.659742431640625,0.000396728515625,0.9627227783203125,0.2442169189453125
1772807509241674500,1.669674560546875,-0.0017547607421875,0.9592132568359375,0.2453765869140625
1772807509251607300,1.679607177734375,-0.0004119873046875,0.9604339599609375,0.2436676025390625
1772807509261539300,1.689539306640625,-0.00299072265625,0.9593658447265625,0.240631103515625
1772807509271471400,1.699471435546875,-0.0016326904296875,0.9583282470703125,0.2371826171875
1772807509281403400,1.7094033203125,0.001312255859375,0.96002197265625,0.23907470703125
1772807509291335400,1.71933544921875,0.0027313232421875,0.9615631103515625,0.24066162109375
1772807509301267500,1.729267333984375,-0.0008544921875,0.9652252197265625,0.2419281005859375
1772807509311200300,1.7392001953125,-0.000518798828125,0.96533203125,0.24176025390625
1772807509321132500,1.749132568359375,0.001251220703125,0.9644317626953125,0.239471435546875
1772807509331064300,1.759064208984375,0.001251220703125,0.9663543701171875,0.242431640625
1772807509340996400,1.768996337890625,0.0023193359375,0.9719085693359375,0.2436981201171875
1772807509350928400,1.778928466796875,0.004791259765625,0.97491455078125,0.24462890625
1772807509360860400,1.7888603515625,0.004486083984375,0.9757080078125,0.2465972900390625
1772807509370792400,1.79879248046875,-0.002349853515625,0.97509765625,0.2436676025390625
1772807509380725500,1.8087255859375,-0.0017242431640625,0.9755859375,0.247772216796875
1772807509390657500,1.818657470703125,-0.0020294189453125,0.977569580078125,0.251495361328125
1772807509400589300,1.82858935546875,-0.00323486328125,0.9761505126953125,0.2537384033203125
1772807509410521300,1.838521240234375,-0.0037841796875,0.9743194580078125,0.25518798828125
1772807509420453400,1.848453369140625,-0.00250244140625,0.976593017578125,0.2563018798828125
1772807509430385400,1.858385498046875,-0.000335693359375,0.970001220703125,0.256591796875
1772807509440317400,1.8683173828125,0.0068206787109375,0.9742584228515625,0.254974365234375
1772807509450250500,1.87825048828125,0.0023345947265625,0.9786529541015625,0.2583465576171875
1772807509460182500,1.8881826171875,0.0024566650390625,0.97943115234375,0.2577362060546875
1772807509470114300,1.8981142578125,0.00244140625,0.9736480712890625,0.257354736328125
1772807509480046300,1.90804638671875,0.000518798828125,0.968963623046875,0.2572174072265625
1772807509489978400,1.917978271484375,0.0045928955078125,0.9600982666015625,0.2531585693359375
1772807509499910400,1.927910400390625,0.0046539306640625,0.95880126953125,0.25439453125
1772807509509843500,1.937843505859375,-0.002166748046875,0.958343505859375,0.2557830810546875
1772807509519775500,1.947775390625,-0.0004119873046875,0.9563751220703125,0.2547760009765625
1772807509529707500,1.95770751953125,0.002532958984375,0.9574737548828125,0.2543182373046875
1772807509539639300,1.967639404296875,0.0055694580078125,0.9591827392578125,0.2521820068359375
1772807509549571300,1.9775712890625,0.0070343017578125,0.961669921875,0.25323486328125
1772807509559503400,1.98750341796875,0.01239013671875,0.9602508544921875,0.2544097900390625
1772807509569435400,1.997435302734375,0.0159912109375,0.9588165283203125,0.2534332275390625
1772807509579368400,2.007368408203125,0.0159454345703125,0.95440673828125,0.2565765380859375
1772807509589300500,2.017300537109375,0.013427734375,0.9541473388671875,0.2557220458984375
1772807509599232500,2.027232421875,0.0111541748046875,0.95538330078125,0.2553253173828125
1772807509609164300,2.037164306640625,0.0119476318359375,0.95928955078125,0.25689697265625
1772807509619096300,2.047096435546875,0.0078125,0.96075439453125,0.2570953369140625
1772807509629028400,2.0570283203125,0.0022735595703125,0.959564208984375,0.2554473876953125
1772807509638960400,2.06696044921875,0.002532958984375,0.9591064453125,0.254913330078125
1772807509648893400,2.0768935546875,0.009124755859375,0.963653564453125,0.255889892578125
1772807509658825500,2.086825439453125,0.0123138427734375,0.9638519287109375,0.2547454833984375
1772807509668757500,2.096757568359375,0.0108642578125,0.9611663818359375,0.254302978515625
1772807509678689300,2.106689208984375,0.0112457275390625,0.9647216796875,0.255462646484375
1772807509688621300,2.116621337890625,0.011962890625,0.9708709716796875,0.2577972412109375
1772807509698553300,2.12655322265625,0.01068115234375,0.971435546875,0.2579498291015625
1772807509708486400,2.136486328125,0.0061187744140625,0.96710205078125,0.2594146728515625
1772807509718418400,2.14641845703125,0.006439208984375,0.962677001953125,0.257720947265625
1772807509728350500,2.1563505859375,0.00714111328125,0.9628448486328125,0.2552337646484375
1772807509738282200,2.1662822265625,0.0087890625,0.963958740234375,0.2564849853515625
1772807509748214300,2.17621435546875,0.0047607421875,0.9646148681640625,0.2547607421875
1772807509758146300,2.186146240234375,0.0023040771484375,0.9648284912109375,0.2524566650390625
1772807509768078300,2.196078369140625,0.002838134765625,0.962738037109375,0.252105712890625
1772807509778011400,2.206011474609375,0.0049591064453125,0.96405029296875,0.2512054443359375
1772807509787943400,2.215943359375,0.0024871826171875,0.9617919921875,0.24920654296875
1772807509797875500,2.22587548828125,0.0025634765625,0.960174560546875,0.24774169921875
1772807509807807200,2.23580712890625,0.003204345703125,0.963134765625,0.244354248046875
1772807509817739300,2.2457392578125,0.0018768310546875,0.9630279541015625,0.2454833984375
1772807509827671300,2.25567138671875,0.0033416748046875,0.96197509765625,0.2442779541015625
1772807509837604400,2.265604248046875,0.0021820068359375,0.9636383056640625,0.24432373046875
1772807509847536400,2.275536376953125,0.000885009765625,0.964813232421875,0.24700927734375
1772807509857468400,2.285468505859375,-0.000213623046875,0.963775634765625,0.2445220947265625
1772807509867400400,2.295400390625,0.0010833740234375,0.9639129638671875,0.2456512451171875
1772807509877332200,2.305332275390625,-0.000885009765625,0.963775634765625,0.247406005859375
1772807509887264300,2.31526416015625,0.006317138671875,0.9598846435546875,0.2434844970703125
1772807509897196300,2.3251962890625,0.0064697265625,0.965576171875,0.24407958984375
1772807509907129300,2.33512939453125,0.001220703125,0.9665374755859375,0.2473602294921875
1772807509917061400,2.345061279296875,0.000579833984375,0.9665374755859375,0.2476348876953125
1772807509926993400,2.354993408203125,-0.0030670166015625,0.9673004150390625,0.2470855712890625
1772807509936925400,2.364925537109375,-0.002471923828125,0.9670257568359375,0.2507781982421875
1772807509946857200,2.374857177734375,-0.0015106201171875,0.9704742431640625,0.2489776611328125
1772807509956789200,2.384789306640625,-0.0002288818359375,0.957244873046875,0.248748779296875
1772807509966722300,2.394722412109375,0.0074615478515625,0.9617767333984375,0.24908447265625
1772807509976654300,2.404654296875,-0.0037841796875,0.967041015625,0.2486114501953125
1772807509986586400,2.41458642578125,-0.00445556640625,0.9676971435546875,0.248077392578125
1772807509996518400,2.424518310546875,-0.0002288818359375,0.9693756103515625,0.2478485107421875
1772807510006450400,2.434450439453125,0.003265380859375,0.966094970703125,0.2484893798828125
1772807510016382200,2.44438232421875,0.0097503662109375,0.9658050537109375,0.247772216796875
1772807510026314200,2.454314208984375,0.0021209716796875,0.9672088623046875,0.245819091796875
1772807510036247300,2.464247314453125,-0.0038909912109375,0.967071533203125,0.244964599609375
1772807510046178600,2.474178466796875,-0.0050506591796875,0.965850830078125,0.2419891357421875
1772807510056110600,2.484110595703125,-0.006988525390625,0.96624755859375,0.24139404296875
1772807510066042600,2.494042724609375,-0.0045166015625,0.964324951171875,0.2421722412109375
1772807510075974700,2.503974609375,-0.0058746337890625,0.96356201171875,0.2468719482421875
1772807510085906700,2.51390673828125,-0.0027313232421875,0.9637298583984375,0.24609375
1772807510095839700,2.52383984375,-0.000732421875,0.967529296875,0.2446136474609375
1772807510105771800,2.533771728515625,-0.000946044921875,0.9661865234375,0.2459259033203125
1772807510115703600,2.54370361328125,0.0001068115234375,0.96502685546875,0.246490478515625
1772807510125635600,2.553635498046875,-0.000762939453125,0.966094970703125,0.2468719482421875
1772807510135567600,2.563567626953125,-0.0013580322265625,0.964630126953125,0.2474212646484375
1772807510145499600,2.573499755859375,-0.00006103515625,0.963714599609375,0.2489166259765625
1772807510155431700,2.583431640625,0.0015716552734375,0.962738037109375,0.2470245361328125
1772807510165364700,2.59336474609375,0.000732421875,0.9614105224609375,0.246551513671875
1772807510175296800,2.603296875,-0.0003662109375,0.9630279541015625,0.2487945556640625
1772807510185228500,2.613228515625,-0.0025177001953125,0.965362548828125,0.253021240234375
1772807510195160600,2.62316064453125,-0.0017547607421875,0.96337890625,0.253173828125
1772807510205092600,2.633092529296875,-0.00030517578125,0.9632568359375,0.254241943359375
1772807510215024600,2.643024658203125,-0.0003509521484375,0.9622650146484375,0.2546234130859375
1772807510224956700,2.652956787109375,0.0014190673828125,0.9611968994140625,0.2540740966796875
1772807510234889700,2.6628896484375,0.001922607421875,0.9592132568359375,0.2554473876953125
1772807510244821800,2.67282177734375,-0.000030517578125,0.9600982666015625,0.2575836181640625
1772807510254753500,2.68275341796875,0.001251220703125,0.960540771484375,0.2559814453125
1772807510264685600,2.692685546875,0.0005035400390625,0.9620513916015625,0.2539825439453125
1772807510274617600,2.70261767578125,-0.0013427734375,0.9633331298828125,0.2518310546875
1772807510284549600,2.712549560546875,-0.0042572021484375,0.9639739990234375,0.2513580322265625
1772807510294482700,2.722482666015625,-0.003997802734375,0.9644012451171875,0.247344970703125
1772807510304414700,2.732414794921875,-0.004547119140625,0.9635772705078125,0.24713134765625
1772807510314346800,2.7423466796875,-0.0036773681640625,0.9658355712890625,0.245880126953125
1772807510324278500,2.752278564453125,-0.003631591796875,0.9661712646484375,0.2440643310546875
1772807510334210600,2.76221044921875,-0.0034332275390625,0.9651031494140625,0.2422637939453125
1772807510344142600,2.772142578125,-0.0031585693359375,0.9653167724609375,0.2447662353515625
1772807510354075600,2.78207568359375,-0.00201416015625,0.96697998046875,0.248565673828125
1772807510364007700,2.792007568359375,0.00042724609375,0.96728515625,0.251617431640625
1772807510373939700,2.801939697265625,-0.0037841796875,0.9654388427734375,0.24896240234375
1772807510383871700,2.811871826171875,-0.0096282958984375,0.96441650390625,0.2489166259765625
1772807510393803500,2.821803466796875,-0.0072479248046875,0.9659881591796875,0.2492828369140625
1772807510403735600,2.831735595703125,-0.0045166015625,0.9677886962890625,0.2481689453125
1772807510413667600,2.84166748046875,-0.0029144287109375,0.966461181640625,0.24603271484375
1772807510423600600,2.8516005859375,-0.005615234375,0.963897705078125,0.2435760498046875
1772807510433532700,2.86153271484375,-0.0066680908203125,0.9646453857421875,0.242523193359375
1772807510443464700,2.871464599609375,-0.0025787353515625,0.96612548828125,0.2433624267578125
1772807510453396700,2.881396728515625,-0.0018768310546875,0.965728759765625,0.2448577880859375
1772807510463328500,2.89132861328125,-0.0076751708984375,0.9642181396484375,0.2441558837890625
1772807510473260500,2.901260498046875,-0.00714111328125,0.9650115966796875,0.2439117431640625
1772807510483193600,2.911193603515625,-0.005615234375,0.967559814453125,0.2446746826171875
1772807510493125600,2.921125732421875,-0.00616455078125,0.9683685302734375,0.245513916015625
1772807510503057700,2.9310576171875,-0.0077667236328125,0.9668426513671875,0.245819091796875
1772807510512989700,2.94098974609375,-0.008544921875,0.9674835205078125,0.24676513671875
1772807510522921700,2.950921630859375,-0.0067596435546875,0.9700927734375,0.2433013916015625
1772807510532853500,2.960853515625,-0.00604248046875,0.968841552734375,0.2401123046875
1772807510542785500,2.97078564453125,-0.0068511962890625,0.96722412109375,0.2396697998046875
1772807510552718600,2.980718505859375,-0.0073699951171875,0.9673919677734375,0.2402496337890625
1772807510562650600,2.990650634765625,-0.0058441162109375,0.96673583984375,0.24017333984375
1772807510572582700,3.000582763671875,-0.0040740966796875,0.9665679931640625,0.2416229248046875
1772807510582514700,3.0105146484375,-0.0047760009765625,0.966278076171875,0.2412261962890625
1772807510592446700,3.02044677734375,-0.01123046875,0.9643707275390625,0.239990234375
1772807510602378500,3.03037841796875,-0.014892578125,0.96368408203125,0.2387542724609375
1772807510612311600,3.0403115234375,-0.01507568359375,0.9668426513671875,0.2353515625
1772807510622243600,3.05024365234375,-0.012786865234375,0.9669647216796875,0.2366790771484375
1772807510632175600,3.060175537109375,-0.0115814208984375,0.96343994140625,0.2379913330078125
1772807510642107600,3.070107666015625,-0.010589599609375,0.9635467529296875,0.23944091796875
1772807510652039700,3.080039794921875,-0.007110595703125,0.9653472900390625,0.2412261962890625
1772807510661971700,3.0899716796875,-0.0066070556640625,0.965484619140625,0.2431640625
1772807510671904800,3.09990478515625,-0.0097808837890625,0.9659881591796875,0.24359130859375
1772807510681836500,3.10983642578125,-0.0113067626953125,0.9665679931640625,0.246429443359375
1772807510691768600,3.1197685546875,-0.01177978515625,0.9665985107421875,0.2466583251953125
1772807510701700600,3.12970068359375,-0.008331298828125,0.966705322265625,0.2455291748046875
1772807510711632600,3.139632568359375,-0.0074462890625,0.965576171875,0.2457122802734375
1772807510721564700,3.149564697265625,-0.00860595703125,0.96380615234375,0.2473297119140625
1772807510731496700,3.15949658203125,-0.0083160400390625,0.9630584716796875,0.2474365234375
1772807510741429800,3.1694296875,-0.0052490234375,0.9671630859375,0.2495269775390625
1772807510751361500,3.179361572265625,-0.005523681640625,0.967498779296875,0.2493743896484375
1772807510761293600,3.18929345703125,-0.0111541748046875,0.9662933349609375,0.249786376953125
1772807510771225600,3.1992255859375,-0.0118560791015625,0.9667510986328125,0.2478179931640625
1772807510781157600,3.20915771484375,-0.0100860595703125,0.9678955078125,0.249420166015625
1772807510791089700,3.219089599609375,-0.0106964111328125,0.9678497314453125,0.2525634765625
1772807510801022700,3.229022705078125,-0.0153350830078125,0.96343994140625,0.2518768310546875
1772807510810954800,3.238954833984375,-0.015777587890625,0.962188720703125,0.250152587890625
1772807510820886500,3.248886474609375,-0.0115814208984375,0.9673614501953125,0.248565673828125
1772807510830818600,3.258818603515625,-0.0093536376953125,0.9682464599609375,0.248687744140625
1772807510840750600,3.26875048828125,-0.0095672607421875,0.96417236328125,0.2468719482421875
1772807510850682600,3.2786826171875,-0.009735107421875,0.9633331298828125,0.2470245361328125
1772807510860614700,3.28861474609375,-0.010467529296875,0.96533203125,0.2454833984375
1772807510870547700,3.298547607421875,-0.005767822265625,0.966400146484375,0.2485809326171875
1772807510880479700,3.308479736328125,-0.00604248046875,0.9639434814453125,0.2500152587890625
1772807510890411500,3.31841162109375,-0.008819580078125,0.9610443115234375,0.2494354248046875
1772807510900343600,3.328343505859375,-0.009613037109375,0.961669921875,0.2493133544921875
1772807510910275600,3.338275634765625,-0.009735107421875,0.9604339599609375,0.25091552734375
1772807510920207600,3.34820751953125,-0.0104827880859375,0.9615020751953125,0.248626708984375
1772807510930140700,3.358140625,-0.0121612548828125,0.9603729248046875,0.2484893798828125
1772807510940072700,3.36807275390625,-0.0099945068359375,0.9616546630859375,0.249053955078125
1772807510950004500,3.37800439453125,-0.01055908203125,0.9612274169921875,0.247772216796875
1772807510959936500,3.3879365234375,-0.009674072265625,0.9611358642578125,0.2472686767578125
1772807510969868500,3.39786865234375,-0.00689697265625,0.96136474609375,0.24945068359375
1772807510979800600,3.407800537109375,-0.00555419921875,0.96343994140625,0.2494659423828125
1772807510989733600,3.417733642578125,-0.00592041015625,0.9639739990234375,0.250579833984375
1772807510999665700,3.427665771484375,-0.0062713623046875,0.9640045166015625,0.2504425048828125
1772807511009597700,3.43759765625,-0.0078277587890625,0.9640045166015625,0.250579833984375
1772807511019529500,3.447529541015625,-0.00616455078125,0.9637298583984375,0.25115966796875
1772807511029461500,3.45746142578125,-0.004791259765625,0.9651641845703125,0.249969482421875
1772807511039393500,3.4673935546875,-0.006591796875,0.9665374755859375,0.24627685546875
1772807511049327600,3.47732763671875,-0.0072021484375,0.9664154052734375,0.2447967529296875
1772807511059259400,3.48725927734375,-0.00811767578125,0.9672698974609375,0.2436065673828125
1772807511069191400,3.49719140625,-0.00909423828125,0.9693450927734375,0.2442169189453125
1772807511079123500,3.50712353515625,-0.0086212158203125,0.9682769775390625,0.246490478515625
1772807511089055500,3.517055419921875,-0.0075836181640625,0.96832275390625,0.2464141845703125
1772807511098987500,3.526987548828125,-0.0079345703125,0.96661376953125,0.24755859375
1772807511108919600,3.53691943359375,-0.007354736328125,0.9657440185546875,0.2483978271484375
1772807511118852600,3.5468525390625,-0.006591796875,0.965789794921875,0.2496337890625
1772807511128784400,3.556784423828125,-0.008636474609375,0.964111328125,0.2511444091796875
1772807511138716400,3.56671630859375,-0.011505126953125,0.9622344970703125,0.249176025390625
1772807511148648400,3.5766484375,-0.011932373046875,0.96533203125,0.2480316162109375
1772807511158580500,3.58658056640625,-0.0098114013671875,0.9658966064453125,0.2461090087890625
1772807511168512500,3.596512451171875,-0.010101318359375,0.96624755859375,0.244384765625
1772807511178445600,3.606445556640625,-0.00982666015625,0.9662017822265625,0.24310302734375
1772807511188377600,3.616377685546875,-0.0055694580078125,0.9660797119140625,0.2407073974609375
1772807511198309400,3.626309326171875,-0.005615234375,0.9660186767578125,0.2454986572265625
1772807511208241400,3.636241455078125,-0.006500244140625,0.9674072265625,0.24176025390625
1772807511218173400,3.64617333984375,-0.0112152099609375,0.968475341796875,0.244354248046875
1772807511228105500,3.65610546875,-0.012542724609375,0.969146728515625,0.2444915771484375
1772807511238038500,3.66603857421875,-0.0125274658203125,0.9669036865234375,0.245697021484375
1772807511247970600,3.675970458984375,-0.0141754150390625,0.96380615234375,0.2454681396484375
1772807511257902600,3.685902587890625,-0.0093231201171875,0.9640350341796875,0.24627685546875
1772807511267834400,3.69583447265625,-0.0121307373046875,0.96551513671875,0.243377685546875
1772807511277766400,3.705766357421875,-0.0100555419921875,0.965606689453125,0.240142822265625
1772807511287698400,3.715698486328125,-0.01092529296875,0.9656219482421875,0.240814208984375
1772807511297631500,3.725631591796875,-0.0101165771484375,0.9667816162109375,0.2433319091796875
1772807511307563500,3.7355634765625,-0.0048370361328125,0.96551513671875,0.2443084716796875
1772807511317495600,3.74549560546875,-0.0017547607421875,0.969451904296875,0.247100830078125
1772807511327427600,3.755427490234375,0.0007171630859375,0.97052001953125,0.2472686767578125
1772807511337359400,3.765359375,-0.001708984375,0.972259521484375,0.2487335205078125
1772807511347291400,3.77529150390625,-0.006256103515625,0.972198486328125,0.249725341796875
1772807511357223400,3.785223388671875,-0.0095977783203125,0.968963623046875,0.2493133544921875
1772807511367156500,3.795156494140625,-0.0081329345703125,0.967071533203125,0.252349853515625
1772807511377088500,3.805088623046875,-0.0095977783203125,0.968231201171875,0.251220703125
1772807511387020500,3.8150205078125,-0.0079193115234375,0.9689788818359375,0.2504119873046875
1772807511396952600,3.82495263671875,-0.0069122314453125,0.9691314697265625,0.24932861328125
1772807511406884400,3.83488427734375,-0.004364013671875,0.9709930419921875,0.249298095703125
1772807511416816400,3.84481640625,0.00030517578125,0.9719390869140625,0.247314453125
1772807511426749400,3.85474951171875,-0.0018768310546875,0.971710205078125,0.251251220703125
1772807511436681500,3.864681396484375,-0.003875732421875,0.970703125,0.2562255859375
1772807511446613500,3.874613525390625,-0.0066986083984375,0.9700775146484375,0.2555389404296875
1772807511456545500,3.884545654296875,-0.0065765380859375,0.967254638671875,0.2530975341796875
1772807511466477600,3.8944775390625,-0.00537109375,0.965087890625,0.2525787353515625
1772807511476409300,3.904409423828125,-0.00555419921875,0.96405029296875,0.251617431640625
1772807511486342400,3.91434228515625,-0.00775146484375,0.9664306640625,0.2462921142578125
1772807511496274400,3.9242744140625,-0.00701904296875,0.9643096923828125,0.247039794921875
1772807511506206500,3.93420654296875,-0.0069427490234375,0.9603729248046875,0.25006103515625
1772807511516138500,3.944138427734375,-0.0062713623046875,0.9599761962890625,0.2463531494140625
1772807511526070500,3.954070556640625,-0.0082244873046875,0.9650421142578125,0.2505645751953125
1772807511536002600,3.96400244140625,-0.014312744140625,0.962554931640625,0.2510528564453125
1772807511545935600,3.973935546875,-0.0115509033203125,0.9621734619140625,0.25
1772807511555865600,3.983865478515625,-0.0095977783203125,0.961456298828125,0.249603271484375
1772807511565797600,3.993797607421875,-0.0081634521484375,0.9611053466796875,0.2484130859375
1772807511575729700,4.003729736328125,-0.011627197265625,0.9632415771484375,0.2469635009765625
1772807511585662700,4.013662841796875,-0.017822265625,0.964080810546875,0.247711181640625
1772807511595594800,4.0235947265625,-0.02203369140625,0.9647979736328125,0.2454376220703125
1772807511605526500,4.033526611328125,-0.0236358642578125,0.9635772705078125,0.24444580078125
1772807511615458600,4.04345849609375,-0.020477294921875,0.9636688232421875,0.244476318359375
1772807511625390600,4.053390625,-0.0155792236328125,0.9637298583984375,0.243316650390625
1772807511635322600,4.063322509765625,-0.0142364501953125,0.9650726318359375,0.2376861572265625
1772807511645255700,4.073255615234375,-0.013031005859375,0.9647674560546875,0.2380828857421875
1772807511655187700,4.083187744140625,-0.0153350830078125,0.9677734375,0.2387542724609375
1772807511665119500,4.093119384765625,-0.01971435546875,0.970001220703125,0.24224853515625
1772807511675051500,4.103051513671875,-0.0234832763671875,0.9690093994140625,0.2434234619140625
1772807511684983600,4.112983642578125,-0.02191162109375,0.967864990234375,0.244415283203125
1772807511694915600,4.12291552734375,-0.02813720703125,0.963470458984375,0.2386932373046875
1772807511704848600,4.1328486328125,-0.0270233154296875,0.9633026123046875,0.2405548095703125
1772807511714780700,4.14278076171875,-0.037872314453125,0.9626312255859375,0.2381744384765625
1772807511724712700,4.152712646484375,-0.0433502197265625,0.95977783203125,0.2247772216796875
1772807511734644500,4.16264453125,-0.0290069580078125,0.9658203125,0.2232666015625
1772807511744576500,4.172576416015625,-0.034393310546875,0.9723052978515625,0.21954345703125
1772807511754508500,4.182508544921875,-0.0266265869140625,0.9710693359375,0.218994140625
1772807511764441600,4.192441650390625,-0.0161285400390625,0.973114013671875,0.227203369140625
1772807511774373600,4.20237353515625,-0.0301055908203125,0.9668426513671875,0.23907470703125
1772807511784305700,4.2123056640625,-0.025634765625,0.9575653076171875,0.23944091796875
1772807511794237700,4.22223779296875,-0.02880859375,0.957183837890625,0.2462158203125
1772807511804169500,4.23216943359375,-0.0325469970703125,0.9625396728515625,0.248443603515625
1772807511814101500,4.2421015625,-0.033935546875,0.96722412109375,0.2429351806640625
1772807511824034600,4.25203466796875,-0.034454345703125,0.970428466796875,0.2335357666015625
1772807511833966600,4.261966552734375,-0.031494140625,0.97308349609375,0.2324371337890625
1772807511843898600,4.271898681640625,-0.0260009765625,0.97637939453125,0.23406982421875
1772807511853830700,4.28183056640625,-0.0222015380859375,0.9753265380859375,0.2367095947265625
1772807511863762700,4.2917626953125,-0.0218658447265625,0.97064208984375,0.2398223876953125
1772807511873694500,4.301694580078125,-0.02410888671875,0.965972900390625,0.2389068603515625
1772807511883627500,4.31162744140625,-0.0310211181640625,0.965118408203125,0.2405548095703125
1772807511893559600,4.3215595703125,-0.0364990234375,0.9611663818359375,0.2456817626953125
1772807511903491600,4.33149169921875,-0.035736083984375,0.955780029296875,0.2474365234375
1772807511913423600,4.341423583984375,-0.0349578857421875,0.9541168212890625,0.2375030517578125
1772807511923355600,4.351355712890625,-0.041015625,0.9573974609375,0.2239837646484375
1772807511933288400,4.361288330078125,-0.0464630126953125,0.96331787109375,0.21685791015625
1772807511943221500,4.371221435546875,-0.051910400390625,0.9694366455078125,0.2134857177734375
1772807511953153500,4.381153564453125,-0.050201416015625,0.97503662109375,0.2083282470703125
1772807511963085300,4.391085205078125,-0.0457305908203125,0.9752349853515625,0.205657958984375
1772807511973017300,4.401017333984375,-0.0439910888671875,0.97174072265625,0.2047882080078125
1772807511982949400,4.410949462890625,-0.0465850830078125,0.963348388671875,0.2047271728515625
1772807511992881700,4.420881591796875,-0.0533599853515625,0.96142578125,0.2044677734375
1772807512002814500,4.430814453125,-0.0624237060546875,0.96136474609375,0.2100372314453125
1772807512012746500,4.44074658203125,-0.069915771484375,0.9620513916015625,0.213653564453125
1772807512022678500,4.450678466796875,-0.072967529296875,0.96270751953125,0.21075439453125
1772807512032610300,4.4606103515625,-0.0739288330078125,0.96771240234375,0.2092742919921875
1772807512042542300,4.470542236328125,-0.0708465576171875,0.973358154296875,0.206390380859375
1772807512052474400,4.480474365234375,-0.065887451171875,0.977447509765625,0.2062835693359375
1772807512062407200,4.4904072265625,-0.060211181640625,0.978912353515625,0.21087646484375
1772807512072339200,4.500339111328125,-0.0546722412109375,0.978912353515625,0.2162322998046875
1772807512082271200,4.510271240234375,-0.051361083984375,0.9754180908203125,0.218780517578125
1772807512092203300,4.520203369140625,-0.0469970703125,0.96954345703125,0.2174224853515625
1772807512102135300,4.53013525390625,-0.052093505859375,0.9648895263671875,0.2196502685546875
1772807512112067300,4.5400673828125,-0.064666748046875,0.96539306640625,0.22259521484375
1772807512122000100,4.550000244140625,-0.0675506591796875,0.9739227294921875,0.22186279296875
1772807512131932200,4.55993212890625,-0.0707855224609375,0.980987548828125,0.2216644287109375
1772807512141864200,4.5698642578125,-0.072723388671875,0.989105224609375,0.2232208251953125
1772807512151796200,4.579796142578125,-0.064666748046875,0.9924468994140625,0.2186431884765625
1772807512161728300,4.589728271484375,-0.0545654296875,0.9964447021484375,0.2162933349609375
1772807512171660500,4.59966064453125,-0.05291748046875,0.994293212890625,0.214599609375
1772807512181593300,4.60959326171875,-0.0401153564453125,0.9799957275390625,0.21221923828125
1772807512191525000,4.619525146484375,-0.0372314453125,0.96112060546875,0.2145538330078125
1772807512201457200,4.62945703125,-0.0472259521484375,0.950225830078125,0.215179443359375
1772807512211389200,4.63938916015625,-0.0577392578125,0.946807861328125,0.2138214111328125
1772807512221321500,4.649321533203125,-0.06488037109375,0.94976806640625,0.213897705078125
1772807512231253500,4.65925341796875,-0.0618438720703125,0.9591827392578125,0.21197509765625
1772807512241186300,4.669186279296875,-0.066009521484375,0.970977783203125,0.2080535888671875
1772807512251118300,4.679118408203125,-0.06573486328125,0.97857666015625,0.2042236328125
1772807512261050000,4.689050048828125,-0.05523681640625,0.979888916015625,0.203033447265625
1772807512270982100,4.698982177734375,-0.046661376953125,0.9794464111328125,0.201904296875
1772807512280914400,4.70891455078125,-0.041168212890625,0.9776763916015625,0.19921875
1772807512290846500,4.718846435546875,-0.0397491455078125,0.971527099609375,0.2014312744140625
1772807512300779300,4.728779296875,-0.04937744140625,0.9635467529296875,0.2018280029296875
1772807512310711300,4.738711181640625,-0.0591278076171875,0.9520416259765625,0.202606201171875
1772807512320643300,4.748643310546875,-0.06756591796875,0.94708251953125,0.204315185546875
1772807512330575000,4.7585751953125,-0.070709228515625,0.95367431640625,0.2066802978515625
1772807512340507400,4.76850732421875,-0.0673675537109375,0.96319580078125,0.211517333984375
1772807512350439400,4.778439453125,-0.0619964599609375,0.9697265625,0.2110137939453125
1772807512360372200,4.788372314453125,-0.0576629638671875,0.9714508056640625,0.204010009765625
1772807512370304300,4.79830419921875,-0.054656982421875,0.974151611328125,0.20330810546875
1772807512380236300,4.808236328125,-0.0566253662109375,0.9782867431640625,0.197845458984375
1772807512390168300,4.818168212890625,-0.0576019287109375,0.976715087890625,0.1979827880859375
1772807512400100400,4.828100341796875,-0.0654754638671875,0.973785400390625,0.2048187255859375
1772807512410032400,4.838032470703125,-0.06756591796875,0.967926025390625,0.2090606689453125
1772807512419965200,4.847965087890625,-0.0717315673828125,0.9660797119140625,0.211883544921875
1772807512429897200,4.857897216796875,-0.070281982421875,0.968048095703125,0.2184600830078125
1772807512439829200,4.867829345703125,-0.0667724609375,0.9712066650390625,0.222869873046875
1772807512449761300,4.87776123046875,-0.0630950927734375,0.975311279296875,0.2222747802734375
1772807512459693300,4.887693359375,-0.058441162109375,0.9805908203125,0.2197418212890625
1772807512469625300,4.897625244140625,-0.0587921142578125,0.982696533203125,0.214447021484375
1772807512479558100,4.90755810546875,-0.06158447265625,0.9825286865234375,0.203460693359375
1772807512489490200,4.917490234375,-0.0626220703125,0.982208251953125,0.2005462646484375
1772807512499422200,4.927422119140625,-0.0656280517578125,0.9781951904296875,0.2045440673828125
1772807512509354200,4.937354248046875,-0.0668182373046875,0.9718017578125,0.204559326171875
1772807512519286300,4.947286376953125,-0.07037353515625,0.9693145751953125,0.2068939208984375
1772807512529218600,4.957218505859375,-0.0710906982421875,0.9681243896484375,0.2099609375
1772807512539151400,4.9671513671875,-0.07257080078125,0.9690399169921875,0.209075927734375
1772807512549083100,4.977083251953125,-0.068511962890625,0.9729766845703125,0.2073211669921875
1772807512559015200,4.98701513671875,-0.0653228759765625,0.973724365234375,0.2053375244140625
1772807512568947200,4.996947265625,-0.0611572265625,0.9742584228515625,0.202789306640625
1772807512578879200,5.006879150390625,-0.0599822998046875,0.9737396240234375,0.202301025390625
1772807512588811500,5.0168115234375,-0.059234619140625,0.9718475341796875,0.1989898681640625
1772807512598744300,5.026744384765625,-0.058319091796875,0.971038818359375,0.199554443359375
1772807512608676400,5.03667626953125,-0.06103515625,0.972747802734375,0.2003631591796875
1772807512618608000,5.046608154296875,-0.063446044921875,0.974151611328125,0.2008209228515625
1772807512628540200,5.0565400390625,-0.061004638671875,0.96954345703125,0.2014617919921875
1772807512638472200,5.06647216796875,-0.0578460693359375,0.9702301025390625,0.204315185546875
1772807512648405200,5.0764052734375,-0.0598907470703125,0.9695892333984375,0.2074432373046875
1772807512658337300,5.086337158203125,-0.0561370849609375,0.9700775146484375,0.2086334228515625
1772807512668269300,5.096269287109375,-0.0585784912109375,0.96954345703125,0.2074127197265625
1772807512678201300,5.106201416015625,-0.057373046875,0.973114013671875,0.2086639404296875
1772807512688133000,5.116133056640625,-0.0525970458984375,0.9728851318359375,0.2082366943359375
1772807512698065400,5.1260654296875,-0.051605224609375,0.971343994140625,0.2070159912109375
1772807512707998200,5.135998291015625,-0.050567626953125,0.9731292724609375,0.2023468017578125
1772807512717930200,5.14593017578125,-0.0526580810546875,0.9714202880859375,0.2011566162109375
1772807512727862300,5.1558623046875,-0.0540313720703125,0.9727783203125,0.20361328125
1772807512737794300,5.165794189453125,-0.054656982421875,0.973052978515625,0.2055511474609375
1772807512747726000,5.17572607421875,-0.054840087890625,0.97247314453125,0.2067413330078125
1772807512757658400,5.185658447265625,-0.055206298828125,0.974090576171875,0.2081298828125
1772807512767591200,5.195591064453125,-0.0548248291015625,0.971710205078125,0.2065582275390625
1772807512777523200,5.205523193359375,-0.0540008544921875,0.97320556640625,0.20660400390625
1772807512787455200,5.215455322265625,-0.0561981201171875,0.973541259765625,0.203704833984375
1772807512797387300,5.22538720703125,-0.057464599609375,0.9734344482421875,0.201904296875
1772807512807319300,5.2353193359375,-0.0533447265625,0.9750213623046875,0.19964599609375
1772807512817251300,5.245251220703125,-0.0519866943359375,0.9745025634765625,0.2005157470703125
1772807512827184400,5.255184326171875,-0.0502166748046875,0.975006103515625,0.2018280029296875
1772807512837116200,5.2651162109375,-0.0479736328125,0.9746551513671875,0.2020111083984375
1772807512847048200,5.275048095703125,-0.049285888671875,0.9760284423828125,0.20489501953125
1772807512856980200,5.284980224609375,-0.0521087646484375,0.9745635986328125,0.20416259765625
1772807512866912300,5.294912353515625,-0.0525360107421875,0.977783203125,0.207366943359375
1772807512876844300,5.30484423828125,-0.052337646484375,0.9766693115234375,0.208740234375
1772807512886777300,5.31477734375,-0.0526885986328125,0.974365234375,0.205596923828125
1772807512896709000,5.324709228515625,-0.0523681640625,0.975494384765625,0.202850341796875
1772807512906641200,5.33464111328125,-0.0521697998046875,0.97607421875,0.202392578125
1772807512916573200,5.3445732421875,-0.050994873046875,0.9746551513671875,0.200286865234375
1772807512926505200,5.354505126953125,-0.04888916015625,0.974822998046875,0.2021636962890625
1772807512936437200,5.364437255859375,-0.0481719970703125,0.9771575927734375,0.2003326416015625
1772807512946370300,5.374370361328125,-0.048492431640625,0.9758758544921875,0.20428466796875
1772807512956302300,5.38430224609375,-0.0478973388671875,0.9715728759765625,0.208770751953125
1772807512966234000,5.394234130859375,-0.046875,0.9701995849609375,0.212158203125
1772807512976166100,5.404166259765625,-0.0493011474609375,0.9703521728515625,0.210845947265625
1772807512986098200,5.41409814453125,-0.050262451171875,0.9693450927734375,0.2100982666015625
1772807512996030200,5.4240302734375,-0.048858642578125,0.9657745361328125,0.2051544189453125
1772807513005963300,5.43396337890625,-0.045440673828125,0.9663543701171875,0.2030181884765625
1772807513015895300,5.443895263671875,-0.0467681884765625,0.969390869140625,0.202911376953125
1772807513025827300,5.453827392578125,-0.04754638671875,0.9727935791015625,0.2029876708984375
1772807513035759000,5.463759033203125,-0.048095703125,0.9746856689453125,0.20562744140625
1772807513045691100,5.473691162109375,-0.0511932373046875,0.9760284423828125,0.2068023681640625
1772807513055624200,5.483624267578125,-0.048919677734375,0.975799560546875,0.20965576171875
1772807513065556000,5.493555908203125,-0.0478057861328125,0.977447509765625,0.21148681640625
1772807513075488000,5.503488037109375,-0.050567626953125,0.975067138671875,0.210693359375
1772807513085420000,5.513419921875,-0.04766845703125,0.9751739501953125,0.2082061767578125
1772807513095352000,5.52335205078125,-0.0415496826171875,0.974029541015625,0.209228515625
1772807513105284000,5.5332841796875,-0.040283203125,0.971832275390625,0.20574951171875
1772807513115217200,5.543217041015625,-0.0404815673828125,0.9694061279296875,0.2026519775390625
1772807513125149200,5.553149169921875,-0.0469970703125,0.969268798828125,0.2057952880859375
1772807513135081000,5.5630810546875,-0.05096435546875,0.97076416015625,0.2079925537109375
1772807513145013000,5.573012939453125,-0.0513153076171875,0.971435546875,0.208404541015625
1772807513154945000,5.582945068359375,-0.05230712890625,0.9727783203125,0.209197998046875
1772807513164877000,5.592876953125,-0.0544891357421875,0.9729461669921875,0.2100372314453125
1772807513174810000,5.60281005859375,-0.0568084716796875,0.973968505859375,0.20660400390625
1772807513184742100,5.6127421875,-0.05548095703125,0.976654052734375,0.20611572265625
1772807513194674200,5.622674072265625,-0.049041748046875,0.9762115478515625,0.207244873046875
1772807513204606000,5.63260595703125,-0.0498504638671875,0.9759979248046875,0.2067718505859375
1772807513214538000,5.6425380859375,-0.0507354736328125,0.9738616943359375,0.20892333984375
1772807513224470000,5.652469970703125,-0.0488433837890625,0.974273681640625,0.2071533203125
1772807513234403000,5.662403076171875,-0.0463104248046875,0.9761505126953125,0.2071990966796875
1772807513244335000,5.672335205078125,-0.042266845703125,0.9769134521484375,0.2074737548828125
1772807513254267100,5.68226708984375,-0.04486083984375,0.97369384765625,0.2080535888671875
1772807513264199200,5.69219921875,-0.0459747314453125,0.9675750732421875,0.2064666748046875
1772807513274131000,5.702130859375,-0.04962158203125,0.9693603515625,0.2088470458984375
1772807513284063000,5.71206298828125,-0.0481109619140625,0.9726409912109375,0.2086029052734375
1772807513293996000,5.72199609375,-0.053619384765625,0.9701385498046875,0.2073516845703125
1772807513303928000,5.731927978515625,-0.056671142578125,0.9697418212890625,0.204681396484375
1772807513313860000,5.741860107421875,-0.0545806884765625,0.97235107421875,0.2059478759765625
1772807513323792100,5.751792236328125,-0.04913330078125,0.975799560546875,0.209747314453125
1772807513333724200,5.76172412109375,-0.0468292236328125,0.9752044677734375,0.2099151611328125
1772807513343657200,5.7716572265625,-0.0456390380859375,0.97412109375,0.2091827392578125
1772807513353589000,5.781589111328125,-0.0478515625,0.9746551513671875,0.2103424072265625
1772807513363521000,5.79152099609375,-0.0435791015625,0.9765777587890625,0.209991455078125
1772807513373453000,5.801453125,-0.042938232421875,0.9750823974609375,0.212493896484375
1772807513383385000,5.811385009765625,-0.042388916015625,0.9720611572265625,0.21185302734375
1772807513393317000,5.821317138671875,-0.043243408203125,0.969085693359375,0.2117767333984375
1772807513403250200,5.831250244140625,-0.043304443359375,0.9720001220703125,0.2105255126953125
1772807513413182200,5.84118212890625,-0.04766845703125,0.9712371826171875,0.207672119140625
1772807513423114000,5.851114013671875,-0.0511474609375,0.9688720703125,0.2068023681640625
1772807513433046000,5.8610458984375,-0.0515899658203125,0.9687042236328125,0.2083587646484375
1772807513442978000,5.87097802734375,-0.0515899658203125,0.9703369140625,0.2074127197265625
1772807513452910000,5.88091015625,-0.05084228515625,0.974029541015625,0.2092132568359375
1772807513462843100,5.890843017578125,-0.0522613525390625,0.9733734130859375,0.211761474609375
1772807513472775200,5.900775146484375,-0.0496368408203125,0.9731292724609375,0.2099609375
1772807513482707200,5.910707275390625,-0.0455322265625,0.97467041015625,0.2121124267578125
1772807513492639000,5.920638916015625,-0.044769287109375,0.9745635986328125,0.2133331298828125
1772807513502571000,5.930571044921875,-0.046051025390625,0.97186279296875,0.2137603759765625
1772807513512504000,5.940504150390625,-0.04449462890625,0.9720611572265625,0.21453857421875
1772807513522436000,5.95043603515625,-0.042205810546875,0.9736480712890625,0.215850830078125
1772807513532368100,5.9603681640625,-0.0465545654296875,0.971527099609375,0.215362548828125
1772807513542300200,5.970300048828125,-0.0500946044921875,0.9684295654296875,0.2125396728515625
1772807513552232200,5.980232177734375,-0.0506744384765625,0.9685516357421875,0.2101287841796875
1772807513562164000,5.9901640625,-0.0478515625,0.9735870361328125,0.2069854736328125
1772807513572097000,6.000096923828125,-0.0493927001953125,0.9716949462890625,0.2093963623046875
1772807513582029000,6.010029052734375,-0.052581787109375,0.9720001220703125,0.2073974609375
1772807513591961000,6.019961181640625,-0.05291748046875,0.9741668701171875,0.2063446044921875
1772807513601893000,6.02989306640625,-0.047698974609375,0.975372314453125,0.2107086181640625
1772807513611825200,6.0398251953125,-0.0463409423828125,0.976776123046875,0.2131500244140625
1772807513621757200,6.049757080078125,-0.0480804443359375,0.9739227294921875,0.2149200439453125
1772807513631690200,6.059690185546875,-0.0513916015625,0.97210693359375,0.21295166015625
1772807513641622000,6.0696220703125,-0.051116943359375,0.9715423583984375,0.213592529296875
1772807513651554000,6.079553955078125,-0.047027587890625,0.97125244140625,0.2131195068359375
1772807513661486000,6.089486083984375,-0.04681396484375,0.969512939453125,0.214996337890625
1772807513671418000,6.099418212890625,-0.0480499267578125,0.9677276611328125,0.2156829833984375
1772807513681351200,6.10935107421875,-0.0480194091796875,0.9692535400390625,0.2136688232421875
1772807513691283200,6.119283203125,-0.048553466796875,0.9689178466796875,0.2130126953125
1772807513701215200,6.12921533203125,-0.0471954345703125,0.972564697265625,0.2115936279296875
1772807513711147000,6.13914697265625,-0.047698974609375,0.973419189453125,0.212921142578125
1772807513721079000,6.1490791015625,-0.0480804443359375,0.9729766845703125,0.2101287841796875
1772807513731011000,6.159010986328125,-0.0490875244140625,0.97467041015625,0.208160400390625
1772807513740944100,6.168944091796875,-0.05096435546875,0.970611572265625,0.21112060546875
1772807513750876200,6.178876220703125,-0.049285888671875,0.9730987548828125,0.2113494873046875
1772807513760808200,6.18880810546875,-0.0465545654296875,0.9730987548828125,0.2163848876953125
1772807513770740200,6.198740234375,-0.04290771484375,0.9722137451171875,0.2177276611328125
1772807513780672000,6.208672119140625,-0.0401763916015625,0.969482421875,0.2209014892578125
1772807513790604000,6.21860400390625,-0.0408935546875,0.9706573486328125,0.2201995849609375
1772807513800537000,6.228537109375,-0.0453948974609375,0.9682464599609375,0.2209930419921875
1772807513810469000,6.23846923828125,-0.0477294921875,0.9668121337890625,0.21630859375
1772807513820401200,6.248401123046875,-0.048736572265625,0.9641876220703125,0.2137603759765625
1772807513830333200,6.258333251953125,-0.0498199462890625,0.967498779296875,0.214447021484375
1772807513840265000,6.268264892578125,-0.0500030517578125,0.973175048828125,0.211822509765625
1772807513850198300,6.2781982421875,-0.0457916259765625,0.974884033203125,0.2109375
1772807513860130000,6.288130126953125,-0.042816162109375,0.975738525390625,0.210418701171875
1772807513870062000,6.29806201171875,-0.04449462890625,0.9774017333984375,0.209075927734375
1772807513879994000,6.307994140625,-0.0457611083984375,0.9752960205078125,0.2101593017578125
1772807513889926100,6.317926025390625,-0.04547119140625,0.973663330078125,0.21148681640625
1772807513899858200,6.327858154296875,-0.04595947265625,0.9724578857421875,0.21246337890625
1772807513909791200,6.337791259765625,-0.0493011474609375,0.9698486328125,0.2150421142578125
1772807513919723300,6.34772314453125,-0.050567626953125,0.9697723388671875,0.2140655517578125
1772807513929655000,6.357655029296875,-0.050140380859375,0.9687042236328125,0.211395263671875
1772807513939587000,6.367587158203125,-0.0494842529296875,0.9711761474609375,0.2130889892578125
1772807513949519000,6.37751904296875,-0.0480499267578125,0.971435546875,0.216217041015625
1772807513959452200,6.3874521484375,-0.0482635498046875,0.968536376953125,0.2193603515625
1772807513969384200,6.39738427734375,-0.049072265625,0.970703125,0.218109130859375
1772807513979316200,6.407316162109375,-0.0472869873046875,0.97235107421875,0.2147979736328125
1772807513989248000,6.417248046875,-0.049102783203125,0.9720458984375,0.2127838134765625
1772807513999180000,6.427179931640625,-0.0486602783203125,0.9740447998046875,0.209625244140625
1772807514009112000,6.437112060546875,-0.048126220703125,0.974395751953125,0.205902099609375
1772807514019045000,6.447045166015625,-0.0462646484375,0.9729461669921875,0.2068023681640625
1772807514028977200,6.45697705078125,-0.0439910888671875,0.9742279052734375,0.2097015380859375
1772807514038909200,6.4669091796875,-0.04620361328125,0.971435546875,0.2131195068359375
1772807514048841000,6.476841064453125,-0.049102783203125,0.9713592529296875,0.2130126953125
1772807514058773000,6.48677294921875,-0.048492431640625,0.9711761474609375,0.2133941650390625
1772807514068706000,6.4967060546875,-0.0472564697265625,0.970916748046875,0.2151947021484375
1772807514078638000,6.50663818359375,-0.047607421875,0.9719085693359375,0.215667724609375
1772807514088570000,6.516570068359375,-0.0454254150390625,0.9713592529296875,0.214569091796875
1772807514098502100,6.526502197265625,-0.0398712158203125,0.96966552734375,0.21356201171875
1772807514108434000,6.536433837890625,-0.048492431640625,0.9704437255859375,0.2105865478515625
1772807514118366000,6.546365966796875,-0.052642822265625,0.972686767578125,0.2113037109375
1772807514128299000,6.556299072265625,-0.0516510009765625,0.9713134765625,0.2106781005859375
1772807514138231000,6.56623095703125,-0.0488739013671875,0.969696044921875,0.2140045166015625
1772807514148163000,6.5761630859375,-0.04754638671875,0.969482421875,0.21270751953125
1772807514158095000,6.58609521484375,-0.0465240478515625,0.9709625244140625,0.2091827392578125
1772807514168027100,6.596027099609375,-0.0491943359375,0.9718017578125,0.20843505859375
1772807514177960200,6.605960205078125,-0.0492401123046875,0.974884033203125,0.2094879150390625
1772807514187892000,6.61589208984375,-0.0496673583984375,0.9742431640625,0.21246337890625
1772807514197824000,6.625823974609375,-0.0502777099609375,0.9736328125,0.2163848876953125
1772807514207756000,6.635756103515625,-0.0501251220703125,0.971771240234375,0.2188262939453125
1772807514217688000,6.64568798828125,-0.0513458251953125,0.9703369140625,0.2162017822265625
1772807514227620000,6.6556201171875,-0.0518341064453125,0.9700775146484375,0.2152252197265625
1772807514237553200,6.66555322265625,-0.05133056640625,0.968536376953125,0.2137908935546875
1772807514247485200,6.675485107421875,-0.051910400390625,0.9672088623046875,0.2125396728515625
1772807514257417000,6.6854169921875,-0.052886962890625,0.9699554443359375,0.2124176025390625
1772807514267349000,6.695348876953125,-0.054046630859375,0.9698638916015625,0.2122039794921875
1772807514277281000,6.705281005859375,-0.0525054931640625,0.9692535400390625,0.2106475830078125
1772807514287214000,6.715214111328125,-0.055694580078125,0.97406005859375,0.2112579345703125
1772807514297146000,6.72514599609375,-0.056182861328125,0.974334716796875,0.2122650146484375
1772807514307078100,6.735078125,-0.05438232421875,0.97418212890625,0.210906982421875
1772807514317010200,6.74501025390625,-0.05126953125,0.97479248046875,0.212677001953125
1772807514326942000,6.75494189453125,-0.0549163818359375,0.9730682373046875,0.21441650390625
1772807514336874000,6.7648740234375,-0.0606231689453125,0.9705810546875,0.2119903564453125
1772807514346807000,6.77480712890625,-0.0584869384765625,0.97271728515625,0.212615966796875
1772807514356739000,6.784739013671875,-0.05889892578125,0.970458984375,0.2127227783203125
1772807514366671000,6.794671142578125,-0.0593719482421875,0.9702606201171875,0.210540771484375
1772807514376603100,6.80460302734375,-0.05877685546875,0.9699859619140625,0.2093963623046875
1772807514386535200,6.81453515625,-0.054351806640625,0.969482421875,0.210052490234375
1772807514396468200,6.82446826171875,-0.05303955078125,0.9722137451171875,0.2094573974609375
1772807514406400000,6.83439990234375,-0.0554351806640625,0.97430419921875,0.2121734619140625
1772807514416332000,6.84433203125,-0.046844482421875,0.97705078125,0.21453857421875
