time,seconds_elapsed,z,y,x
1772807507641356300,0.069356201171875,-0.018533362491056322,-0.04159633123576641,-0.10622370170801877
1772807507651288300,0.079288330078125,-0.06758066731989383,-0.026300562426447866,-0.11706965150162577
1772807507661220400,0.089220458984375,-0.08150456325411796,-0.02637012053132057,-0.10048837292641401
1772807507671152400,0.09915234375,-0.09573650222420692,-0.010237900897860527,-0.08046616011708975
1772807507681084400,0.10908447265625,-0.10650105734467506,0.014600187760591505,-0.06394727925360202
1772807507691017500,0.119017578125,-0.08403671208024024,0.006145663148164749,-0.07604965884909033
1772807507700949500,0.128949462890625,-0.07259528061151505,-0.035680385190248486,-0.06541267563104629
1772807507710881300,0.13888134765625,-0.10231887628920376,-0.09015607174336909,-0.05828764605671167
1772807507720813300,0.148813232421875,-0.1042553242444992,-0.10879238315224647,-0.05302534161433577
1772807507730745300,0.158745361328125,-0.10274024350643157,-0.09480418981015681,-0.02802387908771634
1772807507740677400,0.168677490234375,-0.08539104929864406,-0.048458033698797226,-0.015267857889086007
1772807507750609400,0.178609375,-0.09675364337749778,-0.05668108764290809,0.0010607610993087291
1772807507760542500,0.18854248046875,-0.10144501606412232,-0.0652899260342121,0.016228373484313486
1772807507770474500,0.198474609375,-0.13508008609712124,-0.054931613627076145,-0.016888737089186905
1772807507780406300,0.20840625,-0.1408756206333637,-0.04179799128770828,-0.07816796617731452
1772807507790338300,0.21833837890625,-0.1584972751069814,-0.05825929674506187,-0.1052834982484579
1772807507800270300,0.228270263671875,-0.16258008744120597,-0.03747720547914505,-0.14257102637439964
1772807507810202400,0.238202392578125,-0.19055998125672338,-0.028300796332955357,-0.14303046057969332
1772807507820134400,0.248134521484375,-0.1778016219705343,-0.04726034834682941,-0.12808072872906923
1772807507830067500,0.2580673828125,-0.1593751539200544,-0.07239362055957317,-0.1154328440800309
1772807507839999500,0.26799951171875,-0.11751052713692188,-0.09892740722000598,-0.13993804752230643
1772807507849931300,0.27793115234375,-0.10812785482890903,-0.08031915286183357,-0.14036036458760498
1772807507859863300,0.28786328125,-0.1151175675857812,-0.04970014271438122,-0.19118673485293983
1772807507869795300,0.29779541015625,-0.1687836913216859,-0.074971362093091,-0.17353592735007403
1772807507879727400,0.307727294921875,-0.23494214381873607,-0.1469324364542961,-0.13206731414720416
1772807507889659400,0.317659423828125,-0.30102592364437875,-0.14120879811048506,-0.15511355095282195
1772807507899592400,0.327592529296875,-0.3439081299722194,-0.10654898813962936,-0.14132351053133607
1772807507909524200,0.337524169921875,-0.3107973030090332,-0.0697042353451252,-0.1694660475626588
1772807507919456300,0.347456298828125,-0.3517529251884669,-0.04446750275790691,-0.14788491487354039
1772807507929388300,0.35738818359375,-0.3279868496757001,-0.04884790979921817,-0.17127762702926994
1772807507939320300,0.3673203125,-0.34066162233166397,-0.07434533914923667,-0.19196677931472658
1772807507949252400,0.37725244140625,-0.3013274273416027,-0.10980945124030113,-0.18392434263452886
1772807507959184400,0.387184326171875,-0.3410421460818499,-0.0959726490676403,-0.1832711394228041
1772807507969117400,0.397117431640625,-0.3623200580406934,-0.06789630914032459,-0.09068301822692156
1772807507979049200,0.40704931640625,-0.3437619994997978,-0.07043956388235091,-0.14449015786871314
1772807507988981200,0.416981201171875,-0.4082113465240225,-0.0024187515795230864,0.018159195416420696
1772807507998913300,0.426913330078125,-0.4327805551132187,0.07195639818608761,0.10398542126193643
1772807508008845300,0.43684521484375,-0.33040972944106906,0.12655191172659397,0.1534564313955605
1772807508018777300,0.44677734375,-0.3077911069303751,0.09248480695188045,0.19319310623928904
1772807508028709400,0.45670947265625,-0.36020229870174075,0.06311550460457802,0.20366510815396904
1772807508038642400,0.466642333984375,-0.31170155837237834,-0.04889817868173122,0.3305463979654014
1772807508048574000,0.476573974609375,-0.319488558986783,-0.13297756085991858,0.37350481133460994
1772807508058506000,0.486506103515625,-0.3074848174601793,-0.076095982208848,0.3953044090799987
1772807508068438000,0.49643798828125,-0.2612882989525795,-0.09458207149207591,0.4349471220299601
1772807508078369800,0.506369873046875,-0.20713117682933807,-0.09409516475796699,0.38120530270934105
1772807508088301800,0.5163017578125,-0.15697046739850193,-0.0539969631254673,0.27263664531037207
1772807508098233900,0.52623388671875,-0.07566811218559742,-0.035306291180849075,0.17316534047201274
1772807508108167000,0.5361669921875,-0.04196107289493084,-0.010478139394521713,0.09514847320318222
1772807508118099000,0.546098876953125,-0.0021399346381425857,0.007575403690338134,0.028923166014999148
1772807508128031000,0.556031005859375,0.07922551240622996,0.04636719889938831,-0.045405368129909036
1772807508137963000,0.565962890625,0.09954058894859626,0.07626432451307773,-0.0885560892008245
1772807508147894800,0.575894775390625,0.07404317786488682,0.01999181767106056,-0.14365195347890258
1772807508157826800,0.585826904296875,0.13514032838437706,-0.05202420174777508,-0.23378975891321896
1772807508167758800,0.5957587890625,0.20310676188515497,-0.026745383584499356,-0.2638683785736561
1772807508177692000,0.60569189453125,0.2505056236535311,0.022301263657212255,-0.2906926726132631
1772807508187624000,0.6156240234375,0.2928291001200676,0.033196167159080504,-0.31854163352549075
1772807508197556000,0.625555908203125,0.32671091145575043,0.006594575959444046,-0.29314664163663984
1772807508207488000,0.635488037109375,0.3073854487389326,-0.014759762236475944,-0.2286694932900369
1772807508217419800,0.645419677734375,0.34907647252082824,-0.03942717050313949,-0.17526245888173578
1772807508227351800,0.655351806640625,0.35431729578375815,-0.05013853413164615,-0.17970277941673993
1772807508237283800,0.665283935546875,0.3259025176823139,0.026757658544182775,-0.1731291001148522
1772807508247217000,0.675216796875,0.26265374208688735,-0.01827741496860981,-0.25238968383446336
1772807508257149000,0.68514892578125,0.3135270202338695,-0.05977613104879856,-0.3314114903621375
1772807508267081000,0.6950810546875,0.3840168529987335,-0.10484686039686203,-0.38201150452569127
1772807508277013000,0.705012939453125,0.35698330012261864,-0.03862871360182762,-0.3916330270908773
1772807508286944800,0.71494482421875,0.3165297091811895,-0.006077858608961105,-0.37895328599885103
1772807508296876800,0.724876708984375,0.3471107254058122,0.002467266896367073,-0.3417705334216356
1772807508306809900,0.734809814453125,0.3358341291099787,0.02251987484395504,-0.2978381604537368
1772807508316742000,0.744741943359375,0.3284212225049734,0.04640519282221794,-0.2675298236906528
1772807508326674000,0.754673828125,0.33222646000683304,-0.01671148082613945,-0.23365853374898432
1772807508336606000,0.76460595703125,0.3591454465925693,-0.03996025446653366,-0.2040029618062079
1772807508346537700,0.774537841796875,0.3451034772366285,-0.04221767800450325,-0.19864698773100972
1772807508356469800,0.7844697265625,0.27946634519994257,-0.021432079607248303,-0.23204700689911842
1772807508366401800,0.79440185546875,0.1920721393853426,-0.010403905114531516,-0.24593773121610282
1772807508376334800,0.8043349609375,0.11281098027699626,-0.026660043388605115,-0.20933263239637015
1772807508386267000,0.814266845703125,0.11984104331056587,-0.07575871307849884,-0.1263604808077216
1772807508396199000,0.824198974609375,0.16174480566084384,-0.07395897018015385,-0.06579919073060154
1772807508406131000,0.834130859375,0.1663111089293845,-0.02255026998221874,-0.03139335552081465
1772807508416062700,0.844062744140625,0.1609972021639347,0.03434007649719715,-0.05944909105151892
1772807508425994800,0.853994873046875,0.0805371612603776,-0.039022681355476374,-0.1394455878302455
1772807508435927000,0.863927001953125,0.10391394519461318,-0.16739947042167186,-0.22765315585434434
1772807508445859800,0.87385986328125,0.13775310469865798,-0.07221592590510845,-0.23735768052786588
1772807508455791900,0.8837919921875,0.006831900979811325,0.07487140884995461,-0.1517579569146037
1772807508465724000,0.893723876953125,-0.08145427610529586,-0.031767011138796805,-0.13896730279400943
1772807508475656000,0.903656005859375,-0.014495558342337608,-0.031383564779162404,-0.1427751706443727
1772807508485587700,0.913587646484375,-0.12733691549128853,0.008903437423706055,-0.07941402071565389
1772807508495520000,0.92352001953125,-0.04952480441378429,-0.029441198539733884,-0.07666472200751304
1772807508505452000,0.9334521484375,-0.024666239222884176,0.013598901763558387,-0.1270110536709428
1772807508515384800,0.943384765625,-0.1506277838408947,0.0002712181568145752,-0.15049042119681835
1772807508525316900,0.95331689453125,-0.15908113940954208,-0.0021925416082143783,-0.17005319980084896
1772807508535249000,0.963248779296875,-0.1054015716701746,0.018012626552581786,-0.15512845626100896
1772807508545181000,0.973180908203125,-0.06347615461051463,0.07403729611337184,-0.1232854572765529
1772807508555113000,0.983113037109375,-0.05632861181027256,0.08702537250220775,-0.15330109470337627
1772807508565045000,0.993044921875,-0.08939911589622497,0.06887246069610119,-0.1415323309764266
1772807508574977000,1.00297705078125,-0.1120019928485155,0.03425765891075134,-0.10943228849098086
1772807508584909800,1.012909912109375,-0.14733984821140766,0.00919862097799778,-0.03855272575616836
1772807508594841900,1.022841796875,-0.1223982991784811,-0.03164776867330074,-0.009228723855316638
1772807508604774000,1.03277392578125,-0.09278817381262779,-0.01781739624142647,0.04575856548175215
1772807508614706000,1.042705810546875,-0.11477087303996085,0.051314592173695564,0.08591755739077925
1772807508624638000,1.052637939453125,-0.14512334120571613,0.02972936783134937,0.07166632919833063
1772807508634570000,1.062570068359375,-0.05608721340298652,0.07517302214503288,0.0485537491582334
1772807508644502800,1.072502685546875,-0.01979191346807638,-0.004189852905273437,0.10904840373992919
1772807508654434800,1.082434814453125,0.041740708142519,-0.10145721795856952,0.2394149053186178
1772807508664366800,1.092366943359375,0.04000233547601383,-0.14362404255867003,0.33252412777915596
1772807508674299000,1.102298828125,-0.006164372415211982,-0.09179624016582966,0.4652937449768185
1772807508684231200,1.112231201171875,-0.07549918992605525,-0.05531564450860023,0.5045166250795126
1772807508694163000,1.122162841796875,-0.034684359890222546,-0.048342298364639276,0.48590632489472624
1772807508704095000,1.132094970703125,-0.0038181015500100327,-0.08883505227267742,0.44632571739554405
1772807508714027800,1.14202783203125,0.023993449961277655,-0.10760697275996207,0.39723976105675096
1772807508723959800,1.151959716796875,0.04684592689361888,-0.09615969607234001,0.34565935755372046
1772807508733891800,1.161891845703125,0.032899234605696985,-0.09910334830880164,0.31513343251720066
1772807508743824100,1.17182421875,0.02124503716912586,-0.1076192477196455,0.2815910822689533
1772807508753756200,1.181756103515625,0.050614924038317986,-0.11886954053044319,0.24309563965797423
1772807508763688000,1.19168798828125,0.018804073757794686,-0.12455460042953491,0.2571431619718671
1772807508773620000,1.201619873046875,0.02223053650856018,-0.1285714348554611,0.22439269275367257
1772807508783552800,1.211552734375,0.06432663396000862,-0.0946089594990015,0.1723002480752766
1772807508793484800,1.22148486328125,0.07749357404708862,-0.07968085495829581,0.12917232335805892
1772807508803417000,1.2314169921875,0.031709143471717834,-0.07493103008270263,0.12467369676455854
1772807508813349000,1.24134912109375,0.01565583657665411,-0.04087444670200348,0.06372545319646597
1772807508823281200,1.25128125,-0.00661444970369339,-0.03205167329907417,0.038201281969994304
1772807508833213000,1.261212890625,-0.004694879817962646,-0.023806992045044897,0.026382980012893676
1772807508843145700,1.271145751953125,0.005263035094738007,-0.04444645996987819,0.007545885334908962
1772807508853078000,1.281078125,0.023531682235002516,-0.07764613426029682,0.0007896890729665756
1772807508863010000,1.291010009765625,0.027922610670328137,-0.08955226063132285,0.027361908047646284
1772807508872942000,1.300942138671875,0.0540448939204216,-0.08462591014504432,0.061720104723423715
1772807508882874000,1.3108740234375,0.07956044344902038,-0.07897007634043693,0.0867171833358705
1772807508892806100,1.32080615234375,0.09946925901174544,-0.047923196169734,0.08840279833525419
1772807508902738000,1.330738037109375,0.0988742157280445,-0.016125789892673492,0.08919014932066202
1772807508912671000,1.3406708984375,0.08249825046658515,0.0014086977541446686,0.10976283561959863
1772807508922603000,1.35060302734375,0.08932195900678634,0.0201730194568634,0.10969663851559161
1772807508932535000,1.36053515625,0.09276830006837844,-0.003989946419000625,0.13261325759217144
1772807508942467000,1.370467041015625,0.04356090930700302,-0.029209143349528312,0.1399992761902511
1772807508952399000,1.380399169921875,0.04389525582790375,-0.04198854542374611,0.1483522401243448
1772807508962331100,1.3903310546875,0.07463292391896248,-0.043541035562753676,0.1479942204669118
1772807508972263000,1.400262939453125,0.07485621128082275,-0.05734393546581268,0.13331497612074017
1772807508982196000,1.410196044921875,0.09230886586308479,-0.08422551265060901,0.1511814722009003
1772807508992128000,1.4201279296875,0.11431026979088782,-0.09024375002682208,0.15366583636254072
1772807509002060000,1.43006005859375,0.14694880306720734,-0.09544716388881205,0.13285130413174628
1772807509011992000,1.439991943359375,0.14289923541545868,-0.06987550025880336,0.13321546126902103
1772807509021924000,1.449924072265625,0.10612813237905502,-0.0522451510220766,0.1337871236771345
1772807509031856000,1.459856201171875,0.11103344007730484,-0.09689736269712447,0.110255441442132
1772807509041788000,1.469787841796875,0.12597265053391457,-0.11793898168206214,0.09403554352521896
1772807509051721200,1.47972119140625,0.1788344721496105,-0.10964169345796107,0.07671177601963282
1772807509061653200,1.4896533203125,0.19474048181176185,-0.09931377618908882,0.08028525059223175
1772807509071585500,1.49958544921875,0.17522212687134742,-0.09082418026328086,0.05349281299561262
1772807509081517300,1.509517333984375,0.1663818178117275,-0.07136077038049697,0.0630161358833313
1772807509091449300,1.519449462890625,0.15509119299054144,-0.04809913725852966,0.029078794968128204
1772807509101381400,1.52938134765625,0.14268179327249525,-0.01868950290083885,0.007229366731643676
1772807509111314200,1.539314208984375,0.10698621051311492,-0.015419687449932098,0.01722293747961521
1772807509121246500,1.54924658203125,0.06457213315367698,-0.04763035070300102,-0.006984452059864998
1772807509131178500,1.559178466796875,0.03768763792600948,-0.043967152020335194,-0.03342909913212061
1772807509141110500,1.569110595703125,0.0332078621634515,-0.06411211442649364,-0.07013648928254843
1772807509151042300,1.579042236328125,0.02186813750353176,-0.07322247259914874,-0.09458294827491044
1772807509160974300,1.588974365234375,0.04556816204276401,-0.07744798133969306,-0.12167583012282848
1772807509170906400,1.59890625,0.020784424786898306,-0.05787117421030998,-0.1286132281705737
1772807509180839400,1.60883935546875,0.018391396737098692,-0.059223173341155046,-0.11856763497442006
1772807509190771500,1.618771484375,0.012145195823907851,-0.0569160654425621,-0.10010258847922086
1772807509200703500,1.628703369140625,0.004940374445053748,-0.060067807471752166,-0.09389584279358386
1772807509210635500,1.638635498046875,0.011262567770481109,-0.055845221340656274,-0.07976181124001741
1772807509220567300,1.6485673828125,0.014523030871152877,-0.04853869771957397,-0.08033581173568964
1772807509230499300,1.658499267578125,-0.02998597294092178,-0.05018997205793857,-0.07110562657564878
1772807509240431400,1.668431396484375,-0.06439794106397312,-0.08621931681632995,-0.05437865591943264
1772807509250364400,1.678364501953125,-0.05546645115613937,-0.06890753200948238,-0.0693228348121047
1772807509260296400,1.68829638671875,-0.07987608526945114,-0.0815419726550579,-0.09567045125067233
1772807509270228500,1.698228515625,-0.06963175919738132,-0.09442483510375023,-0.13553162925690412
1772807509280160500,1.708160400390625,-0.05940496421542484,-0.08138824339807033,-0.11536562406271696
1772807509290092300,1.71809228515625,-0.033255788391828536,-0.05665186154842376,-0.11940087092816828
1772807509300024300,1.7280244140625,-0.07619827810612041,-0.026132804644107818,-0.09057049776315688
1772807509309957400,1.737957275390625,-0.07843466342263855,-0.017297171759605406,-0.10352321057766675
1772807509319889400,1.747889404296875,-0.06685293756723404,-0.029577976661920545,-0.12759265295118094
1772807509329821400,1.757821533203125,-0.06292378142476081,-0.014550503399968146,-0.10882979255318641
1772807509339753500,1.76775341796875,-0.07858079389506019,0.033981764578819275,-0.09160773185640574
1772807509349685500,1.777685546875,-0.05974282243424095,0.07168634907305241,-0.08476093470156193
1772807509359617300,1.7876171875,-0.05280220038294792,0.08267711416482924,-0.07820406040400266
1772807509369549300,1.79754931640625,-0.12976035237908362,0.0789320824176073,-0.08970219049602747
1772807509379482400,1.807482421875,-0.13958967247605322,0.08343523905575274,-0.0678390259951353
1772807509389414400,1.817414306640625,-0.13544775949888863,0.10262217008471489,-0.020849895805120467
1772807509399346400,1.827346435546875,-0.15057168800579382,0.08731354179382324,0.002006371386349201
1772807509409278500,1.837278564453125,-0.15958616632223127,0.06868775177896022,0.01965893245488405
1772807509419210500,1.84721044921875,-0.1448515476601664,0.09212006529271602,0.022374913415312767
1772807509429142300,1.857142333984375,-0.13046879290938376,0.04214052111506462,0.03960252707004547
1772807509439074300,1.86707421875,-0.046458968836069106,0.06214578278958797,0.014940964022278784
1772807509449007400,1.87700732421875,-0.08670446998476981,0.1111871693342924,0.04617927511185407
1772807509458939400,1.886939453125,-0.08446809836798347,0.11971768179237842,0.0529836944296956
1772807509468871400,1.896871337890625,-0.09064531656503677,0.06858312236070632,0.05273761071413755
1772807509478803500,1.906803466796875,-0.08687864837474189,0.029464579415321348,0.050367082190513605
1772807509488735500,1.916735595703125,-0.07222234651274047,-0.06908931831717491,0.02027384948283434
1772807509498667300,1.926667236328125,-0.043225402875477444,-0.08409808687865733,0.008112287046015262
1772807509508599300,1.936599365234375,-0.105423198980093,-0.08211305054128169,0.038107320076227184
1772807509518532400,1.946532470703125,-0.09795066200918517,-0.11134557476639748,0.024928981812298297
1772807509528464400,1.95646435546875,-0.06251695418953895,-0.10683657290935515,0.027295710943639275
1772807509538396400,1.966396484375,-0.025376433318853378,-0.08353986847400664,0.009155950880050659
1772807509548328400,1.976328369140625,-0.007670096236467361,-0.0650806671977043,0.010381693282723425
1772807509558260200,1.98626025390625,0.05216039534807205,-0.07395780113637447,0.024320202264189718
1772807509568192300,1.996192138671875,0.09204466196894645,-0.08485913437902927,0.02051788737177849
1772807509578125300,2.006125244140625,0.10038229133659042,-0.13331132285892963,0.041103579282760615
1772807509588057300,2.016057373046875,0.08040332401394844,-0.13161913198828695,0.04130494707375765
1772807509597989400,2.0259892578125,0.060277070874837226,-0.12047522216141224,0.027815058642625807
1772807509607921400,2.03592138671875,0.05309680398192722,-0.08361001110076904,0.04854162032902241
1772807509617853400,2.045853515625,0.029787235498428342,-0.06654314096570015,0.052150750736892224
1772807509627785200,2.05578515625,-0.0359141848129686,-0.07540157020390033,0.041114685198664666
1772807509637717200,2.06571728515625,-0.04090835353818256,-0.08221125021874905,0.030843466553092003
1772807509647650300,2.075650390625,0.018277999490499495,-0.043972412717342375,0.05043868612200021
1772807509657582300,2.085582275390625,0.061412207818031306,-0.03563946865797043,0.029670038859546184
1772807509667514400,2.095514404296875,0.04562427157759666,-0.056906713092327116,0.03615764731317758
1772807509677446400,2.1054462890625,0.04724924243092537,-0.04090893349349498,0.03228694335967302
1772807509687378400,2.11537841796875,0.05775076270103454,0.017095511707663536,0.05536795921772718
1772807509697310200,2.125310302734375,0.04749707514557522,0.03749824826717377,0.06561696603149175
1772807509707243300,2.1352431640625,-0.0015676877081394194,-0.004078209224343299,0.07972995479702949
1772807509717175300,2.14517529296875,-0.006031096857786179,-0.04849135144650936,0.0749430127814412
1772807509727107300,2.155107421875,0.012222361846501007,-0.04729717322587967,0.038543081144988535
1772807509737039400,2.165039306640625,0.020382287426525727,-0.041595746713876725,0.0506985061019659
1772807509746971400,2.174971435546875,-0.005649988585710525,-0.03376841408908367,0.03922726401686668
1772807509756903400,2.1849033203125,-0.037087913900613785,-0.03000876929461956,0.019324878194928168
1772807509766835200,2.194835205078125,-0.026891518623498267,-0.05390753127634525,0.006663549542427063
1772807509776768300,2.204768310546875,-0.0006464857765706255,-0.04158580984175205,0.00504676199555397
1772807509786700300,2.2147001953125,-0.015274726021289825,-0.058176879158616066,-0.014254150801897049
1772807509796632300,2.22463232421875,-0.015902502530813215,-0.0755465316325426,-0.03074117522239685
1772807509806564400,2.234564453125,-0.01116087009483017,-0.05716331820189952,-0.06170183841437101
1772807509816496400,2.244496337890625,-0.026399351192382164,-0.05369710339605808,-0.05572422530949116
1772807509826428400,2.254428466796875,-0.0008604162216186523,-0.05875380226373672,-0.05934007771909237
1772807509836360200,2.264360107421875,-0.006484685844182968,-0.035514380973577495,-0.06405570806413889
1772807509846293200,2.274293212890625,-0.03193827605247497,-0.02872866635620594,-0.04364624950289726
1772807509856225300,2.284225341796875,-0.02759878554344177,-0.03529401622116565,-0.057822074371576306
1772807509866157300,2.2941572265625,-0.02674655262827873,-0.0455225647687912,-0.0565980855345726
1772807509876089300,2.30408935546875,-0.03508183020863216,-0.0387777666836977,-0.04036035970002413
1772807509886021400,2.314021484375,0.009586158990859985,-0.08472118721306324,-0.05878156705349683
1772807509895953400,2.323953369140625,0.04465279619693756,-0.031631402060389516,-0.06856763253062963
1772807509905886500,2.333886474609375,-0.012910921782685908,-0.021341478714346884,-0.03150514533221722
1772807509915818200,2.343818359375,-0.014948565090133342,-0.018084522745013237,-0.02122837372869253
1772807509925750300,2.353750244140625,-0.0511211154282093,-0.012462591210007666,-0.027904490491747855
1772807509935682300,2.363682373046875,-0.04886602997779846,-0.011015315011143684,0.005313011716306209
1772807509945614300,2.3736142578125,-0.03025485301017761,0.020609072786569593,-0.006615326486527919
1772807509955546400,2.38354638671875,-0.037419924617244395,-0.09895078809559345,-0.006529694029688835
1772807509965478400,2.393478515625,0.0766623839199543,-0.07934884652495383,-0.010016513232141732
1772807509975411500,2.403411376953125,-0.042342765688896174,-0.01926817957162857,-0.015592852059751748
1772807509985343200,2.41334326171875,-0.05529927789568901,-0.010434884774684905,-0.007254355042427778
1772807509995275300,2.423275146484375,-0.023014964884519575,0.007881108638644219,-0.02142564986646175
1772807510005207300,2.433207275390625,0.017663081320904894,-0.01404138483405113,-0.005419833091646432
1772807510015139300,2.443139404296875,0.09082651835083962,-0.03054243777990341,-0.01692804618626833
1772807510025071400,2.4530712890625,0.013082770076609448,-0.015913023924827574,-0.038631197819858784
1772807510035004400,2.46300439453125,-0.037303017956018446,-0.01959668087363243,-0.038423984809964895
1772807510044936400,2.4729365234375,-0.06032850423455238,-0.02332709957361221,-0.0721527975410223
1772807510054867700,2.48286767578125,-0.0737643243908882,-0.01453121417760849,-0.07653802688792348
1772807510064799700,2.4927998046875,-0.058929158830642696,-0.03234744137525558,-0.07233399932682513
1772807510074731500,2.5027314453125,-0.06433949344158173,-0.05025310042202472,-0.029462825849652288
1772807510084663600,2.51266357421875,-0.039786066943407056,-0.04492459887564182,-0.0296877206467092
1772807510094595600,2.522595703125,-0.00020925883650779723,-0.009784896433353424,-0.049196723236888645
1772807510104528600,2.532528564453125,-0.0075146134138107295,-0.017031214299798012,-0.02844911876246333
1772807510114460700,2.542460693359375,0.004225508740544319,-0.034433599999547,-0.023188567885756493
1772807510124392700,2.552392822265625,-0.000789104551076889,-0.027510522738099098,-0.02500833065882325
1772807510134324700,2.56232470703125,-0.007166238367557525,-0.03167348763644695,-0.014502718735486269
1772807510144256500,2.572256591796875,0.0017734391278980183,-0.043189153385162354,-0.002274959194660187
1772807510154188500,2.5821884765625,0.014526538002490997,-0.04860124156177044,-0.017456015583127735
1772807510164121600,2.59212158203125,0.010295768564939498,-0.06945815162956714,-0.022934154733270404
1772807510174053600,2.6020537109375,0.0015945757150650024,-0.05873334399759769,-0.005399813216924667
1772807510183985700,2.611985595703125,-0.01129471647441387,-0.02852817534804344,0.032380320731550456
1772807510193917700,2.621917724609375,-0.015192308434844017,-0.04749474162459373,0.04149667025357485
1772807510203849700,2.631849609375,0.004594342052936554,-0.05497837537825107,0.05570142895579338
1772807510213781500,2.641781494140625,-0.00442249204654654,-0.06666472151875495,0.06038417994454503
1772807510223713500,2.651713623046875,0.01757540417909622,-0.07413724935650826,0.06228095347657799
1772807510233646600,2.661646484375,0.030240239962935445,-0.09117197078764439,0.07025675466135144
1772807510243578600,2.67157861328125,0.015858664530731037,-0.0848357535034418,0.09219415344223379
1772807510253510700,2.6815107421875,0.027081483671069145,-0.08277765192985534,0.07812734190598129
1772807510263442700,2.691442626953125,0.016420974588609534,-0.06513619677722454,0.054098085412383076
1772807510273374700,2.701374755859375,0.000735329678870039,-0.06001052432656288,0.033898762470483776
1772807510283306500,2.711306396484375,-0.024386253237724302,-0.03723170628547668,0.024484745176136493
1772807510293238500,2.721238525390625,-0.033440497308969495,-0.042968788632750506,-0.007029606375843286
1772807510303171600,2.731171630859375,-0.03501227667033672,-0.05419102439284324,-0.019439006093889474
1772807510313103600,2.741103515625,-0.029627661022543904,-0.031469489496946335,-0.02816343368887901
1772807510323035600,2.75103564453125,-0.028912790751457213,-0.022669512447714806,-0.04240516340062022
1772807510332967700,2.7609677734375,-0.026839491608738896,-0.039489129823446274,-0.06804302413463592
1772807510342899700,2.770899658203125,-0.027789339679479597,-0.03507365146875381,-0.04230111850425601
1772807510352831500,2.78083154296875,-0.01390460671186447,-0.02493745737969875,-0.006067044954001903
1772807510362764500,2.7907646484375,0.014347090924001531,-0.014748071798682212,0.019634236405044792
1772807510372696600,2.800696533203125,-0.019743395867943762,-0.029586159968376158,0.005380816255509853
1772807510382628600,2.810628662109375,-0.07539163333177566,-0.03799216926395893,0.0010106383472681046
1772807510392560600,2.820560546875,-0.06810322988927364,-0.0221773450165987,-0.0008808744877576828
1772807510402492700,2.83049267578125,-0.03244622557461262,-0.0066810851991176605,-0.005841419504582881
1772807510412424700,2.8404248046875,-0.020828268495202064,-0.019470424145460127,-0.022161855186522007
1772807510422357800,2.850357666015625,-0.04098141420781612,-0.044802433800697324,-0.051004357180744406
1772807510432289500,2.86028955078125,-0.04792845686674118,-0.0424462260633707,-0.06879238119721412
1772807510442221600,2.8702216796875,-0.018553309300541877,-0.02140928325355053,-0.06060074530467391
1772807510452153600,2.880153564453125,0.0020136779099702833,-0.025317396607995032,-0.04016147612705827
1772807510462085600,2.890085693359375,-0.05758417396247387,-0.038376200145483014,-0.04881254622489214
1772807510472017700,2.900017578125,-0.055397477573156356,-0.03370236311554908,-0.05268310404792428
1772807510481949700,2.90994970703125,-0.04145429241657257,-0.012652560824155806,-0.03842179285287857
1772807510491882800,2.9198828125,-0.038982349345088,-0.002408230185508728,-0.04513736484348774
1772807510501814500,2.929814453125,-0.0533300236493349,-0.014632920986413955,-0.03723930507004261
1772807510511746600,2.93974658203125,-0.06386252357959747,-0.020741174733638762,-0.02851020129993558
1772807510521678600,2.9496787109375,-0.041896775487065316,0.01065992570221424,-0.05325652002170682
1772807510531610600,2.959610595703125,-0.031503394049836785,0.005872106903791427,-0.07943550189509987
1772807510541542700,2.969542724609375,-0.04117605999708175,-0.008348726150393485,-0.08659034208580851
1772807510551475700,2.979475830078125,-0.044269345270725895,-0.013144143733382223,-0.08475903500542044
1772807510561407700,2.98940771484375,-0.026795063378545453,-0.0197200149923563,-0.08344663723260164
1772807510571339500,2.999339599609375,-0.011971012867358513,-0.0195762226074934,-0.06502192274779081
1772807510581271600,3.009271484375,-0.01502162347647827,-0.028222470399737357,-0.06605901071056723
1772807510591203600,3.01920361328125,-0.07273322777748108,-0.030520810469985008,-0.07631926957070827
1772807510601135600,3.029135498046875,-0.10441022254526615,-0.047451487004756925,-0.09642463061884045
1772807510611068700,3.039068603515625,-0.11649930426776409,-0.019908815562725064,-0.1284612524792552
1772807510621000700,3.049000732421875,-0.09818915607333183,-0.010559387937188148,-0.11719503144696354
1772807510630932700,3.0589326171875,-0.06740238814353942,-0.043058805003762246,-0.1125488130763173
1772807510640864500,3.068864501953125,-0.06472820506480056,-0.048427054038643835,-0.09102101800963282
1772807510650796500,3.078796630859375,-0.027322891211509704,-0.030450667843222617,-0.07069339251294732
1772807510660728600,3.088728515625,-0.014208558094501495,-0.034325463449954983,-0.060381403465569014
1772807510670660600,3.09866064453125,-0.037373749671247784,-0.02492401337623596,-0.049465603306144475
1772807510680593700,3.10859375,-0.06623392888605595,-0.011986790391802787,-0.0352038537196815
1772807510690525700,3.118525634765625,-0.06274433320462704,-0.02278817039132118,-0.026566519886255264
1772807510700457700,3.128457763671875,-0.04136602961122989,-0.021701544198393822,-0.026749475237727163
1772807510710389500,3.138389404296875,-0.022094922863575627,-0.027688801914453505,-0.03381371453553438
1772807510720321500,3.148321533203125,-0.045620764446258545,-0.04745908578932285,-0.021502076103538274
1772807510730253800,3.15825390625,-0.03628478539076168,-0.052450902727246285,-0.009942717343568802
1772807510740186600,3.1681865234375,-0.011118779952195472,-0.017142273458838463,0.009366086499392986
1772807510750118700,3.17811865234375,-0.00985270553913433,-0.011722586497664451,0.007128098314255475
1772807510760050700,3.18805078125,-0.0576759393325774,-0.02216740814447403,0.015819646552950144
1772807510769982500,3.197982421875,-0.07483516392621677,-0.01433598386645317,-0.010426555337756872
1772807510779914500,3.20791455078125,-0.06237841793510597,-0.010706687453389168,0.004229600393772125
1772807510789846800,3.2178466796875,-0.06552958000898361,-0.0064461073994636535,0.04269640143215656
1772807510799778800,3.22777880859375,-0.09567454290390014,-0.04255202452540397,0.03449877419024706
1772807510809711600,3.237711669921875,-0.11068506503105163,-0.06463993769288062,0.02336421671360731
1772807510819643600,3.2476435546875,-0.06732405764374416,-0.022393618115782738,-0.0031244156308472154
1772807510829575700,3.25757568359375,-0.03796528125703334,-0.004639350238442421,0.00685863372310996
1772807510839507500,3.267507568359375,-0.03558744164321106,-0.04207330109775066,-0.010793196693062782
1772807510849439700,3.277439697265625,-0.03566810566398781,-0.05662029736638069,-0.014949877981096505
1772807510859371800,3.287371826171875,-0.047207156854867934,-0.0388736282736063,-0.024684359401464462
1772807510869304600,3.2973046875,0.0013999299257993697,-0.021405776122212408,-0.0053406303755939005
1772807510879236600,3.307236572265625,0.0051531449794769285,-0.03893558759391308,0.020809271533787248
1772807510889168600,3.317168701171875,-0.01824759978565853,-0.07327566409111022,0.014834288777410984
1772807510899100700,3.3271005859375,-0.027521628654003143,-0.06844108354151249,0.015273995368927717
1772807510909032700,3.33703271484375,-0.02889057891964912,-0.081877488219738,0.022802637308090925
1772807510918964700,3.34696484375,-0.038621114817261694,-0.06480185025632382,0.006442892529070377
1772807510928897500,3.3568974609375,-0.05051320809635799,-0.0716951169013977,0.003353402081131935
1772807510938829600,3.36682958984375,-0.03020108612948097,-0.07394669522047043,0.009829758488386868
1772807510948761600,3.37676171875,-0.032965271879499776,-0.07082943998277187,-0.002930646624416113
1772807510958693600,3.386693603515625,-0.01955459073099773,-0.07006196274161339,0.0003096504710614681
1772807510968625700,3.396625732421875,-0.005334931287169456,-0.07687456536591053,0.01488996448740363
1772807510978557700,3.4065576171875,0.015530737475818021,-0.055251931622624394,0.015259528452157974
1772807510988489700,3.41648974609375,0.0220651259469334,-0.049095747080445284,0.026926293109357357
1772807510998422500,3.426422607421875,0.025078911677002904,-0.047557869988679884,0.029684359645843504
1772807511008354600,3.4363544921875,0.005300435362523421,-0.04822422494292259,0.028399726662784813
1772807511018286600,3.44628662109375,0.0204781398832798,-0.045585693132877345,0.03168269385620952
1772807511028218600,3.456218505859375,0.0445996138381306,-0.03548457035720348,0.02812251715660095
1772807511038151000,3.46615087890625,0.022186112844943998,-0.019565116691589356,-0.011778846729546785
1772807511048083500,3.47608349609375,0.011978607085347174,-0.029430677145719526,-0.022934008602797984
1772807511058016500,3.4860166015625,0.005229726480180398,-0.010630699607729912,-0.0405748792335391
1772807511067948500,3.495948486328125,-0.009369301369786262,-0.000025718963146209716,-0.03947071738392115
1772807511077880600,3.505880615234375,-0.005125097061926499,0.0010334347009658812,-0.022593962993472813
1772807511087812400,3.515812255859375,0.0011368859422858804,-0.006995557975769042,-0.01019815340936184
1772807511097744400,3.525744384765625,0.012598775677150115,-0.02135258463025093,-0.006745528737455606
1772807511107676400,3.535676513671875,0.012350363007187842,-0.02869768669605255,-0.0026132512383162973
1772807511117609500,3.545609375,0.024593767641717567,-0.029503742381930348,0.017711451648920774
1772807511127541500,3.55554150390625,0.0016828385204076767,-0.043509471380710596,0.027385142792761323
1772807511137473500,3.5654736328125,-0.01986146928966045,-0.06218669932186603,0.018191928642243147
1772807511147405600,3.575405517578125,-0.02545182750946842,-0.03764320969581604,0.0032782910183072086
1772807511157337300,3.58533740234375,-0.0023006781578063964,-0.0338104996651411,-0.013777765461802483
1772807511167269400,3.595269287109375,0.000827098473906517,-0.027709844702482223,-0.029584406402707097
1772807511177201400,3.605201416015625,-0.007023615026473999,-0.024216157367825508,-0.040205899790674446
1772807511187134500,3.615134521484375,0.031789222970604894,-0.025050270104408263,-0.06317439518496394
1772807511197066500,3.62506640625,0.04603519046604633,-0.030541268736124037,-0.0277684430219233
1772807511206998500,3.63499853515625,0.036167876446247096,-0.021703882285952568,-0.05346124881356954
1772807511216930600,3.6449306640625,-0.00744329261011444,0.00431610963344574,-0.03731529291570186
1772807511226862300,3.6548623046875,-0.024128488217527045,-0.00559270544052124,-0.02154328489676118
1772807511236794400,3.66479443359375,-0.035960362042253835,-0.019698387682437896,-0.011846651268750428
1772807511246727400,3.6747275390625,-0.04974455724484287,-0.04250643181800842,-0.006510843198746443
1772807511256659500,3.684659423828125,-0.000047337139910086986,-0.05708674583435058,-0.006691460462659597
1772807511266591500,3.694591552734375,-0.021686346629261968,-0.033820436537265776,-0.026856881134957072
1772807511276523500,3.7045234375,-0.0024912231606896967,-0.03124912474453449,-0.059863663201779126
1772807511286455600,3.71445556640625,-0.012565476195747032,-0.026802082207798957,-0.05474237466529011
1772807511296387300,3.72438720703125,-0.005404498525196686,-0.02425648937821388,-0.029139146853238342
1772807511306320400,3.7343203125,0.048213119027018546,-0.025554712495207785,-0.019567308648675678
1772807511316252400,3.74425244140625,0.0788461668329779,-0.005165419939160347,-0.0015656418815255164
1772807511326184400,3.754184326171875,0.11124035169309936,0.010704933887720107,0.008153349708765745
1772807511336116500,3.764116455078125,0.09615501989722251,0.02991758387982845,0.023186229798197743
1772807511346048500,3.774048583984375,0.04583293675906024,0.027505262041091917,0.03775996794328093
1772807511355980500,3.78398046875,0.006101824006438255,0.004233692046999931,0.03986103187575936
1772807511365913600,3.79391357421875,0.013989362385869026,-0.019036124381422995,0.0654553457289934
1772807511375845400,3.803845458984375,0.016249708533287048,-0.016475918504595757,0.06211524152085185
1772807511385777400,3.81377734375,0.024247146161133423,-0.004120294800400734,0.06106485568508505
1772807511395709400,3.82370947265625,0.04597148671322502,0.003016132950782776,0.05280146973058581
1772807511405641500,3.833641357421875,0.060820087143778796,0.01382277364730835,0.045036680947989224
1772807511415573500,3.843573486328125,0.11364274579286575,0.01612929702401161,0.03273717134520411
1772807511425506600,3.853506591796875,0.10918927351534366,0.023882979890704155,0.0623087182663381
1772807511435438600,3.8634384765625,0.09817866207878105,0.014576222363114356,0.11421513885334134
1772807511445370400,3.873370361328125,0.0767144063681364,0.004532382732629776,0.12360256040170788
1772807511455302400,3.883302490234375,0.07514670039368793,-0.02041091986596584,0.09967851784825324
1772807511465234400,3.893234375,0.09283199468804523,-0.0454003996938467,0.09419365669637918
1772807511475166500,3.90316650390625,0.10468260974586009,-0.056958151018619535,0.09646627780348062
1772807511485099500,3.913099609375,0.09027178881121799,-0.03930617447197437,0.04414572345763445
1772807511495031600,3.923031494140625,0.09535069951070473,-0.04827566286921501,0.04803951602578163
1772807511504963600,3.932963623046875,0.10260344711793586,-0.09192658854722977,0.08427563540264964
1772807511514895400,3.942895263671875,0.10231995400143787,-0.10972528008818626,0.05127309111952781
1772807511524827400,3.952827392578125,0.11484919897317886,-0.04829670565724373,0.08330708263143896
1772807511534759400,3.962759521484375,0.04673603221178055,-0.08004267400801181,0.10790157179236412
1772807511544691500,3.97269140625,0.08278466619253158,-0.07603694549798964,0.08803776441514491
1772807511554624500,3.98262451171875,0.09981061979532241,-0.08926350681781768,0.0942113384835422
1772807511564556500,3.992556640625,0.12952305475817993,-0.09392565340995788,0.09051832918450235
1772807511574488600,4.002488525390625,0.10873510000705719,-0.07576105116605758,0.08099617534056305
1772807511584420400,4.01242041015625,0.05602876121401786,-0.062464347219467156,0.07898118225634097
1772807511594352400,4.022352294921875,0.0248854531978257,-0.05742693757414818,0.06867284647077322
1772807511604284400,4.032284423828125,0.004170600215531886,-0.07444295430481433,0.056745092789828776
1772807511614217500,4.042217529296875,0.03948622548030689,-0.06627133828699588,0.062235945291072126
1772807511624149500,4.0521494140625,0.08850013949619606,-0.07518646614849567,0.059937312959879634
1772807511634081500,4.06208154296875,0.11472414782140403,-0.054825230643153186,0.0030818916633725164
1772807511644013600,4.072013671875,0.14222646898673846,-0.05740589478611946,0.0037556992717087266
1772807511653945300,4.0819453125,0.1328800005032681,-0.036139819395542144,0.012555384059995412
1772807511663877400,4.09187744140625,0.10093936809692532,-0.005711947906017303,0.04801058219224214
1772807511673810400,4.101810546875,0.06365620561884716,-0.0187701669216156,0.06220365045666694
1772807511683742500,4.111742431640625,0.0783417335753329,-0.028198505002260208,0.07247223875373601
1772807511693674500,4.121674560546875,0.038238837501406664,-0.07272270638346671,0.02550985044017434
1772807511703606500,4.1316064453125,0.03942424789369106,-0.08016367003917693,0.041013709042221305
1772807511713538600,4.14153857421875,-0.04339837568905204,-0.08010287976264953,0.0337713366985321
1772807511723470300,4.15147021484375,-0.11303601207137107,-0.10837152739167213,-0.10273659024462103
1772807511733403400,4.1614033203125,0.03737374510467052,-0.07344342187345028,-0.122038525955379
1772807511743335400,4.17133544921875,-0.0025812851974740623,0.006476502537727356,-0.15223741099461913
1772807511753267500,4.181267333984375,0.058870743174292146,-0.00002221183180809021,-0.1661298888772726
1772807511763199500,4.191199462890625,0.18868304493632165,0.005506780722737312,-0.09403978130891918
1772807511773131500,4.201131591796875,0.05711776202712208,-0.02789280005395412,0.044255467442423105
1772807511783063300,4.211063232421875,0.09267707812096923,-0.13543781349360942,0.04403232621103525
1772807511792996600,4.22099658203125,0.07238134559988975,-0.14674831205904482,0.11274711212739348
1772807511802928400,4.230928466796875,0.0450736519575119,-0.09781681562960147,0.15091960639432073
1772807511812860400,4.2408603515625,0.025766345951892432,-0.049799511435627934,0.11354834550768136
1772807511822792400,4.25079248046875,0.0230009363591671,-0.013401333364844321,0.026542992880195376
1772807511832724500,4.260724365234375,0.05177464743349701,0.005278817185759544,0.007773702741414308
1772807511842656500,4.270656494140625,0.11550737062096596,0.04508534239530563,0.032133360233157875
1772807511852589600,4.280589599609375,0.1522872414857149,0.03201309485435486,0.06682736473456025
1772807511862521300,4.290521240234375,0.16988251940906046,-0.012283727511763572,0.11026143279150127
1772807511872453400,4.300453369140625,0.14883275365028528,-0.06551964313685893,0.10364157626032829
1772807511882385400,4.310385498046875,0.10284721101224421,-0.07169453237950801,0.12093962480276822
1772807511892317400,4.3203173828125,0.038761400070786475,-0.1059106902360916,0.1817730098195374
1772807511902249500,4.33024951171875,0.04594985027015209,-0.15904022287726402,0.20229601175785064
1772807511912182500,4.3401826171875,0.07405779091212898,-0.1950304046690464,0.12695493956953285
1772807511922114600,4.350114501953125,0.023757344217039643,-0.15682839204668997,-0.01128054181858897
1772807511932047600,4.360047607421875,-0.02681081350352615,-0.1118412493288517,-0.08120309608951211
1772807511941980700,4.369980712890625,-0.07264317487385123,-0.03777472712099552,-0.11648469122052192
1772807511951912700,4.37991259765625,-0.06079433164801448,0.010242577072978019,-0.15766235865280032
1772807511961844500,4.389844482421875,-0.02428396190702915,0.024098083946108816,-0.1937728058233857
1772807511971776500,4.399776611328125,0.010313377286866307,-0.009307342049479484,-0.19946268802806733
1772807511981708500,4.40970849609375,-0.016455460238456725,-0.09147942930161952,-0.19132672784551977
1772807511991640600,4.419640625,-0.07540040116012096,-0.11788695923388004,-0.19645868390649557
1772807512001573600,4.42957373046875,-0.15204879308734087,-0.11674538798332214,-0.14397928573712707
1772807512011505700,4.439505615234375,-0.23261691574156282,-0.11324702447354792,-0.09908946591392159
1772807512021437700,4.449437744140625,-0.26873799390401687,-0.11036942321062088,-0.12179872585013508
1772807512031369500,4.459369384765625,-0.27170619605984536,-0.07176116787493228,-0.14129355378448963
1772807512041301500,4.469301513671875,-0.24547752982582896,-0.009274608823657035,-0.1558402577921748
1772807512051233300,4.4792333984375,-0.210384077678062,0.030341362249851227,-0.16726123099476098
1772807512061166300,4.489166259765625,-0.14684008199572562,0.051418637070059774,-0.12305968569666147
1772807512071098400,4.499098388671875,-0.09697630968485027,0.045454760229587554,-0.062295420393347734
1772807512081030400,4.509030517578125,-0.06490121897757054,0.021295886006951332,-0.029742957965284585
1772807512090962400,4.51896240234375,-0.018240005567669866,-0.03698971422314644,-0.04097133120521903
1772807512100894200,4.528894287109375,-0.04957622407376766,-0.08662906666100025,-0.022389672593027352
1772807512110826200,4.538826171875,-0.17319211888108402,-0.09485796582400799,0.013768997633457182
1772807512120759300,4.54875927734375,-0.2101181202182546,-0.020526655200123787,0.011320727698504925
1772807512130691300,4.55869140625,-0.23655487624499946,0.05861936222910881,0.00872632729113102
1772807512140623400,4.568623291015625,-0.2638204477787018,0.13776654870212077,0.03059051470533013
1772807512150555400,4.578555419921875,-0.2110679317563772,0.16716040096879003,0.0015755787536501883
1772807512160487400,4.5884873046875,-0.10576806689500808,0.2150157925993204,-0.02593070620074868
1772807512170419200,4.598419189453125,-0.08563888657987118,0.20041385127305983,-0.03297171075344085
1772807512180352300,4.608352294921875,0.032786417314410204,0.07647592143714428,-0.057914282699674365
1772807512190284300,4.6182841796875,0.09285539382994175,-0.11480477530956268,-0.03848448282554746
1772807512200216300,4.62821630859375,0.018732757520675658,-0.2280745961368084,-0.022491233271360395
1772807512210148400,4.6381484375,-0.07777414455413818,-0.2745756505489349,-0.029332039076834914
1772807512220080400,4.648080322265625,-0.13965930364616214,-0.25792729808688164,-0.02558276954591274
1772807512230012400,4.658012451171875,-0.11702603155560791,-0.16795301265120505,-0.0404931922994554
1772807512239945500,4.667945556640625,-0.14223404950499532,-0.054115036547183984,-0.07461787248030305
1772807512249877200,4.677877197265625,-0.16952303844690322,0.029552257698774335,-0.10229133069515228
1772807512259809300,4.687809326171875,-0.07670739210546017,0.0401981548756361,-0.11787556105703115
1772807512269741300,4.6977412109375,0.013920973324775696,0.038517069920897484,-0.1306345048651099
1772807512279673300,4.70767333984375,0.08206570426821708,0.018783026403188706,-0.15509133912101386
1772807512289605400,4.71760546875,0.10933949564099311,-0.027749592190980908,-0.13304565766006707
1772807512299538400,4.727538330078125,0.034255320823192596,-0.10757014788091182,-0.12662132370099424
1772807512309470500,4.737470458984375,-0.05153780647031963,-0.21320260569751262,-0.1102932892344892
1772807512319402200,4.74740234375,-0.1306020639002323,-0.2758873176693916,-0.09690613052546977
1772807512329334300,4.757334228515625,-0.15971191159375012,-0.22148528087437153,-0.06946925754547119
1772807512339266300,4.767266357421875,-0.13731354423761366,-0.12935820131897927,-0.02567687757015228
1772807512349198300,4.7771982421875,-0.09196640910096467,-0.05555763657093048,-0.01981573045179248
1772807512359131400,4.78713134765625,-0.05447751318402588,-0.04702478602528572,-0.08047770442441106
1772807512369063400,4.7970634765625,-0.01904262718744576,-0.014528291568160056,-0.09474690666496753
1772807512378995500,4.806995361328125,-0.03872048353850841,0.024146014741063117,-0.13903539959415792
1772807512388927200,4.81692724609375,-0.03678169749565422,0.01815057371854782,-0.1552832084313035
1772807512398859300,4.826859375,-0.11490246353037654,-0.01374737032353878,-0.08410130174905062
1772807512408791300,4.836791259765625,-0.13317980543375013,-0.06828560071885585,-0.04811638065427541
1772807512418724400,4.846724365234375,-0.16270400608181954,-0.08587444890141487,-0.004769406358897685
1772807512428656400,4.856656494140625,-0.1458622499395162,-0.07940963680148125,0.04991071672514081
1772807512438588400,4.86658837890625,-0.11744279566295444,-0.05159399363696575,0.10177607464939355
1772807512448520400,4.8765205078125,-0.08605981540568172,-0.015908347749710082,0.09878405322656035
1772807512458452200,4.8864521484375,-0.036499373422935605,0.041029345002770425,0.07401157715022563
1772807512468384300,4.89638427734375,-0.03913198694884777,0.07336275785267353,0.03673617785349488
1772807512478317300,4.9063173828125,-0.06911452582366764,0.06287701967358589,-0.07086611873134971
1772807512488249300,4.916249267578125,-0.08593523917794227,0.06152326697707176,-0.10798603520542382
1772807512498181400,4.926181396484375,-0.10765483048968016,0.03699029874503612,-0.0704994773760438
1772807512508113400,4.936113525390625,-0.11874028812758623,-0.03784662331342697,-0.07152662846669554
1772807512518045400,4.94604541015625,-0.1502781666856259,-0.05751520037949085,-0.04608721291422844
1772807512527977200,4.955977294921875,-0.16575692737903444,-0.07455401346385479,-0.01207490706667304
1772807512537910300,4.96591015625,-0.16770923049058764,-0.06696224316060542,-0.014552841487526893
1772807512547842300,4.97584228515625,-0.1389244865655899,-0.03649930035769939,-0.030535569647699594
1772807512557774300,4.9857744140625,-0.11029869606196879,-0.017314122894406318,-0.05092033215910196
1772807512567706400,4.995706298828125,-0.07199731471836567,-0.01926759504973888,-0.07906666858270764
1772807512577638400,5.005638427734375,-0.04700078409519046,-0.020226795470714567,-0.07447539526969194
1772807512587570400,5.0155703125,-0.05010178231783211,-0.0419628264605999,-0.11553922706395386
1772807512597503500,5.02550341796875,-0.04587444694638252,-0.05215688821673393,-0.1151782847970724
1772807512607435300,5.035435302734375,-0.0701275022584945,-0.02887245874106884,-0.09656710782945155
1772807512617367300,5.0453671875,-0.08982990852892399,-0.016070844835042952,-0.09159925628900527
1772807512627299300,5.05529931640625,-0.06840433172769844,-0.05910802252888679,-0.08325783666223287
1772807512637231400,5.0652314453125,-0.03724222767949104,-0.06118073714971542,-0.061695262543112035
1772807512647164400,5.075164306640625,-0.057891559411212795,-0.06194587630331516,-0.027048019792884587
1772807512657096400,5.085096435546875,-0.02941248390190303,-0.06074234573245048,-0.01689195195958018
1772807512667028500,5.095028564453125,-0.04148231293465942,-0.06419160940349102,-0.016584055054187773
1772807512676960300,5.104960205078125,-0.037926191355660555,-0.04366261611580848,-0.011340455312281846
1772807512686892300,5.114892333984375,-0.0030822569895535704,-0.02563946816921234,-0.017979747196286915
1772807512696824300,5.12482421875,0.013848419545218347,-0.03960486515760422,-0.026217706448584795
1772807512706757400,5.13475732421875,0.01990465084426105,-0.029470424634218215,-0.06949439198672772
1772807512716689400,5.144689453125,0.0002812280941754579,-0.04606207847297191,-0.08385214929357171
1772807512726621400,5.154621337890625,-0.01109360441174358,-0.035417350339889526,-0.067986910033226
1772807512736553500,5.164553466796875,-0.03038162119500339,-0.03214928845465183,-0.04330635002404451
1772807512746485200,5.1744853515625,-0.03937628056611866,-0.03253156577050686,-0.029990064594149587
1772807512756417300,5.184417236328125,-0.03325812647938728,-0.02410626725256443,-0.013731588232517241
1772807512766350300,5.194350341796875,-0.04019873939752579,-0.04546352805793285,-0.022486410965770483
1772807512776282400,5.204282470703125,-0.029663280325196682,-0.03953296896517276,-0.02969707299694419
1772807512786214400,5.21421435546875,-0.041187823500111694,-0.03371346903145313,-0.051016486009955404
1772807512796146400,5.224146484375,-0.07290091249458491,-0.03072363956570625,-0.06532879673987627
1772807512806078500,5.234078369140625,-0.02623334240913391,-0.020054946035146713,-0.0942721287600696
1772807512816010200,5.24401025390625,-0.02223579720556736,-0.018758476483821868,-0.08685206176191568
1772807512825943300,5.253943359375,-0.0012414879610761998,-0.013361585876345634,-0.0729312345676124
1772807512835875300,5.263875244140625,0.022886370068788527,-0.01792962444424629,-0.08032076029703021
1772807512845807400,5.273807373046875,0.013034838140010833,-0.002639700853824615,-0.04587590825110674
1772807512855739400,5.283739501953125,-0.008017265706323086,-0.02435761166512966,-0.04853387541398406
1772807512865671400,5.29367138671875,-0.025267712247371673,0.006536123770475387,-0.025824615477770565
1772807512875603500,5.303603515625,-0.023163506509736177,0.009069441640377044,-0.012371551925688982
1772807512885536500,5.31353662109375,-0.035689810605719685,-0.023508301359415052,-0.034331016407907006
1772807512895468300,5.32346826171875,-0.02178626333978027,-0.017342179945111273,-0.05562266463115811
1772807512905400300,5.333400390625,-0.0219687437672168,-0.011519172880053519,-0.06200096749141812
1772807512915332400,5.343332275390625,-0.017500073920562863,-0.013818681994080543,-0.08071487418115139
1772807512925264400,5.353264404296875,-0.0009124386698007583,-0.019952070182561874,-0.07268368954733014
1772807512935196400,5.363196533203125,0.016195421062782406,0.0063005614489316936,-0.08371741699799895
1772807512945129500,5.37312939453125,0.012432123006507754,0.0018856676161289215,-0.05680471402257681
1772807512955061500,5.3830615234375,0.019864318833872675,-0.03850362591743469,-0.016639876894652843
1772807512964993300,5.3929931640625,0.027591771280765533,-0.062303019177913664,0.02107274477556348
1772807512974925300,5.40292529296875,0.012985153779387474,-0.06261515386700629,0.021066607295721768
1772807512984857300,5.412857421875,-0.00017594108879566192,-0.0671598115593195,0.010182663579285144
1772807512994789400,5.422789306640625,0.013254618370532989,-0.09795768540501594,-0.038961160426586865
1772807513004722400,5.432722412109375,0.03642572366483509,-0.10449965439438819,-0.06478446073010563
1772807513014654500,5.442654541015625,0.03002754706032574,-0.07130640984475613,-0.06238733646050095
1772807513024586500,5.45258642578125,0.013691329287365078,-0.04387070590853691,-0.056326136725395916
1772807513034518300,5.462518310546875,0.009509002101421356,-0.020126257705688474,-0.042554801004379986
1772807513044450300,5.4724501953125,-0.017366693331860004,0.0013134206861257552,-0.03110883949100971
1772807513054383000,5.482383056640625,-0.0018248408069834112,-0.0024000468790531158,-0.004176555032283067
1772807513064315100,5.492315185546875,0.015860453487373888,0.010340776750445365,0.017325374940782786
1772807513074247200,5.5022470703125,-0.014781316481158137,-0.013351064482331275,0.020341800152510404
1772807513084179200,5.51217919921875,0.009370543478801846,-0.014870821395516395,-0.016275135235488413
1772807513094111200,5.522111328125,0.06402735875248909,-0.02402209610044956,-0.00908770794942975
1772807513104043300,5.532043212890625,0.08543138130903244,-0.04706862516701221,-0.039628976685553784
1772807513113976300,5.541976318359375,0.08281272324323653,-0.07112813066840172,-0.06388868093416095
1772807513123908000,5.551908203125,0.028311829183623193,-0.0710673403918743,-0.051335196570307016
1772807513133840100,5.561840087890625,-0.02546758220102638,-0.05361760841906071,-0.016486586029082536
1772807513143772200,5.571772216796875,-0.03770220987405628,-0.05242985993921757,-0.020187486373633146
1772807513153704200,5.5817041015625,-0.033391360937617715,-0.03831891700029373,-0.011797259169071912
1772807513163636200,5.59163623046875,-0.0660263870825991,-0.03687865506410599,0.004509294117987155
1772807513173569300,5.6015693359375,-0.09359649452082812,-0.03210544931292534,-0.029934827275574206
1772807513183501300,5.611501220703125,-0.08589366505853831,0.006703881552815437,-0.0412668070204556
1772807513193433000,5.62143310546875,-0.0173018479347229,0.005347206246852874,-0.03119388742595911
1772807513203365000,5.631365234375,-0.013346388307213783,-0.005959785187244415,-0.03468216793313622
1772807513213297200,5.641297119140625,-0.0320505042552948,-0.018891162952780722,-0.012658844434469938
1772807513223229200,5.651229248046875,-0.011104162338376045,-0.02145487596094608,-0.03552344106286764
1772807513233162200,5.661162353515625,0.008151669208332896,-0.009991232660412788,-0.031411914090812204
1772807513243094300,5.67109423828125,0.0477267237495631,0.007725625815987586,-0.0302270882204175
1772807513253026300,5.6810263671875,0.03374671371392905,-0.020644728621840476,-0.02393573299124837
1772807513262958000,5.6909580078125,0.02135258463025093,-0.08405892391204833,-0.04591404830440879
1772807513272890000,5.70089013671875,-0.01875613839626312,-0.0723749158591032,-0.01945639562010765
1772807513282822100,5.710822265625,-0.005476933573745191,-0.030128011760115623,-0.019615970095992086
1772807513292755200,5.720755126953125,-0.05302424563579261,-0.05905015486180782,-0.03248217367082834
1772807513302687200,5.730687255859375,-0.08556706345267594,-0.07105857256352902,-0.06287891936972737
1772807513312619300,5.740619384765625,-0.08126545726861804,-0.04207330109775066,-0.05715513489544391
1772807513322551300,5.75055126953125,-0.020858663633465765,-0.009810615396499633,-0.015271803411841391
1772807513332483000,5.760483154296875,0.0030769962925463914,-0.002955342674255371,-0.012310761649161577
1772807513342416100,5.770416015625,0.012740750564262271,-0.022184943801164626,-0.025466157428920267
1772807513352348200,5.78034814453125,0.0023783465038985014,-0.0249614227771759,-0.011549129626899957
1772807513362280200,5.7902802734375,0.02605674373321235,0.0014864391654729843,-0.016376695913821456
1772807513372212200,5.800212158203125,0.04257774348855018,-0.009941548299789427,0.00484700163975358
1772807513382144300,5.810144287109375,0.04722060085833072,-0.03977028485238552,0.007149579493701458
1772807513392076300,5.820076171875,0.04318568278644234,-0.06449848339557647,0.01164352991208434
1772807513402009300,5.83000927734375,0.04081891712248325,-0.04374678726792335,-0.007339987499266862
1772807513411941000,5.839941162109375,-0.0011164368093013763,-0.04515139336884021,-0.03976458576396107
1772807513421873200,5.849873046875,-0.03813537712693214,-0.07215747371613979,-0.046490094626694914
1772807513431805200,5.85980517578125,-0.04547003086395562,-0.07057400391697884,-0.03688260058686137
1772807513441737200,5.8697373046875,-0.04198744944520295,-0.058690089377760886,-0.038025487011671064
1772807513451669200,5.879669189453125,-0.033980011013150214,-0.018501871374249457,-0.033465047228336334
1772807513461602300,5.889602294921875,-0.05476210227906703,-0.028005612778663633,0.0002687339387834072
1772807513471534300,5.899534423828125,-0.0256277046661824,-0.030430209577083586,-0.013793401422351598
1772807513481466000,5.909466064453125,0.010402736070752143,-0.015791443371772764,-0.0009869652107357978
1772807513491398100,5.919398193359375,0.026317513561248777,-0.018365677773952482,0.019142507365345954
1772807513501330200,5.929330078125,0.011754808266833424,-0.03930266734063625,0.012783055336028337
1772807513511263200,5.93926318359375,0.02050385884642601,-0.045157823109626766,0.029573300486803053
1772807513521195300,5.9491953125,0.04976970081925392,-0.030085341662168502,0.03709259007573128
1772807513531127300,5.959127197265625,0.01412730955183506,-0.03882102130353451,0.032166531850397584
1772807513541059300,5.969059326171875,-0.023571393190883097,-0.07940145349502563,0.0019856208592653273
1772807513550991000,5.9789912109375,-0.03300678206682205,-0.07704056958258151,-0.018206833950430153
1772807513560923100,5.988923095703125,-0.006866451703384518,-0.034379823985695834,-0.04560059844106436
1772807513570856200,5.998856201171875,-0.015471709898114203,-0.04075403519272804,-0.03287190364077687
1772807513580788200,6.008788330078125,-0.05339556316621601,-0.045233226433396334,-0.05318228574171662
1772807513590720300,6.01872021484375,-0.05915836447663605,-0.021366028633713723,-0.05808394017815589
1772807513600652300,6.02865234375,-0.018094459617137907,-0.008501870885491371,-0.031011808857321736
1772807513610584300,6.038584228515625,0.008287899341247976,0.006893851166963577,0.005924275482445955
1772807513620516000,6.04851611328125,-0.013333565358258782,-0.013008534654974936,0.01803410773202777
1772807513630449200,6.05844921875,-0.0412263288795948,-0.0319850378036499,0.0011180442444980144
1772807513640381200,6.068381103515625,-0.04742288196478039,-0.04522679669260978,0.00860562352091074
1772807513650313200,6.078313232421875,-0.011298260138370096,-0.046024084550142286,0.004943301621079445
1772807513660245200,6.088245361328125,0.0009720599025487899,-0.05907353573739528,0.02153729354739189
1772807513670177300,6.09817724609375,-0.0015735329270362853,-0.07288052729368209,0.03197363962680101
1772807513680110300,6.1081103515625,-0.013498363998532294,-0.06064765318632125,0.009955284564197062
1772807513690042400,6.11804248046875,-0.019698460747674108,-0.06878653597831726,0.004555763608217239
1772807513699974100,6.12797412109375,-0.008072283829189836,-0.030165421161055563,-0.013144728255271911
1772807513709906200,6.13790625,-0.009679097971320152,-0.026307576689124104,0.0015184417389333246
1772807513719838200,6.147838134765625,-0.012130582776665687,-0.03472176929116249,-0.0202580673918128
1772807513729770200,6.157770263671875,-0.02830835858490318,-0.01115618478655815,-0.04691241169199347
1772807513739703300,6.167703369140625,-0.04394431913401931,-0.047968788877129555,-0.02037263368219137
1772807513749635300,6.17763525390625,-0.041242695492506025,-0.031163784548640248,-0.01733122015967965
1772807513759567400,6.1875673828125,-0.018215492180921136,-0.029216742134094236,0.02458762102872133
1772807513769499100,6.1974990234375,0.016499883902072906,-0.03278057209551334,0.04090133470892906
1772807513779431200,6.20743115234375,0.04785360153224319,-0.05742284592092037,0.06714476012066006
1772807513789363200,6.21736328125,0.05731880102455616,-0.05043430220782757,0.06848653011843561
1772807513799296300,6.227296142578125,0.01777764875292778,-0.07601882531940937,0.07565291461646556
1772807513809228300,6.237228271484375,-0.009553425765037536,-0.09322656522989273,0.04028714833334088
1772807513819160300,6.247160400390625,-0.02299447008576244,-0.10654022031128406,0.00600011719763279
1772807513829092400,6.25709228515625,-0.025167759004235266,-0.08890461037755013,0.0057915890134871
1772807513839024000,6.267024169921875,-0.031131087855435904,-0.027916180929541585,-0.009706424369663
1772807513848957200,6.276957275390625,0.0027817031404003497,-0.003878887259960174,-0.022725626549124717
1772807513858889200,6.28688916015625,0.038770788953639564,-0.000533083963394165,-0.02825724945217371
1772807513868821200,6.2968212890625,0.029131949927471576,0.02089373494684696,-0.04096928537860513
1772807513878753300,6.306753173828125,0.006889174991846084,-0.003180383601784706,-0.04095569524466991
1772807513888685300,6.316685302734375,0.0153893288442865,-0.011276596295833587,-0.023513562056422233
1772807513898617300,6.326617431640625,0.006384148079156876,-0.035737668335437775,-0.016991028419882058
1772807513908550100,6.336550048828125,-0.028934418061375616,-0.05962123274803161,0.01485270121693611
1772807513918482200,6.346482177734375,-0.0446861504772678,-0.06069441493749618,0.0022828502401709555
1772807513928414200,6.356414306640625,-0.04178630084991455,-0.07274316464960574,-0.01704977286979556
1772807513938346200,6.36634619140625,-0.03536474336981773,-0.050475218740105625,-0.005186316596716642
1772807513948278300,6.3762783203125,-0.021282478536106646,-0.03968962083160877,0.024887334627658127
1772807513958211000,6.386211181640625,-0.018722820648550985,-0.07201251228749751,0.0518218110434711
1772807513968143000,6.39614306640625,-0.02106850699186325,-0.054772623673081396,0.045457390578091145
1772807513978075400,6.406075439453125,-0.015554164017178117,-0.026953473377227782,0.009082008861005306
1772807513988007200,6.416007080078125,-0.020783844831585883,-0.03852583774924278,-0.003156710465252399
1772807513997939200,6.425939208984375,-0.026894436666369436,-0.015188801303505896,-0.03641001463904977
1772807514007871200,6.435871337890625,-0.01830075931157917,-0.014053075271844863,-0.07478489961028098
1772807514017804000,6.445803955078125,-0.004659771971963346,-0.025181787529587746,-0.06902092925608158
1772807514027736000,6.455736083984375,0.02249415588080883,-0.02088555164039135,-0.04478212166503071
1772807514037668400,6.46566845703125,0.006278349617123604,-0.04174655336141586,-0.016866232996433972
1772807514047600000,6.47560009765625,-0.023374993835948408,-0.04104220448434353,-0.005181055899709463
1772807514057532200,6.4855322265625,-0.02239182801749557,-0.0416881011724472,-0.01192658463716507
1772807514067465000,6.49546484375,-0.00793196204304695,-0.05075169759392738,0.013856383655965327
1772807514077397000,6.50539697265625,-0.011066168415546416,-0.04169569995701313,0.016045564263314008
1772807514087329000,6.5153291015625,0.005127426016330719,-0.043775428840517994,0.010541560019552707
1772807514097261000,6.525260986328125,0.0681826518010348,-0.05535246938765049,0.0019240999303758142
1772807514107193000,6.535193115234375,0.005691526172496378,-0.05083762231171131,-0.027587241236120462
1772807514117125000,6.545125,-0.04846745911426842,-0.03260989170372486,-0.018089637311547994
1772807514127058000,6.555057861328125,-0.03799100022017955,-0.03906418240964413,-0.02610927763804793
1772807514136990000,6.564989990234375,-0.012391937126591802,-0.05111585473120212,-0.005154460153728723
1772807514146922000,6.574921875,-0.002148775531724095,-0.058848494809865946,-0.004290829061716794
1772807514156854300,6.584854248046875,0.01576864701807499,-0.04645779979228973,-0.03721241706311702
1772807514166786000,6.5947861328125,0.006612623072788119,-0.045642976278066634,-0.045199470294266936
1772807514176719000,6.604718994140625,-0.0010193696429952979,-0.01136836623251438,-0.042464053981006146
1772807514186651000,6.61465087890625,0.005132029126212001,-0.010017536145448685,-0.01287219492420554
1772807514196583000,6.6245830078125,-0.0005411942046135664,-0.01755143878161907,0.025104922901093958
1772807514206515200,6.63451513671875,-0.0004313771545886993,-0.0429518374979496,0.0503400480531156
1772807514216447200,6.644447265625,0.0002256254494190216,-0.0523456887871027,0.03478139052391052
1772807514226379300,6.654379150390625,-0.010450666865706443,-0.059628831532597536,0.015462649808824062
1772807514236312000,6.66431201171875,0.006788052704930305,-0.06992693818509578,0.00991509868428111
1772807514246243800,6.674243896484375,0.0034801702659577128,-0.08655483238101006,-0.0087424016430974
1772807514256175900,6.68417578125,-0.0007312003513798117,-0.056634325891733166,-0.014171879345923661
1772807514266108200,6.694108154296875,-0.02082424990721047,-0.05286766683459282,-0.019936288091540334
1772807514276040200,6.704040283203125,0.00015142770204693077,-0.065873863402009,-0.024116642516106367
1772807514285973000,6.713972900390625,-0.024534721797704696,-0.01965980923771858,-0.030790421191602944
1772807514295905000,6.723905029296875,-0.03221826203763485,-0.012191373053193092,-0.017314122894406318
1772807514305837000,6.733837158203125,-0.009288052827119827,-0.01585164912641048,-0.026157500693947074
1772807514315768800,6.743768798828125,0.005742927566170692,-0.00892448021173477,-0.006352437766641378
1772807514325701000,6.753701171875,-0.0043301381587982175,-0.026156185519695282,0.006289309402555227
1772807514335633200,6.763633056640625,-0.07318148300163448,-0.043295536369085307,-0.019256927525252102
1772807514345566000,6.77356591796875,-0.06363689813017845,-0.03117079881131649,-0.00006122866794466973
1772807514355498000,6.783498046875,-0.06475216589570044,-0.047559623554348944,-0.0042838147990405554
1772807514365430000,6.793429931640625,-0.07677753473222255,-0.06111760878562927,-0.02090878638550639
1772807514375362000,6.803362060546875,-0.08186002562828361,-0.05573299313783645,-0.035783261042833324
1772807514385294000,6.813294189453125,-0.05201126920096576,-0.06232406196594238,-0.03505319320261478
1772807514395227000,6.823226806640625,-0.0316535773595795,-0.03483341297209263,-0.030679800423979758
1772807514405159000,6.833158935546875,-0.07189268530011177,-0.021643676531314847,-0.0203397543258965
1772807514415091000,6.843091064453125,-0.005199906730651855,0.010574585506319999,0.009960983652621507
