time,seconds_elapsed,z,y,x
1772876953608057600,0.0760576171875,0.004324292939901352,0.02712283859476447,0.3965018752362579
1772876953617990400,0.085990478515625,0.0707978758007288,-0.17008213363438843,0.7609483508463949
1772876953627923500,0.09592333984375,0.10576222167611121,0.007222206338495016,0.9814693897984922
1772876953637855500,0.10585546875,0.13262334059476852,0.4904831312909722,0.9569364215664565
1772876953647788500,0.11578857421875,0.07526128495037555,0.6871814691722392,0.6087568978853524
1772876953657721600,0.1257216796875,-0.09347732512056826,0.5214839803628624,0.09513853633105754
1772876953667654400,0.135654296875,-0.04829436756968498,0.16942052792049944,-0.7739142884686588
1772876953677586400,0.14558642578125,0.029312603724002836,0.2192768841098994,-0.9570032031923532
1772876953687519500,0.15551953125,0.3344938204169273,0.03204707018919289,-0.9572354045130312
1772876953697452500,0.16545263671875,0.7066168220043182,0.17212664507403969,-0.2769408453103155
1772876953707385600,0.175385498046875,1.2996522730141877,0.5785103743121027,0.6753559337567537
1772876953717317600,0.185317626953125,1.9014736725479364,0.7099352989025414,0.7994206317774951
1772876953727250700,0.195250732421875,2.552238258948922,0.4136971209913492,0.8989410364545881
1772876953737183500,0.20518359375,2.6629852833002805,-0.2913770746808499,0.9756361536003648
1772876953747116500,0.215116455078125,2.667050048521161,-0.8403041385687887,0.17482861577542497
1772876953757048600,0.225048583984375,3.0750521727412936,-0.9586442483976483,0.16938019591011105
1772876953766981600,0.234981689453125,2.792915147027373,-0.36691060070134696,1.2310334948182104
1772876953776914700,0.244914794921875,2.141043476167321,-0.09095049179038033,1.698939029728621
1772876953786847500,0.254847412109375,1.4503642280071973,-0.3930090646844357,1.8539317307807504
1772876953796779500,0.264779541015625,0.5426479105532169,-0.45099268629327416,0.880407747028768
1772876953806712600,0.274712646484375,0.9409949021995067,-0.037507746747881175,0.638835006089136
1772876953816645600,0.284645751953125,1.6038661059796808,0.44010837725065644,0.2188636088675819
1772876953826578700,0.29457861328125,2.445589317566156,0.8490191407483071,-0.32672519570942965
1772876953836510700,0.3045107421875,2.9779660094738003,0.633961189507693,0.104359917130135
1772876953846443800,0.31444384765625,2.862293803679943,0.020498561616800724,0.7515655324079096
1772876953856376600,0.32437646484375,2.8308184689641,-0.03683744627088308,1.6330844555489719
1772876953866308600,0.33430859375,2.7982144224792718,0.784199535639584,3.2524113116413353
1772876953876241700,0.34424169921875,2.823980731898546,0.33759865456447,2.240392031408846
1772876953886174700,0.3541748046875,2.7208248933285475,0.15517835981734096,1.380567784333974
1772876953896107800,0.364107666015625,3.1079712765246628,0.304666033712402,0.5937975944887847
1772876953906039600,0.37403955078125,2.948581509557366,0.9200505330439657,0.8893024166241288
1772876953915972400,0.383972412109375,2.360709724920988,1.6018115115374325,0.6601796266086399
1772876953925905700,0.39390576171875,2.4676047500193117,1.9713073794916272,-0.1172298104993999
1772876953935838700,0.403838623046875,3.0500971797049043,1.7079836291886865,0.47319560414254663
1772876953945770500,0.4137705078125,2.6015759980916977,0.9047285338148474,1.1584874601759017
1772876953955703600,0.42370361328125,1.5612714113563297,0.005840688852220773,2.0299432544641194
1772876953965636600,0.43363671875,0.7421487386345863,0.4016964482046664,1.9357612882055342
1772876953975569400,0.4435693359375,-0.4802338322162628,0.735444564820826,0.5846062069691718
1772876953985501400,0.45350146484375,-0.959187561494112,2.383268762731552,0.2863828100575134
1772876953995434500,0.4634345703125,-1.8894500572770834,2.69884073279649,-0.292699628521502
1772876954005367600,0.473367431640625,-2.9487141960263252,2.168823171235621,-1.1187544385939836
1772876954015300600,0.483300537109375,-3.9970834312736985,2.031963215984404,-1.3153577916681767
1772876954025232600,0.493232666015625,-4.330733202081919,2.105220467635989,-1.4071364961773156
1772876954035165400,0.50316552734375,-3.916691213175654,1.841607525128126,-1.8038874508038163
1772876954045098500,0.513098388671875,-3.23625161947906,1.5375895069956778,-1.934827952878177
1772876954055031600,0.523031494140625,-2.714621947035193,1.5216560248047113,-1.4357555646792053
1772876954064963600,0.532963623046875,-2.8153789077699183,1.6731193826869128,-1.1260751368708908
1772876954074896600,0.542896728515625,-3.354336731633544,1.5649556528270243,-1.2104824358291923
1772876954084829700,0.55282958984375,-3.3523195465922355,1.4187012617647647,-1.390624921837449
1772876954094762500,0.562762451171875,-3.1236767951786515,1.3786208880499005,-1.2170320036031306
1772876954104694500,0.572694580078125,-3.355820832711458,0.9467363684609532,-0.7204881109684705
1772876954114627600,0.582627685546875,-3.0503958703905343,0.48474926381409167,-0.6718295862615108
1772876954124560600,0.592560546875,-2.5656261483103036,0.3112836252212524,-0.4396712279424071
1772876954134493700,0.60249365234375,-2.876159831947088,0.16945581842958926,-0.6570800531581044
1772876954144425700,0.61242578125,-3.0215935542762278,0.2980234538927674,-1.3609173274464905
1772876954154358500,0.622358642578125,-3.950744873946905,0.41585576032996174,-2.157777899477631
1772876954164291600,0.63229150390625,-4.649782200607657,0.5778165468290448,-1.991607386329025
1772876954174224600,0.642224609375,-4.417482680252194,1.0764400222167372,-1.7342127338141202
1772876954184156700,0.65215673828125,-3.7306729670017957,0.7783131079494953,-2.1196081816896797
1772876954194089700,0.66208984375,-2.8580945984244344,0.5830632153108716,-1.4654521992847322
1772876954204022500,0.6720224609375,-1.6727321369349955,0.04694733687490225,-1.1345496813580394
1772876954213955600,0.68195556640625,-0.44523149241805077,-0.7051160620525478,-0.7766600800454616
1772876954223887600,0.6918876953125,0.05317103369534015,-0.948375952361524,-0.33674072256088255
1772876954233820700,0.701820556640625,0.3102209644258022,-0.8094736776277422,-0.16814663552716375
1772876954243753700,0.711753662109375,0.3620341537714004,-0.6296472718313336,-0.5189632297135889
1772876954253686800,0.721686767578125,-0.13939210407733915,-0.36683190944194793,-0.4740159806147217
1772876954263618600,0.73161865234375,-0.6941717664510011,-0.6566875467091798,-0.3729921856373548
1772876954273551600,0.741551513671875,-1.0174211392760277,-0.7905135410919785,-0.3819128664568066
1772876954283484400,0.751484375,-0.6128326228916645,-0.567392475709319,-0.4191200228229165
1772876954293416400,0.76141650390625,0.044020343512296674,-0.6757932291954756,-0.8316637359954416
1772876954303349500,0.771349609375,0.8209662547618151,-1.3089762739375232,-1.4026491216301917
1772876954313282600,0.781282470703125,1.35850778208673,-2.2362188373774288,-1.0479331819176674
1772876954323215400,0.79121533203125,1.232270927658677,-2.336744327443838,-0.05417889556363225
1772876954333147600,0.801147705078125,1.45528297970891,-0.7769462035104632,1.688324842864275
1772876954343080400,0.81108056640625,1.4977368045568464,0.6525707590401172,1.855086015382409
1772876954353013500,0.821013427734375,2.729651173862815,1.511857684367895,2.6868381603136657
1772876954362946600,0.830946533203125,3.3794179813981056,0.21090601919293403,0.6656874302446841
1772876954372878600,0.840878662109375,2.6987024933695793,-1.42995623075068,-1.734923512431979
1772876954382811600,0.850811767578125,1.662533399003744,-2.2552169678360223,-2.857366284149885
1772876954392744400,0.860744384765625,0.679983082100749,-2.1039555622667074,-2.857075192248821
1772876954402677500,0.870677490234375,-0.8127724269121884,-1.8635837946146725,-1.6225173226967453
1772876954412609500,0.880609619140625,-3.0492537146180867,-2.0137299324184657,0.10820552317500114
1772876954422542600,0.89054248046875,-3.5435996588170524,-1.9993752438515424,0.4447369868993759
1772876954432475600,0.9004755859375,-2.6427836222708225,-1.2907879985570907,0.39673414962217207
1772876954442408400,0.910408447265625,-2.1217624371141195,-0.7659849567741155,0.34670682078003884
1772876954452340500,0.920340576171875,-2.466803955030441,-0.4980477213263511,-0.5540965024150908
1772876954462273300,0.930273193359375,-1.3752262771755457,0.06018704993724823,-1.0386131265170873
1772876954472206300,0.940206298828125,-0.4682733453094959,0.09306173005700111,-1.342595342683792
1772876954482139400,0.950139404296875,-0.3337742739707231,-0.4154366581350565,-1.680105588312447
1772876954492071400,0.960071533203125,0.11505845780968665,-0.456283047786355,-1.5220206203334032
1772876954502004500,0.97000439453125,0.34777240418493743,-0.5779308208584785,-1.5503417288020251
1772876954511937300,0.979937255859375,0.9048059829652308,-1.0931009418994189,-1.5408686747968197
1772876954521870300,0.989870361328125,1.4418670332968233,-1.5599819560676813,-1.385655024470389
1772876954531802400,0.99980224609375,1.415196468514204,-2.0208686982572077,-1.0753321340400726
1772876954541735400,1.0097353515625,1.6776918051689862,-2.4661843618273736,-0.2914924446888268
1772876954551668500,1.01966845703125,2.0713310575157404,-3.180259098622203,0.6762334472436458
1772876954561601300,1.029601318359375,2.4182091432094572,-3.593286357527971,1.645252301596105
1772876954571533600,1.039533447265625,2.7988211562007663,-2.937162874442339,1.421447637863457
1772876954581466400,1.04946630859375,3.4214608873575925,-0.8059849587291479,3.119852852976322
1772876954591399400,1.0593994140625,0.4856476739585399,0.21960604299902914,2.8743244332134723
1772876954601332500,1.06933251953125,-2.816008437845111,1.0641735381007194,0.26017156988233325
1772876954611264500,1.079264404296875,-5.308952796304226,2.2989292683124543,-0.1561480085670948
1772876954621197600,1.089197509765625,-5.4154152752041815,4.717230181458592,1.7262834021195768
1772876954631130400,1.09913037109375,-5.132705418038368,5.702882556030154,1.522132848536223
1772876954641063400,1.1090634765625,-5.333370613723993,3.8257361000090837,-0.07238989423252641
1772876954650995500,1.118995361328125,-5.335060466507077,4.42142469587624,0.33503406477347014
1772876954660928500,1.128928466796875,-5.659976895761489,4.989082544523478,-0.20397731590829787
1772876954670861600,1.138861572265625,-5.528829472938179,5.580991037330031,-0.8163187942821531
1772876954680794400,1.14879443359375,-5.072371068584919,6.338954600211977,-1.471426597519219
1772876954690726400,1.158726318359375,-4.646415939044952,6.985525242054462,-1.841990094704926
1772876954700659500,1.168659423828125,-4.494021730053425,6.980644484275579,-1.4919234421029686
1772876954710592500,1.178592529296875,-4.8418379733800885,6.450136508849263,-0.25737382892258465
1772876954720525600,1.188525634765625,-6.097102238613367,5.486149438118934,0.6791968270938843
1772876954730457600,1.19845751953125,-7.512465295866131,5.049033447617292,2.549467332930863
1772876954740390700,1.208390625,-8.004094382321835,5.229062682509422,4.053712496468425
1772876954750323500,1.218323486328125,-7.8644906813204285,5.093852248030901,3.949432037782669
1772876954760256500,1.228256591796875,-7.134757187622785,4.953135617351531,3.6961908516854045
1772876954770188500,1.2381884765625,-4.633136186233163,4.89985527806282,3.7617929124087093
1772876954780121600,1.24812158203125,-9.129960114225744,4.87711971464157,3.6179110956966873
1772876954790054700,1.2580546875,-12.59403147829771,5.7407397007375955,1.0546958079203963
1772876954799987500,1.267987548828125,-9.22394480434656,7.40349580258131,-1.3454030935809016
1772876954809919200,1.277919189453125,-5.795284360873699,4.3724458531737325,-3.3524241760104894
1772876954819852300,1.287852294921875,-2.2376082459092137,1.426701612868905,-4.1394148036733265
1772876954829785300,1.297785400390625,0.669104545211792,-0.14598141933977604,-3.553427809870243
1772876954839718700,1.30771875,2.3601187732905147,-1.7514830175668,-3.077985888105631
1772876954849650400,1.317650390625,3.75436831536591,-3.6289281642735003,-2.588653972676396
1772876954859583500,1.32758349609375,5.264120551887154,-5.281310756140947,-1.7899134321175514
1772876954869516300,1.337516357421875,6.833968068408966,-6.8724734478920695,-0.7690260049704462
1772876954879448300,1.3474482421875,8.552709676846861,-7.897830640864372,0.08199315048865974
1772876954889381400,1.35738134765625,9.182309310144186,-8.388122341236471,0.7037742920547724
1772876954899314400,1.367314453125,9.699113754388689,-7.413477682891488,0.5598395030464977
1772876954909247500,1.37724755859375,9.942115286022425,-7.382137957254051,0.136228890806064
1772876954919179500,1.387179443359375,11.019563316237926,-7.814742607811093,0.3338162134163081
1772876954929112300,1.3971123046875,11.998541619873047,-7.8714424001544705,0.13768084318004548
1772876954939045400,1.40704541015625,12.005077743643522,-8.076077083992958,-0.1634870096856728
1772876954948978400,1.416978515625,11.748882968437671,-8.142414473253488,-0.35236024343185124
1772876954958910500,1.426910400390625,11.269492016786335,-7.599162167066336,-0.5973560176227242
1772876954968843500,1.436843505859375,10.510192236864567,-7.069705746519565,-0.915759046395123
1772876954978776600,1.446776611328125,9.675832832044362,-6.186119661715626,-1.399744193968922
1772876954988709400,1.45670947265625,8.221684993845225,-5.592623022934794,-2.142772784177959
1772876954998641400,1.466641357421875,6.527047899094224,-5.34779310683012,-2.4483994065508243
1772876955008574500,1.476574462890625,4.862431848597526,-5.948895544439554,-1.631720765980333
1772876955018507500,1.486507568359375,3.249228005430102,-7.1267229342490435,0.03521554415747523
1772876955028440600,1.496440673828125,1.8741805919528007,-7.4482602424591775,1.2979644660577176
1772876955038372600,1.50637255859375,0.6969424002081155,-7.615299062874913,2.121512846267223
1772876955048305400,1.516305419921875,0.04123158957660198,-7.260998133704065,2.0512920397020875
1772876955058238500,1.526238525390625,0.48900750578045843,-6.466553390643,0.8562525260679423
1772876955068171500,1.536171630859375,1.8700515293240547,-5.83662993221879,-0.3560034953050315
1772876955078103600,1.546103515625,3.62928296906054,-5.7139487244457,-1.3065309266120195
1772876955088036600,1.55603662109375,5.490084439480304,-5.806386769646406,-1.596219390618801
1772876955097969400,1.565969482421875,7.072537170553207,-5.4937856320858,-1.7715492156483232
1772876955107902500,1.57590234375,7.319198978260159,-5.42394052696526,-1.8545739742070435
1772876955117834500,1.58583447265625,6.7984303065598,-4.632362279251217,-2.144205447329581
1772876955127767600,1.595767578125,5.9668286760151386,-3.188355895838141,-2.3948775135912
1772876955137700600,1.60570068359375,4.592504900637269,-1.7550795807540416,-1.9505910469383
1772876955147633700,1.615633544921875,2.147140623998642,0.1302747316420078,-0.5757276117257774
1772876955157565400,1.6255654296875,-0.520209868773818,2.3474369863718745,0.868760856115818
1772876955167498200,1.635498291015625,-3.0434260313779116,4.753218609684706,1.882512659229338
1772876955177431300,1.645431396484375,-4.58222608320713,7.135827447202801,1.7226551286198197
1772876955187363300,1.65536328125,-5.460351564517617,9.475697797712684,1.2568293225929141
1772876955197296400,1.66529638671875,-7.337411511299013,11.345880844461917,0.9403509052075445
1772876955207229400,1.6752294921875,-10.221178895640373,13.248828096693753,1.3832691522471605
1772876955217162500,1.68516259765625,-14.165747711300849,15.526284368866682,2.461960606652498
1772876955227094500,1.695094482421875,-17.6241579808712,16.84022060329914,2.9709482396662232
1772876955237027300,1.70502734375,-19.315615861064195,15.678427233445644,3.649926820899546
1772876955246960400,1.71496044921875,-18.88190178796053,12.889397403419016,5.09471207973063
1772876955256893400,1.7248935546875,-15.986593018907307,11.21834635143876,5.270728571850061
1772876955266825500,1.734825439453125,-11.778906350779533,10.042408720898628,3.8550767607837915
1772876955276758500,1.744758544921875,-7.069599363535642,8.654957752922178,1.1983000498000531
1772876955286691600,1.754691650390625,-3.605308219233155,8.071625949802995,-1.24516650345847
1772876955296624600,1.764624755859375,-3.650295946472883,8.651420810967684,-3.140377170088887
1772876955306556700,1.774556640625,-6.033970367395877,10.906720196390152,-4.400906516243517
1772876955316489700,1.78448974609375,-8.62582342837453,12.968939142167567,-5.156254635930061
1772876955326422800,1.7944228515625,-9.735172325241566,13.061609242558479,-4.5211932300955056
1772876955336355600,1.80435546875,-10.008827938336132,11.222399426221846,-3.6730467074632642
1772876955346287600,1.81428759765625,-8.626632406669854,8.612495160245896,-2.940058888144791
1772876955356220700,1.824220703125,-6.174833713069558,5.946208497312664,-2.34616404382661
1772876955366153700,1.83415380859375,-3.5036370662629603,3.593900105512142,-1.9466367563545703
1772876955376086800,1.844086669921875,-1.068956096202135,1.0935019239157437,-1.8023074881359933
1772876955386018800,1.854018798828125,0.9500994151532649,-1.6410288386821745,-1.1485552642263472
1772876955395951900,1.863951904296875,2.135773426809907,-3.8155215799868105,0.05341145485509187
1772876955405884700,1.873884765625,3.348732335755229,-5.01401240311861,1.9421550808958707
1772876955415817700,1.883817626953125,4.9051972236126655,-6.396160588511824,3.1398221665546298
1772876955425749800,1.893749755859375,7.007669269323348,-7.4091685875207185,3.8540617385223506
1772876955435682800,1.903682861328125,9.13989055660963,-7.542032166612148,3.9869253176137804
1772876955445615900,1.913615966796875,10.106659367012977,-8.11119165199399,3.4405545871451495
1772876955455548000,1.9235478515625,10.654905828225612,-8.740782517462968,3.836883809228241
1772876955465480700,1.933480712890625,10.837769994282722,-8.7008129106462,3.142886814822256
1772876955475413800,1.943413818359375,11.009901169401406,-8.435203241363167,1.3079536528915165
1772876955485346800,1.953346923828125,10.935950967049598,-7.488969269466399,-0.4757175238355994
1772876955495278600,1.963278564453125,10.857868194937705,-6.6541931005388495,-1.9944747584588824
1772876955505212000,1.9732119140625,10.883588327127695,-6.475988742986321,-2.477666417567432
1772876955515144700,1.983144775390625,10.622467201435565,-7.182202829408645,-2.369320316877961
1772876955525077800,1.993077880859375,9.819204361146689,-7.8310747339308255,-1.7073884397745132
1772876955535009500,2.003009521484375,8.34129395456612,-8.183715620934963,-0.7462133577249944
1772876955544942600,2.012942626953125,6.261458103555441,-8.617460089176893,0.3947094023289159
1772876955554875600,2.022875732421875,3.970055139094591,-8.846846352434158,1.5151910665743051
1772876955564808700,2.03280859375,2.0202420907914638,-8.691845175814628,2.16414348898679
1772876955574740700,2.04274072265625,1.247239364209771,-8.008725549253821,2.253030709838122
1772876955584673500,2.052673583984375,1.2192600549161434,-7.381491476044058,1.7314665038459003
1772876955594606600,2.062606689453125,1.5759809047102926,-6.9990516631037,0.6150760179042816
1772876955604539600,2.07253955078125,2.369573414856195,-6.532749910128116,-0.3456615129781887
1772876955614471700,2.0824716796875,3.196404177737236,-6.287542392882704,-1.2642813921645284
1772876955624404700,2.09240478515625,3.9002760849475857,-6.378512119096517,-1.6664150627426801
1772876955634337500,2.102337646484375,4.4484921510219575,-6.493042169117927,-1.4424370882697402
1772876955644269800,2.112269775390625,4.791279752531647,-6.489425732186437,-0.8689218918964267
1772876955654202600,2.12220263671875,4.955612236598133,-6.494224656900763,-0.2581983335806057
1772876955664135700,2.1321357421875,4.874007720100879,-6.335131827053427,-0.10651793541423976
1772876955674068700,2.14206884765625,4.323890788841247,-6.247830560219287,0.21125742644648998
1772876955684000800,2.152000732421875,3.139837656384706,-5.4912312714278695,0.41146497802510856
1772876955693933800,2.161933837890625,2.338292725929618,-3.8660312855184076,-0.39118119167014953
1772876955703866600,2.17186669921875,2.339308624973893,-2.883473369830847,0.14121822352595625
1772876955713799700,2.181799560546875,0.8437333823651075,-1.5688497376561163,0.6986715620882809
1772876955723731700,2.191731689453125,-0.4962853878289461,1.378282157614827,-0.2754280661271885
1772876955733664800,2.201664794921875,-2.7307407226651907,4.703123330172896,-1.1192509899392724
1772876955743597800,2.211597900390625,-6.370045904046297,9.347791548767685,-2.4735320942416785
1772876955753530600,2.221530517578125,-10.971026956605911,14.67351486260891,-3.8531796949908137
1772876955763462700,2.231462646484375,-15.09599325594902,18.17549071766138,-4.520507293657959
1772876955773395700,2.241395751953125,-18.04641191780567,18.870122502839564,-2.920989738276601
1772876955783328800,2.251328857421875,-19.225331779026984,17.47992135937214,0.3921380174709484
1772876955793261800,2.26126171875,-18.226766146868467,15.226924990195036,3.251294874832034
1772876955803193900,2.27119384765625,-18.04034925676584,12.222646143335103,5.824497011354565
1772876955813127000,2.281126953125,-17.030020706099272,10.231111091589927,7.515337051910161
1772876955823059700,2.291059814453125,-13.445600376594065,9.712340315708518,7.167458264741301
1772876955832992800,2.30099267578125,-8.704965354150533,10.109719923627376,3.8002828020617363
1772876955842924500,2.310924560546875,-4.166932632935047,10.81770452685356,-0.43352297097835685
1772876955852857900,2.32085791015625,-1.4336726209253072,10.649584340941905,-3.2175980646744367
1772876955862791000,2.330791015625,-0.039322541084885594,9.73309376540184,-3.920621246100962
1772876955872723700,2.3407236328125,0.028343466430902478,8.201067153230309,-3.099666389515996
1772876955882655700,2.35065576171875,-1.601956472966075,7.487783274552226,-2.2105220860630275
1772876955892588500,2.360588623046875,-4.746358076265454,8.305413662889599,-1.8912271499522029
1772876955902521600,2.370521484375,-7.059771212482452,8.81498757135868,-1.8347195191800594
1772876955912453600,2.38045361328125,-8.500418348595499,8.241527758434414,-2.2461216611020265
1772876955922386700,2.39038671875,-8.882636043217778,6.175317112672329,-2.6445477093338963
1772876955932319700,2.40031982421875,-7.034819142055511,2.7734049753934142,-1.9735775163806974
1772876955942252500,2.41025244140625,-3.9916304265648126,-0.9640350015252828,-0.605094941311702
1772876955952184600,2.4201845703125,-0.4861117843389511,-4.1356408380925656,0.4571863533016294
1772876955962117600,2.43011767578125,3.13652984701097,-6.721283353993297,-0.04166910421103239
1772876955972050700,2.44005078125,7.0258192585200065,-8.318180205482244,-0.9434637765310704
1772876955981983700,2.449983642578125,10.627580598926544,-8.495537006294727,-1.3220504211746156
1772876955991915800,2.459915771484375,13.008849127751589,-9.019050592789053,-1.109380826375261
1772876956001848600,2.4698486328125,14.623821149635313,-9.151493900641798,-0.7673726117402314
1772876956011781600,2.47978173828125,15.1423949416399,-8.70730285718739,-0.7454485108323394
1772876956021714700,2.489714599609375,14.38613350650072,-8.589498900061844,-1.0591112862750887
1772876956031646700,2.499646728515625,13.281715636295079,-7.858502254560589,-1.1567651664279401
1772876956041579800,2.509579833984375,11.47206275383234,-6.782171830198168,-0.8790025564059615
1772876956051512800,2.519512939453125,9.40075098553896,-6.379987452346086,-0.4391703292155638
1772876956061445600,2.529445556640625,8.029510563129186,-5.928293485915661,0.06616827977132052
1772876956071377700,2.539377685546875,6.503898494175076,-5.525972914463281,0.47537155994214114
1772876956081310700,2.549310791015625,5.016919230476021,-5.451993486016988,0.5895275159541518
1772876956091243800,2.559243896484375,3.885370776760578,-5.678246127423644,0.9640219959132372
1772876956101175800,2.56917578125,2.887233014625311,-6.256465702095627,1.5058458767324685
1772876956111108900,2.57910888671875,2.3622061009585855,-7.07896515777409,2.3013104643605646
1772876956121041700,2.589041748046875,2.601671859681606,-7.855354019662737,3.0772754017487167
1772876956130974700,2.598974609375,3.0961808854877946,-8.365953179526329,3.2750247099876404
1772876956140906800,2.60890673828125,3.7022464984625576,-8.149651438769698,2.410984452652931
1772876956150839800,2.61883984375,4.151389026844501,-7.290376203879713,1.0064267209224402
1772876956160772900,2.62877294921875,4.828812487590312,-6.730513539153337,-0.16165219547394663
1772876956170706000,2.638705810546875,5.581033707427978,-6.664002546891569,-0.8282614532712846
1772876956180637700,2.6486376953125,6.205242295336723,-6.63046969512403,-1.1908515604250132
1772876956190570500,2.658570556640625,6.589813275086879,-6.530656152719259,-1.4127576970599591
1772876956200503800,2.66850390625,6.6691533537834875,-6.5752610181212425,-1.6290169138491153
1772876956210436900,2.678436767578125,6.38736528763771,-6.566116173157096,-1.7567809778444468
1772876956220368600,2.68836865234375,5.6622179526865475,-6.4537482696056365,-1.5192125771753489
1772876956230301700,2.6983017578125,3.9349265425682067,-6.028344344207644,-1.0978213945500552
1772876956240234500,2.708234375,0.9659411274075508,-5.245601144856214,-0.6092179029932245
1772876956250167600,2.71816748046875,-1.0007008906215429,-3.4717747780561443,-0.40864374659191816
1772876956260099600,2.728099609375,-2.198480350613594,-1.3939964440971613,0.4536083486843854
1772876956270032600,2.73803271484375,-3.110888040754199,0.9050468059837817,0.22385474995207041
1772876956279965700,2.747965576171875,-3.4305209766477343,4.074372422659397,-0.613386603512615
1772876956289897500,2.7578974609375,-5.163471727702022,7.498411051550507,-1.4813564553812146
1772876956299830500,2.76783056640625,-7.935422412633895,11.362432166290283,-3.445274016882479
1772876956309763300,2.777763427734375,-10.400718301188945,15.319570540666579,-5.183884985655546
1772876956319696400,2.7876962890625,-12.514970216542482,18.292264162695407,-5.634902075737714
1772876956329628200,2.797628173828125,-15.422133089518546,18.62907853501439,-2.9119468923822045
1772876956339561200,2.807561279296875,-18.643968645632267,17.40395221841335,2.6705253234162925
1772876956349494300,2.817494384765625,-20.559631587052344,15.325715034770965,7.7434046337842934
1772876956359427300,2.82742724609375,-21.437113509762288,12.807728004992008,11.110152518701552
1772876956369359400,2.837359375,-18.932025709044932,11.805852809894084,10.54573350584507
1772876956379292200,2.847292236328125,-13.74429106222391,11.853757885885239,6.879304755216837
1772876956389225200,2.85722509765625,-8.262332646054029,11.778635132622718,2.9129233361989257
1772876956399158300,2.867158203125,-4.405134655332565,11.547086138373613,-0.1865775605570525
1772876956409090300,2.87709033203125,-2.5133909341603515,11.295350096142291,-2.6076611632242797
1772876956419023400,2.8870234375,-1.980045104959607,10.745589723235367,-3.9554166651502247
1772876956428956200,2.8969560546875,-2.6427596568733454,9.957366631168126,-4.283510263136029
1772876956438889200,2.90688916015625,-4.5570261754989625,9.092028735238314,-4.130635869412124
1772876956448821200,2.9168212890625,-6.198472362810373,7.84947489849627,-3.5129689582318067
1772876956458754300,2.92675439453125,-6.993814931493997,5.597959123265743,-2.1340878118105233
1772876956468687400,2.936687255859375,-6.46709465791285,2.121543241405487,-0.708649058484286
1772876956478620400,2.946620361328125,-3.8591479557454584,-1.1266484067142009,0.5839280154466628
1772876956488552400,2.956552490234375,-0.4093108687311411,-3.6017373750090598,1.417539670639485
1772876956498485200,2.9664853515625,2.9448037445843216,-5.8704649818032975,1.681827005277574
1772876956508418300,2.976418212890625,6.507787318307161,-8.18457720620036,1.4169684466227888
1772876956518350300,2.986350341796875,10.45501570856571,-9.846091199028491,0.8642879484854638
1772876956528283400,2.996283447265625,13.72703831412792,-10.1704751288414,0.030572321461513636
1772876956538216400,3.006216552734375,15.604005906450748,-9.538059269079566,-1.3373793616011738
1772876956548149200,3.016149169921875,16.323062523311375,-8.941829405942558,-2.2113344253592193
1772876956558081300,3.026081298828125,15.890753640830516,-8.626879659429193,-2.812893520694971
1772876956568014300,3.036014404296875,14.453475104367731,-8.175042485135792,-2.7508023907020687
1772876956577947400,3.045947509765625,11.923068153476715,-7.102717789283394,-2.386480418254435
1772876956587880400,3.05588037109375,8.791698465707897,-6.589398264545202,-1.4080930662497877
1772876956597812500,3.0658125,5.811882444453239,-6.603077830329537,0.16187140944888814
1772876956607745500,3.07574560546875,3.3282945278823375,-6.532739388734102,1.5767796538725494
1772876956617678300,3.08567822265625,1.432964180395007,-6.718781600305437,2.6130627300068734
1772876956627611400,3.095611328125,0.7167711362719535,-6.883330941992997,3.0310894046351313
1772876956637543400,3.10554345703125,0.7954021899163722,-7.1060630080580705,2.8495786990135907
1772876956647476500,3.1154765625,1.2412725647598504,-7.287426706424355,2.0455705933153627
1772876956657409500,3.125409423828125,2.954202856570482,-7.097950428751111,1.3271651338398456
1772876956667342300,3.13534228515625,4.630633848023415,-7.112903667733073,0.062045948277460405
1772876956677274000,3.145274169921875,5.843143259635568,-6.84955259103179,-1.420754102641344
1772876956687207200,3.155207275390625,6.665390201857686,-6.5274950583398335,-2.4123155551262196
1772876956697140500,3.165140380859375,6.995540440112352,-6.461114414459467,-2.81790316555053
1772876956707072300,3.175072265625,6.793605078360438,-6.605539836528897,-2.5178391457408664
1772876956717005300,3.18500537109375,6.319626799407601,-6.695450993600487,-1.7707241630010306
1772876956726938400,3.1949384765625,5.917680906486511,-6.678536683678627,-1.0836359250701963
1772876956736871200,3.20487109375,5.6545297362715,-6.834907395085692,-0.5045732141049578
1772876956746803200,3.21480322265625,5.593845258206128,-6.989903895530104,-0.2057318679580465
1772876956756736300,3.224736328125,5.782886651593446,-6.837364725109935,-0.45711716052293777
1772876956766669300,3.23466943359375,5.834869352287054,-6.508160243272781,-0.8457355159677564
1772876956776602400,3.244602294921875,5.456854370051622,-6.11186784606874,-1.0196066666215657
1772876956786534400,3.254534423828125,4.622730527552962,-5.217974302262068,-1.034302423711121
1772876956796467200,3.26446728515625,4.2246202672719955,-3.272179257428646,-2.1189666689157485
1772876956806400300,3.274400146484375,4.024526733994484,-0.8218202412426471,-2.7108982503369448
1772876956816333300,3.284333251953125,2.0932015285402534,1.9533523283451795,-1.9605149134509263
1772876956826265300,3.294265380859375,-1.1101976226508616,5.790615200018882,-0.6406594450373202
1772876956836198400,3.304198486328125,-4.384981509619951,10.085219104099274,0.9295074396319687
1772876956846131200,3.314131103515625,-8.610124339461326,13.984969119346141,2.3292528026446697
1772876956856064300,3.324064208984375,-15.049830055189132,16.664323938167094,2.575799167278409
1772876956865996300,3.333996337890625,-21.40594446451664,20.019545051419733,2.0123719419382513
1772876956875929300,3.343929443359375,-28.5188884642601,22.982977508628366,3.3699788296625015
1772876956885862400,3.3538623046875,-30.433641889619825,24.80188804877996,3.6295319753855466
1772876956895795500,3.36379541015625,-25.45782214677334,22.00876656552553,2.9852064821213484
1772876956905727500,3.3737275390625,-17.753858712017536,15.90430285823345,3.764361009331047
1772876956915660300,3.383660400390625,-10.165964957940577,10.581810196876525,4.657552542348205
1772876956925593300,3.39359326171875,-5.413424393647909,7.209229952543973,4.37391446442157
1772876956935525400,3.403525390625,-3.6937498882740734,5.753447206619382,3.441056983709335
1772876956945458400,3.41345849609375,-3.0379478922277685,5.152717109453678,2.5623285680696366
1772876956955391500,3.4233916015625,-3.8843011017024516,6.2021869994193315,0.6636663727458566
1772876956965324300,3.43332421875,-7.115588961294293,9.693651981851458,-2.0859546261519193
1772876956975256300,3.44325634765625,-9.870279883867502,10.659719950509071,-4.109870729281008
1772876956985189400,3.453189453125,-9.292645415607094,9.34226255621314,-4.267067370118201
1772876956995122400,3.463122314453125,-7.252367083480954,7.105697681877016,-4.44618358181864
1772876957005055500,3.473055419921875,-4.6410289853096005,4.1370647334158415,-4.4962806148961185
1772876957014987300,3.4829873046875,-1.4209136771172284,1.5634528470486402,-3.8655984470590945
1772876957024920300,3.49292041015625,1.953567432400584,-0.9300462226837873,-3.2475597799569367
1772876957034853000,3.50285302734375,4.917189274701475,-3.4527298858463764,-2.8193028032153844
1772876957044786400,3.512786376953125,7.694009611496329,-5.4574599347293375,-2.5248028472736475
1772876957054718200,3.52271826171875,10.240129095304011,-6.670759619936347,-2.0535387957155704
1772876957064651300,3.5326513671875,12.758028446799516,-7.994072170001268,-1.1757133202649652
1772876957074584300,3.542584228515625,15.588345395982264,-10.024041874080895,0.4935211838126182
1772876957084517000,3.55251708984375,16.617330716323853,-11.199834543192386,1.9057215392507612
1772876957094449400,3.562449462890625,15.98060166953802,-10.724071134388446,2.189801223465055
1772876957104382200,3.57238232421875,14.522114340829848,-8.99738353538215,1.4936246930629014
1772876957114315300,3.582315185546875,12.122850721108913,-7.095784775149822,0.9444735380955039
1772876957124247300,3.592247314453125,9.72184814876616,-6.248572903019189,0.7826280485391617
1772876957134180400,3.602180419921875,7.544598802229761,-5.641687790355086,0.7997131119180471
1772876957144113400,3.612113525390625,5.7751019890666,-5.293306314361095,0.7932381437502801
1772876957154046200,3.622046142578125,4.048079459017515,-5.3933215168178075,0.8869722931761294
1772876957163978200,3.631978271484375,2.4757144067168233,-5.739812064498663,1.2884718305692076
1772876957173911300,3.641911376953125,1.664351846602559,-6.039269058325886,1.5642863752633331
1772876957183844400,3.65184423828125,1.7339865238428114,-6.041598962578177,1.4907675500661133
1772876957193777400,3.66177734375,2.5404332548648116,-6.047676821187138,1.3335611184872687
1772876957203709400,3.67170947265625,3.711908060777187,-6.330471434026956,0.892533945891261
1772876957213642200,3.681642333984375,4.93064555312395,-6.767392778739333,0.3306659692244604
1772876957223575300,3.6915751953125,5.824396473589539,-7.206818215227127,-0.3584114332295954
1772876957233508400,3.70150830078125,6.2756216534644365,-7.353984460437298,-0.9796248579103499
1772876957243440400,3.7114404296875,6.163740656647086,-7.143507480311393,-1.3361262928001583
1772876957253373400,3.72137353515625,5.677968479526043,-6.850926801994443,-1.4047441942133008
1772876957263306500,3.731306396484375,5.220124758294224,-6.695321814262867,-1.183934912904352
1772876957273239300,3.7412392578125,4.804755904698371,-6.6682414996355766,-0.8439982438463717
1772876957283171300,3.75117138671875,4.516925635778904,-6.6329281941920515,-0.5740896352604031
1772876957293104400,3.7611044921875,4.4494408300489185,-6.555734479874372,-0.5169811525182798
1772876957303037400,3.771037353515625,4.794563011986017,-6.316235987925529,-0.7486150851044804
1772876957312969500,3.780969482421875,5.16793221424222,-6.0067673031717534,-0.8367515606537461
1772876957322902500,3.790902587890625,5.374421586036682,-5.761914590713381,-1.3457177124880253
1772876957332835300,3.80083544921875,5.303229742482304,-4.861147654005885,-2.1580057168841362
1772876957342768400,3.810768310546875,4.935336925810575,-3.036748453310132,-3.0883541373848913
1772876957352700400,3.820700439453125,3.715261462858319,-1.1040829391628504,-2.9336387919694182
1772876957362633500,3.830633544921875,1.706933681744337,1.7691367476791142,-1.5038991265788673
1772876957372566500,3.84056640625,-0.8065560366153717,5.509738988021016,0.716072924874723
1772876957382499600,3.85049951171875,-3.855748376435041,9.36169557095766,1.7542613962389528
1772876957392431600,3.860431640625,-7.856926968067884,12.187753693652152,3.1059187279090286
1772876957402364400,3.870364501953125,-12.340571096491812,14.361649053585529,3.211991622969508
1772876957412297500,3.88029736328125,-18.212614871919154,16.667418397051094,3.4549709427714346
1772876957422230500,3.89023046875,-25.51816351048946,19.272911860847472,4.520595264202356
1772876957432162600,3.90016259765625,-28.115944792473314,22.02493677908182,3.6869989527091382
1772876957442095600,3.910095703125,-27.18605931330919,22.47992160375118,2.5748569179922343
1772876957452028400,3.9200283203125,-23.87009702825546,21.057546037387848,1.9798776394382118
1772876957461961500,3.92996142578125,-18.070238199073074,18.596542877590654,0.6265661838855594
1772876957471893500,3.9398935546875,-12.154315534430742,15.31973654488325,-1.6339882725208996
1772876957481826600,3.94982666015625,-7.094840772297978,12.83084701477289,-3.2217128065168854
1772876957491759600,3.959759521484375,-4.5301633030146355,10.16575453006029,-3.7190555944442747
1772876957501692400,3.9696923828125,-3.496186750257015,7.613027026289701,-3.098828185126185
1772876957511624400,3.97962451171875,-4.283292236471176,6.786966078737378,-2.8113965601354836
1772876957521556500,3.989556396484375,-4.3134950670331715,6.760731567284465,-2.830183970452845
1772876957531489300,3.9994892578125,-4.676375023978948,6.14112959638834,-3.2351497957170006
1772876957541421300,4.00942138671875,-4.032872537535429,4.636602985560894,-3.58652782317847
1772876957551354400,4.019354248046875,-2.7709190037965774,2.7288363503485917,-3.7661677664920687
1772876957561287400,4.029287353515625,-0.666961687964201,0.4573375252753496,-3.2857045094341037
1772876957571220500,4.039220458984375,1.65634915741086,-2.173097487553954,-2.0868957063943148
1772876957581152500,4.049152587890625,3.7931490046590564,-4.702515427407622,-1.1482435679286718
1772876957591085300,4.059085205078125,6.028135669893026,-6.651846829673648,-0.7004149716895073
1772876957601018400,4.069018310546875,8.475984749084711,-8.033546686777472,-0.6712037825133651
1772876957610950400,4.078950439453125,11.004237152290344,-8.883146915349364,-0.4323828975651413
1772876957620883500,4.088883544921875,13.123608310353756,-8.951723023447395,-0.4520843539875
1772876957630816500,4.09881640625,14.743028543817996,-8.62242501810789,0.08885098049417138
1772876957640749600,4.10874951171875,15.306035351788998,-8.076908858641982,0.9453368769265711
1772876957650681600,4.118681640625,13.842011431741714,-7.202544775691628,1.1077825243331492
1772876957660614400,4.128614501953125,12.480493946444987,-6.079934246191382,1.1894737692657857
1772876957670547500,4.13854736328125,11.344468639576434,-5.677184635671973,1.2820711697466671
1772876957680480500,4.14848046875,10.247971040976047,-6.163987909406424,1.4510925422817469
1772876957690412500,4.15841259765625,9.282095380020142,-6.468966881525516,1.5910421341113745
1772876957700345600,4.168345703125,7.842076020416617,-6.758687494236231,1.8567337825894354
1772876957710278400,4.1782783203125,5.811199722886085,-7.069414070096611,2.2397332752391694
1772876957720211500,4.18821142578125,3.548625378024578,-7.150085689657926,2.441100773975253
1772876957730143500,4.1981435546875,1.7997247781664132,-6.8474009659558535,2.6304101706489917
1772876957740076500,4.20807666015625,0.5090770648628473,-6.285639189609885,2.3859555175974965
1772876957750009600,4.218009521484375,-0.40793490420281886,-6.40150136501789,2.5573189232140776
1772876957759942700,4.227942626953125,0.0942342809677124,-6.659378978744149,3.0384461971387267
1772876957769874700,4.237874755859375,1.1000035608947276,-6.569864712035655,2.9220982840403913
1772876957779807500,4.247807373046875,2.258648695850372,-6.846022663339972,2.0001210937827825
1772876957789740500,4.257740478515625,4.017094538167119,-6.71765698018968,1.071932043273002
1772876957799672300,4.26767236328125,5.502373427689075,-6.693131026220321,0.20793905914612112
1772876957809605400,4.27760546875,6.556525922513008,-6.823866361111402,-0.6831049404483288
1772876957819538400,4.287538330078125,7.296099257701635,-6.756952633267641,-1.377230310474336
1772876957829471200,4.29747119140625,7.6507590833127495,-6.19247107656896,-2.1512083118289707
1772876957839403300,4.3074033203125,7.77642193724513,-5.5201978381931776,-2.632266027648747
1772876957849336300,4.31733642578125,7.663839514160156,-4.810936639159918,-3.115857938121259
1772876957859269400,4.327269287109375,6.972086499288678,-4.118143175324797,-3.3871494524329897
1772876957869202400,4.337202392578125,5.394170242601633,-3.3761335528999563,-2.8981437002182004
1772876957879134500,4.347134521484375,2.7925860612034796,-2.918644636455178,-1.3985453395731746
1772876957889067500,4.357067626953125,1.0410299784004688,-2.115685163027048,0.9333385422274469
1772876957899000300,4.367000244140625,-4.022114996677637,3.497597201576829,4.170919072222709
1772876957908933400,4.376933349609375,-4.855548518824577,7.364862997326254,2.40731190162003
1772876957918866400,4.386866455078125,-5.510101391592621,10.19995841295719,1.0707116346325725
1772876957928799500,4.396799560546875,-7.476112125980854,11.126911930322647,0.04392645468376576
1772876957938731500,4.4067314453125,-11.70761338493824,12.541202389907836,-0.18411869616284965
1772876957948664300,4.416664306640625,-17.625842572957275,16.314111155092714,-0.3025910540692508
1772876957958597400,4.426597412109375,-22.994359318864344,19.866968471598625,-0.2998252426177263
1772876957968530400,4.436530517578125,-26.62489725642204,21.201230870223043,0.27034984954744573
1772876957978462500,4.44646240234375,-26.392397829580304,20.457817226219177,0.9762525319330394
1772876957988395500,4.4563955078125,-20.507108788132665,18.392236110532284,-0.4832648704752326
1772876957998328300,4.466328369140625,-13.253762630486488,15.487631105345487,-3.393534477294981
1772876958008261400,4.476261474609375,-8.004049958658218,12.884122677886486,-5.594058608695864
1772876958018193400,4.486193359375,-6.031676118978858,10.684121401315927,-7.068411030533909
1772876958028126500,4.49612646484375,-6.459181985092163,9.787268423181771,-7.5273209196925155
1772876958038059500,4.5060595703125,-7.131860881659388,8.782010599908233,-7.199447978720069
1772876958047992600,4.51599267578125,-6.623631373536586,6.587642360788584,-6.06082271848619
1772876958057924600,4.525924560546875,-5.176895857420563,3.995723248836398,-4.783560848717391
1772876958067857400,4.535857421875,-3.615006021904945,1.9334563722640274,-3.794464763432741
1772876958077790500,4.54579052734375,-1.9495687181532382,0.052015433919429775,-2.838256802271306
1772876958087723500,4.5557236328125,0.1300970369875431,-1.6487264074474572,-2.0539834707431495
1772876958097655600,4.565655517578125,2.1029332334816453,-3.0428695665389296,-1.695693618066609
1772876958107588600,4.575588623046875,3.916974706292152,-3.945995049071312,-1.0607274893000722
1772876958117521400,4.585521484375,5.684821998682618,-4.956394326886534,-0.3975969039313495
1772876958127454500,4.595454345703125,8.048270793178677,-6.006692484369873,0.5558237645991146
1772876958137386500,4.605386474609375,10.356963330614565,-6.920935573244094,1.8510395164705813
1772876958147319600,4.615319580078125,11.99726736215353,-7.847956310626864,2.7676380824297664
1772876958157252600,4.625252685546875,13.761584726852178,-8.784059349131583,3.941738560670614
1772876958167184400,4.635184326171875,15.34951910420656,-9.735212657251953,4.852430386804044
1772876958177117400,4.645117431640625,15.80049878488779,-10.12532431999445,5.19029251461029
1772876958187050200,4.65505029296875,15.050554862332342,-8.918815610101818,4.141660829034447
1772876958196983600,4.664983642578125,13.526827876472472,-6.383451913586258,2.2966863116912544
1772876958206915300,4.674915283203125,11.417255643367767,-5.194606286156177,0.8557295251071453
1772876958216848400,4.684848388671875,9.455863216429949,-4.607058326646685,0.677432666965574
1772876958226781400,4.694781494140625,7.943236301255226,-3.9958594424366947,1.2118924487575888
1772876958236714200,4.70471435546875,6.260165141135454,-4.355912651523948,2.1126305977620183
1772876958246646500,4.714646484375,4.639643668431043,-5.095726809731126,3.1516987745702263
1772876958256579300,4.724579345703125,3.505914363545179,-5.960135315856337,4.081877099201083
1772876958266512400,4.734512451171875,2.9619249752551315,-6.674290716671943,4.473756648398935
1772876958276445400,4.744445556640625,2.87110254855752,-7.041241284057498,4.367772308404743
1772876958286377500,4.75437744140625,3.120423930862546,-7.041705394437908,3.946183265119791
1772876958296310500,4.764310546875,3.4303397748619315,-6.896452289372682,2.9249028200671074
1772876958306243300,4.774243408203125,4.04044326505065,-6.426938588613272,1.7280191398710012
1772876958316175400,4.78417529296875,4.708128591114282,-6.109565998867153,0.7064166232571005
1772876958326108400,4.7941083984375,5.308631893786788,-6.310545082807541,0.0957384019203484
1772876958336041500,4.80404150390625,5.99963204446435,-6.513740089231729,-0.1813740736298263
1772876958345974500,4.813974609375,6.55118806861639,-6.6115294323325156,0.03611921499893069
1772876958355906600,4.823906494140625,6.548358982670306,-6.652724781551957,0.12420242599099873
1772876958365839400,4.83383935546875,6.105555009660124,-6.460925613889097,-0.08449453885033727
1772876958375772400,4.8437724609375,5.293118682834506,-6.120683020687103,-0.4617283075802028
1772876958385705500,4.85370556640625,3.6465503302037714,-5.831200892907381,-0.4829786008797586
1772876958395637200,4.86363720703125,1.071574754267931,-5.013692669644952,-0.42437326717600227
1772876958405570300,4.8735703125,-1.061551957425475,-2.4232255100667475,-1.2956192181058228
1772876958415503400,4.88350341796875,-3.340352629944682,0.4117325429201126,-1.148260665193945
1772876958425436400,4.8934365234375,-4.54052512255311,3.827145382285118,-1.8137100488990545
1772876958435368200,4.9033681640625,-4.430633253726363,7.115791205868125,-2.3439473906904458
1772876958445301200,4.91330126953125,-4.308602034294605,9.34985432651639,-3.1934482505410906
1772876958455234300,4.923234375,-5.1447985914140935,11.16045764157176,-4.097922225072979
1772876958465167400,4.93316748046875,-7.965176330384612,13.100575809812545,-4.077282757148146
1772876958475099400,4.943099365234375,-14.086955329614877,14.206535648763179,-2.6092215444087983
1772876958485032400,4.953032470703125,-21.512626723647116,15.856061097633837,-0.0012917933762073516
1772876958494965200,4.96296533203125,-27.801371478056907,17.35332210137248,2.8136630437627432
1772876958504898300,4.972898193359375,-29.49061402028799,17.37639084227085,4.591798213672638
1772876958514830300,4.982830322265625,-25.722937895059584,16.256949590456486,3.9428275249511002
1772876958524763400,4.992763427734375,-19.037728309488294,14.591083247637748,0.11421353141814469
1772876958534696400,5.002696533203125,-12.770322111183404,12.83747081682682,-3.70653104391396
1772876958544629200,5.012629150390625,-8.34532540203929,11.589015062564611,-6.123423259305953
1772876958554561300,5.022561279296875,-6.225693547213077,9.990887792497873,-5.858885018646717
1772876958564494300,5.032494384765625,-6.497044975018501,8.614362123161554,-4.226162528277933
1772876958574427400,5.042427490234375,-6.837606132650375,7.475835062605142,-2.6664368850588795
1772876958584360400,5.0523603515625,-5.721103856897353,5.810899278634786,-2.1936831794649363
1772876958594292500,5.06229248046875,-3.4991438464969393,4.217569179716706,-2.1949881245836615
1772876958604225300,5.072225341796875,-1.1854454635977745,2.2704870176821945,-1.9000334106117487
1772876958614158300,5.082158447265625,0.8863947124838829,0.04922083476483822,-1.0235047700386495
1772876958624090400,5.09209033203125,2.567730427113175,-1.8217150761783123,-0.08364727437123656
1772876958634023400,5.1020234375,3.9733559342056513,-3.0721231335520742,0.23561434399187564
1772876958643956500,5.11195654296875,5.481399028721452,-4.208613135322929,0.2479452716462314
1772876958653889500,5.1218896484375,7.3213786603868005,-5.55154457809329,0.8167796167269349
1772876958663821600,5.131821533203125,9.004129502511024,-6.737943981415033,2.0123516298025845
1772876958673754400,5.14175439453125,10.235466948711872,-7.745214313554763,2.875519780477881
1772876958683687400,5.1516875,11.143419997531176,-8.230017353382706,3.0387428419977427
1772876958693620500,5.161620361328125,12.040014616990089,-7.917386405205726,2.2432560425378383
1772876958703552500,5.171552490234375,12.30476796170473,-6.862407396429777,0.6977773897275328
1772876958713485600,5.181485595703125,11.492121206998824,-5.759810896432399,-0.48827305402606724
1772876958723418400,5.19141845703125,10.453193169313668,-4.928135616129636,-0.7294587684094905
1772876958733351400,5.201351318359375,9.401584513753653,-4.578619583147764,-0.5150375807024539
1772876958743283200,5.211283203125,8.143138695874809,-4.743933479467034,0.1871772069506347
1772876958753216300,5.22121630859375,6.633429129451513,-5.310066895025968,1.1023073077924548
1772876958763149300,5.2311494140625,5.099272519513964,-6.065381989225745,2.2535556104950607
1772876958773082400,5.241082275390625,3.786131819373369,-6.706204442805052,3.328605201266706
1772876958783014400,5.251014404296875,3.3216923531383276,-6.973316917866468,3.745181384825706
1772876958792947200,5.260947265625,3.8185634319007393,-6.869341579607129,3.3415976615697143
1772876958802880300,5.27088037109375,4.9406467226564885,-6.6212623063176865,2.2602573000907897
1772876958812813300,5.280813232421875,6.194390646454692,-6.501880140089988,1.195918050034344
1772876958822745300,5.290745361328125,7.089666000008583,-6.5157730563640595,0.6046677288755774
1772876958832678400,5.300678466796875,7.301822896045446,-6.497534804362059,0.37551366693899035
1772876958842611200,5.310611083984375,6.912754020354152,-6.542787904539704,0.3885569806464016
1772876958852543200,5.320543212890625,6.170344000434875,-6.735291421079635,0.671459876166284
1772876958862476300,5.330476318359375,5.519696318411826,-6.810904003685712,1.0764204407334328
1772876958872409300,5.340409423828125,4.8900014080464835,-6.777652306947112,1.4577690974362194
1772876958882342400,5.35034228515625,4.354420951661467,-6.8188733751297,1.7314679651506244
1772876958892274400,5.3602744140625,4.020883993577957,-6.717438953524828,1.6501979413047432
1772876958902207500,5.37020751953125,3.9881636272370815,-6.701265817359089,1.5710435944385825
1772876958912140300,5.380140380859375,4.123501487487554,-7.035369177153706,1.7621290608741342
1772876958922073300,5.3900732421875,4.175970510393381,-7.396238963320851,1.9890740684591233
1772876958932005400,5.40000537109375,4.164810818475485,-7.634667780211568,2.024268277567625
1772876958941938400,5.4099384765625,4.040244527608156,-7.740180411040782,2.0124566976122558
1772876958951871500,5.41987158203125,3.961544500380754,-7.144381925058364,1.3787443682990967
1772876958961804300,5.42980419921875,4.3610219573616975,-5.563031017747521,0.21464812833070754
1772876958971736300,5.439736328125,3.8462195005893705,-3.4205396808594464,-0.7997810625877231
1772876958981669400,5.44966943359375,2.3738836792707443,-0.3724573481082916,-1.6793929099984466
1772876958991602400,5.4596025390625,0.08086977248191833,3.88258786804378,-1.979127405592799
1772876959001535500,5.469535400390625,-3.655891574522853,8.671133227175474,-2.8250676503524184
1772876959011467500,5.479467529296875,-8.328622689041495,13.794623073101043,-4.464260213518142
1772876959021400600,5.489400634765625,-13.78694245547056,18.56656274986863,-5.498194096177816
1772876959031333400,5.49933349609375,-21.839692439889905,22.196868047714233,-3.6521351445987817
1772876959041266400,5.509266357421875,-28.864326872539518,25.149096389341352,-0.9357403426721691
1772876959051198500,5.519198486328125,-29.958163727498054,26.055872211074828,0.652489218236506
1772876959061131500,5.529131591796875,-24.80301033080816,24.0214648168087,0.7937456548810005
1772876959071064600,5.539064697265625,-17.980982875561715,20.090957259726522,0.9438177045352757
1772876959080997400,5.548997314453125,-12.117954765760897,17.01275276043415,0.6829910317450761
1772876959090929200,5.55892919921875,-7.797159020325541,14.254801959282158,-0.253884671632573
1772876959100862200,5.5688623046875,-5.023033913964033,11.361017623317242,-1.1531665574140846
1772876959110795300,5.578795166015625,-4.021373238399625,8.974878858107328,-0.8165748879350722
1772876959120727300,5.588727294921875,-4.363770379287004,7.543729618179798,0.1984122839259915
1772876959130660400,5.598660400390625,-4.92100444907546,6.55256637123227,1.2165234695591032
1772876959140593400,5.608593505859375,-5.01444144218564,6.166098617950081,1.8997196684874593
1772876959150526200,5.618526123046875,-5.314826072251797,6.4624406946271655,1.5889409240484236
1772876959160458200,5.628458251953125,-4.97911878439188,5.8120630617171525,0.508419514269568
1772876959170391300,5.638391357421875,-3.6969314409196374,4.3754625706464045,-1.2528133649498223
1772876959180324400,5.648324462890625,-1.1297662464737892,2.2810692019730805,-2.60905875506252
1772876959190257400,5.65825732421875,2.333244210368395,-0.1730272471755743,-3.5069390304178
1772876959200189400,5.668189453125,6.043605041703581,-2.952645690256357,-4.0588165416091675
1772876959210122200,5.678122314453125,9.23584333193302,-4.887767365384102,-4.307506348012388
1772876959220055300,5.68805517578125,11.026776316356658,-6.110629828706383,-4.762047520567476
1772876959229988400,5.69798828125,12.14234569517374,-6.506095711958408,-4.984582310494781
1772876959239920400,5.70792041015625,12.400103481912613,-6.725448072457313,-4.603139691898226
1772876959249853400,5.717853515625,12.167785256856678,-7.183486439478397,-3.4704096271827813
1772876959259786200,5.7277861328125,11.728674877667427,-7.334276135882734,-2.24568136998862
1772876959269719300,5.73771923828125,11.16206040059328,-7.63611797901988,-1.0634406937815248
1772876959279651300,5.7476513671875,10.747697509169578,-8.001535930010675,0.43753896515406665
1772876959289585000,5.7575849609375,10.185507862800359,-8.385144202208519,2.036066267389059
1772876959299518000,5.76751806640625,9.2419995164752,-8.547643041107058,2.9749966382741926
1772876959309450000,5.777449951171875,8.16583509632945,-8.352487548753619,3.004856354486942
1772876959319382800,5.7873828125,6.985095033943653,-8.207157286798953,2.8300486536353824
1772876959329315800,5.79731591796875,5.536943221288919,-8.1939038374722,2.6969974430173633
1772876959339249000,5.807248779296875,4.266280895915627,-8.066860927358269,2.2103154575750232
1772876959349181000,5.817180908203125,3.4209079296499487,-7.9564803982317445,2.0249968841031194
1772876959359114000,5.827114013671875,2.7495804476916788,-8.33709942548573,1.9399910347297786
1772876959369047000,5.837047119140625,2.7306793478667735,-8.355541675627231,0.7740676523994654
1772876959378979800,5.846979736328125,3.365080828487873,-7.973350284489989,-0.9435049122590571
1772876959388911900,5.856911865234375,3.9677912858158346,-7.473893280887603,-2.585509829431772
1772876959398845000,5.866844970703125,4.280558427593112,-7.345386143440008,-3.763348909679055
1772876959408778000,5.876778076171875,4.279604487869143,-7.2328323619276285,-4.4967862263306975
1772876959418711000,5.8867109375,4.065567769435048,-6.997970297607779,-4.793267126956581
1772876959428643000,5.89664306640625,3.8932548080086704,-6.912112799841165,-4.746363629223406
1772876959438575900,5.906575927734375,3.67601958579421,-6.879144011697173,-4.358094087216258
1772876959448509000,5.916509033203125,3.6347394809007643,-6.694021253058314,-3.8865935965538023
1772876959458442000,5.92644189453125,3.4297879861980674,-6.590790011164546,-3.322657106517255
1772876959468373800,5.936373779296875,2.911457355299592,-6.409396502181887,-2.2141101736828683
1772876959478306800,5.946306884765625,2.0312182428359984,-6.171317229381203,-0.8273967992659658
1772876959488239900,5.956239990234375,1.154254206520319,-5.5728106534838675,0.13552505338564513
1772876959498172700,5.966172607421875,1.8782973796218632,-4.355201288384199,-0.3829535346161574
1772876959508104700,5.976104736328125,2.4544588527202604,-2.4560440760850906,-0.13592691218480468
1772876959518037800,5.986037841796875,1.5208552298158406,0.9530915827065706,-0.3443393609963357
1772876959527970800,5.995970703125,1.095645950207114,5.256469160351157,-0.7531921106964349
1772876959537902800,6.00590283203125,1.0420540607511997,8.786329047629236,-0.46752946813963353
1772876959547836000,6.0158359375,0.32376082947850227,11.154821681511402,0.620906185362488
1772876959557768700,6.025768798828125,-2.3219711212038994,12.060766313117742,2.0682734235107896
1772876959567701800,6.03570166015625,-5.79384643702507,13.702408899784087,2.4795956320643424
1772876959577633800,6.0456337890625,-9.877195946866273,16.507340063297747,3.4643127716124056
1772876959587566800,6.05556689453125,-17.208207527995107,17.011878315687177,6.261398482322693
1772876959597500000,6.0655,-24.588009151256085,17.156884167993066,8.857614414685964
1772876959607433000,6.075432861328125,-29.60424507564306,16.009530826902388,11.080069515126944
1772876959617365000,6.085364990234375,-27.27748555111885,13.52515146769285,10.962039348030089
1772876959627297800,6.0952978515625,-18.212298061054945,12.255602656519413,6.599672990322112
1772876959637230800,6.10523095703125,-8.797236226090789,11.207802745592593,0.2815931280955672
1772876959647164000,6.115163818359375,-2.1327122856736183,10.798387247443198,-4.4006312064334745
1772876959657096000,6.125095947265625,1.0820406187027691,10.808320612436532,-6.655132427215576
1772876959667029000,6.135029052734375,1.1039864930510521,10.175892477715015,-7.564734996807575
1772876959676961800,6.1449619140625,-0.7215232992351055,9.8552155857265,-6.565550940489769
1772876959686894800,6.154894775390625,-3.5559652193933724,9.04520502474308,-4.061181517174839
1772876959696827000,6.164826904296875,-7.330726334446668,7.1871724345147605,-0.91645462744385
1772876959706760000,6.174760009765625,-10.111702621877193,5.465324092233181,2.358475097736716
1772876959716693000,6.18469287109375,-9.759361010080575,4.415536806881428,4.038888729085028
1772876959726625800,6.194625732421875,-7.100127772790193,3.154530783125758,3.8144793774574994
1772876959736558000,6.20455810546875,-3.340497591373324,1.713714720186591,2.127205797211826
1772876959746491000,6.214490966796875,0.7734417025208473,0.05907470478117466,0.23788477314189074
1772876959756424000,6.224423828125,4.860333415013551,-1.8402625402599573,-1.7350247808493673
1772876959766357000,6.23435693359375,8.862122247499228,-3.6144495570659636,-3.853889012303948
1772876959776289000,6.2442890625,12.11623393331766,-5.247472199425101,-5.378180061787367
1772876959786222000,6.25422216796875,13.82448980357647,-7.332769822973012,-5.63668077584803
1772876959796155000,6.26415478515625,14.283658635932206,-9.209944336044789,-4.471181537213921
1772876959806086700,6.274086669921875,13.553603655195236,-10.265456428784132,-2.259337554897368
1772876959816019700,6.284019775390625,11.590615483498572,-10.768509995573758,0.07959960641562938
1772876959825952800,6.293952880859375,8.71922242756188,-10.451553000891208,1.896735538110137
1772876959835885800,6.3038857421875,5.625453279390931,-9.882322203838825,3.0869770038127897
1772876959845817900,6.31381787109375,3.211740863078832,-9.560510170340537,3.708668640464544
1772876959855751000,6.3237509765625,1.9599977577090262,-9.130699534416198,3.5599493205934762
1772876959865683700,6.33368359375,2.1145301477730274,-8.538225224420428,2.4151440565504134
1772876959875616800,6.34361669921875,3.518624207514524,-8.087754662305116,0.7231723085511476
1772876959885548800,6.353548828125,5.055915023824572,-7.9413699228614565,-1.0334951989814638
1772876959895481900,6.36348193359375,5.821316627752781,-8.31604377797544,-1.9592412402532993
1772876959905415000,6.373414794921875,5.780892847427725,-8.591630651393531,-2.008886291779578
1772876959915347700,6.38334765625,5.356188010209799,-8.192727194908262,-2.0473355571612712
1772876959925279700,6.39327978515625,4.882859719598293,-7.652166027501225,-2.4433786557793615
1772876959935212800,6.403212890625,4.337863784614205,-7.051202121579647,-3.0884140508785842
1772876959945145900,6.413145751953125,3.7254140235602855,-6.4565218259721995,-3.3476731820911168
1772876959955079000,6.423078857421875,3.144166625499725,-6.278920110487937,-3.199238524380326
1772876959965011000,6.433010986328125,3.071694094485044,-6.268118730488419,-2.9692659856677053
1772876959974944000,6.442944091796875,3.604454817274213,-6.032105158045888,-2.9500881147280333
1772876959984876800,6.452876708984375,4.447519506597518,-5.657787861284613,-3.067261664995551
1772876959994809900,6.462809814453125,5.081445186400413,-6.018631928488611,-2.7944734823852775
1772876960004742000,6.472741943359375,5.776714684960246,-6.586646335488558,-1.9819030077859758
1772876960014675000,6.482675048828125,6.42949645640254,-6.834410551479459,-1.2557257452651858
1772876960024608000,6.49260791015625,6.717221511381864,-6.791424811711907,-0.7240079556576907
1772876960034540000,6.5025400390625,6.898790376931428,-6.382938118845224,0.038464755211770535
1772876960044472800,6.512472900390625,7.685182746440172,-5.04631542083025,-0.2206521910510957
1772876960054406000,6.522406005859375,8.727997854691743,-3.2134938442260026,-0.3469903138965368
1772876960064339000,6.5323388671875,8.053399972760676,-2.133109760558605,0.897796980985999
1772876960074271000,6.54227099609375,6.62996525273323,-0.0724661012738943,1.6189619683027265
1772876960084204000,6.5522041015625,4.169683392947912,3.302209069511294,3.0832898397326467
1772876960094136800,6.56213671875,-0.457398315551877,8.010716430810094,4.814911095748841
1772876960104070000,6.57206982421875,-6.898853505295515,13.029258294051886,7.126183420544862
1772876960114002000,6.582001953125,-15.32428880136013,16.68607633576989,8.936564617282151
1772876960123935000,6.59193505859375,-22.86137591278553,20.718413451254367,9.480236610186099
1772876960133868000,6.601867919921875,-27.281313000452517,23.984450552666186,8.856476350566744
1772876960143801000,6.611801025390625,-26.294389875292776,23.450246645331383,6.620820992290973
1772876960153732900,6.62173291015625,-21.102848821926116,20.577992588651178,2.4356518609195947
1772876960163665700,6.631665771484375,-15.106895758235453,16.93800760831237,-1.345099288328737
1772876960173598700,6.6415986328125,-9.47337081606984,13.560430870866774,-3.481565519708395
1772876960183531800,6.65153173828125,-5.373561169815063,10.14419502468109,-3.2359637424483894
1772876960193463800,6.6614638671875,-3.7860505708307026,6.423419766837358,-0.6788442873291671
1772876960203396900,6.67139697265625,-4.298723614358901,3.208362911078334,3.045644584210217
1772876960213330000,6.681329833984375,-7.682868039757013,4.93448878454864,5.429429772031307
1772876960223262700,6.6912626953125,-11.554767925047873,9.014960108605028,3.8394115741401906
1772876960233194800,6.70119482421875,-11.980112813735008,9.855354701936244,0.9980803328596055
1772876960243127800,6.7111279296875,-9.574482581591605,8.675463949856162,-1.9219835227437316
1772876960253060900,6.721060791015625,-7.087232635381818,7.094624499198794,-3.0449364359408615
1772876960262994000,6.730993896484375,-5.4151428880035875,5.474155633464456,-2.5663456947565075
1772876960272926000,6.740926025390625,-3.805408766773343,3.5525329068571327,-1.9618194201782344
1772876960282858800,6.750858642578125,-1.6295897453010082,1.795868102738261,-1.5146664581783116
1772876960292792300,6.760792236328125,0.7301999421656131,0.3839905495136976,-1.7454186029613017
1772876960302724400,6.770724365234375,3.2215561546504494,-1.0129238278567791,-2.548209734085202
1772876960312657400,6.780657470703125,5.648201702293753,-2.4066443776220083,-2.978203909882903
1772876960322590500,6.790590576171875,7.630584310290217,-3.7187212479233738,-3.1878689891040324
1772876960332523300,6.800523193359375,8.81058729057312,-4.9754725368440145,-3.020173166084289
1772876960342455000,6.810455078125,9.217051537701487,-6.043128071841597,-2.389835720031708
1772876960352388000,6.82038818359375,9.093728524893521,-6.667461747434735,-1.3497171573877333
1772876960362321200,6.830321044921875,8.694629838097095,-7.689971149760484,-0.07295490770414471
1772876960372254500,6.84025439453125,8.854221265116333,-8.764480788436531,0.6739553462438285
1772876960382186200,6.850186279296875,10.164099164068698,-8.83270384531319,0.7739042054660618
1772876960392119300,6.860119384765625,11.553809309148788,-8.902714370128512,0.7840100044168531
1772876960402052000,6.870052001953125,12.169635853159427,-9.10907923876047,0.914418883832544
1772876960411985200,6.879985107421875,11.65080604056716,-8.923001371353864,1.1505581284813582
1772876960421917200,6.889917236328125,10.217378334313631,-8.591427237775921,1.2205192611970006
1772876960431850200,6.899850341796875,8.160664415693283,-8.110533480346202,1.203627455367893
1772876960441783300,6.909783203125,5.659039907172322,-7.585280941230058,1.1130956821799278
1772876960451716000,6.919716064453125,3.3983997452437875,-6.854647283822298,0.85373908194229
1772876960461648100,6.929648193359375,2.3517957661032676,-6.599930179953574,0.3533279924854636
1772876960471581200,6.939581298828125,2.075809664234519,-6.997407403028011,-0.06253229788914322
1772876960481514200,6.94951416015625,2.3952210663318634,-7.457648833051324,-0.734219406940043
1772876960491447300,6.959447265625,2.776449165394902,-7.876538261988759,-1.5914244114272296
1772876960501379300,6.96937939453125,2.83818519833982,-8.13735718986392,-2.3687236661590636
1772876960511312100,6.97931201171875,2.564351306068897,-8.094085034370423,-2.6692759078770876
1772876960521245200,6.9892451171875,2.2945739957123994,-8.049642081531882,-2.9327883126199246
1772876960531177200,6.99917724609375,2.2868764269471167,-7.772745294559002,-2.9382825261220336
1772876960541110300,7.0091103515625,2.513731710422039,-7.266616558107733,-3.009347528426349
1772876960551043300,7.019043212890625,3.0763655934274197,-6.8546379314720625,-3.2430808809772134
1772876960560976400,7.028976318359375,4.003298068004846,-6.0985302255898715,-3.506409161324799
1772876960570908400,7.038908447265625,4.759757656064629,-5.7915966122716664,-3.73894570530653
1772876960580841200,7.04884130859375,5.575763658070564,-5.815711647352576,-3.7406472485274076
1772876960590774300,7.058774169921875,6.16354542633593,-5.859893903428316,-3.4368335207954046
1772876960600707300,7.068707275390625,6.357056074091791,-6.180802266085148,-2.7863924672603604
1772876960610639400,7.078639404296875,6.2290077863276005,-5.8512119998008005,-1.8263066417522726
1772876960620572400,7.088572509765625,6.261964299511909,-4.381759040442109,-1.062596498042345
1772876960630505200,7.098505126953125,4.777615384316444,-2.5798387980580326,0.21080153590515255
1772876960640438300,7.108438232421875,3.2683424557447434,0.7758785742789507,0.10032236870974302
1772876960650370300,7.118370361328125,1.9910230105698108,5.192719449496269,0.38186785827130076
1772876960660303400,7.128303466796875,-0.693425916519761,9.39509690530002,0.9370695454493164
1772876960670236400,7.138236328125,-5.393804916420579,12.925925345349311,2.988757160340249
1772876960680169200,7.148169189453125,-12.45557110211253,15.947265217125414,5.879418103587627
1772876960690101200,7.158101318359375,-19.374698164629937,18.254687588495013,7.209799861386418
1772876960700034000,7.168033935546875,-26.298303833866118,19.90138745855093,9.284982333633303
1772876960709967000,7.177967041015625,-27.77769600343704,18.695505940645933,8.496533616116642
1772876960719900400,7.187900390625,-23.28198851225376,15.60721025545001,4.697172605074942
1772876960729832200,7.197832275390625,-16.363407393181323,12.73181848526597,1.0919294139020144
1772876960739765200,7.20776513671875,-9.139152889984846,10.368861858201026,-1.0634880400545894
1772876960749698000,7.217697998046875,-3.6640620214968918,7.5456281452775,-1.0257779026024043
1772876960759631000,7.227631103515625,-0.1918015057504177,3.695932493010163,1.6576396356128156
1772876960769563100,7.237563232421875,-0.5877122101604938,1.377345753547549,5.499907914358377
1772876960779496200,7.24749609375,-5.396137158760428,3.8620477688401937,6.91877927199304
1772876960789429200,7.25742919921875,-8.955282177233695,7.55258512480855,5.2429374786049125
1772876960799361300,7.267361328125,-10.138556726533174,8.382115794298052,2.6158418393313885
1772876960809294300,7.27729443359375,-10.514956090265512,8.665809986326098,-0.31538010075464845
1772876960819227100,7.28722705078125,-11.372072101294993,9.6825524956882,-2.202574195798486
1772876960829160200,7.29716015625,-11.902397121369837,9.837096576189994,-3.096232323414087
1772876960839092200,7.30709228515625,-10.877243926537036,8.172689200007914,-3.514389930945635
1772876960849025300,7.317025390625,-7.6447203876703975,6.292691446208954,-3.618762159568071
1772876960858958300,7.326958251953125,-3.685990360188484,3.609161972051859,-3.7598008618086576
1772876960868891100,7.33689111328125,0.04374211109280586,0.9983113651365041,-3.7953798324510455
1772876960878823200,7.3468232421875,2.6887001547932625,-0.6612725364118814,-3.76725643851161
1772876960888756200,7.356756103515625,4.701093285650015,-2.177299615418911,-3.602805296501517
1772876960898689300,7.366689208984375,6.448050350224971,-3.6557074501276015,-3.3098528622627255
1772876960908622300,7.376622314453125,8.481980190107226,-5.163150825184584,-2.8291382607921958
1772876960918554400,7.386554443359375,10.407192465639113,-6.348985580360889,-1.9640487866654992
1772876960928487400,7.3964873046875,11.292325779885052,-7.102458846086264,-1.4139673651106655
1772876960938420200,7.406420166015625,11.380000556206703,-7.128281269606948,-0.9258226136393845
1772876960948353300,7.416353271484375,10.850950962895155,-6.947337257957458,-0.283526580376178
1772876960958285300,7.426285400390625,10.415919377452134,-6.892256591248512,0.33427287114262577
1772876960968218400,7.43621826171875,10.654314292073249,-6.935922714495659,1.220918635778129
1772876960978151400,7.4461513671875,11.155368794000148,-7.373959911495446,2.0414538056463
1772876960988084200,7.456084228515625,11.154853245693445,-7.84531660977304,2.6860592848956584
1772876960998016300,7.466016357421875,10.592298857665062,-8.096075915926694,3.1874995712697505
1772876961007949300,7.47594921875,9.327371276551485,-8.308498769423364,3.1120898177593945
1772876961017882400,7.48588232421875,7.880894703632593,-7.986193983972072,2.142727775992453
1772876961027814100,7.495814208984375,6.511196834489703,-7.600327119192481,0.8989689473748207
1772876961037747200,7.505747314453125,5.336078119117022,-7.609875284260511,-0.5418732729189097
1772876961047680300,7.51568017578125,4.552307914805412,-7.392085350772738,-1.69103337117061
1772876961057613000,7.525613037109375,3.9500954701274633,-7.328977444952726,-2.396045826718211
1772876961067545000,7.535545166015625,3.1742315088957547,-7.52254011515677,-2.5149869711801407
1772876961077478100,7.54547802734375,2.2133558481842277,-7.612117510229349,-2.4503818125396966
1772876961087411200,7.5554111328125,1.134542959356308,-7.719114826658368,-2.346949056724459
1772876961097344300,7.56534423828125,0.45461073065996166,-7.450310160726309,-2.692470028720796
1772876961107276300,7.5752763671875,0.6563000086963177,-6.7867363616347305,-3.372041315150261
1772876961117209000,7.585208984375,1.7397943333387373,-6.65642948128879,-4.630220006525517
1772876961127142100,7.59514208984375,3.37345994977653,-6.487968519115448,-5.268211036071181
1772876961137075200,7.6050751953125,4.681674883952737,-6.496145980352163,-5.2950283158481115
1772876961147007200,7.61500732421875,5.51553159994781,-6.264416953361034,-5.0035184816330665
1772876961156940300,7.624940185546875,5.728301659446954,-6.302991306427121,-4.3878848298460245
1772876961166873300,7.634873291015625,5.6937517395913595,-5.77762069388926,-3.6189594357058406
1772876961176806100,7.64480615234375,4.896667880198359,-4.954399353677034,-3.0547353608995675
1772876961186738200,7.65473828125,3.808313840565085,-4.599432654073834,-2.5548934496328233
1772876961196671200,7.664671142578125,4.338814801728725,-3.194918907615542,-3.024104952575266
1772876961206604300,7.674604248046875,5.693576967546344,-2.583372817403078,-2.6356463177368044
1772876961216536300,7.684536376953125,5.461428838360309,-1.9184148704767225,-0.8109180312171578
1772876961226469400,7.694469482421875,3.7066479482918977,1.0919020875036716,0.9826510007984935
1772876961236402200,7.704402099609375,0.89796298520267,5.045740835812688,2.9742773840889334
1772876961246335200,7.714335205078125,-3.327951998054981,8.627422095742821,4.861379709196091
1772876961256267300,7.724267333984375,-9.575456395059824,12.250583951574564,6.460746165668964
1772876961266200300,7.734200439453125,-16.703428452587126,16.04255631366968,6.18206483336687
1772876961276133400,7.74413330078125,-22.688352757263182,17.83978810597658,6.5177113309502595
1772876961286066200,7.754066162109375,-28.257588474869728,18.477765691518783,8.424385494750737
1772876961295997200,7.7639970703125,-31.50306443428993,18.271043680012227,8.78730870631635
1772876961305930200,7.77393017578125,-29.550714560985565,17.465729167890547,6.652806030094623
1772876961315863000,7.783863037109375,-23.570775058984754,16.138296323025227,3.5225384583488104
1772876961325796000,7.793796142578125,-16.602287460970878,14.071797507971525,0.5509238637283445
1772876961335728000,7.80372802734375,-10.807255613553524,11.892122395592928,-0.9768542972184717
1772876961345661200,7.8136611328125,-7.134725623440742,9.435931019991635,-0.5683395473010838
1772876961355594200,7.82359423828125,-5.971546936708688,7.11799894504547,0.9395886886633932
1772876961365527000,7.833527099609375,-6.813008867010474,6.154137546521425,2.291169594096392
1772876961375459000,7.843458984375,-7.8291990031868215,5.701200302031636,2.7936721028745173
1772876961385392000,7.85339208984375,-7.400851425552368,4.966776604691147,2.2904199447728693
1772876961395325200,7.8633251953125,-5.732210941845178,4.117330105376244,1.14297366470173
1772876961405258200,7.87325830078125,-3.87384108248651,3.415901499664783,0.13359525436684488
1772876961415190300,7.883190185546875,-2.226371397101879,2.6946219460576772,-0.6475719278395176
1772876961425123300,7.893123291015625,-1.3533435311913489,1.9350766669422388,-1.3085364212155342
1772876961435056000,7.90305615234375,-0.46669455168545243,0.6934995662778616,-1.820367899353057
1772876961444989200,7.9129892578125,1.5899761123150586,-0.5901970127135515,-2.2529886242620645
1772876961454921200,7.922921142578125,4.463602041870355,-1.8156436473101376,-3.0260379664644597
1772876961464854300,7.932854248046875,7.572733009824156,-2.975035216718912,-3.78434873534888
1772876961474787300,7.942787353515625,10.267141020870207,-4.236000323942303,-3.7472523458808658
1772876961484719000,7.952718994140625,11.81695638771057,-5.36933332298696,-3.0378923626482486
1772876961494652200,7.962652099609375,12.274861483740805,-6.175094409832358,-2.6862469164222476
1772876961504585000,7.9725849609375,12.186065594434737,-6.628275399950146,-2.168941098526865
1772876961514518000,7.98251806640625,11.699027927422522,-6.894962343075871,-1.463734435581416
1772876961524450000,7.992449951171875,11.706060894799231,-6.868228649929166,-1.5310324865676461
1772876961534383000,8.002383056640625,10.871284141349792,-6.808758808350563,-1.0000615698046982
1772876961544315100,8.012315185546875,10.094891772329806,-6.241066472911834,-0.8931935788437724
1772876961554248200,8.022248291015625,9.223361451500654,-5.515366180253029,-0.7203166999243199
1772876961564181000,8.032180908203125,8.159457962512969,-4.774025835391879,-0.9886325594261288
1772876961574114000,8.042114013671876,7.383754160279035,-4.481475552213192,-1.2614537675231694
1772876961584046000,8.052046142578124,7.2035729496955865,-4.478411488467454,-1.2943142729870973
1772876961593979100,8.061979248046875,7.611859151554107,-4.738092936745286,-1.205939093311131
1772876961603912200,8.071912109375,7.911023299914598,-5.021550397408008,-1.2077692313477397
1772876961613844200,8.08184423828125,7.851289838963747,-5.202077060428262,-1.212299422123283
1772876961623777000,8.091777099609375,8.040223680323361,-5.22149487760365,-1.5062635176226495
1772876961633710000,8.1017099609375,8.31883896165192,-5.038351894605159,-1.9211431263968348
1772876961643643100,8.11164306640625,8.554400698673724,-4.753774490001797,-2.387899345141649
1772876961653575200,8.1215751953125,8.188027054393292,-4.561691829222441,-2.3214707704663273
1772876961663508200,8.13150830078125,7.941253603005409,-4.515382497990131,-2.2352532072156666
1772876961673441300,8.141441162109375,7.751140196472406,-4.409307557103038,-1.8578829526245593
1772876961683374000,8.1513740234375,6.8226073009610175,-4.733308040556311,-0.2388706423740834
1772876961693306000,8.16130615234375,6.642921764940023,-5.93696662171483,2.898723253671825
1772876961703239200,8.1712392578125,4.810552608278393,-8.167193525201082,6.087814185786247
1772876961713172200,8.181172119140625,4.861519409927726,-8.92442526667714,6.808622030228376
1772876961723105300,8.191105224609375,5.489497579503059,-9.289058789291976,5.9241907267719505
1772876961733037300,8.201037353515625,5.658004718905687,-8.070926277101039,2.5827950175151226
1772876961742970000,8.21097021484375,5.388043868675828,-5.9563446914017195,-0.29643720761463044
1772876961752903200,8.220903076171876,4.247342386689782,-4.249420362007617,-2.880382418078184
1772876961762836200,8.230836181640624,1.8449585891216993,-2.4921879871338604,-4.613310957300663
1772876961772768000,8.24076806640625,-0.54482408554852,-0.8093477131605148,-5.112714184889197
1772876961782701000,8.250701171875,-0.7399667184203863,0.6110416478216648,-5.003442493787408
1772876961792634000,8.260634033203125,0.9162304632991551,0.5019201788455248,-3.739631934005022
1772876961802567200,8.270567138671876,2.47521756311059,-0.07682955718040466,-1.273556585510075
1772876961812499000,8.2804990234375,3.512591357091069,0.6892547683149576,1.3873076139830052
1772876961822432000,8.290431884765624,2.5330489898324013,3.1354671862155197,3.1469302449941634
1772876961832365000,8.300364990234375,-1.1611609171688555,6.220938461640477,4.719707969748973
1772876961842297000,8.310297119140625,-7.191494973888993,9.305926337462664,5.132397375002503
1772876961852230100,8.320230224609375,-12.583998744583129,11.573262197637558,3.7153058865219353
1772876961862163000,8.330162841796875,-16.291099697339533,11.018310101306438,2.884481670090556
1772876961872096000,8.340095947265626,-18.38078415766954,9.089448655617236,4.200689648847281
1772876961882028000,8.350028076171874,-18.692286394077538,8.034457371881604,5.544805625227093
1772876961891961000,8.359961181640625,-17.37223255354762,8.390220190298557,3.8627138315334912
1772876961901894100,8.36989404296875,-15.547896481215952,8.788509898799658,0.48598684278503057
1772876961911827200,8.3798271484375,-14.80704771926403,8.8654902626276,-1.6055971675559877
1772876961921759200,8.38975927734375,-14.617977099782228,8.862562977004051,-2.1743650232717395
1772876961931692000,8.399692138671876,-14.032277983009815,8.608797474771738,-1.7903937629804014
1772876961941625000,8.409625,-12.923077554702758,7.767242020967602,-1.2488945840708912
1772876961951558100,8.41955810546875,-11.582514010107516,7.088294711655378,-0.667234805817157
1772876961961490200,8.429490234375,-10.243590633934735,6.883949950674176,0.05609773479700088
1772876961971423200,8.43942333984375,-9.173701056274771,6.744139328923821,1.3480901407077908
1772876961981356000,8.44935595703125,-7.8936559855282304,6.139511639797687,2.300748446563631
1772876961991289000,8.4592890625,-6.241859669116139,5.066868964037299,2.578268187740445
1772876962001221000,8.46922119140625,-4.3699791707992555,4.189633709564805,2.3953968612901866
1772876962011154200,8.479154296875,-2.9017893632441756,3.8925767626166343,1.900322310555726
1772876962021087200,8.489087158203125,-2.0095798270016907,3.898265329647064,1.4675902342267333
1772876962031020300,8.499020263671875,-1.603243005645275,4.096910417681932,1.1977556407250463
1772876962040952300,8.508952392578125,-1.5917033744990825,4.223330227461457,0.8500700380407273
1772876962050885000,8.518885009765626,-0.7867179482012987,4.105075603958964,-0.13423106805235147
1772876962060818200,8.528818115234374,1.2122843706846236,3.4079204377830026,-0.9424090067811309
1772876962070751200,8.538751220703125,4.133538897377252,1.590469448789954,-1.0175050181671976
1772876962080683300,8.548683349609375,7.648133995506167,-1.1607950064659118,-0.40608123916015026
1772876962090616300,8.5586162109375,11.405429596495628,-4.729892679154872,1.0763469371058045
1772876962100549000,8.568549072265625,14.511742584419249,-7.7725927343457935,2.4172487737447024
1772876962110482200,8.578482177734376,15.76638608740568,-9.226933464768528,2.669523160636425
1772876962120414000,8.5884140625,14.886671291077135,-9.100801239758729,1.8219664205908774
1772876962130347000,8.598346923828124,12.2297761413455,-8.27617003274858,1.1386666151575744
1772876962140280300,8.6082802734375,9.216871504959464,-7.433184838402271,0.8368531213320791
1772876962150212000,8.618212158203125,6.743128690576553,-6.7004094927906985,0.4952114749871194
1772876962160145200,8.628145263671875,5.2889095407068725,-6.204199508285522,-0.3051293403752148
1772876962170078000,8.638077880859376,4.936883570730686,-5.735804582422971,-1.3999367939315734
1772876962180011000,8.648010986328124,4.7242701630979775,-5.440228813943267,-2.2488505015440285
1772876962189943000,8.657943115234374,4.720462002986669,-5.429093087422848,-2.9149487045466898
1772876962199876000,8.6678759765625,4.823128012213111,-5.373039191767573,-3.3807360782593485
1772876962209809200,8.67780908203125,4.903889063623548,-5.562596717983484,-3.5941233928740024
1772876962219742000,8.687741943359375,5.285789947381615,-5.896154718855023,-3.3582819621279834
1772876962229674000,8.697674072265626,5.822980761572718,-6.242181156155467,-2.91765270280838
1772876962239607000,8.70760693359375,6.275184431090951,-6.656047788494825,-2.1052239747673274
1772876962249540000,8.7175400390625,6.193230370503664,-7.077170675572752,-1.3572602662436664
1772876962259473200,8.72747314453125,5.867316162383556,-7.333499306291341,-0.9298968773409724
1772876962269405200,8.7374052734375,5.506866647455096,-7.266987144985794,-0.7656542635150253
1772876962279338200,8.747338134765625,5.418733021450042,-6.945577262547612,-0.8487564712241291
1772876962289271000,8.75727099609375,5.501603027838469,-6.605311872991919,-1.1802663073942063
1772876962299205400,8.767205322265625,5.802613096326589,-6.545296672490239,-1.6006844072036444
1772876962309137400,8.777137451171875,6.162527773725986,-6.705435211998224,-1.8009601651802658
1772876962319070500,8.787070556640625,6.132754566752911,-6.847172417896986,-1.7106147083446384
1772876962329003300,8.797003173828125,5.74460982016921,-6.768698600640892,-1.6262671767495571
1772876962338935300,8.806935302734376,5.049173732870817,-6.634151013985276,-1.4645679637961089
1772876962348868400,8.816868408203124,4.184878623992204,-6.080452717107534,-1.0103938709877431
1772876962358801400,8.826801513671874,4.264084847176075,-4.410090231913328,-0.9692847387470305
1772876962368734500,8.836734375,5.2160377812415355,-2.9307085837364193,-2.5052432835400102
1772876962378666500,8.84666650390625,4.9800592801123855,-1.7423311583399772,-2.738672976969182
1772876962388599300,8.856599365234375,3.336650852817297,0.23413316552340982,-1.2300846696607768
1772876962398532400,8.866532470703126,1.2871049261301755,2.69150235273242,0.8232134491667151
1772876962408465400,8.87646533203125,-1.0063689993858336,5.566524705082178,2.643227858906984
1772876962418397400,8.8863974609375,-4.750466096106171,7.854373191931844,4.172142476537823
1772876962428330500,8.89633056640625,-11.020159528565406,9.190148333206773,5.898655888020992
1772876962438263300,8.90626318359375,-18.65179539373517,9.861938756501674,7.8636144830077885
1772876962448196400,8.9161962890625,-23.60815874096155,12.032531567758321,8.478121176591515
1772876962458128400,8.92612841796875,-23.282591738843916,15.000786330556869,5.074519771051406
1772876962468061400,8.9360615234375,-19.433815539509055,15.96732483933568,-0.264468974815309
1772876962477994500,8.945994384765624,-15.038043755805491,15.732916364002227,-3.9072225430846212
1772876962487927600,8.955927490234375,-12.495442509251832,14.188523022210598,-4.978622525307536
1772876962497859300,8.965859375,-12.019375149065256,11.83655774475932,-3.962968395704031
1772876962507792100,8.975792236328125,-13.107730357742309,9.046928195273876,-1.8699486534714698
1772876962517725200,8.98572509765625,-14.697891763496399,6.46793520039022,0.5383652647979558
1772876962527658200,8.995658203125,-15.769886204481123,5.178157840180397,2.521409989964962
1772876962537590300,9.00559033203125,-14.952687193298338,5.256663221618533,2.588617440058291
1772876962547523300,9.0155234375,-12.41398236966133,6.297544731459022,1.075268859545514
1772876962557456100,9.0254560546875,-9.296180603995918,7.418800923740863,-0.97419274985902
1772876962567389200,9.03538916015625,-6.658945848023891,7.770989975324273,-2.320789510203898
1772876962577321200,9.0453212890625,-4.7329754476010795,7.5201184409677975,-2.1583250119663773
1772876962587254300,9.055254150390626,-3.3013784639060497,6.682699064055085,-1.1136381184935569
1772876962597187300,9.065187255859374,-1.983780784356594,5.579532655215263,-0.2010584327869117
1772876962607119400,9.075119384765625,-0.6778899092137813,4.561687153047323,0.4188333879012614
1772876962617052400,9.085052490234375,0.3569908989071846,3.4755911214739084,1.1925447742089628
1772876962626985200,9.094985107421875,1.0900953303426504,2.262488420143723,2.001619807907939
1772876962636918300,9.104918212890626,2.479993691471219,0.7838333326756953,2.4448724014684555
1772876962646850300,9.114850341796876,4.600586500284075,-0.9450491460263728,2.431117870751768
1772876962656783400,9.124783447265624,7.624837875592708,-3.2378689915478227,2.256413922535628
1772876962666716400,9.13471630859375,11.092759485352039,-5.522469874778389,1.779020574442297
1772876962676649200,9.144649169921875,14.195740698504448,-7.426848621118069,1.12905605237782
1772876962686581200,9.154581298828125,15.932785440874099,-8.516727093839645,0.6263409237623214
1772876962696514300,9.164514404296876,15.66914502583742,-8.72550545335412,0.092257647132501
1772876962706447400,9.174447265625,13.870246177101134,-7.9769889332532875,-0.5903615556254983
1772876962716380400,9.18438037109375,11.745568729323148,-6.818792711108922,-0.8769532957259565
1772876962726312400,9.1943125,9.655908818912506,-6.062685589748621,-0.9933734703429042
1772876962736245500,9.20424560546875,7.98616066622436,-5.586227184417844,-1.152756661438942
1772876962746178300,9.21417822265625,6.835535756117105,-5.343718404737115,-1.2963871337383985
1772876962756111400,9.224111328125,6.072542382374405,-5.360945433869958,-1.2026346449382603
1772876962766043400,9.23404345703125,5.539993841031193,-5.511152946472167,-0.9320612157680094
1772876962775976400,9.2439765625,5.274489385688304,-5.645309487983584,-0.7551296546302735
1772876962785909500,9.253909423828125,5.071276259085535,-5.754944167178869,-0.8293184880435466
1772876962795841300,9.26384130859375,5.106017317599058,-5.784070308420062,-0.9761036249816417
1772876962805774300,9.2737744140625,4.991496619927883,-5.630780027371645,-1.0171144114144146
1772876962815707400,9.283707275390626,4.5440755085110665,-5.627482154870033,-0.9304244083464145
1772876962825640400,9.293640380859374,4.322176970660686,-5.9628200248956675,-0.7946187844537198
1772876962835572200,9.303572265625,4.636394311246276,-6.450034217518568,-0.643308571306616
1772876962845505300,9.31350537109375,5.408911300137639,-7.193790975871682,-0.983760861736536
1772876962855438300,9.323438232421875,6.217409702992439,-7.760773701736331,-1.361248166836053
1772876962865371100,9.33337109375,6.612174159976839,-7.893162649053335,-1.5654096802048385
1772876962875303200,9.34330322265625,6.4948009954839945,-7.78910313964188,-1.7461983551621436
1772876962885236200,9.353236328125,6.120901047351956,-7.718963435488939,-1.9636815607883036
1772876962895169300,9.363169189453124,5.4608115832448005,-7.829692339661717,-2.04386934235543
1772876962905102300,9.373102294921875,4.5747243292748925,-7.564905092677473,-1.9611894517116248
1772876962915034400,9.383034423828125,3.8716134695649145,-7.167099952822923,-2.0800952325992283
1772876962924967200,9.39296728515625,3.6453216651916502,-6.846461639279127,-2.381128097441047
1772876962934900200,9.402900146484376,3.6720652952104804,-6.6649114784300325,-2.8055367281913757
1772876962944833300,9.412833251953124,4.097971909433603,-6.100984633004665,-3.1423700974717734
1772876962954765300,9.422765380859374,5.46178247410357,-4.055484766837954,-4.067981552578509
1772876962964698400,9.432698486328125,6.811303816658258,-2.2006278840363023,-5.294219337552786
1772876962974631400,9.44263134765625,5.875078028556704,0.161270758408308,-4.452232506594061
1772876962984564200,9.452564208984375,2.8036908080637453,2.731705768305063,-1.539755306727439
1772876962994496300,9.462496337890625,-1.6149357815265655,5.1049084795743225,2.4911264953821894
1772876963004429300,9.47242919921875,-6.8013131685197346,7.823798020926118,5.10892297591269
1772876963014362400,9.4823623046875,-13.463715878999233,10.043741430807113,6.6720566740095615
1772876963024295400,9.49229541015625,-21.242668796026706,13.170645955860614,8.747377677944302
1772876963034227500,9.5022275390625,-25.575918949365615,18.29147388910055,10.792847148972749
1772876963044160300,9.51216015625,-25.3329729473114,21.65934405604601,9.197849409103393
1772876963054093300,9.52209326171875,-21.579035424578187,22.537354386544227,4.488176511156559
1772876963064025300,9.532025390625,-16.867386842644212,21.717419812917708,0.8636568109750747
1772876963073958400,9.54195849609375,-13.547379666113853,18.779480693405866,-0.9673505558140575
1772876963083891500,9.551891357421875,-12.182160988211631,14.94087985112667,-0.8140363093681633
1772876963093824500,9.561824462890625,-12.355693846821785,11.731261971551179,-0.10897183137238026
1772876963103756500,9.571756591796875,-13.366696935749053,9.231994839811325,0.3614335575297475
1772876963113689300,9.581689453125,-13.474765680801868,7.957343152540922,0.7524890769936143
1772876963123622400,9.591622314453126,-12.207876444226503,7.6669328040003775,0.4186120733007788
1772876963133555500,9.601555419921874,-9.85902082322836,7.630552161586285,-0.6007265900343656
1772876963143487500,9.611487548828125,-7.528914326363801,7.67904994277358,-1.2451216414034365
1772876963153420500,9.621420654296875,-6.018943478655815,7.582749961447715,-1.2380293450549245
1772876963163353300,9.631353271484375,-5.089822554123401,7.261089319118857,-0.6814823807477951
1772876963173286400,9.641286376953126,-3.9108495014101265,6.713651251679659,-0.11037950621321797
1772876963183218200,9.65121826171875,-1.7597575094372033,5.577621268635988,0.45548619832023973
1772876963193151200,9.661151123046874,1.452703484609723,3.6360084779232738,1.0193464082501829
1772876963203084300,9.671084228515625,4.827070612359047,0.8998322862058877,1.7488218355335294
1772876963213017300,9.681017333984375,8.331734683582185,-2.1624200261950492,2.890220213742554
1772876963222949400,9.690949462890625,11.39279924750328,-5.2669174891293045,4.226342853280902
1772876963232882200,9.700882080078125,14.051124137777089,-8.160787749812007,5.090769479584694
1772876963242815200,9.710815185546876,16.176283231592176,-9.771658181595802,3.773528066127002
1772876963252748300,9.720748291015624,17.353299889540672,-9.750037885940074,1.0272945907756685
1772876963262680300,9.730680419921875,17.16240205463171,-9.073541476911306,-1.4936198707573114
1772876963272613400,9.74061328125,15.25934841941595,-8.677254340404271,-3.0346044270187615
1772876963282546200,9.750546142578125,12.24007307895422,-7.994509392374754,-3.656032736559212
1772876963292478200,9.760478271484375,8.69728707460761,-6.9821484590977425,-3.7767587186113
1772876963302410500,9.770410400390626,5.205370841276645,-5.716040143766999,-4.013448875141144
1772876963312343600,9.780343505859374,2.528665075659752,-4.197338292592764,-4.0503316218584775
1772876963322276600,9.790276611328125,0.6653606825083493,-3.0847797860294577,-3.8727822210833427
1772876963332208600,9.800208740234375,0.580341389131546,-3.0124837806254625,-3.7318613000035286
1772876963342141700,9.8101416015625,2.417761983963847,-3.6796360227257012,-3.5923008536219596
1772876963352074500,9.820074462890625,4.925083242821693,-4.66134112097621,-3.426065166282654
1772876963362007600,9.830007568359376,7.020184467503428,-5.851551607018709,-2.9623148513555524
1772876963371939600,9.839939697265624,8.35640033828318,-6.76363021133542,-2.2465150443337856
1772876963381872600,9.84987255859375,8.572253750750422,-6.991330713462829,-1.9191164428748189
1772876963391805700,9.8598056640625,7.987628985211253,-6.700663175290822,-2.0462525842301544
1772876963401738800,9.86973876953125,7.093491111254692,-6.4084776337713,-1.93394108704105
1772876963411670800,9.8796708984375,6.384114761409163,-6.644583560672402,-1.697555466415733
1772876963421603600,9.889603515625,5.970657294392585,-7.010448670908808,-1.4944957768090068
1772876963431536600,9.89953662109375,6.0972249882102005,-7.403492879971862,-1.408621035646647
1772876963441468400,9.909468505859374,6.621047786784172,-7.666307365578413,-1.7125687650218604
1772876963451401500,9.9194013671875,7.181297989523411,-7.403693955501914,-2.009277775315195
1772876963461334800,9.929334716796875,7.237456514596938,-6.749782303246855,-2.3126938820317386
1772876963471267600,9.939267578125,6.3809478218108415,-5.616439951851964,-2.5677204902410504
1772876963481199600,9.94919970703125,5.827527172830701,-4.55195778619349,-2.5541210039556024
1772876963491132400,9.95913232421875,5.527431296578049,-4.548617243593931,-2.7792922798663375
1772876963501065500,9.9690654296875,5.0438820562034845,-4.473658740982413,-2.4359954136602577
1772876963510998500,9.97899853515625,4.892309684988856,-4.7597453811049455,-2.457419748352468
1772876963520930600,9.9889306640625,5.461451634714007,-3.6828427098125216,-2.719139716720581
1772876963530863600,9.998863525390625,6.337089390861988,-2.025038092896342,-3.016153409048915
