time,seconds_elapsed,z,y,x
1772876953596884500,0.064884521484375,-0.1962861567735672,-0.36564430594444275,-0.6879855990409851
1772876953606816500,0.07481640625,-0.12249049544334412,-0.43917709589004517,-0.6587661504745483
1772876953616749600,0.08474951171875,-0.0038189729675650597,-0.5682413578033447,-0.6495729684829712
1772876953626682600,0.0946826171875,0.10895790904760361,-0.6944887638092041,-0.6581552624702454
1772876953636614700,0.10461474609375,0.21401429176330566,-0.7695707082748413,-0.6695312261581421
1772876953646547500,0.11454736328125,0.26587510108947754,-0.7749857306480408,-0.6320128440856934
1772876953656480500,0.12448046875,0.23237039148807526,-0.6318192481994629,-0.5190753936767578
1772876953666413600,0.13441357421875,0.060734719038009644,-0.4470965266227722,-0.3949001729488373
1772876953676345600,0.144345703125,-0.1904682070016861,-0.3754156827926636,-0.3134748339653015
1772876953686278700,0.154278564453125,-0.36286208033561707,-0.4815988540649414,-0.2569926381111145
1772876953696211500,0.16421142578125,-0.3028743863105774,-0.6182928085327148,-0.3030959665775299
1772876953706144500,0.17414453125,-0.07523749768733978,-0.7363648414611816,-0.45971885323524475
1772876953716076500,0.18407666015625,0.022666696459054947,-0.8713628649711609,-0.6415877342224121
1772876953726009600,0.194009521484375,0.0034786208998411894,-0.9414277076721191,-0.8090862035751343
1772876953735942700,0.203942626953125,-0.07353679835796356,-0.9779281616210938,-0.9503125548362732
1772876953745875700,0.213875732421875,-0.1901198774576187,-0.996355414390564,-1.1352919340133667
1772876953755807700,0.223807861328125,-0.11031559109687805,-1.0000030994415283,-1.3284376859664917
1772876953765740500,0.233740478515625,0.13270477950572968,-0.7315179109573364,-1.4298986196517944
1772876953775673600,0.243673583984375,0.39688238501548767,-0.20917212963104248,-1.4368715286254883
1772876953785606700,0.253606689453125,0.561944842338562,0.20646661520004272,-1.257799744606018
1772876953795538700,0.26353857421875,0.627849817276001,0.5212381482124329,-0.9872420430183411
1772876953805471700,0.2734716796875,0.635326087474823,0.6800816059112549,-0.7947288155555725
1772876953815404500,0.283404541015625,0.50105220079422,0.7468401193618774,-0.7377195954322815
1772876953825337600,0.293337646484375,0.2911463677883148,0.7171453237533569,-0.8051984906196594
1772876953835269600,0.30326953125,0.13224752247333527,0.5907865762710571,-0.8553453087806702
1772876953845202700,0.31320263671875,0.023930367082357407,0.6658802628517151,-0.8811134696006775
1772876953855135700,0.3231357421875,0.11779161542654037,0.70890873670578,-0.9571754932403564
1772876953865067500,0.333067626953125,0.25168630480766296,0.7102764844894409,-1.091550588607788
1772876953875000600,0.34300048828125,0.3225913643836975,0.5775600075721741,-1.2166856527328491
1772876953884933400,0.352933349609375,0.2547718286514282,0.41342034935951233,-1.3671153783798218
1772876953894866700,0.36286669921875,0.1929263174533844,0.27243179082870483,-1.5105348825454712
1772876953904798500,0.372798583984375,0.17100369930267334,0.2880682647228241,-1.6345369815826416
1772876953914731500,0.3827314453125,-0.036255743354558945,-0.30901670455932617,-1.8433420658111572
1772876953924664600,0.39266455078125,-0.2709902226924896,0.11767949163913727,-1.9757499694824219
1772876953934597400,0.402597412109375,-0.22797724604606628,0.16000059247016907,-2.0507090091705322
1772876953944529400,0.412529296875,0.17623761296272278,0.3565983176231384,-2.1689064502716064
1772876953954462500,0.42246240234375,0.3021523952484131,-0.6322184801101685,-3.04665470123291
1772876953964395500,0.4323955078125,0.8693630695343018,-0.9338840246200562,-3.265889883041382
1772876953974328600,0.44232861328125,0.8662219047546387,-0.852747917175293,-3.2746341228485107
1772876953984260600,0.452260498046875,0.8188373446464539,-0.547826886177063,-3.054065465927124
1772876953994193700,0.462193603515625,0.8407343626022339,-0.42420080304145813,-2.679741859436035
1772876954004126500,0.47212646484375,0.853794276714325,-0.0774678960442543,-2.230714797973633
1772876954014059500,0.4820595703125,0.8033441305160522,0.4960896372795105,-1.754004716873169
1772876954023991600,0.491991455078125,0.7873467803001404,0.9438540935516357,-1.2776986360549927
1772876954033924600,0.501924560546875,0.8022857904434204,1.2166560888290405,-0.9694651961326599
1772876954043857700,0.511857666015625,0.8166290521621704,1.3135820627212524,-0.8742840886116028
1772876954053790500,0.52179052734375,0.8560512661933899,1.2265560626983643,-0.9118404984474182
1772876954063722500,0.531722412109375,0.8920977115631104,1.0756385326385498,-0.9575384855270386
1772876954073655600,0.541655517578125,0.8520586490631104,0.9330587387084961,-0.9458988904953003
1772876954083588600,0.551588623046875,0.8005478382110596,0.680160403251648,-0.8883770108222961
1772876954093521700,0.561521728515625,0.799468457698822,0.4761574864387512,-0.8208504319190979
1772876954103453700,0.57145361328125,0.8333989977836609,0.22263014316558838,-0.807103157043457
1772876954113386800,0.58138671875,0.9037666320800781,-0.04853584244847298,-0.8944841623306274
1772876954123319600,0.591319580078125,1.0415880680084229,-0.08763477951288223,-1.0437934398651123
1772876954133252600,0.601252685546875,1.0791575908660889,0.10776561498641968,-1.1368733644485474
1772876954143184600,0.6111845703125,1.0457794666290283,0.2675448954105377,-1.1233432292938232
1772876954153117700,0.62111767578125,0.9218031167984009,0.3205268681049347,-0.7452547550201416
1772876954163050800,0.63105078125,0.8508946299552917,0.27319690585136414,-0.3041614890098572
1772876954172983600,0.640983642578125,0.6678768396377563,0.18751317262649536,0.10295408219099045
1772876954182915600,0.65091552734375,0.473034143447876,0.12696407735347748,0.3196469843387604
1772876954192848600,0.6608486328125,0.3136889338493347,0.056951966136693954,0.41337454319000244
1772876954202781700,0.67078173828125,0.2146177589893341,-0.059603407979011536,0.3924354314804077
1772876954212714800,0.68071484375,0.21141557395458221,-0.08349356055259705,0.2826026678085327
1772876954222646500,0.690646484375,0.23849725723266602,0.04965783283114433,0.15648148953914642
1772876954232579600,0.70057958984375,0.22629278898239136,0.22778256237506866,0.0008383630774915218
1772876954242512600,0.7105126953125,0.1412825584411621,0.43323320150375366,-0.1630038321018219
1772876954252445700,0.72044580078125,0.05371862277388573,0.7309492826461792,-0.26982083916664124
1772876954262377500,0.73037744140625,-0.044493433088064194,0.9859054088592529,-0.26018285751342773
1772876954272310500,0.740310546875,-0.18953104317188263,1.056125521659851,-0.1594061702489853
1772876954282243600,0.75024365234375,-0.41668272018432617,1.0382237434387207,-0.01398905273526907
1772876954292175600,0.760175537109375,-0.7068681716918945,0.8802855014801025,0.18987220525741577
1772876954302108400,0.7701083984375,-0.9201740622520447,0.5610969066619873,0.36924248933792114
1772876954312041500,0.78004150390625,-0.8412907123565674,0.2798074185848236,0.4913769066333771
1772876954321974500,0.789974609375,-0.38206666707992554,0.2571609616279602,0.3860768675804138
1772876954331906600,0.799906494140625,0.02328375168144703,0.5621137022972107,0.0034376082476228476
1772876954341839600,0.809839599609375,0.4008432924747467,0.8624519109725952,-0.3604218363761902
1772876954351772700,0.819772705078125,0.6243230104446411,0.8063939809799194,-0.8178074955940247
1772876954361705500,0.82970556640625,0.5614233613014221,0.6113145351409912,-1.4352449178695679
1772876954371637200,0.83963720703125,0.20492412149906158,0.5032375454902649,-2.0679686069488525
1772876954381570600,0.849570556640625,-0.35218867659568787,0.46115270256996155,-2.5730109214782715
1772876954391503600,0.859503662109375,-0.9360561370849609,0.17254380881786346,-2.866633176803589
1772876954401436700,0.869436767578125,-1.3003273010253906,-0.505911111831665,-2.7626750469207764
1772876954411368400,0.879368408203125,-1.3054921627044678,-1.1234691143035889,-2.268050193786621
1772876954421301200,0.88930126953125,-1.1259278059005737,-1.2238165140151978,-1.611493706703186
1772876954431234300,0.899234375,-0.7856908440589905,-1.364256501197815,-0.9720748066902161
1772876954441167400,0.90916748046875,-0.5662128329277039,-1.2266697883605957,-0.35549259185791016
1772876954451099400,0.919099365234375,-0.5383201837539673,-0.8072866797447205,0.012605806812644005
1772876954461032400,0.929032470703125,-0.5188133120536804,-0.5880797505378723,0.07616347819566727
1772876954470965500,0.938965576171875,-0.5465570688247681,-0.6447888612747192,0.038066692650318146
1772876954480898300,0.948898193359375,-0.666338324546814,-0.8342482447624207,-0.04237115755677223
1772876954490830300,0.958830322265625,-0.804036557674408,-1.0380886793136597,-0.1586706042289734
1772876954500763400,0.968763427734375,-0.9233275055885315,-1.437700867652893,-0.3033641278743744
1772876954510696400,0.978696533203125,-1.07877779006958,-1.6654067039489746,-0.41222083568573
1772876954520629500,0.98862939453125,-1.211532711982727,-1.71945321559906,-0.45642054080963135
1772876954530561500,0.9985615234375,-1.164750576019287,-1.6212427616119385,-0.42706185579299927
1772876954540494300,1.008494384765625,-0.9439430832862854,-1.3398778438568115,-0.3368928134441376
1772876954550427400,1.018427490234375,-0.5711252689361572,-0.7736112475395203,-0.25139734148979187
1772876954560360400,1.0283603515625,-0.18117430806159973,-0.06262077391147614,-0.13485927879810333
1772876954570292500,1.03829248046875,0.09265909343957901,0.5135477185249329,-0.24065788090229034
1772876954580225500,1.0482255859375,0.5007951855659485,0.9889920353889465,-0.6094833016395569
1772876954590158300,1.058158447265625,0.6069575548171997,1.0441982746124268,-0.7296938896179199
1772876954600091400,1.06809130859375,0.41480809450149536,0.6590210199356079,-0.48017752170562744
1772876954610023400,1.0780234375,0.08918233960866928,0.079947829246521,-0.1987767517566681
1772876954619956500,1.08795654296875,0.23594887554645538,-0.5355667471885681,-0.1351253241300583
1772876954629889500,1.0978896484375,0.1862124800682068,-0.8773006796836853,-0.33145835995674133
1772876954639822600,1.107822509765625,0.17884564399719238,-1.1523252725601196,-0.44181761145591736
1772876954649754600,1.117754638671875,0.2552165985107422,-1.190906286239624,-0.5161043405532837
1772876954659687400,1.1276875,0.40240922570228577,-0.9385530948638916,-0.5554141998291016
1772876954669620500,1.137620361328125,0.47015392780303955,-0.5479406118392944,-0.567701518535614
1772876954679553500,1.147553466796875,0.3576444089412689,-0.10138068348169327,-0.6183359622955322
1772876954689485600,1.157485595703125,0.05697593465447426,0.32872888445854187,-0.7314217686653137
1772876954699418600,1.167418701171875,-0.23283058404922485,0.7961519956588745,-0.8712640404701233
1772876954709351400,1.177351318359375,-0.3338264524936676,1.307389736175537,-0.9311175346374512
1772876954719284500,1.187284423828125,-0.2715771794319153,1.6579866409301758,-0.7286065220832825
1772876954729216500,1.197216552734375,0.11640197783708572,1.8487014770507812,-0.38999277353286743
1772876954739149600,1.207149658203125,0.6101387143135071,1.8475139141082764,-0.24539564549922943
1772876954749082600,1.21708251953125,1.0015791654586792,1.5537198781967163,-0.3660498857498169
1772876954759015700,1.227015625,1.1921947002410889,0.32113513350486755,-1.3407175540924072
1772876954768947500,1.236947509765625,1.0399361848831177,-1.8946012258529663,-3.5021181106567383
1772876954778880300,1.24688037109375,0.9961618185043335,-2.838129758834839,-3.029331922531128
1772876954788813300,1.256813232421875,1.1352884769439697,-2.6658456325531006,-1.6227716207504272
1772876954798746400,1.266746337890625,1.1165106296539307,-1.6267567873001099,-0.6438540816307068
1772876954808678400,1.276678466796875,0.7424166202545166,-0.9112130999565125,-0.10900238156318665
1772876954818611500,1.286611572265625,0.23127104341983795,-0.5844858288764954,-0.006994792725890875
1772876954828544300,1.296544189453125,-0.20700670778751373,-0.35482892394065857,0.10885138064622879
1772876954838477300,1.306477294921875,-0.4547936022281647,-0.26845303177833557,0.5146580338478088
1772876954848409300,1.316409423828125,-0.4902951419353485,-0.2188710868358612,0.9383336305618286
1772876954858342400,1.32634228515625,-0.45164042711257935,-0.08126050233840942,1.2720109224319458
1772876954868275500,1.336275390625,-0.3842294216156006,-0.16933709383010864,1.516756534576416
1772876954878207500,1.34620751953125,-0.41808220744132996,-0.4383834898471832,1.5957181453704834
1772876954888140500,1.356140625,-0.5302973985671997,-0.5107538104057312,1.4541295766830444
1772876954898073300,1.3660732421875,-0.6505085229873657,-0.5285370945930481,1.3485441207885742
1772876954908006400,1.37600634765625,-0.65996915102005,-0.42092299461364746,1.1928447484970093
1772876954917938400,1.3859384765625,-0.5777102112770081,-0.34119194746017456,0.8323579430580139
1772876954927871500,1.39587158203125,-0.47781476378440857,-0.32413598895072937,0.32311388850212097
1772876954937804500,1.405804443359375,-0.2747870981693268,-0.29302626848220825,-0.15553100407123566
1772876954947737300,1.4157373046875,-0.030498521402478218,-0.1498134583234787,-0.5854954123497009
1772876954957669400,1.42566943359375,0.14383013546466827,-0.060624729841947556,-0.9271824359893799
1772876954967602400,1.4356025390625,0.21771714091300964,-0.06552228331565857,-1.2482044696807861
1772876954977535500,1.445535400390625,0.14345090091228485,-0.04843277856707573,-1.537090539932251
1772876954987468500,1.455468505859375,-0.12498055398464203,-0.011875035241246223,-1.6621997356414795
1772876954997400600,1.465400634765625,-0.5154247283935547,-0.005525260232388973,-1.643121600151062
1772876955007333600,1.475333740234375,-0.6381540894508362,-0.03469805791974068,-1.547113060951233
1772876955017266400,1.485266357421875,-0.5530093908309937,0.06291158497333527,-1.346795916557312
1772876955027199500,1.495199462890625,-0.4029378592967987,0.13463930785655975,-0.9606759548187256
1772876955037131500,1.505131591796875,-0.19415801763534546,0.18800398707389832,-0.4874253273010254
1772876955047064600,1.515064697265625,-0.04015008360147476,0.18779227137565613,0.026126142591238022
1772876955056997600,1.52499755859375,0.004541222471743822,0.2320404201745987,0.47096166014671326
1772876955066930400,1.534930419921875,-0.07839733362197876,0.267861008644104,0.7460267543792725
1772876955076862500,1.544862548828125,-0.23637525737285614,0.31766319274902344,0.8530064821243286
1772876955086795500,1.55479541015625,-0.41516363620758057,0.30859166383743286,0.7281506061553955
1772876955096728600,1.564728515625,-0.6000179052352905,0.2426251620054245,0.40085500478744507
1772876955106661600,1.57466162109375,-0.7195621728897095,0.200523242354393,0.10207603126764297
1772876955116593400,1.584593505859375,-0.7708682417869568,0.26262444257736206,-0.11513964086771011
1772876955126526500,1.5945263671875,-0.7857241034507751,0.32452481985092163,-0.38182538747787476
1772876955136459300,1.604459228515625,-0.7996127605438232,0.2358735054731369,-0.6774711608886719
1772876955146392300,1.614392333984375,-0.8610916137695312,-0.024266457185149193,-0.8338109850883484
1772876955156324400,1.624324462890625,-0.943162739276886,-0.33218592405319214,-0.8449773192405701
1772876955166257400,1.63425732421875,-0.8054450750350952,-0.31633639335632324,-0.6798418760299683
1772876955176190500,1.6441904296875,-0.5065183043479919,-0.10441535711288452,-0.6576787829399109
1772876955186122500,1.65412255859375,-0.11958871781826019,0.20593345165252686,-0.902134895324707
1772876955196055300,1.66405517578125,0.3111565411090851,0.5582185387611389,-1.2147116661071777
1772876955205988400,1.67398828125,0.7278667092323303,0.7270094156265259,-1.3601855039596558
1772876955215921400,1.68392138671875,0.9780837297439575,0.5585567355155945,-1.0006047487258911
1772876955225853400,1.693853515625,0.7624440789222717,-0.11348368227481842,-0.3827356696128845
1772876955235786500,1.703786376953125,0.23834599554538727,-1.1198920011520386,0.12370303273200989
1772876955245719600,1.713719482421875,-0.17559552192687988,-1.705641746520996,0.4779638946056366
1772876955255652400,1.72365234375,-0.357259601354599,-1.58274507522583,0.7323176264762878
1772876955265584400,1.73358447265625,0.06993354111909866,-0.9965106844902039,0.8295576572418213
1772876955275517400,1.743517333984375,0.8622615337371826,-0.15051254630088806,0.390438050031662
1772876955285450800,1.75345068359375,1.4540624618530273,0.4901798367500305,-0.5599618554115295
1772876955295383800,1.7633837890625,1.6298961639404297,0.7233664989471436,-1.5184199810028076
1772876955305315800,1.77331591796875,1.468626856803894,0.720424234867096,-1.9220712184906006
1772876955315248600,1.78324853515625,1.1163276433944702,0.4403374493122101,-1.8233444690704346
1772876955325181700,1.793181640625,0.7585902214050293,-0.14545120298862457,-1.4933521747589111
1772876955335114800,1.80311474609375,0.38057318329811096,-0.7888807654380798,-0.9533429741859436
1772876955345046800,1.813046875,0.1164589673280716,-1.337873101234436,-0.36243677139282227
1772876955354979800,1.822979736328125,0.054054711014032364,-1.4899368286132812,0.21721620857715607
1772876955364912600,1.83291259765625,0.0030535804107785225,-1.110509991645813,0.6709232330322266
1772876955374845700,1.842845703125,-0.19524486362934113,-0.6211061477661133,0.9514318704605103
1772876955384777700,1.85277783203125,-0.4465319514274597,-0.26020175218582153,1.0561015605926514
1772876955394710800,1.862710693359375,-0.7062023878097534,0.14894872903823853,1.0616716146469116
1772876955404643800,1.872643798828125,-0.8500781059265137,0.4982058107852936,1.260328769683838
1772876955414577000,1.882576904296875,-0.8694429993629456,0.6716838479042053,1.3806250095367432
1772876955424509000,1.892509033203125,-0.792521595954895,1.0595173835754395,1.2239973545074463
1772876955434441700,1.902441650390625,-0.6886780261993408,1.0508828163146973,1.258030891418457
1772876955444374800,1.912374755859375,-0.5653017163276672,0.6173186302185059,1.3490090370178223
1772876955454306600,1.922306640625,-0.2563154101371765,0.0905408188700676,1.3734714984893799
1772876955464239600,1.932239501953125,0.06649380922317505,-0.5614137649536133,1.3080542087554932
1772876955474172700,1.942172607421875,0.20251555740833282,-0.9496353268623352,1.0198655128479004
1772876955484105700,1.952105712890625,0.2009778469800949,-1.1225160360336304,0.6484445929527283
1772876955494037500,1.96203759765625,0.11622913926839828,-1.2595417499542236,0.24000194668769836
1772876955503970600,1.971970458984375,-0.01757659763097763,-1.3695532083511353,-0.2068498581647873
1772876955513903600,1.981903564453125,-0.21635574102401733,-1.4778727293014526,-0.6939632892608643
1772876955523836700,1.991836669921875,-0.31428682804107666,-1.4349626302719116,-1.1461299657821655
1772876955533768700,2.001768798828125,-0.30281126499176025,-1.233959674835205,-1.4285060167312622
1772876955543701800,2.01170166015625,-0.19785556197166443,-0.9477641582489014,-1.535536289215088
1772876955553634600,2.021634521484375,-0.021932728588581085,-0.5832573175430298,-1.4193929433822632
1772876955563567600,2.031567626953125,0.10482441633939743,-0.26164013147354126,-1.0891268253326416
1772876955573499600,2.041499755859375,0.23470039665699005,-0.05564142391085625,-0.6881309747695923
1772876955583432700,2.0514326171875,0.33404454588890076,0.08909392356872559,-0.30581822991371155
1772876955593365800,2.06136572265625,0.34515658020973206,0.15315893292427063,0.009278719313442707
1772876955603298600,2.071298583984375,0.28016534447669983,0.2051433026790619,0.21045257151126862
1772876955613230600,2.081230712890625,0.15028910338878632,0.31187134981155396,0.3161880671977997
1772876955623163600,2.09116357421875,-0.011121893301606178,0.42613160610198975,0.3682438135147095
1772876955633096700,2.1010966796875,-0.15507933497428894,0.5345802903175354,0.3815244436264038
1772876955643028700,2.11102880859375,-0.2291458398103714,0.5974969863891602,0.35432904958724976
1772876955652961800,2.1209619140625,-0.23538349568843842,0.5541449785232544,0.2768952548503876
1772876955662894800,2.130894775390625,-0.2430533915758133,0.4596690535545349,0.17966537177562714
1772876955672827600,2.14082763671875,-0.24811260402202606,0.3536723256111145,0.106481172144413
1772876955682759700,2.150759765625,-0.24079716205596924,0.44457557797431946,0.23988662660121918
1772876955692692700,2.160692626953125,-0.2774910032749176,0.4569683372974396,0.3734494745731354
1772876955702625800,2.170625732421875,-0.24970144033432007,0.21846017241477966,0.15231071412563324
1772876955712558800,2.180558837890625,-0.09548124670982361,0.12263830006122589,-0.041059285402297974
1772876955722491000,2.190490966796875,0.3000897765159607,-0.050211504101753235,-0.35102567076683044
1772876955732423700,2.200423583984375,0.7025637030601501,-0.07359565794467926,-0.6427187919616699
1772876955742356700,2.210356689453125,0.8939520716667175,0.23551371693611145,-0.6882540583610535
1772876955752289800,2.220289794921875,0.8805614113807678,0.654236912727356,-0.2378692924976349
1772876955762221800,2.230221923828125,0.721771240234375,0.5943635106086731,0.5125980377197266
1772876955772155000,2.24015478515625,0.47890985012054443,-0.04627189040184021,1.038727045059204
1772876955782087700,2.250087646484375,0.4198737144470215,-0.4326832592487335,1.4492254257202148
1772876955792020700,2.260020751953125,0.6625785231590271,-0.7054159641265869,1.6689507961273193
1772876955801952500,2.269952392578125,0.9231491088867188,-0.6963002681732178,1.87526535987854
1772876955811885600,2.279885498046875,1.0785237550735474,-0.6633894443511963,2.023726463317871
1772876955821819000,2.28981884765625,1.2063877582550049,-0.6685937643051147,1.9157955646514893
1772876955831752000,2.299751953125,1.2473522424697876,-0.6090827584266663,1.550605297088623
1772876955841683700,2.30968359375,1.1862452030181885,-0.391299307346344,0.9312314987182617
1772876955851616500,2.319616455078125,1.0176342725753784,0.036065857857465744,0.10578048974275589
1772876955861549600,2.329549560546875,0.9739640951156616,0.40412405133247375,-0.9213985800743103
1772876955871482600,2.339482666015625,1.2048611640930176,0.396416574716568,-2.075267791748047
1772876955881414700,2.34941455078125,1.3781893253326416,0.2552807629108429,-2.753553628921509
1772876955891347700,2.35934765625,1.3392179012298584,0.037517547607421875,-2.674642562866211
1772876955901280800,2.36928076171875,1.1982882022857666,-0.40283188223838806,-2.2830705642700195
1772876955911212800,2.379212890625,0.8063170313835144,-0.7848886847496033,-1.538277506828308
1772876955921145600,2.3891455078125,0.2570227384567261,-1.0483578443527222,-0.48042094707489014
1772876955931078700,2.39907861328125,-0.16595807671546936,-1.1838411092758179,0.44282642006874084
1772876955941011700,2.40901171875,-0.33575937151908875,-0.9908280372619629,1.1314014196395874
1772876955950943700,2.41894384765625,-0.4215296506881714,-0.5614268183708191,1.6179070472717285
1772876955960876800,2.428876708984375,-0.5314084887504578,-0.15378797054290771,1.9228872060775757
1772876955970809600,2.4388095703125,-0.6809548139572144,0.18775978684425354,1.9607270956039429
1772876955980742700,2.44874267578125,-0.8158700466156006,0.4207642674446106,1.763839840888977
1772876955990674700,2.4586748046875,-0.9742099046707153,0.5150963664054871,1.368229627609253
1772876956000607700,2.468607666015625,-1.1198136806488037,0.5476513504981995,0.8621554970741272
1772876956010540800,2.478540771484375,-1.1333918571472168,0.5726949572563171,0.34651774168014526
1772876956020473600,2.4884736328125,-0.9661809802055359,0.6377719640731812,-0.15852652490139008
1772876956030405600,2.498405517578125,-0.8250028491020203,0.6946360468864441,-0.6499074697494507
1772876956040338700,2.508338623046875,-0.7752629518508911,0.5937355160713196,-0.9021894931793213
1772876956050271700,2.518271728515625,-0.6496845483779907,0.2994285225868225,-1.103346347808838
1772876956060204800,2.528204833984375,-0.5431168079376221,-0.0938228964805603,-1.315238356590271
1772876956070136800,2.53813671875,-0.48322418332099915,-0.4608139395713806,-1.3105034828186035
1772876956080070000,2.54806982421875,-0.5015925168991089,-0.7735897302627563,-1.1564366817474365
1772876956090002700,2.558002685546875,-0.5857556462287903,-0.931286633014679,-0.9418663382530212
1772876956099934700,2.567934814453125,-0.6504488587379456,-0.8771539330482483,-0.6578865647315979
1772876956109867800,2.57786767578125,-0.5130292177200317,-0.6009724140167236,-0.39615026116371155
1772876956119800800,2.58780078125,-0.24284566938877106,-0.19539746642112732,-0.17652469873428345
1772876956129734000,2.59773388671875,0.0006199838826432824,0.09976254403591156,0.0017616810509935021
1772876956139665700,2.607665771484375,0.17121116816997528,0.32039719820022583,0.10110451281070709
1772876956149598700,2.6175986328125,0.22831518948078156,0.5026319622993469,0.21307365596294403
1772876956159531500,2.627531494140625,0.18157058954238892,0.5790716409683228,0.28386154770851135
1772876956169464800,2.63746484375,0.07361429929733276,0.5326617956161499,0.29854699969291687
1772876956179396600,2.647396728515625,-0.10928521305322647,0.38103681802749634,0.27154016494750977
1772876956189329700,2.65732958984375,-0.28205591440200806,0.20119568705558777,0.2080988734960556
1772876956199262700,2.6672626953125,-0.3571988642215729,0.13130316138267517,0.09176187962293625
1772876956209195500,2.677195556640625,-0.34160685539245605,0.14969468116760254,-0.06925443559885025
1772876956219127600,2.68712744140625,-0.3642200231552124,0.10874085873365402,-0.2861151099205017
1772876956229060600,2.697060546875,-0.34874361753463745,-0.0046722497791051865,-0.4255896508693695
1772876956238993700,2.70699365234375,-0.19415083527565002,-0.035779036581516266,-0.20886586606502533
1772876956248926700,2.7169267578125,-0.009001217782497406,-0.11830267310142517,0.101064033806324
1772876956258858800,2.726858642578125,0.13913045823574066,-0.1913987249135971,0.3520595133304596
1772876956268791600,2.73679150390625,0.2470310926437378,-0.09243219345808029,0.5313762426376343
1772876956278724600,2.746724609375,0.5534578561782837,0.06419017165899277,0.38787129521369934
1772876956288656100,2.75665625,0.9347532987594604,0.40988045930862427,0.10802207142114639
1772876956298589200,2.766589111328125,0.9781864881515503,0.8520315289497375,0.026092320680618286
1772876956308522200,2.776522216796875,0.7487639784812927,1.2439465522766113,0.13818956911563873
1772876956318455300,2.786455322265625,0.38450559973716736,1.284247875213623,0.1625353842973709
1772876956328387300,2.79638720703125,-0.0994482934474945,0.9818893671035767,-0.027703799307346344
1772876956338320100,2.806320068359375,-0.39685574173927307,0.6606836318969727,-0.055566057562828064
1772876956348253200,2.816253173828125,-0.21265394985675812,0.2602134644985199,0.17322930693626404
1772876956358186200,2.826186279296875,0.398246705532074,-0.0008040083339437842,0.6634506583213806
1772876956368118300,2.8361181640625,1.1260055303573608,-0.2384144365787506,1.1077897548675537
1772876956378051300,2.84605126953125,1.7079381942749023,-0.45102977752685547,1.081098198890686
1772876956387984400,2.855984375,2.017333745956421,-0.6823309063911438,0.5501909852027893
1772876956397917200,2.865917236328125,1.9805777072906494,-0.8495598435401917,-0.20664212107658386
1772876956407849200,2.87584912109375,1.6952232122421265,-0.9904999136924744,-0.9677889943122864
1772876956417782300,2.8857822265625,1.4047613143920898,-1.1477113962173462,-1.6011909246444702
1772876956427715300,2.89571533203125,1.219014286994934,-1.1660645008087158,-1.9442580938339233
1772876956437648400,2.9056484375,0.9801918864250183,-1.0143629312515259,-1.7930070161819458
1772876956447580400,2.915580322265625,0.6328714489936829,-0.7669155597686768,-1.2948020696640015
1772876956457513200,2.92551318359375,0.23154987394809723,-0.5757045745849609,-0.545203685760498
1772876956467446300,2.9354462890625,-0.09191154688596725,-0.5001706480979919,0.33022797107696533
1772876956477379300,2.94537939453125,-0.2985613942146301,-0.4908733069896698,1.0773820877075195
1772876956487311400,2.955311279296875,-0.48645299673080444,-0.4535389840602875,1.6558645963668823
1772876956497244400,2.965244384765625,-0.5371395945549011,-0.5478662848472595,2.1361677646636963
1772876956507177500,2.975177490234375,-0.4337964355945587,-0.6850550174713135,2.335254192352295
1772876956517109500,2.985109619140625,-0.2789759635925293,-0.6854899525642395,2.0590286254882812
1772876956527042300,2.995042236328125,-0.20798462629318237,-0.632781445980072,1.534472107887268
1772876956536975400,3.004975341796875,-0.24160915613174438,-0.596778154373169,0.916253924369812
1772876956546908400,3.014908447265625,-0.2781256139278412,-0.4739457368850708,0.17687304317951202
1772876956556840400,3.02484033203125,-0.2274874895811081,-0.417593777179718,-0.6180722713470459
1772876956566773500,3.0347734375,-0.2707976698875427,-0.3678041100502014,-1.3164279460906982
1772876956576706300,3.044706298828125,-0.44531169533729553,-0.43079879879951477,-1.7111475467681885
1772876956586639400,3.054639404296875,-0.4953429102897644,-0.5389242172241211,-1.8795912265777588
1772876956596571400,3.0645712890625,-0.425892174243927,-0.5982437133789062,-1.7984249591827393
1772876956606504400,3.07450439453125,-0.304701566696167,-0.5784902572631836,-1.4868321418762207
1772876956616437500,3.0844375,-0.23434805870056152,-0.3997247517108917,-1.0659523010253906
1772876956626370300,3.094370361328125,-0.161278635263443,-0.44125837087631226,-0.5470985174179077
1772876956636302300,3.10430224609375,-0.1056436076760292,-0.5716562867164612,0.041433461010456085
1772876956646235100,3.114235107421875,0.014208762906491756,-0.5775416493415833,0.4177713990211487
1772876956656168200,3.124168212890625,0.1952619105577469,-0.45763227343559265,0.5975041389465332
1772876956666101200,3.134101318359375,0.32567211985588074,-0.28353503346443176,0.5966188907623291
1772876956676033300,3.144033203125,0.35756054520606995,-0.07012609392404556,0.49117425084114075
1772876956685966300,3.15396630859375,0.30553436279296875,0.1602645069360733,0.32025575637817383
1772876956695899100,3.163899169921875,0.20039993524551392,0.3541194498538971,0.11853117495775223
1772876956705831200,3.1738310546875,0.10019531100988388,0.47900786995887756,-0.007386543322354555
1772876956715764200,3.18376416015625,-0.02364780567586422,0.512187123298645,-0.02431199699640274
1772876956725697300,3.193697265625,-0.1804635226726532,0.443301796913147,0.049250904470682144
1772876956735630300,3.20363037109375,-0.27700018882751465,0.3098486661911011,0.1677194982767105
1772876956745562400,3.213562255859375,-0.29403242468833923,0.19660787284374237,0.28240105509757996
1772876956755495400,3.223495361328125,-0.28318271040916443,0.17095203697681427,0.32481324672698975
1772876956765428200,3.23342822265625,-0.23937104642391205,0.24647556245326996,0.33420807123184204
1772876956775361300,3.243361328125,-0.17686505615711212,0.2951141893863678,0.32164886593818665
1772876956785293300,3.253293212890625,-0.12142442911863327,0.39728131890296936,0.4131529629230499
1772876956795226400,3.263226318359375,-0.11884968727827072,0.38478708267211914,0.3542257249355316
1772876956805159400,3.273159423828125,-0.20724692940711975,0.007412642706185579,-0.06197655200958252
1772876956815092200,3.28309228515625,-0.2673869729042053,-0.45237013697624207,-0.43771690130233765
1772876956825024300,3.293024169921875,-0.20139196515083313,-0.9914085865020752,-0.6174267530441284
1772876956834957300,3.302957275390625,-0.14389857649803162,-1.3491930961608887,-0.924696683883667
1772876956844890400,3.312890380859375,0.16301821172237396,-1.2462648153305054,-1.340646505355835
1772876956854823400,3.322823486328125,0.700107753276825,-0.5017022490501404,-1.367632269859314
1772876956864755500,3.33275537109375,1.3138673305511475,0.2259409874677658,-0.9489367604255676
1772876956874688500,3.3426884765625,1.4989562034606934,0.43215593695640564,0.09328760206699371
1772876956884621300,3.352621337890625,0.8968490362167358,0.014464959502220154,1.6579104661941528
1772876956894554400,3.362554443359375,0.025743447244167328,-0.7306283712387085,2.755937099456787
1772876956904486400,3.372486328125,-0.47045591473579407,-1.3361515998840332,2.7164368629455566
1772876956914419500,3.38241943359375,-0.29258471727371216,-1.605683445930481,1.9920234680175781
1772876956924352500,3.3923525390625,0.5056533217430115,-1.2000744342803955,1.264951467514038
1772876956934284500,3.402284423828125,1.8539071083068848,-0.48999208211898804,0.5344247817993164
1772876956944217300,3.41221728515625,3.0918684005737305,-0.42501068115234375,-0.5400134325027466
1772876956954150400,3.422150390625,3.1845877170562744,-0.8216565847396851,-1.5761690139770508
1772876956964083500,3.43208349609375,2.810971736907959,-1.3453437089920044,-1.6452633142471313
1772876956974015200,3.44201513671875,2.4476091861724854,-1.718719244003296,-1.119486927986145
1772876956983948300,3.4519482421875,1.9794642925262451,-1.7025511264801025,-0.5131506323814392
1772876956993881300,3.46188134765625,1.5043070316314697,-1.4349881410598755,0.0788615271449089
1772876957003814100,3.471814208984375,1.1355228424072266,-1.0233209133148193,0.6112609505653381
1772876957013746200,3.48174609375,0.7516929507255554,-0.6138224005699158,0.9859331250190735
1772876957023679200,3.49167919921875,0.25850239396095276,-0.4157434105873108,1.2618317604064941
1772876957033612300,3.5016123046875,-0.2897239625453949,-0.40870335698127747,1.5317586660385132
1772876957043545300,3.51154541015625,-0.8101738095283508,-0.4966941773891449,1.7059285640716553
1772876957053477400,3.521477294921875,-1.2315950393676758,-0.37341752648353577,1.8369792699813843
1772876957063410200,3.53141015625,-1.4063359498977661,-0.2766347825527191,1.607222557067871
1772876957073343200,3.54134326171875,-1.2918347120285034,-0.3623046875,0.7921066880226135
1772876957083276300,3.5512763671875,-1.0768169164657593,-0.162209153175354,0.043648410588502884
1772876957093208300,3.561208251953125,-0.727459728717804,0.0708552673459053,-0.5342258214950562
1772876957103141400,3.571141357421875,-0.4996849298477173,0.25161466002464294,-1.008819818496704
1772876957113074200,3.58107421875,-0.26845356822013855,0.35266244411468506,-1.2921311855316162
1772876957123006500,3.59100634765625,-0.0274414774030447,0.27941086888313293,-1.4589195251464844
1772876957132939300,3.600939208984375,0.11277288943529129,0.14062902331352234,-1.5297154188156128
1772876957142872300,3.610872314453125,0.09296056628227234,-0.028851887211203575,-1.5408251285552979
1772876957152805400,3.620805419921875,-0.03428580239415169,-0.12651586532592773,-1.4228856563568115
1772876957162737400,3.6307373046875,-0.20400851964950562,-0.2158856838941574,-1.1425299644470215
1772876957172670500,3.64067041015625,-0.3796091079711914,-0.2659318149089813,-0.7947301268577576
1772876957182603300,3.650603271484375,-0.5010614991188049,-0.27073028683662415,-0.4266599714756012
1772876957192536300,3.660536376953125,-0.5168716311454773,-0.274067759513855,-0.12639202177524567
1772876957202468400,3.67046826171875,-0.45513448119163513,-0.20089316368103027,0.07769373059272766
1772876957212401400,3.6804013671875,-0.3374805748462677,-0.0034077810123562813,0.15470488369464874
1772876957222334500,3.69033447265625,-0.21346834301948547,0.27701082825660706,0.13275697827339172
1772876957232267300,3.700267333984375,-0.1333167850971222,0.5621306896209717,0.08363231271505356
1772876957242199300,3.71019921875,-0.11103250831365585,0.796855628490448,0.06601683050394058
1772876957252132400,3.72013232421875,-0.11823423206806183,0.9168885350227356,0.0890025794506073
1772876957262065400,3.7300654296875,-0.15075089037418365,0.9230297803878784,0.15238207578659058
1772876957271998500,3.73999853515625,-0.17660219967365265,0.8466817736625671,0.24005120992660522
1772876957281930500,3.749930419921875,-0.20220503211021423,0.7809248566627502,0.3573024868965149
1772876957291863600,3.759863525390625,-0.25215020775794983,0.7264927625656128,0.48451873660087585
1772876957301796400,3.76979638671875,-0.30859431624412537,0.628753125667572,0.5502071976661682
1772876957311728400,3.779728271484375,-0.3568792939186096,0.4931303560733795,0.4929063618183136
1772876957321661400,3.789661376953125,-0.4499434530735016,0.40907084941864014,0.32065656781196594
1772876957331594500,3.799594482421875,-0.5820834040641785,0.4978893995285034,0.14390070736408234
1772876957341527600,3.809527587890625,-0.6806075572967529,0.8025854229927063,-0.039145272225141525
1772876957351459600,3.81945947265625,-0.6812043786048889,1.1373764276504517,-0.2778864800930023
1772876957361392400,3.829392333984375,-0.6424077153205872,1.108130931854248,-0.5408571362495422
1772876957371325400,3.839325439453125,-0.6608604788780212,0.46355727314949036,-1.006282091140747
1772876957381258500,3.849258544921875,-0.785050094127655,-0.539833664894104,-1.7009137868881226
1772876957391190500,3.8591904296875,-0.5160031914710999,-1.116721510887146,-1.8220133781433105
1772876957401123600,3.86912353515625,0.010635067708790302,-1.0816023349761963,-1.632209062576294
1772876957411056600,3.879056640625,0.5173946619033813,-0.9955726861953735,-1.5248844623565674
1772876957420989400,3.888989501953125,0.6046270728111267,-1.1031016111373901,-1.0041025876998901
1772876957430921500,3.89892138671875,0.26871374249458313,-1.4408931732177734,-0.11400540173053741
1772876957440854500,3.9088544921875,-0.24396339058876038,-1.564500093460083,0.6580420732498169
1772876957450787600,3.91878759765625,-0.5814716815948486,-1.3877500295639038,1.1818674802780151
1772876957460720600,3.928720703125,-0.46549737453460693,-1.040521264076233,1.6263532638549805
1772876957470652700,3.938652587890625,-0.01824291981756687,-0.36887258291244507,1.601944088935852
1772876957480585500,3.94858544921875,0.4786350131034851,0.2698226869106293,1.0380046367645264
1772876957490518500,3.9585185546875,0.8555650115013123,0.34179142117500305,0.1696188598871231
1772876957500451600,3.96845166015625,1.0343048572540283,0.0719681978225708,-0.5710485577583313
1772876957510383400,3.97838330078125,0.9313644170761108,-0.33285650610923767,-0.5272872447967529
1772876957520314400,3.988314453125,0.7288922667503357,-0.8602691888809204,-0.2559755742549896
1772876957530247400,3.998247314453125,0.4187876582145691,-1.115675449371338,0.13651736080646515
1772876957540180500,4.008180419921875,0.07557172328233719,-1.0469775199890137,0.5667172074317932
1772876957550112500,4.018112548828125,-0.1746189445257187,-0.757401168346405,0.8473275899887085
1772876957560045600,4.028045654296875,-0.3308311700820923,-0.4068567156791687,1.0132821798324585
1772876957569978400,4.037978271484375,-0.46542680263519287,-0.06914311647415161,1.1810122728347778
1772876957579911400,4.047911376953125,-0.5485784411430359,0.42273980379104614,1.390554428100586
1772876957589843500,4.057843505859375,-0.5724707245826721,0.9720484614372253,1.509304404258728
1772876957599776500,4.067776611328125,-0.593774139881134,1.5096628665924072,1.449893593788147
1772876957609709600,4.07770947265625,-0.7213028073310852,1.9457440376281738,1.2205469608306885
1772876957619642600,4.087642578125,-0.937038004398346,1.9173535108566284,0.6417882442474365
1772876957629574700,4.09757470703125,-1.2095047235488892,1.585953950881958,-0.05746675655245781
1772876957639507500,4.107507568359375,-1.3756319284439087,1.3342766761779785,-0.43377113342285156
1772876957649440500,4.1174404296875,-1.4042824506759644,1.028550624847412,-0.6896377801895142
1772876957659373600,4.12737353515625,-1.366258144378662,0.7450374364852905,-0.9175660610198975
1772876957669305600,4.1373056640625,-1.3469562530517578,0.47496944665908813,-1.2200247049331665
1772876957679238700,4.14723876953125,-1.3587056398391724,0.22584004700183868,-1.5752387046813965
1772876957689171500,4.15717138671875,-1.3527904748916626,0.05831364169716835,-1.8416666984558105
1772876957699104500,4.1671044921875,-1.3696298599243164,0.03596732020378113,-1.9035981893539429
1772876957709036300,4.177036376953125,-1.409780740737915,0.2725393772125244,-1.7424803972244263
1772876957718969300,4.18696923828125,-1.4537314176559448,0.6590530276298523,-1.4025574922561646
1772876957728902700,4.196902587890625,-1.4386612176895142,1.1138900518417358,-0.9437302947044373
1772876957738834400,4.20683447265625,-1.2964891195297241,1.3922662734985352,-0.41965532302856445
1772876957748767500,4.216767578125,-1.0736185312271118,1.336859941482544,0.11435747146606445
1772876957758700300,4.2267001953125,-0.8435837030410767,1.029309868812561,0.7098996639251709
1772876957768633300,4.23663330078125,-0.7232453227043152,0.8348168134689331,1.068766474723816
1772876957778565400,4.2465654296875,-0.5842006206512451,0.80964195728302,1.241661548614502
1772876957788498400,4.25649853515625,-0.41418707370758057,0.9180592894554138,1.2582690715789795
1772876957798431500,4.266431396484375,-0.22695058584213257,1.0894912481307983,1.1674829721450806
1772876957808364300,4.2763642578125,-0.15178632736206055,1.22453773021698,1.0567034482955933
1772876957818296300,4.28629638671875,-0.2604350447654724,1.2843573093414307,0.9214771389961243
1772876957828229400,4.2962294921875,-0.3654978275299072,1.226387858390808,0.6473636031150818
1772876957838162400,4.306162353515625,-0.44246265292167664,1.1588945388793945,0.2727987766265869
1772876957848095500,4.316095458984375,-0.5479339361190796,0.9574120044708252,-0.1490699052810669
1772876957858027500,4.326027587890625,-0.6208371520042419,0.8185774087905884,-0.3878702223300934
1772876957867960600,4.335960693359375,-0.7233257293701172,0.6267829537391663,-0.327898770570755
1772876957877893400,4.345893310546875,-0.734022855758667,0.005601160228252411,-0.5022678971290588
1772876957887826400,4.355826416015625,-0.5351475477218628,-0.655353844165802,-0.6936075091362
1772876957897759500,4.365759521484375,-0.2999584972858429,-1.0898417234420776,-0.5804522037506104
1772876957907692500,4.375692626953125,-0.21838772296905518,-1.2973676919937134,-0.48397305607795715
1772876957917625300,4.385625244140625,-0.14659583568572998,-1.2859477996826172,-0.699502170085907
1772876957927558400,4.395558349609375,-0.03244395926594734,-1.4081213474273682,-1.2808833122253418
1772876957937490400,4.405490478515625,0.009103749878704548,-1.496877908706665,-1.7700899839401245
1772876957947423500,4.415423583984375,-0.03297765552997589,-1.6642087697982788,-1.6250641345977783
1772876957957356500,4.4253564453125,-0.17787599563598633,-1.9246057271957397,-0.822562038898468
1772876957967289300,4.435289306640625,-0.39631059765815735,-2.196958065032959,0.08296944946050644
1772876957977221400,4.445221435546875,-0.40701889991760254,-2.1662559509277344,0.9981591701507568
1772876957987154400,4.455154541015625,0.013074256479740143,-1.7939772605895996,1.4764796495437622
1772876957997087500,4.46508740234375,0.5985872745513916,-1.2078431844711304,1.2601827383041382
1772876958007020500,4.4750205078125,0.9870005249977112,-0.7860170602798462,0.5335414409637451
1772876958016952600,4.48495263671875,1.0156103372573853,-0.6823130249977112,-0.2849515676498413
1772876958026885600,4.4948857421875,0.7874152064323425,-0.49998027086257935,-0.4922429919242859
1772876958036818400,4.504818359375,0.6674414277076721,-0.33280113339424133,-0.37902748584747314
1772876958046751500,4.51475146484375,0.6190139651298523,-0.2380724847316742,-0.22163598239421844
1772876958056683500,4.52468359375,0.4571340084075928,-0.13841380178928375,-0.027241740375757217
1772876958066616600,4.534616455078125,0.24976296722888947,-0.04069390147924423,0.280489444732666
1772876958076549600,4.544549560546875,0.059713397175073624,0.07809533178806305,0.6064121723175049
1772876958086482400,4.554482421875,-0.18418900668621063,0.18867669999599457,0.8888161778450012
1772876958096414500,4.56441455078125,-0.5122981667518616,0.3864097595214844,1.1296818256378174
1772876958106347500,4.574347412109375,-0.816877007484436,0.6913973689079285,1.4512102603912354
1772876958116280600,4.584280517578125,-1.1327006816864014,1.0167595148086548,1.754595160484314
1772876958126213600,4.594213623046875,-1.3692773580551147,1.2545254230499268,1.842101812362671
1772876958136145400,4.6041455078125,-1.423758625984192,1.2713416814804077,1.7890328168869019
1772876958146078500,4.614078369140625,-1.3051385879516602,1.295915961265564,1.710723638534546
1772876958156011300,4.62401123046875,-1.071825385093689,1.1512563228607178,1.3582861423492432
1772876958165943300,4.633943359375,-0.779443085193634,0.8358043432235718,0.6540420055389404
1772876958175876400,4.64387646484375,-0.4185807406902313,0.5833358764648438,-0.05604063346982002
1772876958185809400,4.653809326171875,-0.21768039464950562,0.38691070675849915,-0.695244550704956
1772876958195742500,4.663742431640625,-0.14154274761676788,0.21844631433486938,-1.173525094985962
1772876958205674500,4.673674560546875,-0.11326796561479568,0.03977670893073082,-1.4345561265945435
1772876958215607300,4.683607177734375,-0.15961523354053497,-0.16624116897583008,-1.574811339378357
1772876958225540400,4.693540283203125,-0.2770449221134186,-0.3808285593986511,-1.6150609254837036
1772876958235473400,4.703473388671875,-0.3704547584056854,-0.5602827668190002,-1.515994906425476
1772876958245405400,4.713405517578125,-0.3139462172985077,-0.6132761836051941,-1.299876093864441
1772876958255338500,4.72333837890625,-0.15771426260471344,-0.5259953737258911,-0.9990856647491455
1772876958265271600,4.733271484375,0.013665478676557541,-0.3288508653640747,-0.6621164083480835
1772876958275204400,4.743204345703125,0.17900383472442627,-0.09764719754457474,-0.37679389119148254
1772876958285136400,4.753136474609375,0.35554239153862,0.05014679208397865,-0.15016579627990723
1772876958295069400,4.7630693359375,0.44970324635505676,0.22194623947143555,0.03831303492188454
1772876958305002500,4.77300244140625,0.4368380308151245,0.39604294300079346,0.16959062218666077
1772876958314934500,4.7829345703125,0.38042163848876953,0.49752455949783325,0.27197957038879395
1772876958324867600,4.79286767578125,0.29779547452926636,0.49866706132888794,0.3449864089488983
1772876958334800400,4.80280029296875,0.20810632407665253,0.5241976976394653,0.3335556089878082
1772876958344733400,4.8127333984375,0.15614965558052063,0.5394198298454285,0.23790444433689117
1772876958354665200,4.822665283203125,0.15422844886779785,0.5541433691978455,0.1091776192188263
1772876958364598300,4.832598388671875,0.19260646402835846,0.5322228670120239,-0.060927797108888626
1772876958374531300,4.84253125,0.28471773862838745,0.44225865602493286,-0.23673610389232635
1772876958384464400,4.85246435546875,0.42039382457733154,0.3195306062698364,-0.3964991569519043
1772876958394396400,4.862396484375,0.5098485946655273,0.5104385018348694,-0.256356418132782
1772876958404329200,4.8723291015625,0.5025704503059387,0.716843843460083,0.06860595941543579
1772876958414262300,4.88226220703125,0.42917558550834656,0.8542768359184265,0.4144275486469269
1772876958424195300,4.8921953125,0.21673311293125153,0.8154388666152954,0.7511072754859924
1772876958434127400,4.90212744140625,-0.06181782856583595,0.4279484152793884,0.6980664730072021
1772876958444060400,4.912060302734375,-0.30195531249046326,0.12415124475955963,0.22005753219127655
1772876958453993200,4.9219931640625,-0.3209979832172394,-0.05500386282801628,-0.4220428466796875
1772876958463926300,4.93192626953125,-0.1339530050754547,-0.08830349892377853,-0.9598338603973389
1772876958473858300,4.9418583984375,0.124721959233284,-0.31145188212394714,-1.2467780113220215
1772876958483791400,4.951791259765625,0.35753950476646423,-0.7708735466003418,-1.0418349504470825
1772876958493724400,4.961724365234375,0.39095738530158997,-1.0025190114974976,-0.12286333739757538
1772876958503657200,4.9716572265625,0.3916865587234497,-0.8719871044158936,1.147289514541626
1772876958513589500,4.981589599609375,0.4943585991859436,-0.37520742416381836,2.112205743789673
1772876958523522300,4.991522216796875,0.7550706267356873,0.39176058769226074,2.36932110786438
1772876958533455400,5.001455322265625,0.9677602648735046,1.211037039756775,1.9446700811386108
1772876958543388400,5.011388427734375,0.904452383518219,1.4320528507232666,1.0110962390899658
1772876958553320400,5.021320556640625,0.704284131526947,0.9304671883583069,0.0035958001390099525
1772876958563253500,5.03125341796875,0.5746310353279114,0.17146842181682587,-0.41441982984542847
1772876958573186300,5.041186279296875,0.638458251953125,-0.7761868238449097,-0.3916604518890381
1772876958583119400,5.051119384765625,0.6017463207244873,-1.5714753866195679,-0.31465834379196167
1772876958593051400,5.061051513671875,0.3943355977535248,-2.001852035522461,-0.18719039857387543
1772876958602984400,5.070984375,0.2950795888900757,-2.068127155303955,-0.016645556315779686
1772876958612917500,5.08091748046875,0.35238921642303467,-1.7992841005325317,0.10028213262557983
1772876958622849500,5.090849609375,0.41036728024482727,-1.351852297782898,0.2695007026195526
1772876958632782300,5.1007822265625,0.25975194573402405,-0.8848629593849182,0.5231313705444336
1772876958642715400,5.11071533203125,0.02407950349152088,-0.4544151723384857,0.7051200866699219
1772876958652648400,5.1206484375,-0.1067754477262497,-0.0374954454600811,0.7187594771385193
1772876958662580500,5.13058056640625,-0.13467073440551758,0.25372520089149475,0.6085948944091797
1772876958672513500,5.140513427734375,-0.14355450868606567,0.47939348220825195,0.43526411056518555
1772876958682446600,5.150446533203125,-0.07154501974582672,0.6523463726043701,0.20481732487678528
1772876958692379400,5.16037939453125,0.005643771030008793,0.6584988236427307,-0.14608131349086761
1772876958702311200,5.170311279296875,-0.09925015270709991,0.6143979430198669,-0.5166913270950317
1772876958712244200,5.180244140625,-0.30734768509864807,0.515396237373352,-0.769885778427124
1772876958722177300,5.19017724609375,-0.4670177698135376,0.4231589734554291,-0.9782666563987732
1772876958732110300,5.2001103515625,-0.6111893653869629,0.42635077238082886,-1.1445701122283936
1772876958742042400,5.21004248046875,-0.6982302069664001,0.33459049463272095,-1.2396612167358398
1772876958751975400,5.219975341796875,-0.736120343208313,0.13038091361522675,-1.222161054611206
1772876958761908200,5.229908203125,-0.6274809837341309,-0.14838548004627228,-1.0168532133102417
1772876958771841300,5.23984130859375,-0.368954062461853,-0.3700012266635895,-0.6994033455848694
1772876958781773300,5.249773193359375,-0.08684515208005905,-0.3570936918258667,-0.3642759621143341
1772876958791706400,5.259706298828125,0.060030579566955566,-0.19864970445632935,-0.07375677675008774
1772876958801639400,5.269639404296875,0.0009267800487577915,-0.00023409185814671218,0.06705307215452194
1772876958811572200,5.279572265625,-0.1349058896303177,0.14034299552440643,0.0008498146780766547
1772876958821504300,5.289504150390625,-0.24489150941371918,0.29340365529060364,-0.1710156798362732
1772876958831437300,5.299437255859375,-0.29708200693130493,0.49292635917663574,-0.3312319815158844
1772876958841370400,5.309370361328125,-0.29810068011283875,0.6318227052688599,-0.4181106984615326
1772876958851302400,5.319302490234375,-0.24056173861026764,0.6730716228485107,-0.4483679234981537
1772876958861235500,5.3292353515625,-0.18797069787979126,0.6795665621757507,-0.4384532570838928
1772876958871168300,5.339168212890625,-0.1599864661693573,0.5675896406173706,-0.3596995770931244
1772876958881101300,5.349101318359375,-0.13573040068149567,0.4019772708415985,-0.23307959735393524
1772876958891033300,5.359033447265625,-0.13629259169101715,0.3032323122024536,-0.06061780825257301
1772876958900966400,5.36896630859375,-0.11392337083816528,0.2245476245880127,0.10855311155319214
1772876958910899500,5.3788994140625,-0.0749400183558464,0.14413294196128845,0.2092387080192566
1772876958920832500,5.38883251953125,0.015408516861498356,0.04345666244626045,0.2344828099012375
1772876958930764500,5.3987646484375,0.12136823683977127,0.05131937935948372,0.2089494913816452
1772876958940697300,5.408697265625,0.20671775937080383,0.06357737630605698,0.14594069123268127
1772876958950630400,5.41863037109375,0.2562629282474518,0.19012466073036194,0.11301203817129135
1772876958960563500,5.4285634765625,0.32187843322753906,0.17570631206035614,-0.14288444817066193
1772876958970495500,5.43849560546875,0.45896971225738525,0.17755214869976044,-0.5647565722465515
1772876958980428500,5.448428466796875,0.6136114597320557,0.10320095717906952,-1.0800210237503052
1772876958990361300,5.458361328125,0.6863874197006226,-0.1272761970758438,-1.8034090995788574
1772876959000294400,5.46829443359375,0.7854386568069458,0.04476507380604744,-2.2382872104644775
1772876959010226400,5.478226318359375,0.8998355269432068,0.6739211678504944,-2.161987543106079
1772876959020159500,5.488159423828125,0.9960749745368958,1.2611385583877563,-2.0108325481414795
1772876959030092500,5.498092529296875,0.8121781349182129,1.240673303604126,-1.632861852645874
1772876959040025600,5.508025634765625,0.4605923891067505,0.803138792514801,-0.3485358655452728
1772876959049957400,5.517957275390625,0.17968320846557617,0.23697952926158905,1.1620527505874634
1772876959059890200,5.52789013671875,0.17578060925006866,-0.28206977248191833,1.9704697132110596
1772876959069823200,5.5378232421875,0.10722126066684723,-0.38593384623527527,2.1363203525543213
1772876959079756300,5.54775634765625,0.005520733073353767,-0.000990429543890059,1.9536068439483643
1772876959089688300,5.557688232421875,0.1533551961183548,0.6769095063209534,1.4596277475357056
1772876959099621400,5.567621337890625,0.4815045893192291,1.2275012731552124,0.7014632821083069
1772876959109554200,5.57755419921875,0.7268906235694885,1.3806660175323486,-0.08458998799324036
1772876959119486200,5.587486328125,0.8252757787704468,1.158562183380127,-0.7046492695808411
1772876959129419300,5.597419189453125,0.9161716103553772,0.7324957847595215,-1.0483168363571167
1772876959139352300,5.607352294921875,1.0960912704467773,0.32115697860717773,-1.0836859941482544
1772876959149285400,5.617285400390625,1.2647631168365479,0.12670014798641205,-0.7539821863174438
1772876959159217400,5.627217529296875,1.2450062036514282,0.010159160941839218,-0.17405302822589874
1772876959169150500,5.637150390625,1.0545628070831299,0.013821805827319622,0.4906906187534332
1772876959179083300,5.647083251953125,0.8218043446540833,0.18344706296920776,1.072558045387268
1772876959189016300,5.657016357421875,0.5979531407356262,0.592356264591217,1.4497817754745483
1772876959198948400,5.6669482421875,0.4107837975025177,1.2206635475158691,1.5404304265975952
1772876959208881400,5.67688134765625,0.17329348623752594,1.7368556261062622,1.4183743000030518
1772876959218814500,5.686814453125,-0.13904337584972382,2.02840256690979,1.2123689651489258
1772876959228747300,5.696747314453125,-0.43207845091819763,2.083139419555664,0.9351930022239685
1772876959238679300,5.70667919921875,-0.6485742330551147,1.9977777004241943,0.6784562468528748
1772876959248612400,5.7166123046875,-0.745679497718811,1.8265907764434814,0.45517125725746155
1772876959258545400,5.72654541015625,-0.8233767151832581,1.673133373260498,0.3137693703174591
1772876959268478500,5.736478515625,-0.9899696707725525,1.4323244094848633,0.19209140539169312
1772876959278410500,5.746410400390625,-1.1289558410644531,1.0022904872894287,-0.03404105827212334
1772876959288343800,5.75634375,-1.0345909595489502,0.5736590027809143,-0.35340386629104614
1772876959298276900,5.76627685546875,-0.7526151537895203,0.2562751770019531,-0.6084257960319519
1772876959308209000,5.776208984375,-0.5030897855758667,0.04547587037086487,-0.7536945343017578
1772876959318142000,5.786141845703125,-0.2979983985424042,-0.0935046523809433,-0.8539537787437439
1772876959328075000,5.796074951171875,-0.08789869397878647,-0.24214285612106323,-0.8528517484664917
1772876959338007800,5.8060078125,0.058700330555438995,-0.38273167610168457,-0.7344353795051575
1772876959347940000,5.815940185546875,0.17961423099040985,-0.5473443269729614,-0.5944947600364685
1772876959357873000,5.825872802734375,0.3199005126953125,-0.665891706943512,-0.40007922053337097
1772876959367806000,5.835805908203125,0.3283317983150482,-0.6161817312240601,-0.1773848980665207
1772876959377739000,5.845739013671875,0.20306390523910522,-0.4846404492855072,-0.05415324866771698
1772876959387671000,5.855671142578125,0.0658101737499237,-0.3981178104877472,-0.09202340245246887
1772876959397604000,5.86560400390625,-0.08057686686515808,-0.282804012298584,-0.1689184457063675
1772876959407537000,5.875536865234375,-0.27096492052078247,-0.1545751988887787,-0.12205347418785095
1772876959417470000,5.885469970703125,-0.47806352376937866,-0.0708422139286995,0.01607111096382141
1772876959427401700,5.895401611328125,-0.6357372999191284,0.012849485501646996,0.1820020228624344
1772876959437334800,5.905334716796875,-0.7468076348304749,0.1349913775920868,0.35315433144569397
1772876959447267800,5.915267822265625,-0.8281775712966919,0.357636421918869,0.5114063024520874
1772876959457200600,5.92520068359375,-0.8414827585220337,0.6453957557678223,0.6598037481307983
1772876959467133000,5.9351328125,-0.7600693702697754,0.9320813417434692,0.8616881370544434
1772876959477065700,5.945065673828125,-0.594376802444458,1.219327449798584,1.159481167793274
1772876959486998800,5.954998779296875,-0.4180281460285187,1.4649684429168701,1.4698337316513062
1772876959496931800,5.964931884765625,-0.49511146545410156,1.2725920677185059,1.3696624040603638
1772876959506863900,5.97486376953125,-0.7256799936294556,1.004201889038086,1.149665355682373
1772876959516797000,5.984796875,-0.9570626020431519,0.9201120138168335,1.0557126998901367
1772876959526729700,5.994729736328125,-1.0792231559753418,1.0449844598770142,0.9172767996788025
1772876959536661800,6.004661865234375,-1.123537302017212,1.0448027849197388,0.3924117088317871
1772876959546594800,6.0145947265625,-0.9353445172309875,0.6926383972167969,-0.6015108823776245
1772876959556527900,6.02452783203125,-0.20357735455036163,0.3329526484012604,-1.2464758157730103
1772876959566461000,6.0344609375,0.3342541456222534,0.027713652700185776,-1.8241550922393799
1772876959576393000,6.04439306640625,0.3523351550102234,-0.49932724237442017,-2.607954740524292
1772876959586325800,6.05432568359375,0.1317330002784729,-1.0184047222137451,-2.5139145851135254
1772876959596258800,6.0642587890625,-0.07673978805541992,-1.4856364727020264,-1.5972223281860352
1772876959606191900,6.07419189453125,0.030590932816267014,-1.5589032173156738,0.003835484618321061
1772876959616124000,6.0841240234375,0.36468076705932617,-1.4451934099197388,1.4863331317901611
1772876959626057000,6.094056884765625,0.751435399055481,-1.227972388267517,2.0017874240875244
1772876959635990000,6.103989990234375,0.9590005874633789,-0.6651228666305542,1.6531177759170532
1772876959645922800,6.1139228515625,0.9962717890739441,0.06490416824817657,0.8453813195228577
1772876959655854800,6.123854736328125,1.0125758647918701,0.5725588798522949,-0.1553051620721817
1772876959665788000,6.133787841796875,0.762420117855072,0.6869147419929504,-1.133218765258789
1772876959675721000,6.143720947265625,0.27152231335639954,0.39807039499282837,-1.8599357604980469
1772876959685654000,6.153654052734375,-0.031386420130729675,0.009928531013429165,-2.1465864181518555
1772876959695586000,6.1635859375,-0.0013795174891129136,-0.2149120420217514,-1.8063023090362549
1772876959705518800,6.173518798828125,0.17771433293819427,-0.3702648878097534,-1.0551302433013916
1772876959715452000,6.183451904296875,0.3079596757888794,-0.388823926448822,-0.23344764113426208
1772876959725385000,6.193385009765625,0.36513057351112366,-0.4037322998046875,0.5140172243118286
1772876959735317000,6.20331689453125,0.3710225522518158,-0.3513292670249939,1.088554859161377
1772876959745250000,6.21325,0.30751466751098633,-0.1336909532546997,1.4496922492980957
1772876959755183000,6.22318310546875,0.1174406111240387,0.1344669908285141,1.6634408235549927
1772876959765116000,6.233115966796875,-0.21197377145290375,0.5375798344612122,1.5954701900482178
1772876959775047700,6.243047607421875,-0.5391138195991516,0.9996819496154785,1.2292314767837524
1772876959784980700,6.252980712890625,-0.770698070526123,1.3530597686767578,0.686953604221344
1772876959794913800,6.262913818359375,-0.9134994149208069,1.5360039472579956,0.07097963243722916
1772876959804845800,6.272845703125,-0.9547733664512634,1.557724952697754,-0.4936144948005676
1772876959814779000,6.28277880859375,-0.9179913401603699,1.3802024126052856,-0.9107204079627991
1772876959824711700,6.292711669921875,-0.7777205109596252,1.0491714477539062,-1.0600398778915405
1772876959834644700,6.302644775390625,-0.5899045467376709,0.6116815209388733,-0.9407845735549927
1772876959844576800,6.31257666015625,-0.4325708746910095,0.14156006276607513,-0.6719501614570618
1772876959854509800,6.322509765625,-0.3074877858161926,-0.24765746295452118,-0.3082315921783447
1772876959864443000,6.33244287109375,-0.2084682583808899,-0.4463966488838196,0.04157647117972374
1772876959874376000,6.3423759765625,-0.14666055142879486,-0.39390629529953003,0.23156557977199554
1772876959884308000,6.352307861328125,-0.10607130825519562,-0.22127991914749146,0.17349402606487274
1772876959894240800,6.36224072265625,-0.03687892109155655,-0.041605234146118164,-0.009701895527541637
1772876959904173800,6.372173828125,0.058709919452667236,0.16496072709560394,-0.16999302804470062
1772876959914107000,6.38210693359375,0.17800594866275787,0.3163590431213379,-0.2103327363729477
1772876959924039000,6.392038818359375,0.2623456120491028,0.40661996603012085,-0.17371533811092377
1772876959933972000,6.401971923828125,0.22056512534618378,0.4256328046321869,-0.07172238826751709
1772876959943904800,6.41190478515625,0.0902625173330307,0.3824602961540222,0.10867375135421753
1772876959953837800,6.421837890625,-0.04319886863231659,0.30783504247665405,0.3863341212272644
1772876959963769900,6.431769775390625,-0.1683139055967331,0.3426830470561981,0.6840984225273132
1772876959973703000,6.441702880859375,-0.3301297128200531,0.5538200736045837,0.9254322052001953
1772876959983636000,6.451635986328125,-0.5005406141281128,0.8673071265220642,1.1074081659317017
1772876959993569000,6.461569091796875,-0.5417231917381287,1.147222638130188,1.1629239320755005
1772876960003501000,6.4715009765625,-0.46044936776161194,1.2687307596206665,1.0879225730895996
1772876960013433900,6.481433837890625,-0.3625688850879669,1.3016340732574463,0.9770389795303345
1772876960023367000,6.491366943359375,-0.25122129917144775,1.3892829418182373,0.9149750471115112
1772876960033299000,6.501298828125,-0.10776428133249283,1.4656051397323608,0.878446102142334
1772876960043232000,6.51123193359375,-0.08705740422010422,1.3872616291046143,0.6843770146369934
1772876960053165000,6.5211650390625,-0.1444128453731537,1.2507812976837158,0.16136784851551056
1772876960063097900,6.531097900390625,-0.20447058975696564,1.0474750995635986,-0.4928126335144043
1772876960073030000,6.54102978515625,-0.20336218178272247,0.6218973994255066,-1.3692599534988403
1772876960082963000,6.550962890625,-0.11473137885332108,0.20927253365516663,-2.29734206199646
1772876960092896000,6.56089599609375,0.1011151671409607,-0.15066275000572205,-2.9691407680511475
1772876960102829000,6.5708291015625,0.6891898512840271,-0.39649808406829834,-2.998089075088501
1772876960112760800,6.5807607421875,1.2455649375915527,-0.35633814334869385,-2.264575958251953
1772876960122694000,6.59069384765625,1.2594075202941895,-1.0921785831451416,-1.2802752256393433
1772876960132626700,6.600626708984375,0.5995201468467712,-1.9564646482467651,-0.5532448291778564
1772876960142559700,6.610559814453125,-0.2556783854961395,-2.2890310287475586,-0.040168192237615585
1772876960152491800,6.62049169921875,-0.6763619780540466,-1.8967899084091187,0.5440691709518433
1772876960162424800,6.6304248046875,-0.6460511684417725,-1.0570685863494873,1.1957484483718872
1772876960172358000,6.64035791015625,-0.5497456789016724,0.04041586443781853,1.5298725366592407
1772876960182290700,6.650290771484375,-0.3335129916667938,1.0772491693496704,1.278329849243164
1772876960192222700,6.66022265625,0.26523059606552124,1.3502473831176758,0.1945955753326416
1772876960202155800,6.67015576171875,0.7901108860969543,0.7434507012367249,-1.361568808555603
1772876960212088800,6.6800888671875,0.9841421246528625,0.14083993434906006,-1.5338481664657593
1772876960222022000,6.69002197265625,1.1748948097229004,-0.5488689541816711,-0.8416150808334351
1772876960231954000,6.699953857421875,1.1284375190734863,-1.1293776035308838,-0.37113839387893677
1772876960241887000,6.709886962890625,0.47603684663772583,-1.6347182989120483,-0.15905702114105225
1772876960251819800,6.71981982421875,-0.13034282624721527,-1.8878432512283325,-0.018677014857530594
1772876960261752800,6.7297529296875,-0.3659985065460205,-1.6172122955322266,0.21465077996253967
1772876960271684900,6.739684814453125,-0.25560566782951355,-0.9016198515892029,0.5287439823150635
1772876960281618000,6.749617919921875,0.04686284810304642,-0.025970613583922386,0.8545413017272949
1772876960291551200,6.75955126953125,0.1236143484711647,0.6648619174957275,1.0965185165405273
1772876960301483300,6.769483154296875,-0.0740518569946289,0.9334526062011719,1.1628549098968506
1772876960311416000,6.779416015625,-0.3229045569896698,1.0297666788101196,1.1134753227233887
1772876960321349000,6.78934912109375,-0.5956074595451355,1.014590859413147,0.9098348617553711
1772876960331282200,6.7992822265625,-0.8771219253540039,0.8852863907814026,0.7097151279449463
1772876960341214200,6.809214111328125,-1.0813645124435425,0.7961336374282837,0.5870168805122375
1772876960351147300,6.819147216796875,-1.1251085996627808,0.871500551700592,0.6460895538330078
1772876960361080000,6.829080078125,-0.9291332364082336,1.0479704141616821,0.8905035257339478
1772876960371013000,6.83901318359375,-0.7020832896232605,1.1602314710617065,1.0335835218429565
1772876960380945200,6.848945068359375,-0.6455081701278687,1.0278816223144531,0.8812291026115417
1772876960390878200,6.858878173828125,-0.645257294178009,0.7523350119590759,0.4719710052013397
1772876960400811300,6.868811279296875,-0.5549731850624084,0.5325446128845215,-0.0563863106071949
1772876960410744000,6.878744140625,-0.41140326857566833,0.39572736620903015,-0.5217342972755432
1772876960420676400,6.88867626953125,-0.29659679532051086,0.28548768162727356,-0.8671880960464478
1772876960430609200,6.898609130859375,-0.19648616015911102,0.15930230915546417,-1.0749495029449463
1772876960440542200,6.908542236328125,-0.10453413426876068,0.05283285304903984,-1.0406125783920288
1772876960450475300,6.918475341796875,-0.05426616966724396,-0.14184021949768066,-0.8330104351043701
1772876960460407300,6.9284072265625,0.04867858812212944,-0.3768562078475952,-0.5699596405029297
1772876960470340400,6.93834033203125,0.18416637182235718,-0.5112795233726501,-0.3625033497810364
1772876960480273200,6.948273193359375,0.2780763506889343,-0.5809928178787231,-0.2404906302690506
1772876960490206200,6.958206298828125,0.3034174144268036,-0.5709423422813416,-0.1793162226676941
1772876960500138200,6.96813818359375,0.26544445753097534,-0.4711102545261383,-0.11930375546216965
1772876960510071300,6.9780712890625,0.23244735598564148,-0.33966994285583496,0.008497880771756172
1772876960520004400,6.98800439453125,0.21060144901275635,-0.11248473078012466,0.2248552143573761
1772876960529936400,6.997936279296875,0.22162586450576782,0.17618541419506073,0.4631623327732086
1772876960539869200,7.007869140625,0.19225279986858368,0.4243986904621124,0.7300744652748108
1772876960549802200,7.01780224609375,0.08670959621667862,0.5881801843643188,0.9496738910675049
1772876960559735300,7.0277353515625,-0.08136356621980667,0.6768429279327393,1.0615365505218506
1772876960569667300,7.037667236328125,-0.20843230187892914,0.7139367461204529,1.1129204034805298
1772876960579600400,7.047600341796875,-0.3011976480484009,0.7644241452217102,1.0957027673721313
1772876960589533400,7.057533447265625,-0.39655694365501404,0.8491305112838745,1.0129871368408203
1772876960599466200,7.06746630859375,-0.515329897403717,0.9601652026176453,0.9775478839874268
1772876960609398300,7.077398193359375,-0.605363667011261,1.0636039972305298,0.9654313325881958
1772876960619331300,7.087331298828125,-0.6991929411888123,0.975967288017273,0.6976810693740845
1772876960629264400,7.097264404296875,-0.80321204662323,0.6815218329429626,0.43664735555648804
1772876960639197400,7.107197509765625,-0.8258880376815796,0.34265294671058655,0.0054240599274635315
1772876960649129200,7.117129150390625,-0.7780752778053284,0.11100774258375168,-0.7729383111000061
1772876960659062300,7.127062255859375,-0.5892105102539062,-0.07958084344863892,-1.5592241287231445
1772876960668995000,7.1369951171875,0.11439049243927002,-0.11518783867359161,-1.7476749420166016
1772876960678928100,7.14692822265625,0.940468430519104,-0.0332234688103199,-1.2063714265823364
1772876960688860200,7.156860107421875,1.1739085912704468,-1.0421273708343506,-1.0128387212753296
1772876960698793200,7.166793212890625,0.7418887615203857,-1.743084192276001,-0.617385745048523
1772876960708726300,7.176726318359375,-0.09657314419746399,-1.783949851989746,0.08838073164224625
1772876960718659000,7.1866591796875,-0.6088292598724365,-1.3725359439849854,1.057773470878601
1772876960728591000,7.196591064453125,-0.6871941089630127,-0.38390693068504333,1.8728677034378052
1772876960738524200,7.206524169921875,-0.5504708886146545,0.8672969937324524,2.2646403312683105
1772876960748457200,7.216457275390625,-0.2269202321767807,1.804417371749878,1.8219777345657349
1772876960758390300,7.226390380859375,0.2678820490837097,1.5522109270095825,0.12103001773357391
1772876960768322300,7.236322265625,0.5979646444320679,0.6065495610237122,-1.4394463300704956
1772876960778255000,7.246255126953125,0.977226197719574,-0.27738234400749207,-1.597241759300232
1772876960788188200,7.256188232421875,1.3144068717956543,-0.9137403964996338,-1.4378467798233032
1772876960798120200,7.2661201171875,1.36648690700531,-1.4523773193359375,-1.4059290885925293
1772876960808053200,7.27605322265625,1.0047187805175781,-1.8415985107421875,-1.259310007095337
1772876960817986300,7.285986328125,0.6113193035125732,-1.9175353050231934,-0.9554383158683777
1772876960827919400,7.29591943359375,0.4340403974056244,-1.7790422439575195,-0.4988468289375305
1772876960837851400,7.305851318359375,0.3057711124420166,-1.334516167640686,0.12254641950130463
1772876960847784200,7.3157841796875,0.2602675259113312,-0.7857121229171753,0.5963802933692932
1772876960857717200,7.32571728515625,0.2977810800075531,-0.36263492703437805,0.8058823943138123
1772876960867650300,7.335650390625,0.16196759045124054,0.0202176533639431,0.9535791873931885
1772876960877582300,7.345582275390625,-0.057728543877601624,0.3144780397415161,1.1189404726028442
1772876960887515400,7.355515380859375,-0.23179994523525238,0.5796948075294495,1.276108980178833
1772876960897448200,7.3654482421875,-0.4299412667751312,0.8073809742927551,1.3901522159576416
1772876960907381200,7.37538134765625,-0.6106321811676025,0.92014479637146,1.3348079919815063
1772876960917313300,7.385313232421875,-0.7242567539215088,0.9953652620315552,1.0749077796936035
1772876960927246300,7.395246337890625,-0.7945770025253296,1.0846160650253296,0.7788257598876953
1772876960937179400,7.405179443359375,-0.777664065361023,1.1731586456298828,0.5197712779045105
1772876960947112400,7.415112548828125,-0.7083790302276611,1.2667181491851807,0.42610791325569153
1772876960957044500,7.42504443359375,-0.6967098116874695,1.3151479959487915,0.4401395618915558
1772876960966977300,7.434977294921875,-0.7072463631629944,1.2235883474349976,0.3556806147098541
1772876960976910300,7.444910400390625,-0.6705203056335449,0.9554756283760071,0.043600209057331085
1772876960986843400,7.454843505859375,-0.5787637829780579,0.5655627250671387,-0.34669777750968933
1772876960996775200,7.464775146484375,-0.35731977224349976,0.13564758002758026,-0.7608590126037598
1772876961006708200,7.474708251953125,-0.0659734234213829,-0.21772487461566925,-1.0456374883651733
1772876961016641000,7.48464111328125,0.17974206805229187,-0.44929978251457214,-1.1838808059692383
1772876961026573000,7.494572998046875,0.3515005111694336,-0.6023881435394287,-1.2001556158065796
1772876961036506000,7.504506103515625,0.40183693170547485,-0.6688361167907715,-1.147216558456421
1772876961046439200,7.514439208984375,0.3663870394229889,-0.615970253944397,-1.0493634939193726
1772876961056372200,7.524372314453125,0.3297470211982727,-0.5156233906745911,-0.9596429467201233
1772876961066304300,7.53430419921875,0.31773802638053894,-0.3914948105812073,-0.8520230054855347
1772876961076237300,7.5442373046875,0.3304396867752075,-0.3337111175060272,-0.6855671405792236
1772876961086170000,7.554170166015625,0.4432852864265442,-0.33056220412254333,-0.3998959958553314
1772876961096103200,7.564103271484375,0.5480692386627197,-0.30810484290122986,0.006118346471339464
1772876961106035200,7.57403515625,0.5960782766342163,-0.2359454184770584,0.4243052005767822
1772876961115968300,7.58396826171875,0.45429879426956177,-0.10927322506904602,0.7342433333396912
1772876961125901300,7.5939013671875,0.16858342289924622,0.005660282447934151,0.8711047768592834
1772876961135834000,7.603834228515625,-0.12795263528823853,0.09882884472608566,0.8920819759368896
1772876961145766100,7.61376611328125,-0.3437808156013489,0.2376096248626709,0.8770558834075928
1772876961155699200,7.62369921875,-0.43205368518829346,0.39154139161109924,0.8518368601799011
1772876961165632300,7.63363232421875,-0.45025211572647095,0.573451042175293,0.8572822213172913
1772876961175565300,7.6435654296875,-0.49694958329200745,0.7804763913154602,1.0190956592559814
1772876961185497300,7.653497314453125,-0.5559498071670532,0.9964925646781921,1.4460387229919434
1772876961195430400,7.663430419921875,-0.6732862591743469,1.166476845741272,1.6496269702911377
1772876961205363200,7.67336328125,-0.8564395904541016,1.2325844764709473,1.2544289827346802
1772876961215295200,7.683295166015625,-0.9686561226844788,1.0200409889221191,0.6419531106948853
1772876961225228300,7.693228271484375,-0.8623352646827698,0.6735158562660217,-0.045825812965631485
1772876961235161300,7.703161376953125,-0.5478162169456482,0.3786517083644867,-0.6435108184814453
1772876961245094400,7.713094482421875,-0.09109955281019211,0.07395598292350769,-1.049017310142517
1772876961255026400,7.7230263671875,0.5665038824081421,-0.09328600764274597,-0.671485185623169
1772876961264959200,7.732959228515625,0.896393895149231,-0.18712514638900757,-0.03154141455888748
1772876961274892300,7.742892333984375,0.6468961834907532,-1.1640269756317139,-0.5064671635627747
1772876961284825300,7.752825439453125,0.14805470407009125,-1.8373897075653076,-0.4330126941204071
1772876961294756000,7.762756103515625,-0.15681783854961395,-1.9125690460205078,0.649810791015625
1772876961304689200,7.772689208984375,-0.2355179786682129,-1.6022865772247314,1.5982697010040283
1772876961314622200,7.782622314453125,-0.30134332180023193,-1.0021440982818604,2.1215758323669434
1772876961324555300,7.79255517578125,-0.4125838279724121,-0.426897257566452,2.232466220855713
1772876961334487300,7.8024873046875,-0.47405996918678284,0.14774657785892487,1.9218566417694092
1772876961344420000,7.812420166015625,-0.3070765733718872,0.5463736057281494,1.3487797975540161
1772876961354353200,7.822353271484375,-0.043425772339105606,0.7468052506446838,0.7811525464057922
1772876961364286200,7.8322861328125,0.22876739501953125,0.7379505038261414,0.488275945186615
1772876961374218200,7.84221826171875,0.5067646503448486,0.42063775658607483,0.358720064163208
1772876961384151300,7.8521513671875,0.6637332439422607,-0.023256320506334305,0.19302724301815033
1772876961394084000,7.862083984375,0.6288332939147949,-0.29204943776130676,0.01082601584494114
1772876961404017200,7.87201708984375,0.5380823612213135,-0.3578289747238159,-0.1432434469461441
1772876961413949000,7.881948974609375,0.4586013853549957,-0.2851848602294922,-0.1941620260477066
1772876961423882200,7.89188232421875,0.43797042965888977,-0.04406626150012016,0.06490709632635117
1772876961433815300,7.901815185546875,0.44189751148223877,0.18444786965847015,0.5599114894866943
1772876961443748400,7.911748291015625,0.33865341544151306,0.20552758872509003,1.0206447839736938
1772876961453680000,7.92168017578125,0.019753731787204742,0.11385679244995117,1.2717883586883545
1772876961463613000,7.931613037109375,-0.3892707824707031,-0.08743290603160858,1.2300068140029907
1772876961473546000,7.9415458984375,-0.6700169444084167,-0.2940249741077423,0.9234007596969604
1772876961483478000,7.95147802734375,-0.7501570582389832,-0.3477505147457123,0.5767546892166138
1772876961493411000,7.9614111328125,-0.7110698819160461,-0.11722755432128906,0.36308926343917847
1772876961503344000,7.97134423828125,-0.5372975468635559,0.24568486213684082,0.32268643379211426
1772876961513277000,7.98127685546875,-0.23406043648719788,0.6569262146949768,0.35992807149887085
1772876961523208200,7.991208251953125,0.0982045978307724,0.9904242753982544,0.3245229423046112
1772876961533141200,8.001141357421876,0.29560768604278564,1.1442286968231201,0.22501739859580994
1772876961543074000,8.011073974609374,0.3544877767562866,1.0043842792510986,0.06193713843822479
1772876961553006000,8.021006103515624,0.25277847051620483,0.5862264633178711,-0.10596691071987152
1772876961562939100,8.030939208984375,0.0636839047074318,-0.011159444227814674,-0.24827346205711365
1772876961572872200,8.0408720703125,-0.14070571959018707,-0.6251299381256104,-0.367681086063385
1772876961582805200,8.05080517578125,-0.286166250705719,-1.0535452365875244,-0.5051707625389099
1772876961592737300,8.0607373046875,-0.34599363803863525,-1.2373286485671997,-0.6280599236488342
1772876961602670000,8.070670166015624,-0.35147708654403687,-1.2149018049240112,-0.6735168695449829
1772876961612603100,8.08060302734375,-0.34415125846862793,-1.0434235334396362,-0.6523735523223877
1772876961622536200,8.0905361328125,-0.36622512340545654,-0.7959224581718445,-0.5800199508666992
1772876961632468200,8.10046826171875,-0.41268450021743774,-0.4068601727485657,-0.4331255853176117
1772876961642401300,8.1104013671875,-0.43516984581947327,0.03976738452911377,-0.16221393644809723
1772876961652334300,8.120334228515626,-0.49593865871429443,0.4200742542743683,0.07732062041759491
1772876961662267100,8.13026708984375,-0.5206708908081055,0.7680271863937378,0.20371317863464355
1772876961672199000,8.140198974609374,-0.560154139995575,1.1054552793502808,0.3402806222438812
1772876961682132200,8.15013232421875,-0.30288130044937134,1.2621556520462036,0.5205808877944946
1772876961692065300,8.160065185546875,-0.0386270210146904,0.8368147611618042,0.47501713037490845
1772876961701998300,8.169998291015625,0.19523021578788757,0.30836021900177,0.20107078552246094
1772876961711930000,8.17993017578125,0.3765653967857361,-0.31302395462989807,-0.046969108283519745
1772876961721863000,8.18986279296875,0.46602070331573486,-0.7494838237762451,-0.3762814998626709
1772876961731796000,8.1997958984375,0.4930131733417511,-0.8404086828231812,-0.5516303777694702
1772876961741729000,8.20972900390625,0.41914692521095276,-0.5975528955459595,-0.4243986904621124
1772876961751661000,8.2196611328125,0.22947873175144196,-0.13827478885650635,0.05752348154783249
1772876961761594000,8.229593994140625,-0.03729890286922455,0.0019419770687818527,0.8008583188056946
1772876961771527200,8.239527099609376,-0.4064987897872925,0.10201611369848251,1.3408464193344116
1772876961781459200,8.249459228515626,-0.5847976803779602,0.2869635820388794,1.4160575866699219
1772876961791392000,8.25939208984375,-0.3065892159938812,0.6843535900115967,1.1040427684783936
1772876961801325000,8.269324951171875,0.22813117504119873,1.2047594785690308,0.48440903425216675
1772876961811258000,8.279258056640625,0.8001248836517334,1.3911666870117188,-0.25303971767425537
1772876961821190100,8.289190185546875,1.374292016029358,1.2404546737670898,-0.8536816239356995
1772876961831123200,8.299123291015626,1.5813672542572021,0.714667022228241,-1.0624284744262695
1772876961841056000,8.309055908203124,0.9826158881187439,0.15522660315036774,-0.8887447714805603
1772876961850989000,8.318989013671874,0.04061879962682724,-0.2148372083902359,-0.5576363801956177
1772876961860921000,8.328921142578125,-0.46574026346206665,-0.539918065071106,-0.290200412273407
1772876961870854100,8.338854248046875,-0.4225488603115082,-0.9868713617324829,-0.10814111679792404
1772876961880787200,8.348787109375,-0.32712674140930176,-1.141591191291809,-0.06544159352779388
1772876961890720300,8.35872021484375,-0.3250846266746521,-0.9576114416122437,-0.10578928142786026
1772876961900653000,8.368653076171874,-0.3863418400287628,-0.5936236381530762,-0.026704581454396248
1772876961910586000,8.378586181640625,-0.4431643784046173,-0.20222634077072144,0.21946817636489868
1772876961920518100,8.38851806640625,-0.4734293520450592,0.18822023272514343,0.49022457003593445
1772876961930451200,8.398451171875,-0.4445668160915375,0.5388975739479065,0.6935033798217773
1772876961940384300,8.40838427734375,-0.42297229170799255,0.794985294342041,0.7927870750427246
1772876961950317000,8.418317138671876,-0.4250871241092682,0.893618643283844,0.7714802026748657
1772876961960249000,8.4282490234375,-0.39078959822654724,0.7470811009407043,0.6229325532913208
1772876961970182100,8.43818212890625,-0.3412071168422699,0.4683869183063507,0.4403206706047058
1772876961980115200,8.448115234375,-0.3323957920074463,0.2302771508693695,0.25349485874176025
1772876961990048300,8.45804833984375,-0.3310120105743408,0.022220350801944733,-0.034936945885419846
1772876961999980300,8.467980224609375,-0.32874512672424316,-0.15613953769207,-0.37693795561790466
1772876962009913000,8.4779130859375,-0.35927054286003113,-0.23025557398796082,-0.6668075919151306
1772876962019846100,8.48784619140625,-0.3257797062397003,-0.14932610094547272,-0.7359685301780701
1772876962029779200,8.497779296875,-0.2970593571662903,0.025064073503017426,-0.4765010476112366
1772876962039711200,8.507711181640625,-0.367758572101593,0.22711090743541718,-0.009127718396484852
1772876962049644300,8.517644287109375,-0.5578441023826599,0.3733711838722229,0.4688500463962555
1772876962059577300,8.527577392578126,-0.7600467205047607,0.4539070427417755,0.8122257590293884
1772876962069510100,8.53751025390625,-0.9087491035461426,0.5033515691757202,0.9299047589302063
1772876962079442000,8.54744189453125,-0.9283869862556458,0.4956073462963104,0.7427412271499634
1772876962089375000,8.557375,-0.7554919123649597,0.4251531660556793,0.2021067589521408
1772876962099308000,8.56730810546875,-0.4969887435436249,0.29563990235328674,-0.550133466720581
1772876962109241000,8.577240966796875,-0.29833582043647766,0.10196338593959808,-1.1884289979934692
1772876962119173000,8.587173095703125,-0.11690744757652283,-0.03205513954162598,-1.5256322622299194
1772876962129106000,8.59710595703125,0.03248124569654465,-0.17275233566761017,-1.5697952508926392
1772876962139039000,8.6070390625,0.12619468569755554,-0.35227441787719727,-1.4120370149612427
1772876962148971000,8.616970947265624,0.13931074738502502,-0.44020241498947144,-1.1838539838790894
1772876962158904000,8.626904052734375,0.1557837426662445,-0.3511119484901428,-1.014600396156311
1772876962168837000,8.636837158203125,0.17001406848430634,-0.2534346580505371,-0.839004397392273
1772876962178770200,8.646770263671876,0.1385355144739151,-0.1776951551437378,-0.654151201248169
1772876962188702200,8.6567021484375,0.08584433048963547,-0.04015407711267471,-0.4893135130405426
1772876962198635000,8.666635009765624,0.020428841933608055,0.07648918032646179,-0.3052195608615875
1772876962208568000,8.676568115234375,-0.06629832834005356,0.12439705431461334,-0.12989461421966553
1772876962218501000,8.686501220703125,-0.14405304193496704,0.18354719877243042,-0.044197820127010345
1772876962228433200,8.69643310546875,-0.1450762301683426,0.20558299124240875,-0.0275056604295969
1772876962238366200,8.7063662109375,-0.12613636255264282,0.1964118629693985,-0.037222735583782196
1772876962248299000,8.716299072265626,-0.1314549595117569,0.11409194767475128,-0.036613669246435165
1772876962258232000,8.726232177734374,-0.12222976982593536,0.04457971826195717,-0.005300223361700773
1772876962268164000,8.7361640625,-0.0873040109872818,0.0016580841038376093,0.06739608198404312
1772876962278097200,8.74609716796875,-0.0787544697523117,0.00492125516757369,0.17009477317333221
1772876962288030200,8.7560302734375,-0.1268322467803955,0.048536110669374466,0.24557487666606903
1772876962297964300,8.76596435546875,-0.1817125380039215,0.11083650588989258,0.25587865710258484
1772876962307896300,8.775896240234376,-0.20921021699905396,0.1435457170009613,0.23086144030094147
1772876962317829400,8.785829345703124,-0.24053031206130981,0.18892598152160645,0.24697543680667877
1772876962327762400,8.795762451171875,-0.24631762504577637,0.24414955079555511,0.30428773164749146
1772876962337694500,8.805694580078125,-0.17427167296409607,0.13944284617900848,0.4366087317466736
1772876962347627500,8.81562744140625,-0.09525967389345169,0.007686415687203407,0.6291899085044861
1772876962357560300,8.825560302734376,-0.22205117344856262,0.3003380000591278,0.6169817447662354
1772876962367493400,8.835493408203124,-0.3021281659603119,0.6772770285606384,0.473110556602478
1772876962377425400,8.84542529296875,-0.19920657575130463,1.0227073431015015,0.3002176284790039
1772876962387358500,8.8553583984375,0.08197715878486633,1.154367446899414,0.056652892380952835
1772876962397291500,8.86529150390625,0.39391639828681946,1.1226369142532349,-0.33078643679618835
1772876962407224300,8.875224365234375,0.6330296397209167,0.7647501230239868,-0.9277126789093018
1772876962417156000,8.885156005859375,0.7330963611602783,-0.02919037640094757,-1.5369088649749756
1772876962427089400,8.89508935546875,0.6827223896980286,-1.0905554294586182,-1.8264787197113037
1772876962437022500,8.9050224609375,0.5064687728881836,-2.1957297325134277,-1.5372905731201172
1772876962446955500,8.91495556640625,0.11680065095424652,-2.741987943649292,-0.7255129814147949
1772876962456887300,8.92488720703125,-0.310005784034729,-2.251638412475586,0.0005488775204867125
1772876962466820400,8.9348203125,-0.5611775517463684,-1.0830005407333374,0.4800097346305847
1772876962476753200,8.944753173828126,-0.6075759530067444,0.13416419923305511,0.8140465617179871
1772876962486686200,8.954686279296874,-0.5956804156303406,0.9321484565734863,0.9702183604240417
1772876962496618200,8.9646181640625,-0.5583493113517761,1.178979754447937,0.9066066145896912
1772876962506551300,8.97455126953125,-0.41075557470321655,0.9670073390007019,0.7205097079277039
1772876962516484400,8.984484375,-0.16230209171772003,0.48093706369400024,0.5992522239685059
1772876962526417200,8.994417236328125,0.042224153876304626,0.04959152266383171,0.584887683391571
1772876962536349200,9.00434912109375,0.10187363624572754,-0.1524590402841568,0.5672775506973267
1772876962546282200,9.0142822265625,0.010481935925781727,-0.1411352902650833,0.5236749649047852
1772876962556215300,9.02421533203125,-0.17880968749523163,-0.016938503831624985,0.4599628150463104
1772876962566148400,9.0341484375,-0.312538743019104,0.12729616463184357,0.39178773760795593
1772876962576080400,9.044080322265625,-0.36402428150177,0.3190371096134186,0.3677508533000946
1772876962586013400,9.054013427734375,-0.35019156336784363,0.5464617609977722,0.36777961254119873
1772876962595946200,9.0639462890625,-0.3081232011318207,0.798055112361908,0.3578073978424072
1772876962605878300,9.073878173828126,-0.2726656198501587,0.8001723289489746,0.3852475583553314
1772876962615811300,9.083811279296874,-0.3484000563621521,0.527273952960968,0.4401978850364685
1772876962625744400,9.093744384765625,-0.46204674243927,0.15755687654018402,0.4596240520477295
1772876962635677400,9.103677490234375,-0.5811954736709595,-0.1975458264350891,0.5528914332389832
1772876962645609500,9.113609375,-0.6661247611045837,-0.3965209722518921,0.6620844602584839
1772876962655542300,9.123542236328126,-0.6360025405883789,-0.40380072593688965,0.6259983777999878
1772876962665475300,9.133475341796874,-0.4404442310333252,-0.17757079005241394,0.331408828496933
1772876962675408400,9.143408447265625,-0.12066356837749481,0.14782008528709412,-0.16913442313671112
1772876962685340400,9.15334033203125,0.1935364454984665,0.3426351249217987,-0.7020199298858643
1772876962695273500,9.1632734375,0.40472084283828735,0.37978726625442505,-1.1095272302627563
1772876962705206300,9.173206298828125,0.5194112062454224,0.3749629557132721,-1.3173766136169434
1772876962715139300,9.183139404296876,0.5315525531768799,0.3602687120437622,-1.3052512407302856
1772876962725071400,9.1930712890625,0.44514337182044983,0.3688286244869232,-1.1836440563201904
1772876962735004400,9.20300439453125,0.31792151927948,0.383562833070755,-1.0303934812545776
1772876962744937500,9.2129375,0.19704169034957886,0.3525117039680481,-0.8640562295913696
1772876962754870500,9.22287060546875,0.08792213350534439,0.2673848271369934,-0.7455178499221802
1772876962764802300,9.23280224609375,0.058210309594869614,0.16361290216445923,-0.7051946520805359
1772876962774735400,9.2427353515625,0.08160964399576187,0.0910303071141243,-0.6619617342948914
1772876962784668400,9.25266845703125,0.11056485772132874,0.08149565756320953,-0.586081326007843
1772876962794600200,9.26260009765625,0.16046024858951569,0.11073104292154312,-0.4685666859149933
1772876962804533200,9.272533203125,0.1973370462656021,0.0944862887263298,-0.27771684527397156
1772876962814466300,9.28246630859375,0.19355136156082153,0.026204438880085945,-0.06586983054876328
1772876962824399400,9.2923994140625,0.209396094083786,-0.05770564079284668,0.06637769192457199
1772876962834331400,9.302331298828125,0.24582095444202423,-0.07787509262561798,0.09256615489721298
1772876962844264200,9.31226416015625,0.2982569932937622,-0.055686164647340775,0.0482516847550869
1772876962854197200,9.322197265625,0.3392430543899536,-0.030278809368610382,0.016380304470658302
1772876962864130300,9.33213037109375,0.3516469895839691,-0.0038802255876362324,-0.011679559014737606
1772876962874062300,9.342062255859375,0.3485172390937805,0.04632462188601494,-0.020970528945326805
1772876962883995400,9.351995361328125,0.3439376652240753,-0.002043443499132991,-0.011112039908766747
1772876962893928200,9.36192822265625,0.3477305471897125,-0.13855788111686707,0.0401892326772213
1772876962903861200,9.371861328125,0.3344605267047882,-0.3276444375514984,0.1513671576976776
1772876962913793300,9.381793212890624,0.28288283944129944,-0.4413837790489197,0.3054579198360443
1772876962923726300,9.391726318359375,0.205060213804245,-0.510839581489563,0.4263867437839508
1772876962933659400,9.401659423828125,0.19836661219596863,-0.6263909339904785,0.5141224265098572
1772876962943592200,9.41159228515625,0.14700382947921753,-0.41564035415649414,0.566964864730835
1772876962953524200,9.421524169921875,-0.026199646294116974,0.3019055128097534,0.3224685788154602
1772876962963457300,9.431457275390626,-0.06114697828888893,0.8538573980331421,-0.002121207769960165
1772876962973390300,9.441390380859374,0.09182020276784897,1.0976756811141968,-0.40461912751197815
1772876962983323400,9.451323486328125,0.44259899854660034,0.9129459857940674,-0.9110857844352722
1772876962993255400,9.46125537109375,0.7545385360717773,0.4813240170478821,-1.5493357181549072
1772876963003188500,9.4711884765625,0.7947748899459839,-0.1949218213558197,-2.1502466201782227
1772876963013121300,9.481121337890626,0.5544701218605042,-0.9188944101333618,-2.299473285675049
1772876963023054300,9.491054443359374,0.38194018602371216,-1.880187749862671,-1.6959843635559082
1772876963032986400,9.500986328125,0.2474345564842224,-2.4890177249908447,-0.4565547704696655
1772876963042919400,9.51091943359375,0.0887967124581337,-2.0501186847686768,0.5940122008323669
1772876963052852500,9.5208525390625,-0.03259442746639252,-0.9866614937782288,1.1455312967300415
1772876963062784500,9.530784423828125,-0.002891660202294588,0.05710376426577568,1.363756537437439
1772876963072717300,9.54071728515625,0.10830596834421158,0.733879566192627,1.2013146877288818
1772876963082650400,9.550650390625,0.1466837227344513,0.8983942270278931,0.8571727275848389
1772876963092583400,9.56058349609375,0.12298184633255005,0.7137128114700317,0.6442689895629883
1772876963102515200,9.57051513671875,0.08081149309873581,0.44390660524368286,0.6487071514129639
1772876963112448500,9.580448486328125,0.010979413986206055,0.2685012221336365,0.748225748538971
1772876963122381600,9.590381591796875,-0.11770293116569519,0.2510242462158203,0.7730498909950256
1772876963132314400,9.600314453125,-0.2770395874977112,0.3960022032260895,0.6725522875785828
1772876963142246100,9.61024609375,-0.37213948369026184,0.5501217246055603,0.5791328549385071
1772876963152179200,9.62017919921875,-0.404143750667572,0.6636408567428589,0.6099523305892944
1772876963162112300,9.6301123046875,-0.43873634934425354,0.7687206268310547,0.8246794939041138
1772876963172045300,9.64004541015625,-0.4982750415802002,0.8901227116584778,1.1729704141616821
1772876963181977300,9.649977294921875,-0.5520874261856079,0.9318624138832092,1.5137641429901123
1772876963191910100,9.65991015625,-0.590041995048523,0.9234082102775574,1.65408194065094
1772876963201843200,9.66984326171875,-0.5074142217636108,0.8087575435638428,1.5384734869003296
1772876963211776300,9.6797763671875,-0.29008349776268005,0.533106803894043,1.2760754823684692
1772876963221708300,9.689708251953125,-0.03899187222123146,0.13115616142749786,0.9254053235054016
1772876963231641300,9.699641357421875,0.13102459907531738,-0.24041713774204254,0.3624415695667267
1772876963241574400,9.709574462890625,0.22770985960960388,-0.4941255748271942,-0.42737236618995667
1772876963251507200,9.719507080078126,0.2736952006816864,-0.6593888401985168,-1.1612434387207031
1772876963261439200,9.729439208984376,0.29811930656433105,-0.6859911680221558,-1.6607775688171387
1772876963271372300,9.739372314453124,0.37763702869415283,-0.5031685829162598,-1.869964361190796
1772876963281305300,9.749305419921875,0.4872356951236725,-0.18553657829761505,-1.7950488328933716
1772876963291237400,9.7592373046875,0.5127349495887756,0.1190507560968399,-1.4726481437683105
1772876963301169700,9.769169677734375,0.4345402717590332,0.25288018584251404,-0.9940381646156311
1772876963311102700,9.779102783203125,0.27341821789741516,0.22816765308380127,-0.403659850358963
1772876963321035500,9.789035400390626,0.05685635656118393,0.17361173033714294,0.1817178726196289
1772876963330967600,9.798967529296876,-0.1311955749988556,0.1760309487581253,0.5744454264640808
1772876963340900600,9.808900634765624,-0.26865169405937195,0.21280014514923096,0.7107875943183899
1772876963350833700,9.818833740234375,-0.3111104667186737,0.27172738313674927,0.5905762314796448
1772876963360766700,9.8287666015625,-0.21944554150104523,0.26947808265686035,0.3293406069278717
1772876963370698800,9.83869873046875,-0.10878586769104004,0.24999040365219116,0.06511828303337097
1772876963380631800,9.8486318359375,-0.054599862545728683,0.231588214635849,-0.062185343354940414
1772876963390564600,9.858564697265624,-0.040896568447351456,0.2663576602935791,-0.009880860336124897
1772876963400497700,9.86849755859375,-0.04175437241792679,0.31637340784072876,0.16580255329608917
1772876963410429400,9.878429443359375,-0.04060042276978493,0.30886515974998474,0.33958685398101807
1772876963420362500,9.888362548828125,-0.04134184867143631,0.1978188008069992,0.42264658212661743
1772876963430295600,9.898295654296875,-0.032468460500240326,0.10374557226896286,0.3777883052825928
1772876963440227600,9.9082275390625,0.017068732529878616,0.032832782715559006,0.26261723041534424
1772876963450160400,9.918160400390626,0.03632764890789986,0.1373589187860489,0.3916977345943451
1772876963460093400,9.928093505859374,0.02564304508268833,0.2599135935306549,0.6419922709465027
1772876963470026500,9.938026611328125,0.0014554174849763513,0.2116864174604416,0.5619016885757446
1772876963479958500,9.94795849609375,-0.1122485101222992,-0.0023435817565768957,0.44685766100883484
1772876963489891600,9.9578916015625,-0.16998344659805298,-0.08496628701686859,0.4151700437068939
1772876963499824600,9.96782470703125,-0.1476626992225647,-0.029765885323286057,0.43235886096954346
1772876963509757400,9.97775732421875,-0.15265558660030365,-0.14016109704971313,0.38776397705078125
1772876963519689500,9.987689453125,-0.3060837686061859,0.05050871521234512,0.18010319769382477
1772876963529622500,9.99762255859375,-0.37838777899742126,0.24347497522830963,-0.09228279441595078
