time,seconds_elapsed,z,y,x
1772807030624522800,0.068522705078125,0.08766834658086299,-0.047105285649280994,0.1367345753058791
1772807030634454800,0.078454833984375,0.0005664017111063003,-0.03947859016312286,0.07520798386055975
1772807030644386800,0.08838671875,-0.0029898294657468793,-0.051731977335549885,0.04753711946159601
1772807030654318800,0.09831884765625,0.06928337958455086,-0.0515068816090934,0.07892296752939
1772807030664249900,0.108249755859375,0.0174848032861948,-0.0506968438678421,0.0496922699351795
1772807030674181600,0.118181640625,-0.02439852819740772,-0.02940698574287817,0.01604969244915992
1772807030684113700,0.12811376953125,0.0284428351521492,-0.026455278064124284,0.050153147178888316
1772807030694045000,0.138044921875,0.06284253288209438,-0.016667733015958218,0.06604019641224294
1772807030703977000,0.14797705078125,0.021981530183553696,0.006991502855159342,0.026981238166987893
1772807030713908700,0.15790869140625,0.01885784520506859,0.024699246443342416,0.010716149401478468
1772807030723840800,0.1678408203125,0.06404781701862812,0.016600330335553734,0.024514080868475136
1772807030733771800,0.177771728515625,0.0403939697086811,0.019230806703306732,0.027615426150988786
1772807030743703800,0.187703857421875,0.002994505640864372,0.01829809243045747,0.04542191740591079
1772807030753635800,0.1976357421875,0.029494390031695364,0.004861377224978059,0.10895197589443996
1772807030763566800,0.20756689453125,0.04819616789221763,0.0007471468391828239,0.13064557424839585
1772807030773499000,0.217498779296875,0.02664601486325264,-0.005032550807110965,0.07394174505071714
1772807030783431000,0.227430908203125,0.02620586988031864,-0.002695029503945261,0.04749187381407246
1772807030793361700,0.237361572265625,0.04864683426916599,-0.012663465810660272,0.011350355651788413
1772807030803293700,0.247293701171875,0.028736849662661552,-0.03153201507283374,-0.02364539000885561
1772807030813225700,0.257225830078125,0.027100188371539113,-0.043876697257906196,0.012315017699170858
1772807030823157800,0.26715771484375,0.03069792060256004,-0.05088933423263952,0.04637267879210412
1772807030833088800,0.2770888671875,0.046862873461842536,-0.04194030410153791,0.06750277977809309
1772807030843020800,0.287020751953125,0.026663550519943235,-0.052015506984665984,0.06942382923485711
1772807030852952800,0.296952880859375,0.02053308494091034,-0.04133146975450217,0.09016378012578934
1772807030862883800,0.3068837890625,0.0260638310611248,-0.031360878023318946,0.06363474270571023
1772807030872815900,0.31681591796875,0.03203998286128044,-0.032269151974655685,0.02780515830311924
1772807030882748000,0.326747802734375,0.02575754159092903,-0.027254575215652582,0.025270013802312315
1772807030892678700,0.3366787109375,0.029952655193209648,-0.02263559191180393,0.02390077127572149
1772807030902610700,0.346610595703125,0.05120528658032417,-0.011013945037964731,0.0300637143522501
1772807030912542700,0.356542724609375,0.03429740639925003,0.003533380024228245,0.03888226823778823
1772807030922474800,0.366474853515625,0.02651917361319065,0.009464925497677176,0.0514677917077206
1772807030932405800,0.37640576171875,0.027269699719548224,0.007648980383202433,0.051392790242750196
1772807030942337800,0.386337890625,0.03100771720409393,0.009204959387239068,0.04426281049866229
1772807030952269800,0.396269775390625,0.03834229787588119,0.005608049140125513,0.03524712660582736
1772807030962200800,0.406200927734375,0.036247371423244475,0.002014883486367762,0.05458749463083222
1772807030972132600,0.416132568359375,0.044774961271882054,0.008529653941560536,0.06716815926255658
1772807030982064600,0.426064697265625,0.021586393386125564,-0.0038639819517731666,0.07039791669771076
1772807030991996700,0.43599658203125,0.03266775937080383,-0.015293722982704639,0.07100704330569133
1772807031001928000,0.445927978515625,0.04149930060207844,-0.012512458233721553,0.026621154416631907
1772807031011860000,0.45585986328125,0.020551789641380307,-0.021941453901492058,-0.008457465488184242
1772807031021791700,0.465791748046875,0.029085224708914757,-0.024499339957069603,0.00994662633370608
1772807031031722800,0.47572265625,0.03313011618554592,-0.038561365720350294,0.012632157356943934
1772807031041654800,0.48565478515625,0.03882160582542419,-0.02943730781590566,0.05642932310523465
1772807031051586800,0.4955869140625,0.025661095479130744,-0.03243113760333508,0.08802386375395581
1772807031061517800,0.505517822265625,0.03045008332133293,-0.04186459025051444,0.09251390518220141
1772807031071449900,0.515449951171875,0.04271802874207496,-0.03655347823034972,0.06840581129873172
1772807031081382000,0.5253818359375,0.04301730394959449,-0.027690080556087193,0.054565666391514236
1772807031091314000,0.53531396484375,0.041222237226366996,-0.03197004116391763,0.00838642781227827
1772807031101244700,0.54524462890625,0.036280104649066926,-0.017975564211513848,-0.01533085838900879
1772807031111176700,0.5551767578125,0.03538052546083927,-0.008269596499577165,0.02309809485701844
1772807031121108700,0.565108642578125,0.03253916455507278,-0.004981807000562549,0.03415719421096146
1772807031131039700,0.575039794921875,0.026706805139780042,-0.0030223434958606956,0.05290792577974498
1772807031140971800,0.5849716796875,0.0377799878180027,0.006864661605097353,0.0652091706818901
1772807031150903800,0.59490380859375,0.03957739262878895,0.021388276998139916,0.06873374634515493
1772807031160834800,0.604834716796875,0.03209785052835941,0.014647698430437594,0.046764874713774766
1772807031170766800,0.614766845703125,0.035094109734892846,0.0028042437657713887,0.0475636969412677
1772807031180699000,0.624698974609375,0.03359130395650863,-0.007676708640344441,0.06399835185371339
1772807031190630700,0.634630615234375,0.03852876035869121,0.007493022636510431,0.03570502644116059
1772807031200561700,0.644561767578125,0.040624855855107306,-0.009069094580505043,0.04610303153786808
1772807031210493700,0.65449365234375,0.029404958182573316,-0.011140165233518927,0.034863899441901595
1772807031220425700,0.66442578125,0.028662030860781666,-0.025442630422860383,0.036824842517636715
1772807031230356700,0.674356689453125,0.01879413231909275,-0.025133527941070495,0.02137507045669481
1772807031240288800,0.684288818359375,0.03495791613459587,-0.03937584217470139,0.02153305576369166
1772807031250220800,0.694220703125,0.029727029743790625,-0.030475162963662296,0.03572117385836318
1772807031260152800,0.70415283203125,0.033927988564968106,-0.028463585679233072,0.06849056697273627
1772807031270083600,0.71408349609375,0.02585632579028606,-0.0364052105997689,0.07566392920082435
1772807031280015600,0.724015625,0.032146365845203397,-0.02561683621229604,0.0772628522974439
1772807031289947600,0.73394775390625,0.03169160781502724,-0.011722805693373084,0.06959595266506076
1772807031299879000,0.74387890625,0.042158641293644904,-0.028925924227666107,0.03952692281687632
1772807031309811000,0.75381103515625,0.03303016294240951,-0.007081939351279288,0.006333787865098565
1772807031319742700,0.76374267578125,0.027795184898376464,-0.016514990139659493,-0.0009140826376155018
1772807031329674800,0.7736748046875,0.02225976260304451,-0.008588361858855932,-0.0018221739258617161
1772807031339605800,0.783605712890625,0.036924832293391226,0.019567600909620522,0.023774295351840554
1772807031349537800,0.793537841796875,0.030194062733650207,0.008631598212383688,0.05450781699074432
1772807031359469800,0.8034697265625,0.025261867028474806,0.013503478565067051,0.09144024806870148
1772807031369400800,0.81340087890625,0.03529343169927597,0.009649159490782768,0.0676658431190066
1772807031379332900,0.823332763671875,0.034548166289925575,0.004570924644730985,0.07563384458981454
1772807031389265000,0.833264892578125,0.03350421019494533,0.0011384111790917813,0.05796460638111457
1772807031399195600,0.843195556640625,0.032902152648568155,-0.007552041081059724,0.032356848524417725
1772807031409127700,0.853127685546875,0.03170797442793846,-0.015529102641157805,0.03288976809103042
1772807031419059700,0.863059814453125,0.03829436708092689,-0.02254747523693368,0.01976093152463436
1772807031428991700,0.87299169921875,0.027674773389101025,-0.03055062108635902,0.02802159579908475
1772807031438923000,0.882923095703125,0.0401022932857275,-0.03826936050383374,0.011803889839258045
1772807031448854800,0.892854736328125,0.037414661636948586,-0.040257045456022024,0.034961916456278413
1772807031458786800,0.902786865234375,0.03293663944005966,-0.05184709161520004,0.03116352882031351
1772807031468717800,0.9127177734375,0.03862929812371731,-0.03150335523393005,0.03856425179718062
1772807031478649900,0.92264990234375,0.022619828087091443,-0.033042163907457144,0.0601234101165086
1772807031488582000,0.932581787109375,0.040429625543951984,-0.0312106924302876,0.061493456360697744
1772807031498512600,0.9425126953125,0.028017887738347052,-0.02328320563295856,0.06894006430590525
1772807031508444700,0.952444580078125,0.02442424716055393,-0.019437873582728207,0.05099495003158226
1772807031518376700,0.962376708984375,0.03339607364535332,-0.026284323677700012,0.03238225696031004
1772807031528309000,0.97230908203125,0.03593757482171058,-0.007918426708038896,0.010718268293328583
1772807031538239700,0.98223974609375,0.042971126720309255,0.00958922773078084,0.012844265737663953
1772807031548171500,0.992171630859375,0.038781273815035815,0.012390128761995583,0.003020571663882583
1772807031558103300,1.002103271484375,0.03309855200350285,-0.004938040924072265,0.03198324770536273
1772807031568034300,1.012034423828125,0.03953706061840057,0.004929894150234758,0.07481812602644786
1772807031577966300,1.02196630859375,0.0287608150601387,0.011253854741062969,0.07940718911606819
1772807031587898400,1.0318984375,0.03055412821769714,-0.0071588405123911795,0.08087713380446657
1772807031597830400,1.041830322265625,0.021726094117760657,-0.006966222283430397,0.05643385314987972
1772807031607761400,1.051761474609375,0.042673020556569095,0.006977949253842234,0.03989363723741844
1772807031617693400,1.061693359375,0.03563713057041168,-0.007261917294375598,0.02415934914667159
1772807031627625500,1.07162548828125,0.019926351219415665,-0.007177819207496941,0.029263796146214008
1772807031637556200,1.08155615234375,0.023074586117267606,-0.01519132205415517,0.03837738745557144
1772807031647488300,1.09148828125,0.0432785852342844,-0.034634858192689716,0.032382384824473406
1772807031657420300,1.101420166015625,0.03385550785064697,-0.027469788868911563,0.0452690831980668
1772807031667351600,1.1113515625,0.04223579818308353,-0.027703524559549986,0.04310876335902139
1772807031677283300,1.121283447265625,0.048669630622863766,-0.01959845270561054,0.04758928804025054
1772807031687215400,1.13121533203125,0.02772211966216564,-0.014941128419060258,0.0599104432192631
1772807031697147400,1.1411474609375,0.0386468337804079,-0.03325929552316666,0.06367660908605903
1772807031707078400,1.151078369140625,0.0328127207994461,-0.03078139763493091,0.05398419497543946
1772807031717010400,1.161010498046875,0.03700608083605766,-0.030599903588183222,0.04294820250244811
1772807031726942200,1.170942138671875,0.03162204971015453,-0.031908483702410013,0.03765146606750786
1772807031736873500,1.18087353515625,0.022501754665374754,-0.024527068214211613,0.022687413430586455
1772807031746805500,1.190805419921875,0.04016542164981365,-0.011378997224383056,0.0070968811920844015
1772807031756737500,1.200737548828125,0.031496377503871915,-0.005249810286983847,0.010111132713034748
1772807031766669600,1.210669677734375,0.04841419455707073,-0.00476228249836713,0.015359335564821958
1772807031776600300,1.220600341796875,0.03390168507993221,-0.0003525032320991158,0.05030937892021611
1772807031786532400,1.230532470703125,0.03226151665747166,0.0035758857253938912,0.056835912878438824
1772807031796464400,1.24046435546875,0.03151566672623157,0.00856425033090636,0.07600273270113393
1772807031806395400,1.2503955078125,0.02627601250708103,0.005067037598602473,0.06510536324754357
1772807031816327400,1.260327392578125,0.04676759639382362,0.00538741039307788,0.034128680502530186
1772807031826259500,1.270259521484375,0.03718786714375019,0.011173026323504745,0.01616926370821893
1772807031836190500,1.2801904296875,0.04377133718729019,0.0005828961881808937,0.023502017749100924
1772807031846122500,1.29012255859375,0.04466799376606941,-0.01371639066338539,0.031433523134421555
1772807031856054300,1.30005419921875,0.03703530693054199,-0.00870175910545513,0.03383791739502921
1772807031865986300,1.309986328125,0.021770517781376838,-0.008845880283880978,0.05802355176042765
1772807031875917300,1.319917236328125,0.02386310614645481,-0.02672905350420624,0.05357042654277756
1772807031885849600,1.329849609375,0.02970364886820316,-0.021878526466805485,0.05766169617809355
1772807031895781600,1.33978173828125,0.04092530010640621,-0.03862705136770382,0.04346877404414117
1772807031905712400,1.34971240234375,0.03090367230772972,-0.03622143326438963,0.05139803267344832
1772807031915644400,1.35964453125,0.026268413722515104,-0.03127075205445289,0.04646497845174744
1772807031925576400,1.369576416015625,0.026420973935723305,-0.019474607130233197,0.03518388864388689
1772807031935508500,1.379508544921875,0.02926584197282791,-0.016125004441384226,0.0344784803208895
1772807031945439200,1.389439208984375,0.04080021242201328,-0.011322901389282197,0.028781729984004047
1772807031955371300,1.399371337890625,0.021954057654738426,-0.0031390104117803275,0.012717479286529124
1772807031965303300,1.40930322265625,0.028845570734143254,-0.01589448362113908,0.01025399351613596
1772807031975234600,1.419234619140625,0.04725450312793254,0.002383278407342732,0.03888999488651752
1772807031985166300,1.429166259765625,0.031247955700755118,-0.0006679441231302916,0.04261100643733516
1772807031995098400,1.439098388671875,0.034546412724256514,-0.0018352891357615588,0.0457011179397814
1772807032005029400,1.449029296875,0.028414193579554554,0.011956669248174876,0.04758364375075325
1772807032014961400,1.45896142578125,0.02856441570520401,0.0018424677952192724,0.05707691856008023
1772807032024893400,1.4688935546875,0.03904255509972572,0.009744071232620626,0.04038912913678214
1772807032034825200,1.4788251953125,0.04158580984175205,0.002981901887618005,0.018167543119657785
1772807032044756500,1.488756591796875,0.022580665120482443,0.0062448492063209415,0.00016492650443688034
1772807032054688500,1.4986884765625,0.03216273245811462,-0.012974541053827851,0.0021251023951917884
1772807032064620500,1.50862060546875,0.03052197951376438,-0.02215297776032239,0.028464334597904234
1772807032074551300,1.51855126953125,0.045344870114326474,-0.012965499230846762,0.027009642277564853
1772807032084483300,1.5284833984375,0.05103694427609443,-0.023558953834418205,0.05066971839889884
1772807032094415400,1.538415283203125,0.03772095110714435,-0.02052285580784082,0.05999603914348408
1772807032104347400,1.548347412109375,0.028745032969117162,-0.021726404645014553,0.039864392876625056
1772807032114278400,1.5582783203125,0.040865678873658176,-0.019002021182421593,0.015012531421147286
1772807032124210400,1.56821044921875,0.03472878355383873,-0.016393519184459,0.02519808107726276
1772807032134142500,1.578142578125,0.03218669785559177,-0.018458470623940227,0.022705515342857686
1772807032144073500,1.588073486328125,0.04386018451452255,-0.019213289312925187,0.04302504886463284
1772807032154005200,1.598005126953125,0.030394553741812703,-0.001312142044492066,0.04886928138080984
1772807032163937300,1.607937255859375,0.025758710634708405,-0.004860208181198686,0.02496693920250982
1772807032173868500,1.61786865234375,0.045516135028004646,0.002850676723383367,0.020074143925961106
1772807032183800600,1.627800537109375,0.04028583315908909,-0.0021654709381982683,0.01974938721731305
1772807032193732600,1.637732666015625,0.04312368693351745,-0.005501593090966344,0.030210849471669642
1772807032203664400,1.647664306640625,0.03803659292757511,-0.003673007690627128,0.033926362863462414
1772807032213595400,1.657595458984375,0.034297990921139714,-0.0007360591895878315,0.05726202933602035
1772807032223527400,1.66752734375,0.02697276259958744,0.0078060889073647555,0.056703628268279134
1772807032233459500,1.67745947265625,0.02907762592434883,0.016872388742584735,0.030378771650791166
1772807032243390200,1.68739013671875,0.03566226501166821,-0.0032031982217915356,0.03504272660752758
1772807032253322200,1.697322265625,0.03327215500473976,0.002592920836340636,0.00977211001701653
1772807032263254500,1.707254638671875,0.029980712243914603,-0.004902841746527701,0.0199792504504323
1772807032273185500,1.717185546875,0.022954759129881857,-0.014035466549918055,0.004284545451402664
1772807032283117300,1.727117431640625,0.04016951330304146,-0.002872596294246614,0.026106775153707712
1772807032293049300,1.73704931640625,0.03674129242002964,-0.010848415745329111,0.035665151088498534
1772807032302981400,1.7469814453125,0.014605448457598685,-0.0243852120581083,0.06014872722085565
1772807032312912400,1.756912353515625,0.035409751555323596,-0.0176032603004016,0.05899469834752381
1772807032322844400,1.766844482421875,0.03585924888849258,-0.011978223492857067,0.03332651554048061
1772807032332776200,1.776776123046875,0.02687690100967884,-0.020552246299106628,0.023061617037840185
1772807032342707500,1.78670751953125,0.019244214174151418,-0.017431301266979424,0.005063128608465194
1772807032352639500,1.796639404296875,0.03210954096615314,-0.015558931523840873,0.006049034373275935
1772807032362571500,1.806571533203125,0.04198620733618736,-0.017747911201789975,0.018401059614587573
1772807032372502300,1.816502197265625,0.04004384109675884,-0.010892675012163818,0.016105240294989196
1772807032382434300,1.826434326171875,0.02792904041111469,-0.006972451094817369,0.04606686424594372
1772807032392366300,1.836366455078125,0.027634441378712654,-0.007655136129353195,0.025632892297953364
1772807032402298400,1.84629833984375,0.03990940106213092,0.00258532205177471,0.013442341228667646
1772807032412229400,1.8562294921875,0.030038579910993575,0.006458802484255284,0.006060122022870928
1772807032422161400,1.866161376953125,0.03497428274750709,0.007115403229463845,0.02824565034592524
1772807032432093400,1.876093505859375,0.03991173914968967,0.012968988095875829,0.026009580123238264
1772807032442024400,1.8860244140625,0.02345218725800514,0.009548767856229096,0.05200925990696996
1772807032451956500,1.89595654296875,0.03826514098644256,0.016212646192219106,0.030258250543661415
1772807032461888300,1.90588818359375,0.03856675428152084,-0.0008301124149002134,0.049605431901942935
1772807032471820300,1.9158203125,0.048447512304782864,-0.0048299226407893,0.017666498262342064
1772807032481751600,1.92575146484375,0.03572948502898216,-0.005513393126614392,-0.019106614068057387
1772807032491683600,1.93568359375,0.028248773884773253,0.005667725171800702,-0.009093881961889564
1772807032501615600,1.94561572265625,0.031098318096995353,-0.013539883319009094,0.021383071100059894
1772807032511546400,1.95554638671875,0.045161330240964886,-0.01925895508555695,0.03183861507028341
1772807032521478400,1.965478515625,0.031250293788313864,-0.01932334382496774,0.06206066178940236
1772807032531410400,1.975410400390625,0.024373978278040883,-0.015463398727495222,0.056555196240916844
1772807032541341200,1.985341064453125,0.03035948242843151,-0.011754187212325632,0.037873529586661604
1772807032551273500,1.9952734375,0.030948680493235587,-0.011111815921869128,0.01457428613435477
1772807032561205500,2.00520556640625,0.01702770716845989,-0.012346983740013091,0.007488985782209783
1772807032571137300,2.01513720703125,0.029746318966150282,-0.0056812057078816,0.0007143040155060589
1772807032581068300,2.025068359375,0.03213642897307872,-0.007517828284204006,0.01619253498595208
1772807032591000300,2.035000244140625,0.03811842599213123,-0.003173241474945098,0.04927901295917109
1772807032600932400,2.044932373046875,0.027197803527116773,0.005664546834025531,0.0428627709750086
1772807032610863000,2.054863037109375,0.04291033644378185,0.0073969601172022515,0.029286738630384206
1772807032620795100,2.064795166015625,0.028693010520935057,0.0016479498701170085,0.01625854942686856
1772807032630727200,2.07472705078125,0.039165304696559905,0.00513891552472487,0.006428681340627372
1772807032640658400,2.084658447265625,0.036921325162053105,0.01222282763738185,0.012956968864519148
1772807032650590200,2.094590087890625,0.027191958308219907,0.0033175453164614736,0.02902456229655072
1772807032660522200,2.104522216796875,0.03407762616872787,-0.004922569360304624,0.04480542947538197
1772807032670454300,2.114454345703125,0.030936405533552168,0.001742222291138023,0.043779356096964324
1772807032680385300,2.12438525390625,0.024206220495700835,-0.00979459584346041,0.04172273409441113
1772807032690317300,2.1343173828125,0.036029929280281064,-0.014743724417127667,0.017242409365065395
1772807032700249000,2.1442490234375,0.03633212709724903,-0.008220770655479282,0.0146352590739727
1772807032710180400,2.154180419921875,0.031246202135086058,-0.015577124767657368,-0.0011251315724104642
1772807032720112400,2.1641123046875,0.03947977747321128,-0.015422171667963265,0.008156053122505546
1772807032730044400,2.17404443359375,0.044725861433148384,-0.018006123746559022,0.012502740557305514
1772807032739975200,2.18397509765625,0.038002106136083603,-0.0284661246961914,0.05024246943015605
1772807032749907200,2.1939072265625,0.030223288828134534,-0.012000910248700529,0.06452305158125236
1772807032759839200,2.203839111328125,0.0273795898348093,-0.008980758709926158,0.05255361418304964
1772807032769771300,2.213771240234375,0.02573006906211376,-0.0111180447332561,0.032662096814997495
1772807032779702300,2.223702392578125,0.022445056042075157,-0.007452800223976373,-0.006620550650916993
1772807032789634300,2.23363427734375,0.040704935353994366,-0.0005323715773411095,-0.013119520748779177
1772807032799566300,2.24356640625,0.03696457978188991,0.006747300569433718,0.018633644527755677
1772807032809497300,2.253497314453125,0.0246913736641407,0.0014618892461061477,0.0429110488298349
1772807032819429400,2.263429443359375,0.03426934934854507,0.010356704971939325,0.04267095646364614
1772807032829361200,2.273361083984375,0.025740005934238433,0.0013635434381663797,0.03953092313855886
1772807032839292200,2.283292236328125,0.024695465317368506,0.025168233928270636,0.02307412945954129
1772807032849224400,2.293224365234375,0.03831424082517624,0.012940401322208344,0.01186415039282292
1772807032859156500,2.303156494140625,0.030834114202857015,0.013587941978126763,0.018342954485490916
1772807032869088300,2.313088134765625,0.03173135530352592,0.001238620150554925,0.018301343833468854
1772807032879019300,2.323019287109375,0.02185702702105045,-0.008883253152202814,0.01564759618798271
1772807032888951300,2.332951416015625,0.02305997307002544,-0.00650461438735947,0.04252670742105692
1772807032898883300,2.34288330078125,0.032934301352500917,-0.018067626409139483,0.03154770583231002
1772807032908814000,2.35281396484375,0.02515489952266216,-0.00628116262871772,0.030614425303880123
1772807032918746000,2.36274609375,0.03219078950881958,-0.01844752910481766,0.016438746565673498
1772807032928678400,2.372678466796875,0.022766543081402777,-0.01430843827240169,-0.0023333565847016868
1772807032938610400,2.3826103515625,0.01812660832107067,-0.0007148702710866927,0.001465085850190371
1772807032948541200,2.392541259765625,0.023066402810811994,-0.0038463366972282527,0.026528471164498475
1772807032958473200,2.40247314453125,0.04147358163893223,-0.006063903148844838,0.030326456941664217
1772807032968405200,2.4124052734375,0.02068330706655979,-0.032134072619210925,0.05319390311427414
1772807032978336300,2.422336181640625,0.032653730845451354,-0.0195978133847937,0.04667421902194619
1772807032988268300,2.432268310546875,0.032654899889230725,0.008231858305074275,0.025242870067059994
1772807032998200000,2.442199951171875,0.03145312288403511,0.003054419134557247,0.002356956655997783
1772807033008131300,2.45213134765625,0.029800679501891133,0.00010342384185642004,0.008733652081061154
1772807033018063400,2.4620634765625,0.031303485280275344,0.0090303334726952,0.0113624114157632
1772807033027995400,2.471995361328125,0.031008886247873305,0.003076210841257125,0.027460235589276998
1772807033037927400,2.481927490234375,0.028614100065827368,0.0010168671586550772,0.05185379535062238
1772807033047858200,2.491858154296875,0.03280044583976269,0.0006747939890250563,0.05684581321794539
1772807033057790200,2.501790283203125,0.04028407959342003,-0.012021879971493035,0.038170649369712914
1772807033067722200,2.51172216796875,0.035494507229328155,-0.00292907572183758,0.016408059166464952
1772807033077653200,2.5216533203125,0.030702596777677536,0.0017496566789224743,0.01740549097228795
1772807033087585300,2.531585205078125,0.03609130407869816,-0.0021312398750334975,0.007454444191791117
1772807033097517300,2.541517333984375,0.030709611040353774,-0.014652447670791297,0.015408581534028052
1772807033107448300,2.5514482421875,0.022336919492483138,-0.0013353219906799495,0.022597616255283354
1772807033117380400,2.56138037109375,0.011115852776169777,-0.017435082392953334,0.028752997079864142
1772807033127312100,2.57131201171875,0.02952712325751781,-0.013852675595227628,0.02491287092771381
1772807033137244200,2.581244140625,0.025043255841732025,-0.008496902449429035,0.024721111215278504
1772807033147175400,2.591175537109375,0.03701660223007202,-0.008040518717747181,0.010709683128073811
1772807033157107500,2.601107421875,0.03177987062036991,-0.0025198556001298127,0.024926990784611552
1772807033167039500,2.61103955078125,0.033575521865487096,-0.003546020310092717,0.04106553056100383
1772807033176970200,2.62097021484375,0.040164252606034276,0.0010792831366881728,0.03718436001241207
1772807033186902300,2.63090234375,0.03328442996442318,-0.0019938406983390448,0.0405508955697529
1772807033196834300,2.640834228515625,0.040166006171703336,0.0005856361345387995,0.04435379498405382
1772807033206765000,2.65076513671875,0.032387188863754274,-0.011234437654539941,0.01686566674085334
1772807033216697300,2.660697265625,0.027301848423480986,-0.007269753540959209,0.009525624442659317
1772807033226629400,2.67062939453125,0.02191898634135723,-0.00602726093288511,-0.004614745520148426
1772807033236561400,2.6805615234375,0.027763036194443702,0.007031177278421819,-0.020849603544175623
1772807033246492400,2.690492431640625,0.037195465928316115,-0.007884195644874125,0.026183000461384654
1772807033256424200,2.700424072265625,0.04273731796443462,-0.0015857713541015982,0.03569896202655509
1772807033266356200,2.710356201171875,0.033464462706446645,0.008764156817179172,0.05075356075745076
1772807033276287200,2.720287353515625,0.023886487022042272,-0.0008384783844463527,0.03974613679181784
1772807033286219300,2.73021923828125,0.0431914914727211,-0.002605086198169738,0.002071618642285466
1772807033296151300,2.7401513671875,0.032115970706939695,-0.006927461175620556,-0.0026440299690701067
1772807033306083300,2.750083251953125,0.04543430196344852,0.002499123339354992,0.004509951705113053
1772807033316014300,2.760014404296875,0.03151625124812126,-0.0066382872370071705,0.004615476172510534
1772807033325946400,2.7699462890625,0.04408405639827251,-0.004013290761969984,0.03141469056978822
1772807033335878400,2.77987841796875,0.04333820646703243,-0.004468121857382357,0.029197690373752264
1772807033345809200,2.78980908203125,0.0319675021469593,0.0034301388454623517,0.019432119695376605
1772807033355741200,2.7997412109375,0.03690495854914188,-0.004026643433887511,0.01314903910420835
1772807033365673200,2.809673095703125,0.024933365726470945,-0.014591657394263893,0.012504950780700892
1772807033375604500,2.8196044921875,0.023587796336412427,-0.01647062127497047,0.004897964642010629
1772807033385536300,2.829536376953125,0.0265823019772768,-0.005201477633230388,0.010290051210206002
1772807033395468300,2.83946826171875,0.03390869934260845,-0.002125431188754737,0.023055662221089006
1772807033405400300,2.849400390625,0.026429157242178914,-0.007813030104804783,0.03776553916754201
1772807033415331300,2.859331298828125,0.02553308518528938,-0.004440247469767928,0.024743980634212494
1772807033425263000,2.86926318359375,0.026432664373517035,-0.013759572217985986,0.017519728469103574
1772807033435195100,2.879195068359375,0.040646483165025706,-0.00688280004998669,0.0038622649187222123
1772807033445126400,2.88912646484375,0.039300329253077505,-0.005791424616705626,0.018168693897128104
1772807033455058400,2.899058349609375,0.03480594044327736,-0.00955156260151416,0.030682321174629032
1772807033464990500,2.908990478515625,0.028373861569166183,0.013646065373532473,0.032531474438961594
1772807033474921200,2.918921142578125,0.03361702291965484,0.0038649135335348545,0.03278407922685146
1772807033484853200,2.928853271484375,0.03092763770520687,0.0024903920436277985,0.04328496017614379
1772807033494785300,2.938785400390625,0.043645080459117885,0.007136318153329193,0.024213764481339602
1772807033504717300,2.94871728515625,0.032868834900856014,-0.00041946752108633513,0.028284776779916136
1772807033514648300,2.9586484375,0.044836336070299146,0.0009609174540266394,0.02016942099398002
1772807033524580400,2.968580322265625,0.02882394342422485,-0.003287698167469352,0.0011206015277653932
1772807033534512400,2.978512451171875,0.036459552869200704,0.002657528771460056,-0.0021212116713635624
1772807033544443600,2.988443603515625,0.039160043999552724,-0.014085845030285418,0.009123875241354107
1772807033554375700,2.998375732421875,0.032283728489279746,-0.01983971411557868,0.016659220915939656
1772807033564307500,3.008307373046875,0.04066811047494411,0.0007563165263272821,0.025048388674575834
1772807033574238500,3.018238525390625,0.03020049247443676,-0.019728837619628757,0.023429719697870312
1772807033584170500,3.02817041015625,0.03199906632900238,-0.010655706184823066,0.030408582267165182
1772807033594102500,3.0381025390625,0.04083119208216667,-0.005687982508540153,0.022900197664741426
1772807033604034300,3.048034423828125,0.022722119417786596,-0.0016135544101707636,0.0042912857194431124
1772807033613965600,3.057965576171875,0.03813362356126308,-0.00883934094524011,0.010212565527204424
1772807033623897600,3.067897705078125,0.046964580270648,-0.01490899798143655,0.007515271000936627
1772807033633829600,3.07782958984375,0.022570143726468084,-0.010249737466126679,0.017250318676885215
1772807033643760400,3.087760498046875,0.017484218764305115,0.004601045788358897,0.028502091058716178
1772807033653692400,3.0976923828125,0.0293055894613266,0.0005255582440644503,0.013004150740802287
1772807033663624400,3.10762451171875,0.027211832052469253,0.009489986873697488,0.0038546113352291283
1772807033673555700,3.1175556640625,0.03334931189417839,0.0027852833369746803,-0.0028225831400603054
1772807033683487500,3.127487548828125,0.020630700096487996,0.00551973153585568,0.01582801252249628
1772807033693419500,3.13741943359375,0.03574702068567276,0.0015029153762385248,0.025119134089536962
1772807033703351600,3.1473515625,0.03380114731490612,0.00886723359916359,0.032604576207790524
1772807033713282600,3.157282470703125,0.043531098690629,-0.004525423268880695,0.040896494137030094
1772807033723214600,3.167214599609375,0.02961713962852955,0.010028623795043677,0.02338204463124275
1772807033733146400,3.177146484375,0.04099018203616142,-0.008939148057904094,0.004473784413188696
1772807033743077600,3.18707763671875,0.050119244909286494,0.0028260720050893723,-0.012576773907896131
1772807033753009700,3.197009765625,0.03455693411827087,0.008194978627096861,0.014531177644990383
1772807033762941700,3.206941650390625,0.03560848899781704,0.00024359949752688405,0.01722752232318744
1772807033772873700,3.216873779296875,0.02858136684000492,-0.01065499379877001,0.006927972632274031
1772807033782804500,3.226804443359375,0.026493454650044438,-0.01581219389885664,0.029163002652861175
1772807033792736500,3.236736572265625,0.02559796711504459,-0.0066225964775308965,0.017043580591026692
1772807033802668500,3.24666845703125,0.03787234227657318,-0.00298011178933084,0.03835442670509219
1772807033812599300,3.256599365234375,0.034732875207066534,-0.0005932897180318832,0.01535434886245057
1772807033822531600,3.266531494140625,0.0290483998298645,0.00048787484848871826,0.02315636438289657
1772807033832463600,3.276463623046875,0.029800094980001447,-0.005664017111063003,0.021088928725384176
1772807033842394600,3.28639453125,0.027854221609234807,-0.013706654720660297,0.01912683487217873
1772807033852326700,3.29632666015625,0.03204348999261856,-0.004716616725735366,0.01585926617728546
1772807033862258400,3.306258544921875,0.024411387678980826,0.001620733069628477,0.013295114777702838
1772807033872190500,3.3161904296875,0.03907704189121723,-0.014463884562440216,0.008546458945889025
1772807033882121500,3.32612158203125,0.033245266997814174,0.007047342961933463,0.010526088455785065
1772807033892053500,3.336053466796875,0.027260347369313237,0.020914558539167044,0.019389741858374325
1772807033901985500,3.345985595703125,0.02965805616080761,0.008163651907071471,0.01793156067300588
1772807033911916500,3.35591650390625,0.027562545186281203,0.00029147549355402585,0.02000977345285937
1772807033921848600,3.3658486328125,0.03968611370027065,-0.0045517450202256435,0.029948179947491733
1772807033931780600,3.375780517578125,0.027719197052717207,0.004033127973601221,0.016412388281710447
1772807033941711400,3.38571142578125,0.030709611040353774,0.0024310265392065047,0.023479422324802726
1772807033951643400,3.395643310546875,0.018733342042565344,-0.0003901318287476897,0.020238705104216933
1772807033961575400,3.405575439453125,0.03369593337476253,0.008261047866940497,0.010579919268563389
1772807033971507500,3.415507568359375,0.0425292281717062,0.0016165866174735128,0.00582216681484133
1772807033981438700,3.425438720703125,0.052256256937980645,-0.003204294200334698,0.01014746440174058
1772807033991370500,3.43537060546875,0.03863981951773166,-0.013013101232238113,0.021606924717500805
1772807034001302500,3.445302490234375,0.02637538122832775,-0.02394514014041051,0.03062903835112229
1772807034011233500,3.455233642578125,0.03385784593820572,-0.0018129859724082052,0.02387066839840263
1772807034021165600,3.46516552734375,0.024577976417541503,0.0008345145953819155,0.015806366946268826
1772807034031097300,3.475097412109375,0.023386720806360242,-0.007149561227392405,0.023243951334804294
1772807034041028600,3.485028564453125,0.02293722347319126,-0.00946494376398623,0.011065163768548518
1772807034050960600,3.494960693359375,0.027274960416555402,-0.011324088699370622,0.009078976653702556
1772807034060892700,3.504892578125,0.04103986639678478,-0.004104768437705934,0.011387582389637827
1772807034070824700,3.51482470703125,0.030564065089821815,-0.008507643039152026,0.010010850676335394
1772807034080755500,3.52475537109375,0.044184009641408915,0.0020588687585666775,0.015962525622360408
1772807034090687500,3.5346875,0.027577158233523368,0.007619498560391366,0.0236031400360167
1772807034100619500,3.54461962890625,0.041946459847688675,-0.005512406745925545,0.007508640330750495
1772807034110550500,3.554550537109375,0.03401625137031078,0.004096110207214951,0.010301138859800994
1772807034120482600,3.564482666015625,0.04584346728622913,0.01078926943661645,0.015806677473522723
1772807034130414600,3.57441455078125,0.025044424885511396,0.0016856332656927406,0.015309505073726176
1772807034140345600,3.584345703125,0.03327215500473976,0.0017242665093392133,0.024035613169148564
1772807034150277600,3.594277587890625,0.028631635722517965,-0.0029211481437087057,0.025031127012521026
1772807034160209400,3.60420947265625,0.025941081464290618,0.0030527203678153455,0.013109017621073872
1772807034170141400,3.614141357421875,0.03177870157659054,-0.0011731171662919223,0.002285791115928441
1772807034180072400,3.624072509765625,0.04390227009057998,-0.009523578616045416,0.0009630911448039114
1772807034190004500,3.63400439453125,0.030588030487298964,-0.01192943418137729,0.016976671100966633
1772807034199936500,3.6439365234375,0.015922960796952247,-0.017372611615993083,0.014816826185956597
1772807034209867500,3.653867431640625,0.03552665593326092,-0.007406659527309238,0.01240941798435524
1772807034219799600,3.663799560546875,0.03777648068666458,-0.005854278986155987,0.009603658114932478
1772807034229731600,3.673731689453125,0.03358896586894989,-0.003341291518229991,0.014024817291740327
1772807034239663600,3.68366357421875,0.04106967701315879,-0.008034527368377894,0.012477167724631725
1772807034249594400,3.693594482421875,0.025655250260233877,0.004897544516902417,0.026868352377042173
1772807034259526400,3.7035263671875,0.03418284010887146,0.00001349880238994956,0.013119356351997702
1772807034269458400,3.71345849609375,0.03507715860009193,-0.004754099191911518,0.017738394454773515
1772807034279389700,3.7233896484375,0.03597966039776802,0.005688019041158259,0.015025957158301025
1772807034289321500,3.733321533203125,0.029701310780644415,0.001483717485424131,0.014174308765027671
1772807034299253500,3.74325341796875,0.05229541990458965,0.005280570751428603,0.022271343442983923
1772807034309184500,3.7531845703125,0.037784079471230504,0.0026604879135265947,0.03326671164464205
1772807034319116500,3.763116455078125,0.04092763819396496,0.0038999117816798387,0.028091975887864825
1772807034329048600,3.773048583984375,0.04077916963398456,-0.0035624965208582576,0.030410975153651088
1772807034338980400,3.78298046875,0.03464344335794449,-0.002180595442093909,0.013200276101101189
1772807034348911600,3.79291162109375,0.0355447761118412,0.0021863858620636166,-0.0046165173521265385
1772807034358843600,3.80284375,0.042724458482861515,0.0019410875977948308,0.020298052342329172
1772807034368775700,3.812775634765625,0.038834465306997294,-0.008788761535473167,0.009031173722911626
1772807034378706400,3.82270654296875,0.024028525841236114,-0.012797357856016605,0.009835073984321206
1772807034388638500,3.832638427734375,0.03734568805396556,-0.008817348309140651,0.00947641500607133
1772807034398570500,3.842570556640625,0.036599838122725485,-0.008018708744738251,0.018329291286319493
1772807034408501500,3.85250146484375,0.04138590335547924,0.0009218275526538491,0.04106739372452721
1772807034418433500,3.86243359375,0.042886955568194385,-0.006958203373756259,0.005655779005680233
1772807034428365600,3.872365478515625,0.02179039152562618,-0.007059325660672039,0.0008561419053003191
1772807034438297600,3.882297607421875,0.03301554989516735,-0.017679503874387593,0.007467778597399592
1772807034448228600,3.892228515625,0.03795300629734993,-0.003132379741594195,0.016898710493929683
1772807034458160600,3.90216064453125,0.052910336932539936,-0.015340155940316617,0.01726599117005244
1772807034468092400,3.912092529296875,0.03779401634335518,-0.016667367689777165,0.03818652279227972
1772807034478023400,3.9220234375,0.03629471769630909,0.0020228475971147417,0.01709021447803825
1772807034487955500,3.93195556640625,0.036596915513277053,0.0030669498225674033,0.007111110646836459
1772807034497887500,3.941887451171875,0.025521979269385337,-0.004124148991610854,0.009578322744276373
1772807034507818500,3.951818603515625,0.030760464444756507,0.0035424035809002814,0.0023081308118999004
1772807034517750500,3.96175048828125,0.040785599374771116,-0.003352397434134036,0.014308493071328848
1772807034527682600,3.9716826171875,0.02986263882219791,0.004436649006884545,0.01815070158271119
1772807034537614600,3.981614501953125,0.041976854985952376,-0.00036150852246209976,0.02457499900916591
1772807034547543800,3.991543701171875,0.04197860855162144,-0.0004369301125407219,0.024565208267513662
1772807034557475800,4.001475830078125,0.0328477921128273,-0.0036393794156610966,0.017431666593160478
1772807034567407900,4.011407958984375,0.03134966250956058,-0.0009896503581665456,0.01516222382383421
1772807034577338600,4.021338623046875,0.03868307413756847,0.002030208919662982,0.0015981741779483854
1772807034587270700,4.031270751953125,0.03927928646504879,-0.017259908489137887,0.002438899318408221
1772807034597202700,4.04120263671875,0.04751052371561527,0.00912146408855915,-0.003930580914579332
1772807034607134700,4.051134765625,0.027315876948833463,0.0059306504243053495,-0.005795717199333012
1772807034617065700,4.061065673828125,0.033603578916192055,-0.0021447752100415525,0.01173170138588175
1772807034626997800,4.070997802734375,0.03569967441260814,-0.008696206147503107,0.014925620322674513
1772807034636929800,4.0809296875,0.030462358281016347,-0.002798033220693469,0.020274799330905077
1772807034646860800,4.09086083984375,0.02432721652686596,-0.011037800837587564,0.01639529101643711
1772807034656792800,4.100792724609375,0.03899053265154361,-0.007774433393776417,0.002832556544803083
1772807034666724600,4.110724609375,0.025225042149424552,-0.011928502599615603,-0.00038202158752828836
1772807034676656600,4.12065673828125,0.044377486386895176,0.0013774623656645417,0.012847297944966703
1772807034686588000,4.130587890625,0.040485739645361896,0.010576119876280427,0.006407364557962864
1772807034696520000,4.14052001953125,0.038839726004004475,-0.0030396051579155026,0.029583164293691514
1772807034706452000,4.150451904296875,0.032850714722275735,0.002844831504486501,0.02310249703750014
1772807034716382700,4.1603828125,0.0285123932570219,-0.010139189763739705,0.010018759988155216
1772807034726314800,4.170314697265625,0.027314123383164406,-0.006491024253424257,0.015391374670900404
1772807034736246800,4.180246826171875,0.03599135083556175,0.005719747619982809,0.004168316926900297
1772807034746177800,4.190177734375,0.031498715591430665,0.0054861945924349126,0.013407635241467505
1772807034756109800,4.20010986328125,0.043618192452192305,-0.01920642118072137,0.01405035359179601
1772807034766041900,4.210041748046875,0.03658814768493175,0.011781568409595638,0.024962591820955275
1772807034775974000,4.219973876953125,0.03748305069804191,0.01156056433636695,0.015740699565224347
1772807034785905000,4.22990478515625,0.03538929328918457,0.0017728731577284632,0.015482523553073405
1772807034795836700,4.239836669921875,0.025507950744032858,-0.005538034377526492,0.0050597858739085495
1772807034805768700,4.249768798828125,0.027906244057416915,0.004693948236200958,0.016058442011196165
1772807034815699700,4.25969970703125,0.026261983981728552,0.0119770909816958,0.0034926644213497636
1772807034825631700,4.2696318359375,0.03314940540790558,0.0013065342876128852,0.0180349845148623
1772807034835563800,4.279563720703125,0.031500469157099725,0.0020964790889061984,0.019167367811966686
1772807034845494800,4.289494873046875,0.012348609441518783,0.004711264697182923,0.013627671200316398
1772807034855426800,4.2994267578125,0.027461422899365425,-0.007792498773429542,0.03123272159900516
1772807034865358800,4.30935888671875,0.03075111209452152,-0.010637933066114783,0.020713318612333387
1772807034875291000,4.319290771484375,0.014444704937934875,-0.003159267748519778,0.01155029867067933
1772807034885221600,4.3292216796875,0.03958966758847236,-0.010972498782724141,-0.0030354039068333804
1772807034895153700,4.339153564453125,0.0407908600717783,0.013132161034643649,-0.005176927713863551
1772807034905085700,4.349085693359375,0.04004676370620727,0.017303510168846695,0.0045369310435839
1772807034915017700,4.359017822265625,0.04408873257339001,0.006284541895892471,0.02581418541530147
1772807034924948700,4.36894873046875,0.028530513435602187,-0.00009885726459324359,0.02288713725376874
1772807034934880800,4.378880859375,0.03197159380018711,0.017853106875624507,0.01499932487970218
1772807034944812800,4.388812744140625,0.030773323926329612,0.007968129334971309,0.00786991139119491
1772807034954744800,4.398744873046875,0.023441081342101096,0.0021239881503395735,0.019851039227191357
1772807034964675600,4.408675537109375,0.03975041110813617,-0.015310089595615863,0.004854947484191506
1772807034974607600,4.418607666015625,0.03690612759292126,-0.002413545681443065,0.01504427826628089
1772807034984539600,4.42853955078125,0.021193010154366494,-0.0059522046689875424,0.01860673825452104
1772807034994471000,4.438470947265625,0.02717792978286743,-0.008941431346535682,0.01490671469280496
1772807035004403000,4.44840283203125,0.023142975178360937,-0.007252784139849245,-0.00886485897898674
1772807035014334700,4.458334716796875,0.03661503569185733,-0.015052808632608503,0.0002411152794957161
1772807035024266800,4.468266845703125,0.025243746849894524,-0.0168144297439605,-0.009276289324089883
1772807035034197800,4.47819775390625,0.030486323678493497,-0.01928911276180297,0.005250741868745535
1772807035044129800,4.4881298828125,0.02823883701264858,-0.02799039694322273,0.000462685608305037
1772807035054061800,4.498061767578125,0.02165712053477764,-0.024964363652933388,0.015293978711031376
1772807035063992800,4.507992919921875,0.037674189355969424,-0.0057344702650792894,0.01094846032001078
1772807035073924900,4.5179248046875,0.047995676884055136,-0.010169913695566355,0.027040932464972137
1772807035083857000,4.52785693359375,0.04006429936289787,-0.023385113371163606,-0.005366239740885794
1772807035093787600,4.53778759765625,0.03302724033296108,-0.008563885004725307,0.0003689611765556037
1772807035103719700,4.5477197265625,0.03736673084199428,-0.0047314124360680575,0.01927194243129343
1772807035113651700,4.557651611328125,0.03931552682220935,-0.011893376487307249,0.00774442184800282
1772807035123583700,4.567583740234375,0.04260872314870357,0.005520443921908736,-0.0023851781034842133
1772807035133515000,4.577514892578125,0.024654548785090446,0.008590334620233625,0.020506069069821387
1772807035143446800,4.58744677734375,0.02779752298593521,-0.018360490142181513,0.020804321364033967
1772807035153378800,4.59737890625,0.03258475726246834,-0.013487970468681304,0.029588370191771535
1772807035163309800,4.607309814453125,0.03213350636363029,-0.009273805106058717,0.028628183390107004
1772807035173241900,4.617241943359375,0.01821194851696491,-0.006655019176099449,0.017563056154176592
1772807035183174000,4.627173828125,0.07612579282522201,0.0024653854665346443,-0.00908966244449839
1772807035193104600,4.637104736328125,0.028547464570403098,0.011428097063116729,-0.0076998155212961135
1772807035203036700,4.64703662109375,0.01897007340788841,0.005428619186300784,0.012534688331838696
1772807035212968700,4.65696875,0.02869417956471443,0.015135956871416419,0.017296605504024773
1772807035222901000,4.66690087890625,0.03303016294240951,0.023321400485187768,0.0325936164223589
1772807035232831700,4.676831787109375,0.05891746839284896,0.022194387482944875,0.019228870474547147
1772807035242763800,4.686763671875,0.04665186105966568,0.017928510199394076,0.003984283863194287
1772807035252695800,4.69669580078125,0.04815232875049114,0.027314415644109247,0.008059095554053783
1772807035262626800,4.706626708984375,0.012985153779387474,0.006815068576019257,-0.004994392487499863
1772807035272558600,4.71655859375,0.039322541084885594,-0.005977722702734172,0.024801574306655673
1772807035282490600,4.72649072265625,0.024214988324046133,-0.012211429460532962,0.019102193621266632
1772807035292422700,4.736422607421875,0.015084171885251999,-0.010620872333459555,0.032747966733854265
1772807035302354000,4.74635400390625,0.033786534267663954,-0.011313110647629946,0.014964892887137829
1772807035312285700,4.75628564453125,0.03753331958055496,-0.016675076072197405,-0.005489172000810504
1772807035322217700,4.7662177734375,0.03917757965624332,-0.019161266864743082,-0.011001560480426996
1772807035332148700,4.776148681640625,0.02630874573290348,-0.004196136515587568,-0.025505831852182744
1772807035342080800,4.786080810546875,0.03663490943610668,-0.01184592061638832,-0.004152553102187812
1772807035352012800,4.7960126953125,0.04112462207078933,-0.02094424129137769,0.006725527129042893
1772807035361943800,4.80594384765625,0.04740414073169231,-0.007909439683984965,0.034783893008250744
1772807035371875800,4.815875732421875,0.026900281885266303,0.000983732074033469,0.03607764087952673
1772807035381807900,4.825807861328125,0.03707446989715099,-0.010426792799774556,0.03901906462628394
1772807035391740000,4.835739990234375,0.03946574894785881,0.0021820202142000195,0.014104714127536862
1772807035401670700,4.845670654296875,0.0351221667855978,0.013180785949341953,0.007167937134299427
1772807035411602700,4.855602783203125,0.02793956180512905,0.015002777212113141,-0.00090104049295187
1772807035421534700,4.86553466796875,0.02689560571014881,0.002472600658610463,0.016724194177240134
1772807035431466000,4.875466064453125,0.039462241816520686,0.005143609966151416,0.03197922911737114
1772807035441397800,4.885397705078125,0.050532501885294914,0.017625581730064004,0.023952300533559172
1772807035451329800,4.895329833984375,0.035569326031208034,0.0076248871215619145,0.017336170329432934
1772807035461260800,4.9052607421875,0.029884266132116317,-0.002241897175274789,0.004708104625716805
1772807035471192800,4.91519287109375,0.01715980911552906,-0.003119739455729723,-0.007810144027974456
1772807035481124900,4.925124755859375,0.021952304089069365,0.0029338249621912835,-0.0035335809536278244
1772807035491056600,4.935056640625,0.03407294999361038,-0.0032707470326684414,0.008964720890577881
1772807035500987600,4.944987548828125,0.03676759590506554,-0.00783926052460447,0.04295063192155212
1772807035510920000,4.954919921875,0.02704290522634983,0.004384242966212332,0.04171455078795552
1772807035520852000,4.96485205078125,0.032578327521681785,-0.005064699511043727,0.03056538026407361
1772807035530782700,4.97478271484375,0.02614624864757061,-0.013534860084019601,-0.0014893435086123644
1772807035540714800,4.98471484375,0.04755085572600364,-0.01638833155268803,-0.030938213898148385
1772807035550647000,4.99464697265625,0.0197200149923563,-0.011803031322732567,-0.030668986769020554
1772807035560579000,5.0045791015625,0.04411152892708778,0.0069767984763719135,-0.012831607185490429
1772807035570509800,5.014509765625,0.039327801781892775,-0.0033002653880976137,0.01760030115833506
1772807035580441900,5.02444189453125,0.040080665975809095,-0.014058189838379621,0.031153427551407365
1772807035590374000,5.034373779296875,0.053847910043597215,-0.01309482469893992,0.0509766289236024
1772807035600305000,5.044304931640625,0.03858370541632175,-0.01776970290848985,0.03518505768766626
1772807035610237000,5.05423681640625,0.03139525521695614,-0.007884414840582757,0.01088094804175198
1772807035620169000,5.0641689453125,0.03962123177051544,-0.017412322571873664,-0.005151336614880711
1772807035630100000,5.074099853515625,0.03648059565722942,-0.012762195211090148,-0.015561160013545303
1772807035640032000,5.084031982421875,0.042464930763840676,0.002339274868834764,-0.010711071367561817
1772807035649963800,5.0939638671875,0.04336100282073021,0.00827536865323782,0.016192334056552498
1772807035659895800,5.103895751953125,0.04111351615488529,0.010766272153519094,0.005750033160392195
1772807035669827000,5.1138271484375,0.04290624479055404,0.02475861194776371,0.035269027910381556
1772807035679759000,5.123759033203125,0.051585810330510136,0.013373659906629472,0.012352445366419851
1772807035689691000,5.13369091796875,0.03976794676482677,0.002661766555160284,-0.0017463687432929872
1772807035699622000,5.143621826171875,0.02674655262827873,0.00931311420314014,-0.01561325552696362
1772807035709554000,5.153553955078125,0.04485036459565162,0.005461023618560284,-0.015241810132376849
1772807035719486000,5.16348583984375,0.038410686936974525,0.003644201721251011,0.020767386887129397
1772807035729417000,5.1734169921875,0.03631868309378624,-0.014187241311836987,0.03220195022365078
1772807035739349000,5.183348876953125,0.031684009030461306,-0.020023929842375218,0.03170806575948372
1772807035749281000,5.193281005859375,0.0358802916765213,-0.00940864699948579,0.026044085181038824
1772807035759213000,5.203213134765625,0.04201309534311294,-0.004749441283103078,0.004115253299102187
1772807035769144000,5.21314404296875,0.03752630531787872,-0.01374844803577289,-0.011212499817367643
1772807035779075800,5.223075927734375,0.03857961376309395,-0.017566910345386714,-0.02186619670819491
1772807035789008000,5.2330078125,0.02929623711109161,-0.0217304414993152,-0.01534517917530611
1772807035798939000,5.24293896484375,0.04949263744354248,-0.016085384817048905,0.017079894013423472
1772807035808871000,5.252870849609375,0.03962123177051544,-0.01471058933250606,0.03421202967073768
1772807035818803000,5.262802978515625,0.036626141607761384,-0.015672365303058176,0.04289700203817338
1772807035828734000,5.27273388671875,0.036464229044318196,0.005695581293106078,0.0410693664859049
1772807035838666000,5.282666015625,0.04498948080539703,0.006026804275158793,-0.0011376074614934623
1772807035848598000,5.292597900390625,0.04095160359144211,0.015685133453086017,-0.015528627717122434
1772807035858530000,5.302530029296875,0.031825463327765466,0.015171101250033825,-0.015528280657250433
1772807035868460800,5.312460693359375,0.03960428063571453,0.01124157978137955,-0.005509666799567639
1772807035878392800,5.322392822265625,0.03825812672376633,0.015516791148856282,0.010387264506984501
1772807035888324900,5.332324951171875,0.04304419195652008,0.018464005315583197,0.023421006668452173
1772807035898256100,5.342256103515625,0.03481353922784328,0.016047116899583488,0.011920958613976835
1772807035908188000,5.35218798828125,0.046482934233546255,0.0027577560092322526,0.022788389587029813
1772807035918120000,5.362119873046875,0.04139233309626579,-0.004500855083204806,0.0008281031209044158
1772807035928052000,5.372052001953125,0.026876316487789154,-0.01316356081990525,0.000723857295140624
1772807035937983000,5.38198291015625,0.034954993525147436,-0.021943499728105963,0.006279463861975819
1772807035947914800,5.391914794921875,0.03839607388973236,-0.026341880817525087,0.02852729856520891
1772807035957846800,5.4018466796875,0.03734568805396556,-0.017731471523642538,0.01898647655341774
1772807035967778000,5.411778076171875,0.0406382998585701,-0.019007154015265405,0.018454652965348213
1772807035977710000,5.4217099609375,0.031360183903574944,-0.012388630924653261,0.016049199258815497
1772807035987642000,5.43164208984375,0.03435176693499088,-0.01976787272207439,-0.01226407296322286
1772807035997572900,5.44157275390625,0.04273673344254494,-0.002707888985518366,-0.0214681555676274
1772807036007505000,5.4515048828125,0.02328676756322384,0.00960502808811143,0.018171890501212328
1772807036017437000,5.46143701171875,0.02897475007176399,0.0009532090716063976,0.025723073065746574
1772807036027369000,5.471368896484375,0.031069676524400708,-0.0011170578638091684,0.04708838931340724
1772807036037300000,5.481300048828125,0.04708090012669563,0.0032149799911305307,0.04591223993981257
1772807036047232000,5.49123193359375,0.029721184524893758,-0.000741612147539854,0.02284446715582162
1772807036057164000,5.5011640625,0.025381694015860556,0.018510986262466757,-0.0118393630114384
1772807036067095000,5.511094970703125,0.02807984705865383,0.011198014634288846,-0.022072624266799536
1772807036077026800,5.52102685546875,0.0285299289137125,0.011795724799111484,-0.028700097848847507
1772807036086958800,5.530958740234375,0.037356209447979925,0.017732494436949492,-0.002196761125605553
1772807036096889900,5.540889892578125,0.04573474621474743,0.004427716781757771,0.023418230189476162
1772807036106822000,5.55082177734375,0.04079319815933704,-0.0013231566288508475,0.03592953764572739
1772807036116754200,5.560754150390625,0.03136427555680275,-0.0076287595790810875,0.026128804322425276
1772807036126686000,5.57068603515625,0.047371992027759546,-0.024468561226315796,0.004062299269158393
1772807036136617000,5.580616943359375,0.036598084557056425,-0.01923842375418171,0.003795538091752678
1772807036146549000,5.590549072265625,0.03449731288552284,-0.034576406003721055,0.004553041928168386
1772807036156481000,5.60048095703125,0.05140636211037636,-0.02486198099069297,0.009496708875428885
1772807036166411800,5.610411865234375,0.018035422906279564,-0.027857893137354404,0.02932529880879447
1772807036176343800,5.62034375,0.026116438031196593,-0.02189967885268852,0.04818400253038853
1772807036186275800,5.63027587890625,0.03210135765969753,-0.015145510151050983,0.02949157702010125
1772807036196207000,5.64020703125,0.034492052188515664,-0.011268266858905553,0.0051009764008224006
1772807036206139000,5.650138916015625,0.04106733892560005,0.006611161768063902,-0.02450573316523805
1772807036216071000,5.66007080078125,0.02550269004702568,-0.004045001074485481,-0.022414679170120508
1772807036226003000,5.6700029296875,0.0335883813470602,0.026203129933960734,-0.006182524559833109
1772807036235934000,5.679933837890625,0.0409258846282959,0.013598335507977753,0.02414866335587576
1772807036245866000,5.689865966796875,0.019079379001259802,0.006889796046353877,0.052069794455170626
1772807036255797800,5.6997978515625,0.03269406285583973,0.0036627054923214016,0.04566056673368439
1772807036265729000,5.70972900390625,0.04017535852193832,0.007214644086547196,0.0264199327561073
1772807036275661000,5.7196611328125,0.030910102048516273,0.010678539071138948,-0.017034228240791708
1772807036285593000,5.729593017578125,0.018498948764801026,0.012722191994264722,-0.04995042768102139
1772807036295524900,5.73952490234375,0.040489831298589705,0.006290094853844493,-0.035509686532150954
1772807036305455900,5.749455810546875,0.05814297688901424,-0.0031939920020289717,-0.005033427589945494
1772807036315388000,5.759387939453125,0.005173603245615959,-0.0032187245844863353,0.021095614194497465
1772807036325320000,5.76931982421875,0.043617607930302615,-0.01181379017876461,0.04307003878382966
1772807036335251000,5.7792509765625,0.05454056848287582,-0.027013021544739602,0.05754638096904382
1772807036345183000,5.789182861328125,0.01279927581846714,-0.022759894144907592,-0.00044060164066031575
1772807036355115000,5.799114990234375,0.011295300996303558,-0.006879585179593414,-0.03127217682655901
1772807036365046000,5.8090458984375,0.05408522593080997,-0.00986892145499587,-0.010778948972001672
1772807036374978000,5.81897802734375,0.028503625428676602,-0.009127857296727597,-0.001304616325162351
1772807036384909800,5.828909912109375,0.03539104685485363,-0.013563903515413403,0.0194067843247205
1772807036394841900,5.838841796875,0.05424304684102535,-0.015541048807278274,0.058588693096209316
1772807036404773000,5.848773193359375,0.04212298545837402,0.012013440936710685,0.03755881934799254
1772807036414705200,5.858705078125,0.03209492791891098,0.01024562754658982,0.005930595625378191
1772807036424637000,5.868636962890625,0.018625790014863013,0.01689456404177472,-0.009931666226591914
1772807036434568000,5.87856787109375,0.03957622358500957,0.0070674724345095455,-0.021414909276738763
1772807036444500000,5.8885,0.019527707290649413,0.018153861654177306,-0.004157375407777726
1772807036454432000,5.898431884765625,0.027307693642377853,0.015319167951215058,0.023409626757912336
1772807036464362800,5.90836279296875,0.03463759813904762,0.0011923515897244213,0.055900513458158815
1772807036474294800,5.918294677734375,0.02281739648580551,0.010646828758623451,0.03652271776590496
1772807036484226800,5.928226806640625,0.02490998485088348,0.007129998010396957,-0.0017714849182404577
1772807036494159000,5.9381591796875,0.034032617983222005,0.007907813982479275,-0.017736147698760033
1772807036504089900,5.94808984375,0.03193827605247497,0.01470262522175908,-0.03802274706531316
1772807036514022000,5.95802197265625,0.02879647089540958,0.005616561240144074,-0.0012687230278737843
1772807036523954000,5.967953857421875,0.027746669581532477,-0.00413457905407995,0.03250758210672065
1772807036533885000,5.977885009765625,0.04360825558006763,-0.0019921967305243015,0.035591866656579076
1772807036543817000,5.98781689453125,0.03523030333518982,0.009485749089997261,0.054716874897852534
1772807036553749800,5.997749755859375,0.03956277958154678,-0.0006520524342544376,0.028186960694938895
1772807036563681800,6.007681884765625,0.04913607909083366,-0.016989128723740577,0.016691808011289683
1772807036573613000,6.017613037109375,0.035817163312435146,-0.019047193764708936,-0.0036591618283651766
1772807036583544800,6.027544921875,0.02489654084742069,-0.015466010809689758,-0.015294106575194746
1772807036593476900,6.037476806640625,0.037166824355721474,-0.011365370557829737,-0.0047141873066313565
1772807036603408000,6.047407958984375,0.04374854083359241,-0.014837394049949944,0.020559260561782866
1772807036613340000,6.05733984375,0.04973053785264492,-0.010299841951858252,0.03550451716668904
1772807036623271700,6.067271728515625,0.05496726946234703,-0.0031055465335957703,0.04255470967283472
1772807036633202700,6.07720263671875,0.038511224702000614,0.001318955377768725,0.021044322398677467
1772807036643134700,6.087134765625,0.01756546730697155,0.0009169687144458293,-0.011028046628553419
1772807036653066800,6.097066650390625,0.050184711360931396,0.010153437484800815,-0.0038657720500603317
1772807036662999000,6.1069990234375,0.034625323179364204,0.007951433928497136,0.008831121106166392
1772807036672929800,6.1169296875,0.023407179072499274,0.018754695357847958,0.033570845690369604
1772807036682861800,6.12686181640625,0.04361059366762638,0.010515329599753022,0.05396609306316823
1772807036692793900,6.1367939453125,0.0325298122048378,-0.002867061602603644,0.04072424284266308
1772807036702724900,6.146724853515625,0.035821254965662956,-0.00609247165620327,-0.002724712256155908
1772807036712656600,6.15665673828125,0.0386731372654438,-0.001007989732455462,-0.03511089647291228
1772807036722588700,6.166588623046875,0.040023967352509494,0.01658133337413892,-0.026683205068483946
1772807036732520000,6.17652001953125,0.032092005309462546,0.00477821071986109,-0.0030253939694724974
1772807036742452000,6.186451904296875,0.030298692151904106,-0.01017466293592006,0.029487339236401018
1772807036752383700,6.1963837890625,0.027304771032929418,0.007726922723930329,0.04590372783979401
1772807036762315800,6.206315673828125,0.03957330097556114,0.005192253147158771,0.06273119972841813
1772807036772246800,6.216246826171875,0.04361059366762638,-0.015669241764210164,0.029392025635764003
1772807036782178800,6.2261787109375,0.03912321912050247,-0.009524583263043314,0.007018208198994398
1772807036792110800,6.23611083984375,0.021318682360649106,-0.012122728263773024,-0.02148037572838366
1772807036802041900,6.246041748046875,0.050800212910771365,-0.010224767421651631,-0.01884436466898769
1772807036811974000,6.255973876953125,0.04452069424986839,-0.005372888677380979,-0.01419840202666819
1772807036821906000,6.265906005859375,0.04766191488504409,-0.010336246705800294,0.041380533060617744
1772807036831838000,6.275837890625,0.04601356315612793,-0.006137315444927662,0.04640382284903898
1772807036841768700,6.285768798828125,0.026857611787319182,-0.004254862699192017,0.020370076398923992
1772807036851700700,6.29570068359375,0.034787820264697074,-0.006228446060791612,-0.003977616660390049
1772807036861632800,6.3056328125,0.03598433657288551,-0.01672795703690499,-0.02022445738315582
1772807036871564000,6.31556396484375,0.04286766634583473,-0.007978650728985667,-0.012505717965681106
1772807036881495800,6.325495849609375,0.04541267465353012,-0.0006868680193088949,0.022930209210515022
1772807036891427800,6.335427734375,0.01922200234234333,-0.010758508972171694,0.03019247356476262
1772807036901358800,6.34535888671875,0.04106207822859287,0.0035060718921944498,0.04720741258319467
1772807036911291000,6.355290771484375,0.03971358622908592,0.0025652656444348394,0.04597450978737324
1772807036921223000,6.365222900390625,0.0310351897329092,0.004221581484097987,-0.007958722185809165
1772807036931154700,6.37515478515625,0.04106909249126911,0.01574091876093298,-0.023416239161789417
1772807036941085700,6.385085693359375,0.045265959659218785,0.012731306882482021,-0.013360471631493419
1772807036951018000,6.39501806640625,0.02895604537129402,0.014401852176897227,0.0036521475656889377
1772807036960950000,6.404949951171875,0.03658873220682144,0.01611590781947598,0.02883013570299372
1772807036970880800,6.414880859375,0.03389291725158691,0.011181282695196568,0.05270341618359089
1772807036980812800,6.424812744140625,0.034791327396035195,0.004194876140262932,0.04933136420091614
1772807036990744800,6.434744873046875,0.05723755248188972,0.005669898862577975,0.01909481403240934
1772807037000675800,6.44467578125,0.015793196937441824,-0.004407477711327374,-0.015803115543257445
1772807037010607600,6.454607666015625,0.03584638940691948,0.0031578612427227196,-0.022094141978863627
1772807037020539600,6.46453955078125,0.03958732950091362,-0.017093009223323314,-0.024720818954333663
1772807037030471700,6.4744716796875,0.024777882903814313,-0.019539068934880197,-0.004520454832818359
1772807037040403000,6.48440283203125,0.026424481067061422,-0.024959102955926207,0.027499636017903683
1772807037050335000,6.4943349609375,0.035251346123218535,-0.032656068933010096,0.0408057653799653
1772807037060266800,6.504266845703125,0.034953239959478376,-0.031786172496993094,0.03943918973449617
1772807037070197800,6.51419775390625,0.03240355547666549,-0.028485541782714424,0.02786536405775696
1772807037080129800,6.5241298828125,0.04766133036315441,-0.008788706736546009,0.017957188304606825
1772807037090061800,6.534061767578125,0.032095512440800666,-0.01570864219283685,-0.003384947996865958
1772807037099992800,6.543992919921875,0.029548750567436218,-0.011647822494711727,0.0034602051901631054
1772807037109924900,6.5539248046875,0.025357728618383406,-0.013080376048479229,0.011048176101129502
1772807037119857000,6.56385693359375,0.031039865908026692,-0.003802917680609971,0.019445198372658342
1772807037129789000,6.573788818359375,0.034331308668851854,-0.003524374733865261,0.03145774426022544
1772807037139719700,6.5837197265625,0.03283785524070263,0.002983326659724116,0.020191943353042006
1772807037149651700,6.593651611328125,0.03418167106509209,0.025157840398419645,-0.014574925455171615
1772807037159583700,6.603583740234375,0.04046645042300224,0.021177355927508322,-0.03692656759275123
1772807037169515000,6.613514892578125,0.041811435291171074,0.02427519407868385,0.0007560059990733861
1772807037179447000,6.623447021484375,0.014580314016342162,0.01311002226807177,0.02166603449359536
1772807037189378800,6.63337890625,0.04495557853579521,0.02059869752302766,0.03472838169503957
1772807037199310800,6.643310791015625,0.027444471764564514,-0.004460285610798746,0.04034079648302868
1772807037209241900,6.653241943359375,0.031631986582279205,-0.003633588995691389,0.027789577141497282
1772807037219174000,6.663173828125,0.039861470267176624,0.0034446788274683057,-0.001410524385049939
1772807037229105700,6.673105712890625,0.03656593585312366,-0.009627367784082888,-0.023355229689553378
1772807037239036700,6.68303662109375,0.028186814564466475,-0.01748993611903861,-0.018823851603921502
1772807037248969000,6.692968994140625,0.044648704543709755,-0.01014799412470311,0.013572032022941856
1772807037258901000,6.70290087890625,0.04554828373193741,-0.022660013967007397,0.014790011244267225
1772807037268831700,6.712831787109375,0.025346038180589673,-0.02846937609920278,0.029493604580406098
1772807037278763800,6.722763671875,0.030733576437830923,-0.024313297599367796,0.04085826275218278
1772807037288695800,6.73269580078125,0.0344774391412735,-0.015947455917391926,0.01875641239089891
1772807037298627800,6.7426279296875,0.033875381594896316,-0.015952241690363734,0.004994136759173125
1772807037308558800,6.752558837890625,0.03597439970076084,-0.003188384245149791,0.007742777880188077
1772807037318490600,6.76249072265625,0.03642565059959888,0.007933058021590113,-0.009889726781006901
1772807037328423000,6.7724228515625,0.0332920287489891,0.007719086477346718,0.009073040103260427
1772807037338354000,6.78235400390625,0.048102059867978095,-0.0034566432598978278,0.021188845435902475
1772807037348286000,6.792285888671875,0.046451370051503175,0.008623104378674178,0.031299795485846695
1772807037358217700,6.8022177734375,0.04450082050561904,0.01355889854673296,0.031088344692252575
1772807037368149800,6.812149658203125,0.026244448325037955,0.012799531546793877,0.001488265796378255
1772807037378080800,6.822080810546875,0.02998597294092178,0.018240169964451342,-0.00920570830591023
1772807037388012800,6.8320126953125,0.023252865293622017,0.022166951486747712,-0.002084496390167624
1772807037397944800,6.84194482421875,0.03701660223007202,0.014866181753017007,0.030925043889321387
1772807037407875800,6.851875732421875,0.0461497567564249,0.005503565852344036,0.03391039810935035
1772807037417808000,6.861807861328125,0.037623335951566694,-0.005660875305905938,0.04181181888366118
1772807037427740000,6.871739990234375,0.040917701321840284,-0.013935659437254071,0.02006322067314759
1772807037437670700,6.881670654296875,0.025352467921376225,-0.020102694167010486,-0.0037393143924884494
1772807037447602700,6.891602783203125,0.031036358776688575,-0.020536445941776036,-0.016668536733556536
1772807037457534700,6.90153466796875,0.04465747237205505,-0.016976561503112317,-0.011270294419210403
1772807037467466800,6.911466796875,0.03209317435324192,-0.03180036541912704,0.006156422004196792
1772807037477398000,6.92139794921875,0.029554011264443396,-0.021876900765299797,0.03328749870434403
1772807037487329800,6.931329833984375,0.03134732442200184,-0.00532347831139341,0.04810056203063577
1772807037497261800,6.94126171875,0.03359188847839832,-0.00614573621340096,0.05325209957491606
1772807037507192800,6.95119287109375,0.03164426154196262,-0.01914201417500153,0.02040644462024793
1772807037517124900,6.961124755859375,0.03493570430278778,0.010485957374796271,0.002779529449623078
1772807037527057000,6.971056884765625,0.03583119183778763,0.01639755603875965,-0.007069755723141133
1772807037536988000,6.98098779296875,0.03134147920310497,0.0038663200393319126,-0.006181574711762368
1772807037546919000,6.9909189453125,0.037331075006723405,0.014414802990015595,0.0011927899811416864
1772807037556850700,7.0008505859375,0.03972410762310028,0.006527520338911563,0.026790848427731544
1772807037566782700,7.01078271484375,0.04166939647197723,0.00883866509180516,-0.002882587965298444
1772807037576713700,7.020713623046875,0.043314825591444964,-0.002680434723012149,0.015527129879780112
1772807037586645800,7.030645751953125,0.032242227435112,0.010410773246735333,0.014846052280440926
1772807037596577800,7.040577880859375,0.02191547921001911,-0.0040539880985394116,0.01067552513014525
1772807037606508800,7.0505087890625,0.041515082693099975,-0.0050695766155607995,-0.0035916312837973234
1772807037616440800,7.06044091796875,0.03642214346826076,-0.01439410726185888,0.004309186702314764
1772807037626372900,7.070372802734375,0.018465046495199203,-0.012941552099678665,0.011864205191750079
1772807037636305000,7.080304931640625,0.033577859953045845,-0.01703526942040771,0.03304223697269335
1772807037646235600,7.090235595703125,0.045696752291917796,-0.020757669210713356,0.010638718517404049
1772807037656167700,7.100167724609375,0.032225860822200775,-0.0148175203057006,0.004706077065411955
1772807037666099700,7.110099609375,0.03162555684149265,-0.024912980525568125,-0.0005129544908180833
1772807037676031000,7.120031005859375,0.030430209577083586,-0.02466249462952837,-0.004596789738349616
1772807037685962800,7.129962646484375,0.02474456515610218,-0.016600732194352895,0.013668222406413405
1772807037695894800,7.139894775390625,0.03536883502304554,-0.021492833351157606,0.026950514235161243
1772807037705825800,7.14982568359375,0.029384499916434288,-0.010099003883823753,0.02463001713203266
1772807037715757800,7.1597578125,0.04808803134262561,0.004097461914084851,0.024826507818512616
1772807037725689900,7.16968994140625,0.039406712237000464,0.0029071378846652804,0.03646899655098095
1772807037735621600,7.17962158203125,0.04209259032011032,0.0015102218998596071,0.021136128867976365
1772807037745553000,7.189552978515625,0.043887072521448134,0.012152283151820301,0.004256305737607181
1772807037755485000,7.19948486328125,0.033711715465784074,0.012712346453685313,-0.007194331950880587
1772807037765417000,7.2094169921875,0.031017069554328917,0.014137429087050258,0.0030982765425927937
1772807037775347700,7.21934765625,0.026829554736614226,-0.007252455346286296,0.011663494987878947
1772807037785279700,7.22927978515625,0.029524785169959065,-0.005110073022730648,0.009442951127886772
1772807037795211800,7.239211669921875,0.03356383142769336,0.00835314659718424,0.023706874405127018
1772807037805142800,7.249142822265625,0.0266781635671854,0.014531725634261965,0.03126501643341034
1772807037815074600,7.259074462890625,0.043287353062629694,0.004056125256698578,0.021991046930570152
1772807037825006800,7.2690068359375,0.018902853390574455,0.006634341714251786,0.007193857026845217
1772807037834939000,7.27893896484375,0.01800678133368492,-0.0030901480350643395,-0.005022047679405659
1772807037844870000,7.288869873046875,0.028630466678738593,-0.016762516893632708,-0.00884480257164687
1772807037854802000,7.298802001953125,0.03985620957016945,-0.005192947266902774,0.0010045739326626061
1772807037864733700,7.308733642578125,0.04165302985906601,-0.0005385821224190295,0.016665632390417157
1772807037874664700,7.318664794921875,0.04060673567652702,-0.010853530311863868,0.00988073975695297
1772807037884596700,7.3285966796875,0.04988602067530155,-0.01232522856593132,0.01367399456007406
1772807037894528800,7.33852880859375,0.033577859953045845,-0.02478973773838952,0.01855272477865219
1772807037904460500,7.34846044921875,0.016968670457601545,-0.00782185273207724,0.0010887816173955798
1772807037914391800,7.358391845703125,0.037319969090819353,-0.000865896114334464,-0.005877349334489554
1772807037924323800,7.36832373046875,0.03552256428003311,0.0007671484475955366,0.016513382704462856
1772807037934255900,7.378255859375,0.03926408889591693,-0.009469656471721828,0.028813659492228177
1772807037944186600,7.3881865234375,0.04181318885684013,-0.001096216005180031,0.018408201741427183
1772807037954118700,7.39811865234375,0.02924479918479919,0.008337510636635124,-0.01007927627004683
1772807037964050700,7.40805078125,0.020268881046772002,0.012617306847684084,0.02356909163594246
1772807037973982000,7.41798193359375,0.04181786503195763,0.010091295501403509,-0.008053579128719866
1772807037983914000,7.4279140625,0.04361000914573669,0.003960300199408084,0.004357756818085909
1772807037993845800,7.437845703125,0.018461539363861083,-0.01126587397241965,-0.008732921428699046
1772807038003777800,7.44777783203125,0.050181204229593275,-0.00933114305017516,0.007592062564194202
1772807038013708800,7.457708740234375,0.028036592438817023,-0.006658361910656094,0.0217496759227477
1772807038023640800,7.467640869140625,0.026844752305746077,-0.004970646285731345,0.009226787626557051
1772807038033572600,7.477572509765625,0.036873394367098807,-0.0017206315138377248,0.016329002580884842
1772807038043503900,7.48750390625,0.03343465209007263,-0.011179656993690877,0.014584844060987234
1772807038053436000,7.497435791015625,0.031188334468007086,-0.013407635241467505,0.018069252110645175
1772807038063368000,7.507367919921875,0.03208557556867599,-0.0067712842332199215,0.0015921280296519397
1772807038073300000,7.517300048828125,0.04241349283754825,-0.004545991132874042,-0.0009068674455396831
1772807038083230700,7.527230712890625,0.02445873395204544,-0.0038812801464460788,-0.009707392484042792
1772807038093162800,7.537162841796875,0.014133739292621612,0.006068287063017487,0.005339315201342105
1772807038103094800,7.5470947265625,0.03224164291322231,-0.0016796967152506112,0.0037431685836985707
1772807038113025800,7.55702587890625,0.034787820264697074,0.005314016363304108,0.03284872369458899
1772807038122957800,7.566957763671875,0.02401215922832489,-0.0008997253187000751,0.03794155332157388
1772807038132889900,7.576889892578125,0.02819616691470146,-0.0060259092260152095,0.027472510548960417
1772807038142820900,7.58682080078125,0.04061550350487232,-0.0005886135429143905,0.012028401043824851
1772807038152753000,7.5967529296875,0.019217910689115523,-0.01511679551322013,0.009030315206386148
1772807038162684700,7.6066845703125,0.026999066084623335,0.004624043071456254,-0.0021917013579979537
1772807038172616700,7.61661669921875,0.03223988934755325,-0.00882286473447457,-0.004908321639243513
1772807038182547700,7.626547607421875,0.046454877182841296,-0.014545681094378232,0.0053308031013235445
1772807038192479700,7.636479736328125,0.02221884607076645,-0.008971808218490331,0.015098529204167425
1772807038202411800,7.646411865234375,0.04122340627014637,-0.0103467498335056,0.025703071457333863
1772807038212342800,7.6563427734375,0.036433833906054494,-0.012671028062608091,0.021654764180909843
1772807038222274800,7.66627490234375,0.03298924641013145,-0.013359083392005413,0.018744082632288335
1772807038232206800,7.676206787109375,0.02464870356619358,-0.011710932592488824,-0.010350092568062245
1772807038242137600,7.6861376953125,-0.0010603227078914642,-0.002617817815579474,-0.02265868052644655
1772807038252069600,7.696069580078125,-0.14457798228263855,0.03014967560265213,-0.0627072708635591
1772807038262001700,7.706001708984375,0.36233752063214775,-0.050240021744742985,0.16375641947789116
1772807038271933700,7.71593359375,-0.008841478103399277,0.0024804369051940737,0.005624927209690213
1772807038281865000,7.725864990234375,-0.1379910051077604,0.01958933781739324,-0.07230354938963428
1772807038291796700,7.735796630859375,0.19285773680508136,-0.0007751125583425164,0.07194216873133555
1772807038301728800,7.745728759765625,-0.03364800257980823,0.0017769830772653222,-0.038224936840217556
1772807038311659800,7.75565966796875,-0.007006079369783401,0.015988299384433774,-0.019054061896912753
1772807038321591800,7.765591796875,0.10480945099592208,-0.0088757274328731,0.05165023560253903
1772807038331523800,7.77552392578125,-0.009654548051953316,0.0012148739487864077,-0.0007051160620525479
1772807038341455600,7.78545556640625,0.07340718151628971,-0.0005906593695282936,0.062157984684035175
1772807038351387000,7.795386962890625,0.011611527338624,0.0047694976904429495,0.028316432293504473
1772807038361319000,7.80531884765625,0.0512649078130722,-0.007482537775114179,0.023082184901833534
1772807038371251000,7.8152509765625,0.038088615375757216,-0.008492646399419754,-0.01759462033621967
1772807038381181700,7.825181640625,0.0500274749726057,-0.008586407363787293,-0.0006706110042519867
1772807038391113700,7.83511376953125,0.0519230794608593,-0.018628219433967023,0.004223791707493364
1772807038401045800,7.845045654296875,0.0564583848029375,-0.02145836482597515,0.04253885451657697
1772807038410976800,7.854976806640625,0.0868359874099493,-0.022382128607388585,0.0593163497836329
1772807038420908800,7.86490869140625,0.036868718191981315,-0.023480774031672626,0.041435715580265965
1772807038430840800,7.8748408203125,-0.1482832665413618,0.02522549880715087,-0.11258344599828124
