time,seconds_elapsed,z,y,x
1772807030618316800,0.06231689453125,0.0009768474847078323,-0.011955462396144867,-0.005257612559944391
1772807030628247800,0.072247802734375,-0.0019406455103307962,-0.005416603293269873,-0.002263686852529645
1772807030638179800,0.082179931640625,0.0015286544803529978,0.024587368592619896,0.004286890383809805
1772807030648111900,0.09211181640625,-0.0005840312223881483,0.0107695572078228,0.0025182850658893585
1772807030658042600,0.102042724609375,-0.0028160265646874905,-0.01010776124894619,-0.0006889597862027586
1772807030667974700,0.111974609375,-0.002008289797231555,0.010950119234621525,-0.00006604639202123508
1772807030677906700,0.12190673828125,0.0005576659459620714,0.015123825520277023,0.0033997914288192987
1772807030687838700,0.131838623046875,-0.0014527543680742383,0.00003728425508597866,-0.003570766421034932
1772807030697770000,0.14177001953125,-0.0008335694437846541,-0.0003403519804123789,-0.0017590179340913892
1772807030707701800,0.15170166015625,-0.0024687503464519978,0.014451643452048302,0.0030213561840355396
1772807030717633800,0.1616337890625,-0.001660480978898704,0.008588162250816822,-0.00007190534961409867
1772807030727564800,0.171564697265625,-0.0007163903210312128,-0.0010777813149616122,-0.003826429834589362
1772807030737496800,0.181496826171875,0.001088966615498066,0.012002067640423775,0.0009555422002449632
1772807030747428900,0.191428955078125,0.001580319833010435,0.01341407559812069,0.0010122675448656082
1772807030757359600,0.201359619140625,-0.0008117315010167658,0.003951065707951784,-0.00012197277828818187
1772807030767292000,0.2112919921875,-0.003436543047428131,0.0030780816450715065,-0.0016666061710566282
1772807030777224000,0.221223876953125,-0.0027201527263969183,0.008982576429843903,-0.00046312372433021665
1772807030787156000,0.231156005859375,0.00004926848123432137,0.006743922829627991,0.00020532972121145576
1772807030797086700,0.241086669921875,0.001198688754811883,0.0008530105114914477,-0.00020719393796753138
1772807030807018800,0.251018798828125,0.00015393071225844324,0.008291752077639103,0.0018367822049185634
1772807030816950800,0.26095068359375,-0.0014444985426962376,0.010647584684193134,0.003477289341390133
1772807030826881800,0.2708818359375,-0.0009414274245500565,0.007574562914669514,-0.0013076120521873236
1772807030836813600,0.2808134765625,-0.00027537086862139404,0.006434463430196047,-0.00019041601626668125
1772807030846745900,0.290745849609375,0.0002069276088150218,0.0075692362152040005,-0.0012042814632877707
1772807030856678000,0.300677978515625,-0.00170788518153131,0.0029443909879773855,-0.0022309301421046257
1772807030866609000,0.31060888671875,-0.0018666095566004515,0.0057494984939694405,-0.0009480853332206607
1772807030876541000,0.320541015625,-0.0017558221006765962,0.008743956685066223,-0.000672181835398078
1772807030886472700,0.33047265625,-0.001419198582880199,0.007726629264652729,-0.0012173309223726392
1772807030896403700,0.34040380859375,-0.0012748552253469825,0.006577474996447563,0.0003278351214248687
1772807030906335700,0.350335693359375,-0.0005856291390955448,0.006896788254380226,-0.0003001382574439049
1772807030916267800,0.360267822265625,-0.003204049076884985,0.006075735669583082,0.0018636800814419985
1772807030926198800,0.37019873046875,-0.0008266451768577099,0.00504003232344985,0.0012841762509196997
1772807030936130800,0.380130859375,-0.0013286510948091745,0.00504029868170619,0.00039974047103896737
1772807030946062800,0.390062744140625,-0.001303351018577814,0.007370298262685537,0.0017776599852368236
1772807030955995000,0.399994873046875,0.0014389059506356716,0.008942361921072006,0.001208009896799922
1772807030965925600,0.409925537109375,-0.0002383529208600521,0.003707120195031166,0.0016410398529842496
1772807030975857700,0.419857666015625,-0.0012740562669932842,0.006566023454070091,-0.0005217132274992764
1772807030985789700,0.429789794921875,-0.0013243899447843432,0.007726362906396389,-0.0017366473330184817
1772807030995721000,0.439720947265625,0.0004854942671954632,0.005185174755752087,-0.0006266417913138866
1772807031005652700,0.44965283203125,-0.00034887410583905876,0.0027427896857261658,0.000529436394572258
1772807031015584800,0.459584716796875,-0.0013086773687973619,0.005872003734111786,0.000660463934764266
1772807031025516800,0.469516845703125,0.000251402409048751,0.007534348871558905,0.0006641923682764173
1772807031035447800,0.47944775390625,0.0005454153870232403,0.008488825522363186,0.0004950816510245204
1772807031045379800,0.4893798828125,-0.0009784454014152288,0.0070557789877057076,0.002195776207372546
1772807031055311600,0.4993115234375,-0.0010351707460358739,0.004882107023149729,0.0007877630414441228
1772807031065243000,0.509242919921875,-0.001958488719537854,0.007140733767300844,-0.001894839107990265
1772807031075175000,0.5191748046875,-0.001668736687861383,0.005799832288175821,-0.0035111114848405123
1772807031085107000,0.52910693359375,0.0003312972257845104,0.005980394314974546,0.00036991306114941835
1772807031095037700,0.53903759765625,-0.00006950850365683436,0.0038029940333217382,-0.0013781858142465353
1772807031104969700,0.5489697265625,-0.002129463478922844,0.007311975117772818,0.0002564624010119587
1772807031114901800,0.55890185546875,0.0014953649369999766,0.004957740660756826,-0.000026365294615970924
1772807031124833800,0.568833740234375,-0.0001627191377338022,0.007768973242491484,0.0006982808117754757
1772807031134764500,0.5787646484375,-0.0003808320325333625,0.0027212179265916348,0.0009369000908918679
1772807031144696800,0.58869677734375,-0.00011771172285079956,0.0028269453905522823,-0.0005187837523408234
1772807031154628900,0.59862890625,0.00009507485083304346,0.004652009811252356,-0.0010428938549011946
1772807031164560000,0.608559814453125,-0.0013281183782964945,0.006809703074395657,-0.000559263804461807
1772807031174492000,0.618491943359375,-0.00048709215479902923,0.005032841581851244,0.0024732777383178473
1772807031184423700,0.628423583984375,0.0005036037764512002,0.005000617355108261,0.0011709919199347496
1772807031194355700,0.638355712890625,-0.0002210423699580133,0.007638478651642799,0.00026072346372529864
1772807031204286700,0.64828662109375,-0.00017869810108095407,0.006473878398537636,-0.001026115962304175
1772807031214218800,0.65821875,-0.0006599313346669078,0.004827778320759535,0.00009161273919744417
1772807031224150800,0.66815087890625,-0.0014919028617441654,0.0054429685696959496,0.00017496968212071806
1772807031234081800,0.678081787109375,0.0014775217277929187,0.006654706783592701,0.000931307440623641
1772807031244013800,0.688013916015625,-0.0004809668753296137,0.00609224708750844,0.00045593318645842373
1772807031253945900,0.69794580078125,-0.0027574370615184307,0.007131412625312805,0.00025007082149386406
1772807031263876600,0.707876708984375,0.00011398329661460593,0.004189418628811836,0.0015717976493760943
1772807031273808600,0.71780859375,-0.0002641855680849403,0.0068174260668456554,0.000254331884207204
1772807031283740700,0.72774072265625,-0.0014255901332944632,0.005050152540206909,0.0010913633741438389
1772807031293672700,0.737672607421875,-0.0002002697146963328,0.0027206854429095984,-0.0007643272401764989
1772807031303604000,0.74760400390625,-0.001862614881247282,0.006091448478400707,-0.0004063983797095716
1772807031313535700,0.75753564453125,0.0011022823164239526,0.006503173150122166,0.0008250473183579743
1772807031323467800,0.7674677734375,-0.0011667308863252401,0.0076240976341068745,0.0014591459184885025
1772807031333398800,0.777398681640625,-0.002633600030094385,0.0070741549134254456,0.00010972223390126601
1772807031343330800,0.787330810546875,0.000437291048001498,0.005810218397527933,0.000434361572843045
1772807031353262600,0.7972626953125,-0.0006684534018859267,0.005441104527562857,-0.0011861718958243728
1772807031363193900,0.80719384765625,-0.0036336169578135014,0.00373055599629879,-0.0006956176948733628
1772807031373126000,0.8171259765625,-0.000568318588193506,0.004972388036549091,0.0018727348651736975
1772807031383058000,0.827057861328125,-0.0006647250265814364,0.00526586826890707,0.001401089015416801
1772807031392990000,0.836989990234375,-0.00014940333494450897,0.004583832807838917,-0.0009992180857807398
1772807031402920700,0.846920654296875,-0.0004021373169962317,0.006357764359563589,-0.0010586065473034978
1772807031412852700,0.856852783203125,-0.000529702752828598,0.008931975811719894,0.0002961435238830745
1772807031422784800,0.86678466796875,-0.00011717908637365326,0.003433347214013338,0.0004748416249640286
1772807031432715800,0.8767158203125,-0.0024285365361720324,0.005666940473020077,0.00011904330312972888
1772807031442647800,0.886647705078125,0.0014516890514642,0.004875182639807463,-0.0013257216196507215
1772807031452579800,0.896579833984375,-0.0009257147903554142,0.004102067090570927,0.0007419566973112524
1772807031462511900,0.906511962890625,-0.002255164785310626,0.003989415243268013,-0.0010900318156927824
1772807031472443000,0.91644287109375,-0.001241033081896603,0.0057502975687384605,0.0007827030494809151
1772807031482374700,0.926374755859375,-0.001288171042688191,0.003954527899622917,-0.001329982653260231
1772807031492306700,0.936306640625,-0.002629871480166912,0.006318349856883287,-0.003509779926389456
1772807031502237700,0.94623779296875,-0.0007241134881041944,0.0062360577285289764,0.0011749867117032409
1772807031512169700,0.956169677734375,-0.0026463831309229136,0.004698348697274923,-0.0004423510399647057
1772807031522101800,0.966101806640625,-0.00045327001134864986,0.00574896577745676,0.001674595638178289
1772807031532032800,0.97603271484375,-0.0025276062078773975,0.006529538426548243,-0.0008809737046249211
1772807031541964300,0.98596435546875,-0.001091896090656519,0.003992877434939146,-0.0015907060587778687
1772807031551896300,0.995896240234375,-0.002725212834775448,0.007448062766343355,-0.00011851066665258259
1772807031561828400,1.005828369140625,-0.00015819176041986793,0.006485063582658768,0.0005773733137175441
1772807031571759400,1.01575927734375,-0.0013454289874061942,0.0020700751338154078,-0.001663144095800817
1772807031581691400,1.02569140625,-0.0023001721128821373,0.006806773599237204,-0.001672198879532516
1772807031591623400,1.03562353515625,-0.00195129809435457,0.004798483569175005,-0.002207760466262698
1772807031601554400,1.045554443359375,-0.003114566905423999,0.00574896577745676,0.0015273229219019413
1772807031611486500,1.055486572265625,0.0001704423048067838,0.0052022188901901245,0.0014562164433300495
1772807031621418500,1.06541845703125,0.001538241864182055,0.007680822629481554,0.0000881506348378025
1772807031631350500,1.0753505859375,-0.0013012205017730594,0.006565757095813751,-0.0012860405258834362
1772807031641281300,1.08528125,-0.0016756609547883272,0.003891677362844348,0.0012191950809210539
1772807031651213300,1.09521337890625,-0.00009640643111197278,0.005021390039473772,-0.0001930791768245399
1772807031661145300,1.105145263671875,-0.0015896408585831523,0.006772951222956181,-0.0013430321123450994
1772807031671076400,1.115076416015625,-0.0000029294772048160667,0.005472263321280479,0.0011241203173995018
1772807031681008400,1.12500830078125,-0.0013076120521873236,0.004314054735004902,-0.0026943201664835215
1772807031690940400,1.1349404296875,-0.002740126335993409,0.007114901207387447,0.001192829804494977
1772807031700871400,1.144871337890625,-0.00253453035838902,0.006266417913138866,0.000990962260402739
1772807031710803500,1.154803466796875,-0.0013014868600293994,0.0051995557732880116,0.001725728390738368
1772807031720735200,1.1647353515625,-0.0002759034978225827,0.005998503882437944,0.0008982842555269599
1772807031730667300,1.174667236328125,0.000008788431841821875,0.007480553351342678,-0.0017741979099810123
1772807031740598500,1.1845986328125,0.0005640574963763356,0.004275971557945013,-0.0012876383261755109
1772807031750530600,1.194530517578125,0.0004420847399160266,0.0060262009501457214,0.0011664645280689
1772807031760462600,1.204462646484375,0.0011350392596796155,0.007149255834519863,0.002156627830117941
1772807031770393300,1.214393310546875,0.0006133259739726782,0.004342816770076752,-0.00042024682625196874
1772807031780325400,1.224325439453125,-0.0015939018921926618,0.005840844940394163,-0.0015691345324739814
1772807031790257400,1.23425732421875,-0.0009451558580622077,0.004984905011951923,0.0029017801862210035
1772807031800189400,1.244189453125,-0.0024519723374396563,0.006284527480602264,0.0014881744282320142
1772807031810120400,1.254120361328125,-0.003457848448306322,0.003111104713752866,-0.0015478292480111122
1772807031820052500,1.264052490234375,0.00025486451340839267,0.00435986090451479,-0.0013709953054785728
1772807031829984500,1.273984619140625,-0.00004500742215896025,0.005315402988344431,0.0007323693134821951
1772807031839915500,1.28391552734375,-0.0011371697764843702,0.004887166898697615,-0.0005946838646195829
1772807031849847300,1.293847412109375,-0.0027632960118353367,0.006624347064644098,0.0004575310740619898
1772807031859779300,1.303779296875,-0.00015712650201749057,0.005367601290345192,0.002931075170636177
1772807031869710300,1.31371044921875,0.0011941614793613553,0.0033800839446485043,0.0006527407676912844
1772807031879642400,1.323642333984375,-0.0012373046483844519,0.003967577591538429,-0.00018455706594977528
1772807031889574400,1.333574462890625,-0.0005257080192677677,0.0044083306565880775,-0.0012434299569576979
1772807031899506400,1.34350634765625,-0.00007376955909421667,0.005769205745309591,-0.0005131911602802575
1772807031909437400,1.3534375,-0.0021374530624598265,0.008730107918381691,-0.0006271744496189058
1772807031919369500,1.363369384765625,0.000011984225238848012,0.005886118393391371,0.0011528824688866735
1772807031929301500,1.373301513671875,-0.002028263406828046,0.005280782002955675,0.0015433018561452627
1772807031939232300,1.383232177734375,-0.00015632755821570754,0.005474393721669912,-0.0007177218794822693
1772807031949164300,1.393164306640625,-0.0006332996999844909,0.003933755215257406,0.0006868292111903429
1772807031959096300,1.403096435546875,0.0005432848702184856,0.005435245577245951,-0.00098217383492738
1772807031969027600,1.413027587890625,-0.002822684356942773,0.005062935408204794,-0.0014327806420624256
1772807031978959400,1.42295947265625,-0.00042104575550183654,0.00646562222391367,-0.0003510046226438135
1772807031988891400,1.432891357421875,-0.00112465291749686,0.006989466026425362,0.0002205097407568246
1772807031998823400,1.442823486328125,0.0014274542918428779,0.005774531979113817,0.0013611416798084974
1772807032008754400,1.45275439453125,-0.0015278555219992995,0.003958788700401783,0.0006993460701778531
1772807032018686200,1.462686279296875,-0.0014988270122557878,0.005055212415754795,-0.0009499495499767363
1772807032028618200,1.4726181640625,-0.0006868292111903429,0.005802229046821594,0.0023092268966138363
1772807032038549500,1.482549560546875,-0.0013558153295889497,0.005723665934056044,0.001181111903861165
1772807032048481500,1.4924814453125,-0.00040506679215468466,0.0057524279691278934,-0.0007563377148471773
1772807032058413600,1.50241357421875,0.00005965480886516161,0.0068206219002604485,-0.0011249192757532
1772807032068345300,1.512345458984375,0.001020257011987269,0.006301837973296642,0.001401089015416801
1772807032078276400,1.5222763671875,0.00001944107498275116,0.005440571811050177,-0.00036458674003370106
1772807032088208400,1.53220849609375,-0.00039547940832562745,0.0031228226143866777,0.0014322480419650674
1772807032098140400,1.542140380859375,-0.0008639294537715614,0.004378503188490868,-0.00002956108801299706
1772807032108071400,1.552071533203125,0.000505734293255955,0.0062704128213226795,-0.0003707120195031166
1772807032118003500,1.56200341796875,-0.0014325142838060856,0.007924501784145832,-0.0017132115317508578
1772807032127935500,1.571935546875,-0.0021166803780943155,0.006143113598227501,0.0016029566759243608
1772807032137866500,1.581866455078125,-0.0021843246649950743,0.006197708658874035,-0.0015004249289631844
1772807032147798300,1.59179833984375,-0.001067927572876215,0.00672368286177516,0.0013933659065514803
1772807032157730300,1.601730224609375,-0.0011968245962634683,0.006458964664489031,-0.0001555285998620093
1772807032167662300,1.611662353515625,0.0011829761788249016,0.00669412175193429,0.0013195963110774755
1772807032177593300,1.62159326171875,0.00013635384675581008,0.008682438172399998,-0.0013374395202845335
1772807032187525600,1.631525634765625,-0.0015060176374390721,0.006106894463300705,0.00009640643111197278
1772807032197457400,1.64145751953125,-0.00011771172285079956,0.0062704128213226795,0.0013409015955403447
1772807032207388400,1.651388427734375,0.0005467469454742968,0.005655488930642605,-0.00010705907334340736
1772807032217320400,1.661320556640625,0.0012628709664568305,0.005109807010740042,0.0014572817599400878
1772807032227252500,1.67125244140625,-0.0006980145117267966,0.004627508576959372,0.001424791174940765
1772807032237183200,1.681183349609375,-0.0024138891603797674,0.004742823541164398,-0.00013688647595699877
1772807032247115300,1.691115234375,-0.002642654813826084,0.005498362239450216,0.00035180358099751174
1772807032257047300,1.70104736328125,-0.0013068130938336253,0.004971855320036411,0.0008279767935164273
1772807032266979300,1.710979248046875,-0.0017528926255181432,0.00643632747232914,0.0010037453612312675
1772807032276910300,1.720910400390625,-0.0015286544803529978,0.0067899953573942184,0.0003145193331874907
1772807032286842400,1.73084228515625,-0.00013741910515818745,0.007224090863019228,-0.00018855179951060563
1772807032296774400,1.7407744140625,-0.0008146609761752188,0.0056392434053123,0.0012442287988960743
1772807032306705400,1.750705322265625,-0.0028418591246008873,0.005261074751615524,0.0003001382574439049
1772807032316637400,1.760637451171875,-0.0011792477453127503,0.0038314899429678917,0.00027324032271280885
1772807032326569200,1.7705693359375,-0.000037017940485384315,0.00433136522769928,-0.0011829761788249016
1772807032336501200,1.780501220703125,-0.0025041704066097736,0.007397462613880634,-0.0007400924805551767
1772807032346432500,1.7904326171875,-0.00242107966914773,0.00758015550673008,-0.0014836470363661647
1772807032356364500,1.800364501953125,-0.0027326694689691067,0.005818208213895559,-0.0003075950953643769
1772807032366296300,1.81029638671875,-0.0015448997728526592,0.008324242196977139,0.00088949577184394
1772807032376227300,1.820227294921875,-0.0019803266040980816,0.006615558639168739,-0.0006934871198609471
1772807032386159400,1.830159423828125,-0.0018548916559666395,0.0028035095892846584,-0.0013789847726002336
1772807032396091400,1.84009130859375,-0.0014418354257941246,0.0067907944321632385,-0.001960885478183627
1772807032406022400,1.8500224609375,-0.00015472965606022626,0.008836634457111359,-0.0006964165950194001
1772807032415954400,1.859954345703125,0.0010189254535362124,0.005401156842708588,0.002133192028850317
1772807032425886500,1.869886474609375,0.0004620584368240088,0.006490389816462994,-0.0014261227333918214
1772807032435818500,1.879818603515625,0.002435727044939995,0.006530337035655975,0.0013853764394298196
1772807032445749500,1.88974951171875,0.0015009575290605426,0.0037731665652245283,-0.001249555149115622
1772807032455681300,1.899681396484375,0.00038509309524670243,0.0032288164366036654,-0.0012301141396164894
1772807032465613300,1.90961328125,-0.0012892362428829074,0.006117281038314104,-0.0001334243715973571
1772807032475544600,1.919544677734375,-0.000040480048483004794,0.004315386060625315,-0.0013813816476613283
1772807032485476600,1.9294765625,-0.0003283677506260574,0.004542021080851555,0.0013337110867723823
1772807032495408400,1.939408447265625,-0.0012916331179440022,0.009106678888201714,0.0013970943400636315
1772807032505339400,1.94933935546875,0.00011265171633567661,0.007395331747829914,-0.0023550332989543676
1772807032515271400,1.959271484375,0.0016056197928264737,0.005023254547268152,-0.00013928332191426307
1772807032525203500,1.969203369140625,-0.001886317040771246,0.007319165393710136,-0.000036485307646216825
1772807032535135500,1.979135498046875,-0.00007616640505148098,0.003418699838221073,-0.00015579492901451886
1772807032545066200,1.989066162109375,-0.0007368966471403837,0.004864530172199011,-0.0007001450285315514
1772807032554998300,1.998998291015625,-0.0024650217965245247,0.0075937374494969845,-0.0007843009079806507
1772807032564930300,2.008930419921875,-0.0017478326335549355,0.008258729241788387,-0.0004990763845853508
1772807032574861300,2.018861328125,-0.001086037140339613,0.006222209427505732,-0.00012090751260984689
1772807032584793300,2.02879345703125,-0.002067678142338991,0.007729292381554842,0.001466336427256465
1772807032594725400,2.038725341796875,-0.0012221246724948287,0.004430967383086681,-0.000651675509288907
1772807032604657200,2.0486572265625,0.00025832661776803434,0.00307675008662045,0.0006322344415821135
1772807032614588200,2.058588134765625,-0.0010716560063883662,0.005256547126919031,0.0002287655370309949
1772807032624520200,2.068520263671875,-0.002588059986010194,0.006563626695424318,-0.00012383698776829988
1772807032634452200,2.0784521484375,0.0016157397767528892,0.005328985396772623,-0.0022069616243243217
1772807032644383200,2.08838330078125,-0.0016410398529842496,0.008497348055243492,0.00008841694943839684
1772807032654315300,2.098315185546875,0.0007115966291166842,0.008821721188724041,-0.0018959043081849813
1772807032664247300,2.108247314453125,0.0005195827106945217,0.006454170681536198,0.0026253440883010626
1772807032674178300,2.11817822265625,-0.000746750389225781,0.005958023946732283,0.0006833671359345317
1772807032684110000,2.128110107421875,-0.0023880566004663706,0.006733536254614592,-0.0011025486746802926
1772807032694042000,2.1380419921875,-0.003279150230810046,0.005411010701209307,0.00009480853623244911
1772807032703974100,2.14797412109375,-0.0016367788193747401,0.0065710837952792645,-0.0006519418093375862
1772807032713905400,2.157905517578125,-0.0012887036427855492,0.006625678390264511,-0.0003022687742486596
1772807032723837400,2.16783740234375,-0.001657551503740251,0.008264055475592613,-0.0002561961009632796
1772807032733769200,2.177769287109375,-0.0006801713607273996,0.0080310283228755,-0.0015808524331077933
1772807032743700200,2.1877001953125,-0.004555337131023407,0.005022455472499132,-0.0005262406193651259
1772807032753632300,2.19763232421875,0.00006870955257909372,0.005403819959610701,-0.0026109630707651377
1772807032763564300,2.207564208984375,-0.0029289445374161005,0.006052033510059118,-0.0014543522847816348
1772807032773495300,2.217495361328125,0.0004135889175813645,0.004794755019247532,-0.0021065603941679
1772807032783427300,2.22742724609375,0.0002918824611697346,0.008518386632204056,-0.0008338357438333333
1772807032793359400,2.237359375,0.0002181128947995603,0.006584932096302509,-0.0006849650526419282
1772807032803291400,2.24729150390625,0.00026258768048137426,0.006555637344717979,0.001044491771608591
1772807032813222100,2.25722216796875,-0.00006498113361885771,0.002989664673805237,-0.0009645969257690012
1772807032823154200,2.267154296875,-0.0036312201991677284,0.0034820830915123224,-0.0012114719720557332
1772807032833086200,2.277086181640625,-0.0014045510906726122,0.006542321294546127,-0.0023374564480036497
1772807032843017200,2.287017333984375,0.0016450346447527409,0.006602508947253227,-0.00009134642459684983
1772807032852949500,2.296949462890625,0.00014860439114272594,0.0065316688269376755,-0.0003808320325333625
1772807032862881300,2.30688134765625,-0.00033662354690022767,0.00923531036823988,0.0010492854053154588
1772807032872812300,2.316812255859375,0.0027838023379445076,0.007685616612434387,0.000502804818097502
1772807032882744300,2.326744384765625,-0.0009555422002449632,0.006808104924857616,-0.0008133294177241623
1772807032892676400,2.33667626953125,-0.0006444850005209446,0.004555869847536087,-0.00022556974727194756
1772807032902608400,2.3466083984375,-0.0012658004416152835,0.005751096177846193,-0.00005965480886516161
1772807032912539100,2.3565390625,-0.0008287757518701255,0.0040765004232525826,-0.003162237349897623
1772807032922471200,2.36647119140625,-0.0007717840489931405,0.0038980687968432903,-0.00032197617110796273
1772807032932403200,2.3764033203125,-0.0015672702575102448,0.00478330347687006,-0.0017728663515299559
1772807032942334200,2.386334228515625,-0.00155288923997432,0.004310326185077429,0.002031991956755519
1772807032952266200,2.396266357421875,0.00026258768048137426,0.002767024328932166,0.0004420847399160266
1772807032962198300,2.4061982421875,0.0003278351214248687,0.006721019744873047,-0.0003129214164800942
1772807032972129300,2.41612939453125,0.0000029294772048160667,0.005797169171273708,-0.0011640676530078053
1772807032982061300,2.426061279296875,0.0005587312043644488,0.003973968792706728,-0.002597380895167589
1772807032991993000,2.4359931640625,-0.0019142802339047194,0.006317817140370607,-0.00009081379539566115
1772807033001925000,2.445925048828125,-0.0019140138756483793,0.005022189114242792,0.000496945867780596
1772807033011856400,2.4558564453125,0.0002897519152611494,0.006342317909002304,-0.0005462143453769386
1772807033021788400,2.465788330078125,-0.0019289276096969843,0.005823800805956125,0.00033182985498569906
1772807033031720200,2.47572021484375,0.000571248063351959,0.005849899724125862,0.0020503676496446133
1772807033041651200,2.485651123046875,-0.002540655666962266,0.0019403791520744562,0.0015733955660834908
1772807033051583200,2.495583251953125,-0.0006141249323263764,0.006304767448455095,-0.0014314490836113691
1772807033061515300,2.505515380859375,-0.0015579492319375277,0.005745237227529287,0.00038962045800872147
1772807033071447300,2.515447265625,-0.002329733222723007,0.004822984803467989,-0.0001001348573481664
1772807033081378300,2.52537841796875,0.00047643951256759465,0.004052266012877226,-0.0015217302134260535
1772807033091310300,2.535310302734375,-0.0000958738019107841,0.006536195985972881,-0.0009092031978070736
1772807033101242400,2.545242431640625,-0.0010404969798400998,0.008614793419837952,-0.0014120079576969147
1772807033111173400,2.55517333984375,-0.0037015276029706,0.007296528667211533,-0.0006399576086550951
1772807033121105200,2.565105224609375,-0.0023342606145888567,0.004863464739173651,-0.0010567422723397613
1772807033131037200,2.575037109375,-0.0015760586829856038,0.006755640730261803,-0.0023313311394304037
1772807033140968400,2.584968505859375,-0.0006133259739726782,0.007869641296565533,-0.0011922972043976188
1772807033150900500,2.594900390625,-0.0011741877533495426,0.005254949443042278,0.0006825681775808334
1772807033160832300,2.604832275390625,-0.0015033544041216373,0.008225705474615097,-0.0009494169498793781
1772807033170764300,2.614764404296875,-0.0014650048688054085,0.007062703371047974,0.002091380301862955
1772807033180695300,2.6246953125,-0.0036583843175321817,0.005369998048990965,-0.003177151083946228
1772807033190627300,2.63462744140625,-0.00008841694943839684,0.0038892803713679314,0.0020642161834985018
1772807033200559400,2.644559326171875,-0.0008349010022357106,0.00768801337108016,-0.0018005631864070892
1772807033210490000,2.654489990234375,-0.003662378992885351,0.005148156546056271,-0.002287921728566289
1772807033220422100,2.664422119140625,-0.0005440838285721838,0.0031252196058630943,0.00196381495334208
1772807033230354400,2.6743544921875,0.00017070861940737814,0.007729026023298502,-0.00043063313933089375
1772807033240285400,2.684285400390625,-0.0006058691651560366,0.0062336609698832035,0.0037033918779343367
1772807033250217200,2.69421728515625,0.00017656758427619934,0.007933290675282478,-0.0009659285424277186
1772807033260149200,2.704149169921875,-0.0021283982787281275,0.005765477195382118,-0.0011443602852523327
1772807033270081300,2.714081298828125,0.0002996056282427162,0.00475507415831089,0.00024474450037814677
1772807033280012300,2.72401220703125,-0.0034109766129404306,0.0027654264122247696,-0.002549710450693965
1772807033289944000,2.733944091796875,-0.0001882854849100113,0.005379585549235344,0.0002516687090974301
1772807033299876000,2.7438759765625,-0.00008149272616719827,0.006143379956483841,-0.00043063313933089375
1772807033309807400,2.753807373046875,-0.002487925114110112,0.006154831498861313,0.0026583673898130655
1772807033319739400,2.763739501953125,-0.0012391688069328666,0.005349758081138134,-0.00042051312630064785
1772807033329671400,2.77367138671875,0.0012415656819939613,0.005250954534858465,-0.0005137237603776157
1772807033339602200,2.783602294921875,-0.0008958873804658651,0.005689843557775021,-0.0008404936525039375
1772807033349534200,2.7935341796875,-0.0024319987278431654,0.004077033139765263,-0.0006687197601422668
1772807033359466200,2.80346630859375,0.0008210525847971439,0.005571865476667881,-0.001412806916050613
1772807033369398300,2.813398193359375,-0.0006090649403631687,0.006173473782837391,-0.0008133294177241623
1772807033379329300,2.823329345703125,-0.0003587277897167951,0.003490072675049305,-0.0010961571242660284
1772807033389261300,2.83326123046875,-0.0012873720843344927,0.005167065188288689,0.00096086849225685
1772807033399193300,2.843193359375,-0.00239231763407588,0.006922887172549963,0.0018021611031144857
1772807033409124400,2.853124267578125,0.0004628573951777071,0.0020580908749252558,0.000029294771593413316
1772807033419056000,2.86305615234375,-0.0016476977616548538,0.004116448108106852,0.0023278691805899143
1772807033428988200,2.87298828125,-0.0013709953054785728,0.004989964887499809,0.000595216522924602
1772807033438919400,2.88291943359375,0.00039734362508170307,0.00523657351732254,-0.0008780442294664681
1772807033448851500,2.8928515625,-0.0017947042360901833,0.006654174067080021,-0.0015928366919979453
1772807033458783500,2.902783447265625,-0.0018695390317589045,0.005288239102810621,0.0000013315805063029984
1772807033468715300,2.91271533203125,-0.0019382486352697015,0.0076304893009364605,-0.0010423612548038363
1772807033478646300,2.922646240234375,0.00024234765442088246,0.0016327840276062489,0.00014381069922819734
1772807033488578300,2.932578369140625,-0.00018189390539191663,0.0032983249984681606,-0.00033662354690022767
1772807033498510300,2.94251025390625,-0.0035324168857187033,0.005508748814463615,0.0015819176333025098
1772807033508441000,2.952441162109375,-0.0029888655990362167,0.006973753683269024,-0.0010988202411681414
1772807033518373400,2.962373291015625,0.00014620754518546164,0.0056861150078475475,0.0006585997180081904
1772807033528305400,2.972305419921875,-0.0010804444318637252,0.0068025123327970505,-0.0023121563717722893
1772807033538237400,2.982237548828125,0.001427720650099218,0.007277354132384062,0.002484196564182639
1772807033548168400,2.99216845703125,-0.0005693838465958834,0.008649148046970367,-0.0014394385507330298
1772807033558100500,3.0021005859375,-0.0003294330381322652,0.005930859595537186,-0.0010431602131575346
1772807033568032500,3.012032470703125,-0.0018738001817837358,0.005250421818345785,0.0014000238152220845
1772807033577963500,3.021963623046875,-0.0009318400407209992,0.006234992761164904,-0.00041545313433744013
1772807033587895600,3.0318955078125,-0.00041252365917898715,0.006893858779221773,0.0008905610884539783
1772807033597827300,3.041827392578125,0.00023995080846361816,0.005005411338061094,0.00005672533006872982
1772807033607758600,3.051758544921875,-0.00018136126163881272,0.00649731419980526,0.0003563309437595308
1772807033617690600,3.061690673828125,-0.0021196098532527685,0.0064776064828038216,-0.00016218650853261352
1772807033627622700,3.07162255859375,-0.0005390237784013152,0.006166283041238785,0.0006487460341304541
1772807033637554700,3.0815546875,-0.0012868394842371345,0.006930876523256302,-0.0016247945604845881
1772807033647485400,3.0914853515625,-0.0020543625578284264,0.007395864464342594,-0.001698830397799611
1772807033657417500,3.10141748046875,-0.00039228363311849535,0.005398227367550135,0.0018338527297601104
1772807033667349500,3.111349609375,-0.0016146745765581727,0.004869057331234217,0.002344913315027952
1772807033677280500,3.121280517578125,-0.003593669505789876,0.006536462344229221,0.00008655273268232122
1772807033687212500,3.131212646484375,-0.0006135923322290182,0.006841660942882299,0.0014255901332944632
1772807033697144600,3.14114453125,-0.0035308189690113068,0.007410245481878519,-0.000005326322025211994
1772807033707075600,3.15107568359375,-0.001654355670325458,0.006844324059784412,-0.003186472225934267
1772807033717007600,3.161007568359375,-0.0012950951931998134,0.003786748740822077,-0.001008805469609797
1772807033726939400,3.170939453125,-0.001671666163019836,0.006121009588241577,0.0016844493802636862
1772807033736871400,3.180871337890625,-0.0002798982313834131,0.007111705373972654,-0.0001651159836910665
1772807033746802700,3.190802734375,-0.0009235842735506594,0.005026450380682945,-0.001603222917765379
1772807033756734700,3.200734619140625,-0.0015401060227304697,0.00378967821598053,-0.00152332813013345
1772807033766666500,3.21066650390625,-0.0014652712270617485,0.007682687137275934,0.0001704423048067838
1772807033776597500,3.220597412109375,0.000060986389144090936,0.0037148434203118086,-0.0002567287301644683
1772807033786529500,3.230529541015625,-0.00033875409280881286,0.006586529780179262,0.0013899037148803473
1772807033796461600,3.240461669921875,0.0007225155713967979,0.005573996342718601,0.0013976269401609898
1772807033806392300,3.250392333984375,-0.003062102710828185,0.008499212563037872,-0.001415736391209066
1772807033816324400,3.260324462890625,-0.0015544871566817164,0.004610997159034014,-0.0028940571937710047
1772807033826256600,3.270256591796875,-0.0019710054621100426,0.00404454255476594,-0.0003195793251506984
1772807033836188700,3.280188720703125,-0.0012170645641162992,0.004935370292514563,0.0015209312550723553
1772807033846119700,3.29011962890625,-0.0012295814231038094,0.005185174755752087,0.000773381965700537
1772807033856051500,3.300051513671875,-0.0012279836228117347,0.003926032222807407,0.0005097290268167853
1772807033865983500,3.3099833984375,-0.00029774141148664057,0.004899417515844107,0.0014916365034878254
1772807033875914500,3.31991455078125,-0.002445314545184374,0.005893841851502657,0.00035233621019870043
1772807033885846500,3.329846435546875,-0.0011203918838873506,0.00561048137024045,-0.0013904364313930273
1772807033895778300,3.3397783203125,0.0006769755273126066,0.006091448478400707,-0.0002913498319685459
1772807033905709600,3.34970947265625,-0.0004689826746471226,0.004975850228220224,-0.00032330775866284966
1772807033915641600,3.3596416015625,-0.0011166634503751993,0.005567338317632675,-0.0011081412667408586
1772807033925573600,3.36957373046875,0.000041278995922766626,0.005525260232388973,-0.002341717481613159
1772807033935505700,3.379505615234375,-0.001205080421641469,0.00500967213883996,-0.0013068130938336253
1772807033945436400,3.3894365234375,-0.000023169501218944788,0.0030091057997196913,-0.0004362257895991206
1772807033955368400,3.399368408203125,-0.0014144048327580094,0.004802212119102478,0.00035899411886930466
1772807033965300500,3.409300537109375,-0.0034525219816714525,0.0078102522529661655,-0.0008045409340411425
1772807033975231700,3.419231689453125,-0.0003741741238627583,0.006572681479156017,-0.002531600883230567
1772807033985163500,3.42916357421875,-0.00282082031480968,0.0073106433264911175,-0.0009656621841713786
1772807033995095600,3.439095458984375,-0.0008319715270772576,0.005546032916754484,-0.0008498146780766547
1772807034005027600,3.449027587890625,-0.00038296254933811724,0.007794007193297148,-0.0011720572365447879
1772807034014958600,3.45895849609375,-0.0005757753970101476,0.004820853937417269,-0.000050333743274677545
1772807034024890400,3.468890380859375,-0.0001424791116733104,0.003973436541855335,0.0005584649043157697
1772807034034822400,3.478822509765625,-0.0016202671686187387,0.005449360236525536,-0.0014285196084529161
1772807034044753700,3.488753662109375,-0.0023097596131265163,0.004222441930323839,0.00017097493400797248
1772807034054685700,3.498685791015625,0.0007661914569325745,0.0043321643024683,0.0024804682470858097
1772807034064617700,3.50861767578125,-0.0005105279851704836,0.0029819414485245943,0.0010061422362923622
1772807034074548500,3.518548583984375,0.0005014732014387846,0.005064267199486494,-0.002481533447280526
1772807034084480500,3.52848046875,-0.0017667410429567099,0.005868807900696993,-0.0015430354978889227
1772807034094412500,3.53841259765625,-0.0011427623685449362,0.0060293967835605145,-0.0004290352517273277
1772807034104344600,3.548344482421875,-0.002572879893705249,0.005221926141530275,-0.0008287757518701255
1772807034114275300,3.558275390625,0.0007211840129457414,0.006128199864178896,0.0009928264189511538
1772807034124207600,3.56820751953125,0.00003382214708835818,0.004857605788856745,-0.0004830974212381989
1772807034134139600,3.5781396484375,0.001433845958672464,0.003882622579112649,-0.00020825919636990875
1772807034144070700,3.588070556640625,-0.000806138850748539,0.006306897848844528,0.001591771375387907
1772807034154002400,3.59800244140625,-0.000556334329303354,0.004935370292514563,0.0013193299528211355
1772807034163934500,3.6079345703125,-0.0015627428656443954,0.007810518611222506,0.0003110571997240186
1772807034173865500,3.617865478515625,0.0013243899447843432,0.003713245503604412,0.0012831110507249832
1772807034183797500,3.627797607421875,-0.001315068919211626,0.006481867749243975,0.0026080335956066847
1772807034193729500,3.6377294921875,-0.0004846953088417649,0.005881324876099825,-0.0007464840309694409
1772807034203661600,3.64766162109375,-0.001660480978898704,0.006594519596546888,-0.0009781790431588888
1772807034213592600,3.657592529296875,-0.0021646174136549234,0.004983839578926563,-0.0012186624808236957
1772807034223524600,3.667524658203125,-0.0008990831556729972,0.006020075641572475,0.001740642124786973
1772807034233456600,3.67745654296875,-0.00002902845517382957,0.005422994960099459,0.0008934905636124313
1772807034243387400,3.687387451171875,0.0003371562052052468,0.005711415316909552,-0.000007989483492565341
1772807034253319400,3.6973193359375,-0.00008468852320220321,0.008126369677484035,-0.0023664848413318396
1772807034263251500,3.70725146484375,-0.0007009439868852496,0.007166566327214241,-0.001577123999595642
1772807034273182700,3.7171826171875,-0.0006460828590206802,0.0079159801825881,0.00145195540972054
1772807034283114500,3.727114501953125,-0.0024684839881956577,0.008733037859201431,-0.0015456987312063575
1772807034293046500,3.737046630859375,0.001549693406559527,0.004626443609595299,-0.00007590009045088664
1772807034302978600,3.746978515625,-0.001460477476939559,0.005863481666892767,0.00020639497961383313
1772807034312909600,3.75690966796875,0.0008375641773454845,0.006624612957239151,-0.00048070057528093457
1772807034322841600,3.766841552734375,-0.0015523566398769617,0.007160707376897335,-0.001312405802309513
1772807034332773400,3.7767734375,-0.0003448793722782284,0.0062613580375909805,-0.0006849650526419282
1772807034342704600,3.78670458984375,-0.0014439659425988793,0.004495682194828987,-0.0003989415417890996
1772807034352636700,3.79663671875,-0.00210735946893692,0.004131894558668137,0.0017379788914695382
1772807034362568700,3.806568603515625,-0.0034991272259503603,0.00640942994505167,-0.003585413796827197
1772807034372499500,3.81649951171875,-0.004599545616656542,0.00785632524639368,-0.0019049590919166803
1772807034382431500,3.826431396484375,-0.0016138756182044744,0.009866478852927685,-0.0007526093395426869
1772807034392363500,3.836363525390625,0.002508431440219283,0.007453389000147581,-0.0005829659639857709
1772807034402295600,3.846295654296875,0.000788561999797821,0.005019792355597019,0.0023576964158564806
1772807034412226600,3.8562265625,0.00008894957863958552,0.00669465446844697,-0.0017409083666279912
1772807034422158600,3.86615869140625,-0.0010964233661070466,0.0049159289337694645,0.002040780382230878
1772807034432090600,3.876090576171875,0.000532365869730711,0.004593420308083296,-0.0013901700731366873
1772807034442021600,3.886021728515625,0.00010412959818495438,0.006725014187395573,0.001532382913865149
1772807034451953700,3.89595361328125,-0.003169428091496229,0.007928497157990932,-0.0009379653492942452
1772807034461885400,3.905885498046875,-0.00020453077740967274,0.008475510403513908,0.001811748486943543
1772807034471817500,3.9158173828125,-0.0014791196445003152,0.005102883093059063,0.001050084363669157
1772807034481748500,3.92574853515625,-0.0004649879119824618,0.007622765842825174,-0.0014988270122557878
1772807034491680500,3.935680419921875,-0.0020040287636220455,0.004683701321482658,-0.0011201255256310105
1772807034501612500,3.945612548828125,-0.0001555285998620093,0.005906358826905489,0.002344380598515272
1772807034511543600,3.95554345703125,-0.00039468047907575965,0.005185441114008427,0.000526506919413805
1772807034521475600,3.9654755859375,-0.0022325278259813786,0.0057676080614328384,-0.002566754585132003
1772807034531407600,3.97540771484375,-0.0014016216155141592,0.006986536551266909,-0.0029672940727323294
1772807034541338400,3.98533837890625,-0.00015180018090177327,0.005760950036346912,-0.0010847054654732347
1772807034551268900,3.995268798828125,-0.0005589975044131279,0.004004328977316618,-0.001511343871243298
1772807034561199600,4.00519970703125,-0.0018708707066252828,0.003379285102710128,-0.0007552724564447999
1772807034571131600,4.015131591796875,-0.0018213358707726002,0.005227518733590841,-0.003186472225934267
1772807034581063700,4.025063720703125,0.000818123109638691,0.007964449934661388,-0.0012631373247131705
1772807034590995700,4.03499560546875,-0.0005826996639370918,0.004177967086434364,-0.00010279801790602505
1772807034600927000,4.044927001953125,-0.0007510114228352904,0.007384412921965122,0.00030546457855962217
1772807034610858800,4.054858642578125,-0.0014242585748434067,0.006603041663765907,-0.001377386855892837
1772807034620790800,4.064790771484375,-0.001874066423624754,0.004483165219426155,-0.0021374530624598265
1772807034630721800,4.0747216796875,0.0005488775204867125,0.007760451175272465,0.00018801917030941695
1772807034640653800,4.08465380859375,-0.0009299758239649236,0.005764412228018045,-0.0013542174128815532
1772807034650585900,4.0945859375,-0.0015456987312063575,0.005856823641806841,-0.0009843043517321348
1772807034660517600,4.104517578125,-0.0006103964988142252,0.005966812372207642,0.0012381036067381501
1772807034670449000,4.114448974609375,0.000006924218723725062,0.006758037488907576,-0.0003049319493584335
1772807034680381000,4.124380859375,-0.002228266792371869,0.0052046156488358974,0.0007917577750049531
1772807034690313000,4.13431298828125,-0.001844505313783884,0.006284261122345924,0.0004543352697510272
1772807034700243700,4.14424365234375,-0.00006711165769957006,0.0038666436448693275,-0.00009214537567459047
1772807034710175700,4.15417578125,-0.0009973538108170033,0.006193980108946562,0.0010229201288893819
1772807034720107800,4.164107666015625,-0.0003294330381322652,0.005101018585264683,0.0005262406193651259
1772807034730038800,4.174038818359375,0.000835966260638088,0.006587062496691942,0.0009882990270853043
1772807034739970600,4.183970458984375,0.0010695254895836115,0.005834985990077257,0.0033808830194175243
1772807034749902800,4.19390283203125,0.003439206164330244,0.004096474498510361,0.00009321063407696784
1772807034759833900,4.203833740234375,0.0015789881581440568,0.004966795444488525,0.00004207794336252846
1772807034769766000,4.213765869140625,0.0009978864109143615,0.00395852280780673,0.0009118663729168475
1772807034779698000,4.223697998046875,-0.0022120214998722076,0.006307696923613548,-0.0014705975772812963
1772807034789629700,4.233629638671875,-0.0012855078093707561,0.005336175672709942,-0.0003022687742486596
1772807034799560700,4.243560791015625,-0.003689809702336788,0.007542870938777924,-0.0012322446564212441
1772807034809492700,4.25349267578125,-0.0002724413643591106,0.006366552785038948,0.0007611314067617059
1772807034819424800,4.2634248046875,-0.00037950044497847557,0.008669654838740826,0.0004316983977332711
1772807034829355800,4.273355712890625,-0.000291616132017225,0.006391320377588272,0.0022117553744465113
1772807034839287800,4.283287841796875,-0.002026399364694953,0.004135889001190662,-0.0014620753936469555
1772807034849219800,4.2932197265625,-0.00022157499915920198,0.003763312939554453,0.001118793967179954
1772807034859152000,4.30315185546875,0.000004261057711119065,0.00330258603207767,0.0009837717516347766
1772807034869082600,4.31308251953125,-0.0018692727899178863,0.005412076134234667,-0.0017981663113459945
1772807034879014700,4.3230146484375,-0.00032410668791271746,0.005407282151281834,-0.0028016455471515656
1772807034888947700,4.33294775390625,0.0022804648615419865,0.00567093538120389,0.0004340952436905354
1772807034898878700,4.342878662109375,-0.0011081412667408586,0.005397428758442402,0.0010122675448656082
1772807034908810800,4.352810791015625,-0.0012061456218361855,0.005284776911139488,0.0008649947121739388
1772807034918742800,4.36274267578125,0.0009981527691707015,0.0028607675340026617,-0.0007134608458727598
1772807034928673800,4.372673828125,0.0004069310089107603,0.003766242414712906,-0.00001864212754298933
1772807034938605800,4.382605712890625,0.0009392969077453017,0.007962585426867008,0.00026604978484101593
1772807034948537900,4.392537841796875,0.0002796319022309035,0.003943875432014465,-0.0013986921403557062
1772807034958468600,4.402468505859375,-0.0006024070316925645,0.0060080913826823235,0.000011185276889591478
1772807034968400600,4.412400634765625,0.00020985709852539003,0.005013134330511093,0.00032676986302249134
1772807034978332700,4.422332763671875,-0.0008157262345775962,0.004661863669753075,-0.0009201221400871873
1772807034988264700,4.4322646484375,-0.002659965306520462,0.004707669839262962,0.0011954930378124118
1772807034998196000,4.442196044921875,-0.003087402554228902,0.005673598498106003,-0.0003475425182841718
1772807035008127700,4.452127685546875,-0.0013771206140518188,0.005072256550192833,0.001044491771608591
1772807035018059800,4.462059814453125,0.0005704491049982607,0.006346312817186117,0.0006186523241922259
1772807035027990800,4.47199072265625,-0.0006261091912165284,0.006707970052957535,-0.0014349111588671803
1772807035037922800,4.4819228515625,-0.0012548814993351698,0.006096241995692253,-0.0007009439868852496
1772807035047854600,4.4918544921875,-0.003031742526218295,0.005907157436013222,0.0014966964954510331
1772807035057786600,4.50178662109375,-0.00042876892257481813,0.006190784275531769,0.0007166566210798919
1772807035067718000,4.5117177734375,-0.0003707120195031166,0.006426740437746048,-0.0022445120848715305
1772807035077650000,4.52164990234375,0.00008974852971732616,0.00535348616540432,-0.002216815249994397
1772807035087582000,4.53158203125,-0.0031222901307046413,0.004068511072546244,0.00016644757124595344
1772807035097512700,4.5415126953125,-0.002426938619464636,0.006689061876386404,0.0005243764026090503
1772807035107444700,4.55144482421875,-0.0014287859667092562,0.008528507314622402,-0.000016245283404714428
1772807035117376800,4.561376708984375,-0.0016306535108014941,0.00926247425377369,-0.001091629732400179
1772807035127307800,4.571307861328125,-0.0006567355012521148,0.007426224648952484,-0.000598145998083055
1772807035137239800,4.58123974609375,-0.0010002832859754562,0.008870190940797329,-0.00034647725988179445
1772807035147171800,4.591171875,0.0012575446162372828,0.004958007019013166,0.0007121292874217033
1772807035157103900,4.601103759765625,-0.002049835165962577,0.00743181724101305,-0.0011614045361056924
1772807035167035000,4.611034912109375,-0.0016146745765581727,0.004038417246192694,0.0002479403046891093
1772807035176966700,4.620966552734375,-0.0009142631897702813,0.009042496792972088,0.0007118629291653633
1772807035186898700,4.630898681640625,-0.0004522047529462725,0.007427023723721504,5.326322138898831e-7
1772807035196829700,4.64082958984375,-0.000922519015148282,0.002091380301862955,-0.0012458267156034708
1772807035206761700,4.65076171875,-0.00043755737715400755,0.004781173076480627,0.0012916331179440022
1772807035216693800,4.66069384765625,0.0010106696281582117,0.0064922538585960865,0.000604004948399961
1772807035226624800,4.670624755859375,-0.0001704423048067838,0.005872003734111786,-0.0008972189389169216
1772807035236556800,4.680556884765625,-0.0014682007022202015,0.006708236411213875,0.0006404902087524533
1772807035246488800,4.69048876953125,0.0012434299569576979,0.008339955471456051,-0.0011475561186671257
1772807035256420900,4.7004208984375,-0.002838130807504058,0.00529702752828598,0.00033662354690022767
1772807035266351600,4.7103515625,0.001121723442338407,0.003335609333589673,-0.002058889716863632
1772807035276283600,4.72028369140625,-0.0007789746159687638,0.008941562846302986,-0.0017616810509935021
1772807035286215700,4.730215576171875,-0.002566754585132003,0.005572398193180561,-0.0027201527263969183
1772807035296147000,4.74014697265625,0.000006125270374468528,0.0014239922165870667,0.000022903184799361043
1772807035306078700,4.75007861328125,0.00026045716367661953,0.006305300164967775,-0.0013739247806370258
1772807035316010800,4.7600107421875,-0.002288188086822629,0.008837167173624039,0.0007611314067617059
1772807035325941800,4.769941650390625,-0.0004724447790067643,0.004087686073035002,-0.0008625978953205049
1772807035335873800,4.779873779296875,-0.0017222663154825568,0.008625978603959084,-0.0003102582704741508
1772807035345805800,4.789805908203125,-0.0023555660154670477,0.008798019029200077,0.0006061354652047157
1772807035355737600,4.799737548828125,-0.0011797803454101086,0.007736216764897108,0.0008532768115401268
1772807035365668900,4.8096689453125,-0.0014229270163923502,0.004569718148559332,0.00026551715563982725
1772807035375601000,4.819600830078125,-0.00256462418474257,0.004834169987589121,-0.0008053398923948407
1772807035385533000,4.829532958984375,-0.0006013417732901871,0.005625395104289055,-0.00007723167072981596
1772807035395463700,4.839463623046875,-0.00006631271389778703,0.004984105937182903,-0.0007741809240542352
1772807035405395700,4.849395751953125,-0.0011893677292391658,0.0046538738533854485,-0.0003102582704741508
1772807035415327700,4.85932763671875,-0.002415487077087164,0.0073231603018939495,-0.0003528688393998891
1772807035425259800,4.869259765625,-0.001672198879532516,0.005505819339305162,-0.00152306177187711
1772807035435190800,4.879190673828125,-0.0025510420091450214,0.006893059704452753,0.00038003307417966425
1772807035445122800,4.889122802734375,-0.00358860963024199,0.008953813463449478,-0.0018908443162217736
1772807035455054800,4.899054931640625,-0.0017840516520664096,0.004238420631736517,-0.0022069616243243217
1772807035464985900,4.90898583984375,0.0009105347562581301,0.005943110212683678,0.003257578704506159
1772807035474918000,4.91891796875,-0.0008269115351140499,0.005851231049746275,0.003641340183094144
1772807035484849700,4.928849609375,-0.0008934905636124313,0.0064975805580616,0.001300155185163021
1772807035494780700,4.93878076171875,-0.0026221484877169132,0.005422195885330439,0.0016596820205450058
1772807035504712700,4.948712646484375,-0.002517752582207322,0.0043444144539535046,-0.0028429245576262474
1772807035514644700,4.958644775390625,-0.002925216220319271,0.004394481889903545,-0.003612311789765954
1772807035524576800,4.96857666015625,-0.003518834710121155,0.005216333549469709,-0.002683933824300766
1772807035534507800,4.9785078125,-0.0020868529099971056,0.005006209947168827,-0.0004527373821474612
1772807035544440000,4.988440185546875,-0.00101173494476825,0.006336458958685398,0.0001994707708945498
1772807035554371800,4.998371826171875,-0.0013467605458572507,0.006730873137712479,-0.0010021475609391928
1772807035564302800,5.008302734375,-0.0034530546981841326,0.006160157732665539,-0.0013382384786382318
1772807035574235000,5.01823486328125,-0.0020069582387804985,0.005702360533177853,0.0002085255109705031
1772807035584167000,5.0281669921875,-0.00044607947347685695,0.005224855616688728,0.0011701929615810513
1772807035594098000,5.038097900390625,0.00008175904804375023,0.0028511802665889263,-0.0025478461757302284
1772807035604030000,5.048030029296875,-0.0006261091912165284,0.0022975089959800243,0.0007121292874217033
1772807035613962000,5.0579619140625,0.0009105347562581301,0.004933239426463842,0.0015789881581440568
1772807035623894000,5.06789404296875,-0.0007342335302382708,0.008504272438585758,-0.0000031957933970261365
1772807035633825000,5.077824951171875,0.00029640982393175364,0.005452822428196669,-0.0008482168195769191
1772807035643756800,5.0877568359375,-0.0006370281334966421,0.005941246170550585,-0.0024671524297446012
1772807035653688800,5.097688720703125,-0.0009827064350247383,0.006207029335200787,0.0012844426091760397
1772807035663620000,5.1076201171875,0.0017619474092498422,0.004945223685353994,-0.0009502158500254154
1772807035673552100,5.11755224609375,0.00017177389236167073,0.005913815461099148,0.0005083974683657289
1772807035683484000,5.12748388671875,-0.0029145635198801756,0.009866745211184025,0.0005328985280357301
1772807035693416000,5.137416015625,-0.0013574132462963462,0.005653092171996832,-0.00041332258842885494
1772807035703347000,5.147346923828125,-0.0015475628897547722,0.006825149059295654,0.0010519486386328936
1772807035713279000,5.157279052734375,0.00032650353386998177,0.003946538548916578,0.002180862706154585
1772807035723211000,5.1672109375,-0.003534547286108136,0.006872287020087242,-0.00030120351584628224
1772807035733142000,5.17714208984375,-0.002416286151856184,0.005138303153216839,0.0002055960358120501
1772807035743074000,5.187073974609375,-0.002557966159656644,0.00566933723166585,-0.002416019793599844
1772807035753006000,5.197006103515625,0.0010000169277191162,0.0044019389897584915,0.000529702752828598
1772807035762936800,5.206936767578125,-0.0017038905061781406,0.00788535363972187,0.0005376922199502587
1772807035772868900,5.216868896484375,-0.0006162554491311312,0.006110090296715498,0.000993891735561192
1772807035782801000,5.22680078125,-0.0012934972764924169,0.008870457299053669,0.00021944446780253202
1772807035792733000,5.23673291015625,-0.0013009541435167193,0.005002215504646301,-0.0014096111990511417
1772807035802664000,5.246663818359375,-0.004297542851418257,0.005044559482485056,0.00015286543930415064
1772807035812596000,5.256595947265625,-0.0009230516152456403,0.005792907904833555,0.0014769891276955605
1772807035822528000,5.266528076171875,0.0011443602852523327,0.0018298579379916191,0.0007843009079806507
1772807035832459000,5.276458984375,-0.0013611416798084974,0.0025451830588281155,0.0001597896625753492
1772807035842391000,5.28639111328125,-0.0005688511882908642,0.008299741894006729,-0.0011086739832535386
1772807035852323000,5.296322998046875,0.00005246427463134751,0.005080778617411852,0.00003222424857085571
1772807035862253800,5.30625390625,-0.0006705839768983424,0.004038683604449034,0.0004767058417201042
1772807035872185900,5.316185791015625,0.000059388490626588464,0.005834719631820917,-0.0013797837309539318
1772807035882118000,5.326117919921875,-0.0002902845444623381,0.007760451175272465,-0.0006119944155216217
1772807035892050000,5.3360498046875,-0.0005573995877057314,0.006623015273362398,-0.0024924525059759617
1772807035901981000,5.34598095703125,-0.002775812754407525,0.006278135813772678,-0.00043888893560506403
1772807035911913000,5.355912841796875,-0.00029827404068782926,0.006884271278977394,0.0010892328573390841
1772807035921845000,5.365844970703125,-0.0005547364708036184,0.0043590618297457695,0.002410160843282938
1772807035931776000,5.37577587890625,-0.0003909520455636084,0.008769256994128227,-0.001392300589941442
1772807035941707800,5.385707763671875,-0.0018793927738443017,0.007251521106809378,0.000523577444255352
1772807035951639800,5.395639892578125,-0.002323341788724065,0.004811533261090517,-0.001517469179816544
1772807035961571000,5.405571044921875,-0.0009323726990260184,0.00452870549634099,0.00138058268930763
1772807035971503000,5.415503173828125,-0.0025542378425598145,0.004815261345356703,-0.00040027310024015605
1772807035981435100,5.42543505859375,0.002341451123356819,0.004403803031891584,0.0023995081428438425
1772807035991367000,5.435366943359375,-0.0006474144756793976,0.007906658574938774,0.0005605954211205244
1772807036001298000,5.4452978515625,-0.0016476977616548538,0.007330883294343948,-0.0007819040911272168
1772807036011230000,5.45522998046875,-0.0007749798824079335,0.004861067980527878,-0.0007398261222988367
1772807036021162000,5.465161865234375,-0.0036192359402775764,0.005175853613764048,0.0012679309584200382
1772807036031093000,5.475093017578125,-0.0015520902816206217,0.0046304380521178246,-0.0023931164760142565
1772807036041025000,5.48502490234375,0.00003941478280466981,0.005024319514632225,-0.0015433018561452627
1772807036050957000,5.49495703125,-0.0008362325606867671,0.00478303711861372,-0.0014213290996849537
1772807036060888000,5.50488818359375,-0.0022684806026518345,0.01025743130594492,-0.0013470269041135907
1772807036070819800,5.51481982421875,-0.004505536053329706,0.005909021943807602,0.0010921623324975371
1772807036080751900,5.524751953125,0.0002849582233466208,0.003869839245453477,0.0009126652730628848
1772807036090684000,5.534683837890625,-0.002957440447062254,0.004313522018492222,0.0008309062686748803
1772807036100615000,5.544614990234375,-0.0016993631143122911,0.006485063582658768,0.0037057886365801096
1772807036110547000,5.554546875,-0.0033595776185393333,0.004890895448625088,0.0010367685463279486
1772807036120479000,5.56447900390625,-0.0019470370607450604,0.003792874049395323,0.00022796659322921187
1772807036130410000,5.574409912109375,-0.0001054611784638837,0.005943110212683678,0.00119602563790977
1772807036140342000,5.584342041015625,-0.0010077401529997587,0.006707703694701195,-0.0011086739832535386
1772807036150274000,5.594274169921875,-0.0008753810543566942,0.006304234731942415,-0.0003432814555708319
1772807036160205800,5.604205810546875,-0.0009685916593298316,0.005332713946700096,-0.0022333269007503986
1772807036170136800,5.61413671875,-0.002531334524974227,0.005772401578724384,0.0005968143814243376
1772807036180068900,5.62406884765625,-0.0014737932942807674,0.006703975144773722,-0.00007350324449362233
1772807036190001000,5.6340009765625,-0.0013249226612970233,0.006750048138201237,-0.0012855078093707561
1772807036199932000,5.643931884765625,-0.0010333064710721374,0.0062584285624325275,-0.0004673847579397261
1772807036209864000,5.653864013671875,-0.00023568976030219346,0.008065116591751575,-0.0012831110507249832
1772807036219796000,5.6637958984375,-0.0011283813510090113,0.006905576679855585,-0.000669252360239625
1772807036229727000,5.67372705078125,0.0010301107540726662,0.006421147845685482,-0.0016415724530816078
1772807036239658800,5.68365869140625,-0.00049108691746369,0.005255748517811298,-0.0017984326696023345
1772807036249590800,5.6935908203125,-0.0028152274899184704,0.006477074231952429,-0.0003099919413216412
1772807036259522800,5.703522705078125,-0.0033989925868809223,0.005063468124717474,-0.004135622642934322
1772807036269454000,5.7134541015625,-0.000011451592399680521,0.014095845632255077,0.0054701329208910465
1772807036279386000,5.72338623046875,-0.0012463594321161509,0.016712401062250137,0.004773183725774288
1772807036289318000,5.73331787109375,0.0009616674506105483,-0.0007392935222014785,-0.002255164785310626
1772807036299249000,5.743248779296875,0.00012889699428342283,0.004338555503636599,-0.000027696874894900247
1772807036309181000,5.753180908203125,-0.001853560097515583,0.011360245756804943,0.0014977618120610714
1772807036319113000,5.763113037109375,0.0011861718958243728,-0.001332912128418684,-0.0020839234348386526
1772807036329044000,5.7730439453125,-0.0018410432385280728,0.0024836640805006027,0.00034194986801594496
1772807036338976000,5.78297607421875,-0.0005866943974979222,0.011624963954091072,0.0022775353863835335
1772807036348908000,5.792907958984375,0.000013582121027866378,0.003997670952230692,-0.0013353090034797788
1772807036358840000,5.802840087890625,-0.0007054713787510991,0.0022983080707490444,0.0008849684381857514
1772807036368770800,5.812770751953125,-0.0005611280212178826,0.009638512507081032,0.001820536912418902
1772807036378702800,5.822702880859375,-0.000874582096002996,0.009820139966905117,-0.000586161739192903
1772807036388635000,5.832634765625,-0.002299905987456441,0.003041330026462674,-0.0010455570882186294
1772807036398566000,5.84256591796875,-0.003180879633873701,0.007993744686245918,-0.001430916483514011
1772807036408498200,5.852498291015625,-0.0017944378778338432,0.0075756278820335865,0.0002745719102676958
1772807036418430000,5.862429931640625,-0.0030714236199855804,0.00606455048546195,-0.003028546692803502
1772807036428362000,5.872362060546875,0.00004846953015658073,0.006944458931684494,0.0006500775925815105
1772807036438293000,5.88229296875,-0.0026610305067151785,0.009016664698719978,0.0017355820164084435
1772807036448225000,5.89222509765625,-0.00018242653459310532,0.0067939902655780315,0.0002615224220789969
1772807036458157000,5.902156982421875,-0.0015078817959874868,0.005569735076278448,-0.0012144014472141862
1772807036468087800,5.912087890625,0.0002311623829882592,0.0075665730983018875,0.00047084689140319824
1772807036478019800,5.922019775390625,-0.0015941682504490018,0.003748399205505848,0.0006253102328628302
1772807036487952000,5.931951904296875,0.00023276027059182525,0.0039265644736588,-0.001722798915579915
1772807036497883000,5.9418828125,0.0014620753936469555,0.008494950830936432,0.0018405106384307146
1772807036507815000,5.95181494140625,-0.00032384038786403835,0.008674714714288712,-0.0024951156228780746
1772807036517747000,5.961746826171875,0.002612560987472534,0.005247758701443672,0.00018082863243762404
1772807036527679000,5.971678955078125,0.0010365023044869304,0.004448277875781059,0.0021081583108752966
1772807036537610000,5.98160986328125,-0.0018253305461257696,0.008114385418593884,0.003576891729608178
1772807036547542800,5.991542724609375,-0.001323857344686985,0.00037710359902121127,-0.0008343683439306915
1772807036557474800,6.001474853515625,-0.0014674017438665032,0.00561074772849679,-0.0013076120521873236
1772807036567405800,6.01140576171875,-0.0022711437195539474,0.007524229120463133,-0.00031132352887652814
1772807036577337900,6.021337890625,-0.00016644757124595344,0.008956477046012878,-0.0010349043877795339
1772807036587270000,6.031269775390625,-0.00014753911818843335,0.007133543025702238,-0.0006229133578017354
1772807036597201000,6.041200927734375,-0.002817358123138547,0.008341819047927856,0.000050866376113845035
1772807036607133000,6.0511328125,0.0002639192680362612,0.007274158298969269,0.0001597896625753492
1772807036617064700,6.061064697265625,-0.0022772690281271935,0.003719370812177658,0.0031230889726430178
1772807036626996700,6.070996826171875,-0.0027683558873832226,0.00875247921794653,-0.0007310376968234777
1772807036636927700,6.080927734375,-0.001041562296450138,0.008540225215256214,0.0025686188600957394
1772807036646859800,6.09085986328125,-0.0015454323729500175,0.006403038278222084,0.0002764361270237714
1772807036656791800,6.100791748046875,-0.0006743124104104936,0.006106894463300705,-0.0002306297537870705
1772807036666722800,6.110722900390625,-0.0014990933705121279,0.007725297473371029,-0.0004218447138555348
1772807036676654800,6.12065478515625,0.002097239252179861,0.006393717136234045,-0.0010634001810103655
1772807036686587000,6.1305869140625,-0.0012958941515535116,0.0032921996898949146,-0.001088433898985386
1772807036696519000,6.140518798828125,-0.0008170577930286527,0.006733270362019539,-0.0016381103778257966
1772807036706449700,6.15044970703125,0.00017310546536464244,0.006070143077522516,-0.0004703142330981791
1772807036716381700,6.160381591796875,-0.0011534150689840317,0.006308495998382568,-0.0005241101025603712
1772807036726313700,6.170313720703125,0.0007688545738346875,0.007632886059582233,0.0001347559446003288
1772807036736245000,6.180244873046875,-0.0007661914569325745,0.005371595732867718,0.0011608719360083342
1772807036746176800,6.1901767578125,0.00034727618913166225,0.0027150926180183887,-0.00010439591278554872
1772807036756108800,6.20010888671875,-0.0031012510880827904,0.0060325926169753075,-0.00207726564258337
1772807036766039800,6.210039794921875,0.00019467707898002118,0.0026527747977524996,0.00011265171633567661
1772807036775971800,6.219971923828125,-0.0005017395596951246,0.004829908721148968,0.0012037487467750907
1772807036785903900,6.22990380859375,-0.0011496866354718804,0.0065263425931334496,-0.00008388957212446257
1772807036795835600,6.239835693359375,0.000055393749789800495,0.005916478578001261,-0.0026146916206926107
1772807036805767000,6.249766845703125,-0.0011153318919241428,0.00762969022616744,-0.0017398431664332747
1772807036815699000,6.259698974609375,-0.0014948323369026184,0.007673898711800575,-0.00022450447431765497
1772807036825631000,6.269630859375,0.0003406183095648885,0.004841094370931387,0.0033987262286245823
1772807036835561700,6.279561767578125,-0.0005789712304249406,0.003744937013834715,-0.0008197209681384265
1772807036845493800,6.28949365234375,0.0006767092272639275,0.005238970275968313,-0.0017145430902019143
1772807036855425800,6.29942578125,-0.0015281217638403177,0.005416070576757193,-0.003570766421034932
1772807036865356800,6.309356689453125,-0.0006106628570705652,0.0051739891059696674,0.0020178770646452904
1772807036875288800,6.319288818359375,-0.0029547770973294973,0.007782822009176016,0.0007360977469943464
1772807036885220900,6.329220947265625,0.0003712446487043053,0.004066913388669491,0.0014761901693418622
1772807036895153000,6.33915283203125,-0.00119575927965343,0.0035292210523039103,-0.0001675128296483308
1772807036905084000,6.349083984375,-0.0011310444679111242,0.0037438718136399984,-0.0004269047058187425
1772807036915016000,6.359015869140625,0.00021598236344289035,0.007262706756591797,-0.002614957746118307
1772807036924947700,6.36894775390625,-0.0005837649223394692,0.0056392434053123,-0.001175252953544259
1772807036934878700,6.378878662109375,-0.001038366463035345,0.007635815534740686,-0.0032722260802984238
1772807036944810800,6.388810791015625,0.001127848750911653,0.007266168482601643,0.0003259709046687931
1772807036954742800,6.39874267578125,-0.0023379891645163298,0.006636330857872963,-0.0006165218073874712
1772807036964674800,6.4086748046875,0.00021917815320193768,0.005025384947657585,0.0002402171230642125
1772807036974605800,6.418605712890625,-0.00003808320252574049,0.004032824654132128,0.0004628573951777071
1772807036984537900,6.428537841796875,0.00013182646944187582,0.007091199047863483,-0.0005928196478635073
1772807036994470000,6.438469970703125,0.00020905814017169178,0.006129798013716936,0.0008072041091509163
1772807037004400600,6.448400634765625,-0.001404018490575254,0.004614725708961487,-0.00033396040089428425
1772807037014332700,6.458332763671875,0.0002306297537870705,0.008714661933481693,0.0006759102689102292
1772807037024264700,6.4682646484375,-0.0024567660875618458,0.007515972945839167,-0.00024447820032946765
1772807037034196000,6.478196044921875,0.0014271880500018597,0.006305033806711435,-0.0007579356315545738
1772807037044128000,6.4881279296875,-0.0002759034978225827,0.0016932378057390451,0.00019920444174204022
1772807037054059800,6.498059814453125,-0.0006207828409969807,0.0041428133845329285,-0.0003283677506260574
1772807037063991800,6.50799169921875,-0.0023305322974920273,0.003820570884272456,0.00018242653459310532
1772807037073922800,6.5179228515625,-0.0002972087822854519,0.006750048138201237,-0.0002801645314320922
1772807037083854800,6.527854736328125,-0.0014956312952563167,0.009500560350716114,0.0005158542771823704
1772807037093786600,6.53778662109375,-0.002394448034465313,0.006105296779423952,-0.0009893643436953425
1772807037103718000,6.5477177734375,-0.0026130937039852142,0.006580670829862356,-0.0004290352517273277
1772807037113650000,6.55764990234375,-0.0008349010022357106,0.007157511543482542,-0.0016399745363742113
1772807037123582000,6.56758203125,0.0001651159836910665,0.00395825644955039,0.0001994707708945498
1772807037133512700,6.5775126953125,-0.0005217132274992764,0.006455768831074238,0.0005121259018778801
1772807037143444700,6.58744482421875,0.0009337042574770749,0.006353503558784723,0.00019254654762335122
1772807037153376800,6.597376708984375,-0.0020762004423886538,0.007637146860361099,0.00030866035376675427
1772807037163308800,6.607308837890625,-0.0020306603983044624,0.006393184419721365,0.0017598168924450874
1772807037173239800,6.61723974609375,0.0007760451408103108,0.006730873137712479,-0.0007430219557136297
1772807037183171800,6.627171875,-0.001213336130604148,0.009407349862158298,0.000711064029019326
1772807037193104000,6.637103759765625,-0.004652542527765036,0.005856291390955448,-0.0006615291931666434
1772807037203035000,6.647034912109375,-0.0022863238118588924,0.004157194402068853,-0.0015749934827908874
1772807037212967000,6.656966796875,0.0002689792599994689,0.003088201628997922,-0.0010066748363897204
1772807037222898700,6.666898681640625,-0.00016325176693499088,0.00791651289910078,0.0032583775464445353
1772807037232830700,6.676830810546875,-0.0012783173006027937,0.005656553898006678,0.00008415588672505692
1772807037242761700,6.68676171875,0.00023515711654908955,0.0035265579354017973,0.0014117417158558965
1772807037252694000,6.696694091796875,-0.0003486077766865492,0.006730606779456139,0.0013973605819046497
1772807037262626000,6.7066259765625,-0.0013424995122477412,0.004233094397932291,0.0003438140847720206
1772807037272556800,6.716556884765625,-0.0011864382540807128,0.004217382054775953,-0.0013675332302227616
1772807037282488800,6.72648876953125,-0.00042983421008102596,0.00777696305885911,0.002120941411703825
1772807037292420900,6.7364208984375,-0.00018322547839488834,0.004878112114965916,0.0007550061563961208
1772807037302351600,6.7463515625,-0.0012125372886657715,0.00771863991394639,-0.002222141483798623
1772807037312283600,6.75628369140625,-0.0005669869715347886,0.008741027675569057,-0.00017683389887679368
1772807037322215700,6.766215576171875,0.0016029566759243608,0.007172158919274807,-0.002413090318441391
1772807037332147700,6.776147705078125,-0.00015393071225844324,0.007844873704016209,-0.0013012205017730594
1772807037342079000,6.786078857421875,-0.000544350128620863,0.0038061898667365313,0.000041278995922766626
1772807037352010800,6.7960107421875,-0.002386192325502634,0.0049646650440990925,0.001499359728768468
1772807037361942800,6.80594287109375,-0.002359027974307537,0.005230714567005634,0.0016519587952643633
1772807037371873800,6.815873779296875,-0.00021971078240312636,0.008018777705729008,0.0015994944842532277
1772807037381805800,6.825805908203125,-0.0011025486746802926,0.008405202999711037,-0.001528920722194016
1772807037391737900,6.83573779296875,0.0002463423879817128,0.005861351266503334,-0.00020000340009573847
1772807037401668900,6.8456689453125,0.0012538161827251315,0.004508997779339552,0.00015925703337416053
1772807037411601000,6.855600830078125,-0.002013616031035781,0.0074605792760849,-0.0034373418893665075
1772807037421533000,6.865532958984375,-0.0019113506423309445,0.00695058424025774,0.00014647385978605598
1772807037431465000,6.87546484375,-0.003340669209137559,0.005346828605979681,-0.0008290420519188046
1772807037441395700,6.885395751953125,-0.00155262288171798,0.005532184615731239,-0.00009134642459684983
1772807037451327700,6.89532763671875,0.0004391552647575736,0.006048571318387985,-0.0009867012267932296
1772807037461259800,6.905259765625,-0.0016977651976048946,0.005859486758708954,-0.0017454357584938407
1772807037471191000,6.91519091796875,-0.0009510148083791137,0.006315952632576227,0.00011930961773032323
1772807037481122800,6.925122802734375,0.00034647725988179445,0.00544323492795229,0.00018908442871179432
1772807037491054800,6.935054931640625,-0.0005600627628155053,0.005841644015163183,-0.0005933523061685264
1772807037500987000,6.94498681640625,-0.0015355786308646202,0.005820338614284992,0.0012295814231038094
1772807037510918000,6.95491796875,-0.0004886900424025953,0.005509547423571348,0.0025212145410478115
1772807037520849700,6.964849609375,0.00037816885742358863,0.005973204039037228,0.0006612628931179643
1772807037530781700,6.97478173828125,-0.0011251855175942183,0.007788680959492922,0.0006239786162041128
1772807037540713000,6.984712890625,0.0004106594424229115,0.005213404074311256,-0.0012482235906645656
1772807037550643700,6.994643798828125,-0.0012114719720557332,0.005903429351747036,0.0005262406193651259
1772807037560575700,7.00457568359375,0.001514539704658091,0.005112470127642155,0.00013209278404247016
1772807037570506800,7.0145068359375,-0.0004423510399647057,0.00421258807182312,0.0003944141499232501
1772807037580438800,7.024438720703125,-0.000041278995922766626,0.006761233322322369,0.0026013758033514023
1772807037590370800,7.034370849609375,-0.0004644552827812731,0.005633118096739054,-0.0006884271278977394
1772807037600302600,7.044302490234375,0.0011342403013259172,0.005922603886574507,0.00009507485083304346
1772807037610233900,7.05423388671875,-0.0015923039754852653,0.003838414093479514,0.0020397149492055178
1772807037620166000,7.064165771484375,0.0009390306076966226,0.004344148561358452,-0.0018698053900152445
1772807037630098000,7.074097900390625,-0.002447711303830147,0.006313023157417774,-0.0022096247412264347
1772807037640028700,7.084028564453125,-0.000830107310321182,0.005004079546779394,-0.0011289139511063695
1772807037649960700,7.093960693359375,-0.0022008363157510757,0.0051721250638365746,0.00022690132027491927
1772807037659892700,7.103892822265625,-0.0018988338997587562,0.005420065484941006,0.0017355820164084435
1772807037669824000,7.113823974609375,-0.0008370315190404654,0.005663744639605284,-0.0011488876771181822
1772807037679755800,7.123755859375,-0.0012144014472141862,0.007548197638243437,0.0008378304773941636
1772807037689687800,7.133687744140625,-0.001589108258485794,0.005034439731389284,0.003733485471457243
1772807037699619800,7.143619873046875,-0.0025624935515224934,0.005019525997340679,-0.0011574097443372011
1772807037709550800,7.15355078125,-0.000143544384627603,0.005336974747478962,0.0010482202051207423
1772807037719483000,7.16348291015625,0.00009880327706923708,0.006488792132586241,-0.0008910936885513365
1772807037729414700,7.17341455078125,-0.0022213426418602467,0.005293565336614847,0.002208026824519038
1772807037739345700,7.183345703125,0.00006604639202123508,0.006500510033220053,-0.0003834952076431364
1772807037749278000,7.19327783203125,-0.0007653924985788763,0.006813963875174522,0.0007147924043238163
1772807037759210000,7.2032099609375,-0.001418932224623859,0.006641657557338476,0.00013022858183830976
1772807037769141800,7.213141845703125,-0.000907338981050998,0.006584665738046169,-0.0024615598376840353
1772807037779072800,7.22307275390625,-0.0026589001063257456,0.005250155925750732,-0.0031196267809718847
1772807037789004800,7.2330048828125,0.00006311691686278209,0.006217682268470526,-0.0009305084822699428
1772807037798936800,7.242936767578125,0.000006125270374468528,0.0034205641131848097,-0.00044368262751959264
1772807037808867600,7.25286767578125,0.0011837751371785998,0.004254133440554142,-0.0008519452530890703
1772807037818799600,7.262799560546875,0.00031611722079105675,0.008732505142688751,-0.0013590110465884209
1772807037828731600,7.272731689453125,-0.0007584682898595929,0.006855775602161884,-0.00180855265352875
1772807037838663000,7.282662841796875,0.0008988168556243181,0.0057436395436525345,0.001437308033928275
1772807037848594700,7.2925947265625,-0.0014317154418677092,0.005307413637638092,-0.000362988852430135
1772807037858526700,7.302526611328125,0.000011185276889591478,0.007848335430026054,-0.00045859633246436715
1772807037868458800,7.312458740234375,-0.00112438655924052,0.0070547135546803474,-0.0002623213513288647
1772807037878389800,7.3223896484375,0.00023995080846361816,0.005148422904312611,-0.0011046791914850473
1772807037888321800,7.33232177734375,-0.00173744629137218,0.006171077024191618,-0.0003579288604669273
1772807037898253600,7.342253662109375,-0.001749430550262332,0.00162399560213089,0.0008215851848945022
1772807037908184800,7.352184814453125,-0.0018109495285898447,0.005863215308636427,0.0007787083159200847
1772807037918116900,7.362116943359375,-0.001674595638178289,0.006582268979400396,-0.0002609897928778082
1772807037928049000,7.372048828125,0.00039787625428289175,0.005650961305946112,-0.0034727619495242834
1772807037937979600,7.381979736328125,0.0012455604737624526,0.007922638207674026,0.0009518137667328119
1772807037947911700,7.39191162109375,-0.0028511802665889263,0.00746031291782856,0.0015941682504490018
1772807037957843700,7.40184375,-0.000892691605258733,0.007449127733707428,-0.0012522183824330568
1772807037967775700,7.411775634765625,-0.0018045579781755805,0.007631554268300533,0.0017603494925424457
1772807037977706800,7.421706787109375,-0.002546780975535512,0.00808935146778822,0.0006468818173743784
1772807037987638800,7.431638671875,-0.0011624698527157307,0.005406483076512814,0.0002860235108528286
1772807037997570800,7.44157080078125,-0.0021382521372288465,0.006256830412894487,0.001484445994719863
1772807038007501800,7.451501708984375,-0.000940095866099,0.0038655782118439674,0.0005041363765485585
1772807038017433900,7.461433837890625,-0.0012056130217388272,0.006229666527360678,-0.0009230516152456403
1772807038027365600,7.47136572265625,-0.001466869143769145,0.0070099723525345325,0.0008729841792955995
1772807038037297700,7.481297607421875,-0.0002663161139935255,0.006418484263122082,0.0008207862265408039
1772807038047229000,7.49122900390625,-0.0008527441532351077,0.00401737866923213,0.0011643340112641454
1772807038057161000,7.501160888671875,0.000024767397917457856,0.005663211923092604,-0.000731836655177176
1772807038067093000,7.511093017578125,-0.0006032059900462627,0.005270662251859903,-0.002287655370309949
1772807038077023700,7.521023681640625,-0.0021582257468253374,0.007510113995522261,-0.000642620783764869
1772807038086955800,7.530955810546875,-0.00040293627534992993,0.006053365301340818,-0.0007656587986275554
1772807038096887800,7.5408876953125,-0.0006697850185446441,0.004023237619549036,0.0008673915872350335
1772807038106819800,7.55081982421875,0.00009960222087102011,0.004680505488067865,-0.0017323862994089723
1772807038116750600,7.56075048828125,-0.0017124125733971596,0.00437956815585494,0.0001246359315700829
1772807038126683000,7.570682861328125,-0.0019600866362452507,0.005883721634745598,-0.0013709953054785728
1772807038136615000,7.580614990234375,-0.002900714986026287,0.003908189013600349,-0.00003222424857085571
1772807038146546000,7.5905458984375,0.0007166566210798919,0.007415838539600372,0.0008050735923461616
1772807038156477700,7.600477783203125,-0.0033015208318829536,0.008641159161925316,-0.0006383596919476986
1772807038166409700,7.61040966796875,-0.0006852313526906073,0.006882939953356981,-0.0013523531379178166
1772807038176340700,7.6203408203125,-0.0018634138396009803,0.006702910177409649,-0.001657285145483911
1772807038186272800,7.630272705078125,-0.002541188383474946,0.005224322900176048,0.001127848750911653
1772807038196204500,7.64020458984375,-0.002558765234425664,0.005432049743831158,-0.0008178567513823509
1772807038206136600,7.650136474609375,-0.001689509372226894,0.006755907088518143,-0.00042450788896530867
1772807038216067800,7.66006787109375,-0.0014114753575995564,0.005021922755986452,0.00019041601626668125
1772807038226000000,7.669999755859375,-0.0006793724023737013,0.007424094248563051,0.001564873498864472
1772807038235932000,7.679931884765625,-0.0043713124468922615,0.12623916566371918,0.03365090489387512
1772807038245862700,7.689862548828125,-0.000949150591623038,0.011503257788717747,-0.002118544653058052
1772807038255794700,7.699794677734375,-0.0002537992550060153,-0.04343695566058159,-0.015588280744850636
1772807038265726700,7.709726806640625,-0.0049193911254405975,0.0574537068605423,0.01215972751379013
1772807038275658000,7.719657958984375,0.001344896387308836,0.003614175831899047,0.0001155811914941296
1772807038285589800,7.72958984375,0.00013635384675581008,-0.006317550782114267,-0.006895989179611206
1772807038295521800,7.739521728515625,-0.001529453438706696,0.04369155317544937,0.010891263373196125
1772807038305453800,7.749453857421875,-0.0004569984448608011,-0.0005070658517070115,-0.0031305458396673203
1772807038315384800,7.759384765625,-0.002246909076347947,0.030235933139920235,0.00683047529309988
1772807038325316600,7.769316650390625,0.0016522251535207033,0.008450742810964584,0.0021342572290450335
1772807038335248600,7.77924853515625,-0.001320927869528532,0.014958176761865616,0.001972070662304759
1772807038345180000,7.789179931640625,0.00047857005847617984,0.00612180819734931,-0.000261788722127676
1772807038355112000,7.79911181640625,0.000006391586794052273,0.0029768813401460648,0.0016644756542518735
1772807038365044000,7.8090439453125,-0.0014120079576969147,0.002168878447264433,-0.0019062906503677368
1772807038374975700,7.818975830078125,0.00239151855930686,-0.012506204657256603,-0.0011257182341068983
1772807038384906800,7.82890673828125,-0.0011166634503751993,-0.02340439148247242,-0.009941314347088337
1772807038394838800,7.8388388671875,-0.0013041499769315124,-0.04440528154373169,-0.013979997485876083
1772807038404770800,7.848770751953125,0.00004420847471919842,-0.09367722272872925,-0.02701803483068943
1772807038414701800,7.858701904296875,-0.0011153318919241428,0.0006064017652533948,0.0015126754296943545
1772807038424633900,7.8686337890625,-0.0018455706303939223,0.07750225067138672,0.02050740458071232
1772807038434566000,7.87856591796875,0.0015068164793774486,-0.014854580163955688,-0.007404652889817953
