time,seconds_elapsed,z,y,x
1772807482528756700,0.0747568359375,0.004523287992924452,0.036994218826293945,0.08417374640703201
1772807482538688800,0.084688720703125,0.015729883685708046,0.04314465820789337,0.11039721220731735
1772807482548620800,0.094620849609375,0.012330626137554646,0.04746749997138977,0.128294438123703
1772807482558552800,0.104552734375,0.011651703156530857,0.027019347995519638,0.12262066453695297
1772807482568484900,0.11448486328125,0.009164577350020409,-0.00589705677703023,0.05909361690282822
1772807482578417000,0.1244169921875,0.00769549235701561,-0.015050474554300308,-0.019649315625429153
1772807482588348700,0.1343486328125,0.003293020883575082,-0.028031520545482635,-0.06996654719114304
1772807482598280700,0.14428076171875,0.0026479049120098352,-0.024927334859967232,-0.073194719851017
1772807482608212700,0.154212646484375,0.007374483160674572,-0.018222294747829437,-0.04738762602210045
1772807482618144800,0.164144775390625,0.01567494124174118,-0.007936505600810051,-0.01608395390212536
1772807482628076800,0.174076904296875,0.019845183938741684,-0.007787634618580341,0.000336829834850505
1772807482638008800,0.1840087890625,0.019966285675764084,-0.016953160986304283,-0.009622400626540184
1772807482647939600,0.193939697265625,0.017932962626218796,-0.021113019436597824,-0.030033664777874947
1772807482657871600,0.20387158203125,0.016769934445619583,-0.02890477329492569,-0.05309746041893959
1772807482667803600,0.2138037109375,0.017310287803411484,-0.03977685794234276,-0.059500765055418015
1772807482677735700,0.223735595703125,0.02369260974228382,-0.03174009919166565,-0.046915892511606216
1772807482687668000,0.23366796875,0.026792529970407486,-0.016367802396416664,-0.03251644968986511
1772807482697599700,0.243599853515625,0.02917255274951458,0.0007467428222298622,-0.021567652001976967
1772807482707531800,0.25353173828125,0.025057168677449226,0.0060562873259186745,-0.018442697823047638
1772807482717463800,0.2634638671875,0.020845256745815277,0.001639955211430788,-0.02072914130985737
1772807482727395800,0.273395751953125,0.015796169638633728,0.007097304333001375,-0.025340937077999115
1772807482737327900,0.283327880859375,0.01304745115339756,0.01433364674448967,-0.024912241846323013
1772807482747259600,0.293259765625,0.015312204137444496,0.024302391335368156,-0.019210148602724075
1772807482757191700,0.303191650390625,0.01562955416738987,0.03368270769715309,-0.01978468894958496
1772807482767123700,0.313123779296875,0.01575605571269989,0.040264975279569626,-0.015902066603302956
1772807482777055700,0.3230556640625,0.006618522573262453,0.03272970765829086,-0.012940432876348495
1772807482786987800,0.33298779296875,0.0005526405875571072,0.03697158768773079,-0.002500308444723487
1772807482796919800,0.342919921875,-0.0009542721090838313,0.02808661200106144,-0.0020798922050744295
1772807482806851600,0.3528515625,0.0029232902452349663,0.052133891731500626,-0.006371043622493744
1772807482816783600,0.36278369140625,0.002452766289934516,0.049952492117881775,-0.013837050646543503
1772807482826715600,0.372715576171875,0.004385421983897686,0.05201777443289757,-0.027588283643126488
1772807482836647700,0.382647705078125,0.0025021040346473455,0.05683130770921707,-0.037281110882759094
1772807482846579700,0.392579833984375,0.00047357421135529876,0.05555059760808945,-0.0362217053771019
1772807482856511700,0.40251171875,0.005910950247198343,0.05652717500925064,-0.02450459450483322
1772807482866443500,0.412443603515625,0.0034161009825766087,0.06661230325698853,-0.017258133739233017
1772807482876375600,0.42237548828125,0.003675618674606085,0.07200507074594498,-0.004385299049317837
1772807482886307800,0.432307861328125,0.004808527417480946,0.0725901648402214,0.0037072484847158194
1772807482896239900,0.442239990234375,0.00656024320051074,0.06311503052711487,-0.005587720777839422
1772807482906172000,0.452171875,0.00033510447246953845,0.04733367636799812,-0.02022445574402809
1772807482916104000,0.46210400390625,0.0010386824142187834,0.04533471167087555,-0.03712895140051842
1772807482926035700,0.47203564453125,0.0018296411726623774,0.03798092529177666,-0.04360522702336311
1772807482935967700,0.4819677734375,0.006888373754918575,0.03923047333955765,-0.04138744994997978
1772807482945899800,0.491899658203125,0.007701702415943146,0.04148190841078758,-0.03431941941380501
1772807482955831800,0.501831787109375,0.010065938346087933,0.04235624521970749,-0.03418499231338501
1772807482965763800,0.511763916015625,0.0045638480223715305,0.03737400472164154,-0.0321442112326622
1772807482975694600,0.521694580078125,0.0020988592877984047,0.026547567918896675,-0.03613082319498062
1772807482985626600,0.531626708984375,0.006170299835503101,0.01924198493361473,-0.039212100207805634
1772807482995558700,0.54155859375,0.008278017863631248,0.02385992929339409,-0.04384090006351471
1772807483005490700,0.55149072265625,0.011338256299495697,0.02109450288116932,-0.055666401982307434
1772807483015422700,0.561422607421875,0.017751993611454964,0.015913844108581543,-0.06704902648925781
1772807483025354800,0.571354736328125,0.02308151125907898,0.023152582347393036,-0.08068734407424927
1772807483035286800,0.581286865234375,0.019458813592791557,0.015030473470687866,-0.0857928916811943
1772807483045219000,0.591218994140625,0.0260956771671772,0.0014494173228740692,-0.07888837903738022
1772807483055151000,0.601151123046875,0.026381388306617737,0.0052337804809212685,-0.07961621135473251
1772807483065083000,0.611082763671875,0.021132297813892365,-0.0054593440145254135,-0.08763685077428818
1772807483075015000,0.621014892578125,0.022084075957536697,-0.018742280080914497,-0.07862064987421036
1772807483084947000,0.630947021484375,0.02306624874472618,-0.023060327395796776,-0.06879918277263641
1772807483094879000,0.64087890625,0.022057317197322845,-0.02612043358385563,-0.07590600103139877
1772807483104811000,0.65081103515625,0.026286683976650238,-0.019373849034309387,-0.08168106526136398
1772807483114743000,0.660742919921875,0.03385435789823532,-0.011661183089017868,-0.0878964215517044
1772807483124674800,0.6706748046875,0.04016658291220665,-0.004034156445413828,-0.08936835080385208
1772807483134606800,0.68060693359375,0.04165453463792801,-0.004529514349997044,-0.08125770092010498
1772807483144539000,0.690538818359375,0.04206572845578194,-0.002745196456089616,-0.07244370132684708
1772807483154471000,0.700470947265625,0.035752203315496445,0.001443418674170971,-0.05471522733569145
1772807483164403000,0.71040283203125,0.034075476229190826,0.0037095025181770325,-0.04331796243786812
1772807483174335000,0.7203349609375,0.034175269305706024,0.014990933239459991,-0.03587742894887924
1772807483184266800,0.730266845703125,0.040742624551057816,0.029575204476714134,-0.035590074956417084
1772807483194198800,0.74019873046875,0.046791646629571915,0.039512377232313156,-0.02846684120595455
1772807483204130800,0.750130859375,0.037528906017541885,0.027785947546362877,-0.014855158515274525
1772807483214062800,0.760062744140625,0.039139337837696075,0.03486063331365585,-0.011421103961765766
1772807483223995000,0.769994873046875,0.03824291750788689,0.049246497452259064,-0.010284999385476112
1772807483233927000,0.779927001953125,0.03266088664531708,0.04732263460755348,-0.009540369734168053
1772807483243858700,0.789858642578125,0.03230934962630272,0.057209089398384094,-0.003732015611603856
1772807483253791000,0.799791015625,0.029070595279335976,0.05667724832892418,0.0017222758615389466
1772807483263723000,0.809722900390625,0.023585015907883644,0.05071283131837845,0.015242079272866249
1772807483273655000,0.819655029296875,0.02231564372777939,0.05304628610610962,0.03109874203801155
1772807483283587000,0.829587158203125,0.01164329331368208,0.061461612582206726,0.047303009778261185
1772807483293519000,0.83951904296875,0.006958216428756714,0.08509637415409088,0.06525911390781403
1772807483303451000,0.849450927734375,0.010762542486190796,0.09360304474830627,0.0645134299993515
1772807483313382000,0.8593818359375,0.01918729580938816,0.12563328444957733,0.07195563614368439
1772807483323314000,0.86931396484375,0.018127890303730965,0.13570988178253174,0.06551451981067657
1772807483333246000,0.879245849609375,0.02221405878663063,0.14685402810573578,0.05596088618040085
1772807483343177700,0.889177734375,0.024349113926291466,0.15466295182704926,0.041854921728372574
1772807483353109800,0.89910986328125,0.018648819997906685,0.15035380423069,0.0257856585085392
1772807483363041800,0.909041748046875,0.011891848407685757,0.14587409794330597,0.02446925826370716
1772807483372973800,0.918973876953125,0.005035352893173695,0.13857239484786987,0.028104394674301147
1772807483382905900,0.92890576171875,0.002145290607586503,0.13409854471683502,0.03130098804831505
1772807483392838000,0.938837890625,-0.000600961153395474,0.11420100927352905,0.02963251620531082
1772807483402770000,0.94877001953125,-0.006493205204606056,0.09076226502656937,0.013881783932447433
1772807483412702000,0.958701904296875,-0.007602462079375982,0.07173675298690796,-0.016237342730164528
1772807483422634000,0.968634033203125,-0.005755026824772358,0.05539000779390335,-0.05433279648423195
1772807483432566000,0.97856591796875,-0.002814771141856909,0.03929026424884796,-0.07371456921100616
1772807483442498000,0.988498046875,0.00973670743405819,0.0382620245218277,-0.08998994529247284
1772807483452430000,0.99843017578125,0.01830163784325123,0.0189751535654068,-0.06956127285957336
1772807483462361900,1.00836181640625,0.023810386657714844,0.0009570051915943623,-0.02168402634561062
1772807483472294000,1.0182939453125,0.0250298660248518,-0.004239891190081835,0.022834613919258118
1772807483482226000,1.028225830078125,0.028319934383034706,-0.009818680584430695,0.053088653832674026
1772807483492158000,1.038157958984375,0.023751746863126755,-0.01315816305577755,0.07067322731018066
1772807483502090000,1.048090087890625,0.02288701944053173,-0.008421198464930058,0.0713704451918602
1772807483512022000,1.05802197265625,0.024574972689151764,-0.005864300299435854,0.06640603393316269
1772807483521953800,1.067953857421875,0.02082843706011772,-0.004400094039738178,0.0643327608704567
1772807483531885800,1.0778857421875,0.014296823181211948,-0.020495831966400146,0.05457265302538872
1772807483541817900,1.08781787109375,0.006835178472101688,-0.040632523596286774,0.03720511496067047
1772807483551750000,1.09775,0.00441935658454895,-0.05328268185257912,0.016363468021154404
1772807483561682000,1.107681884765625,0.005295270122587681,-0.053880028426647186,-0.004809196572750807
1772807483571613700,1.11761376953125,0.0019339919090270996,-0.05697700381278992,-0.01660395786166191
1772807483581545700,1.127545654296875,0.0009928308427333832,-0.04882853105664253,-0.022755328565835953
1772807483591477800,1.137477783203125,-0.00025736738462001085,-0.049056634306907654,-0.022552667185664177
1772807483601409800,1.147409912109375,-0.0004416580777615309,-0.04504111781716347,-0.021689003333449364
1772807483611342000,1.157342041015625,0.002476305700838566,-0.04364534094929695,-0.019052105024456978
1772807483621274000,1.167274169921875,0.0016091805882751942,-0.03666253387928009,-0.01804037019610405
1772807483631206000,1.177205810546875,-0.00028373266104608774,-0.03559967875480652,-0.00671511422842741
1772807483641138000,1.187137939453125,-0.0013484645169228315,-0.02977561391890049,0.008823631331324577
1772807483651070000,1.197070068359375,-0.00271623395383358,-0.024939585477113724,0.024980578571558
1772807483661002000,1.207001953125,-0.0047413017600774765,-0.02052219957113266,0.037010613828897476
1772807483670933000,1.21693310546875,-0.00481298565864563,-0.012942835688591003,0.04409249871969223
1772807483680864800,1.22686474609375,-0.01011187769472599,-0.008482838980853558,0.05192964896559715
1772807483690796800,1.236796875,-0.010208564810454845,-0.0071019865572452545,0.06314564496278763
1772807483700728800,1.246728759765625,-0.017686989158391953,-0.002715760376304388,0.06989356130361557
1772807483710660900,1.256660888671875,-0.018730901181697845,-0.0012608850374817848,0.06637497991323471
1772807483720593000,1.266593017578125,-0.01840812712907791,-0.0066679008305072784,0.06010350584983826
1772807483730525000,1.27652490234375,-0.02095649018883705,-0.012397694401443005,0.059491951018571854
1772807483740456700,1.286456787109375,-0.02244679443538189,-0.02395501360297203,0.06091248244047165
1772807483750388700,1.296388671875,-0.028665542602539062,-0.031027836725115776,0.0671437457203865
1772807483760321000,1.306321044921875,-0.03171486034989357,-0.03816564381122589,0.07064872980117798
1772807483770253000,1.316253173828125,-0.03140537068247795,-0.04226329177618027,0.07432356476783752
1772807483780185000,1.32618505859375,-0.03270259499549866,-0.040800951421260834,0.07122151553630829
1772807483790116900,1.336116943359375,-0.02984532155096531,-0.04388541355729103,0.07309229671955109
1772807483800049000,1.346048828125,-0.03151592239737511,-0.04314585030078888,0.07659967988729477
1772807483809981000,1.35598095703125,-0.029970398172736168,-0.04332946240901947,0.08026642352342606
1772807483819913000,1.365912841796875,-0.027475548908114433,-0.04701421409845352,0.08560419827699661
1772807483829845000,1.375844970703125,-0.023170186206698418,-0.04982121288776398,0.08911901712417603
1772807483839777000,1.385777099609375,-0.018718179315328598,-0.04615457355976105,0.08029649406671524
1772807483849708800,1.395708740234375,-0.017685281112790108,-0.044551484286785126,0.06851164996623993
1772807483859640800,1.405640869140625,-0.017592336982488632,-0.02821778506040573,0.053447481244802475
1772807483869572900,1.41557275390625,-0.02866312861442566,-0.04731477051973343,0.05520055815577507
1772807483879505000,1.4255048828125,-0.04155176132917404,-0.054160960018634796,0.0643724799156189
1772807483889437000,1.43543701171875,-0.0471484437584877,-0.0464552566409111,0.07030430436134338
1772807483899369000,1.445368896484375,-0.05506601929664612,-0.040597103536129,0.08567926287651062
1772807483909300700,1.45530078125,-0.059298496693372726,-0.04396041855216026,0.09091075509786606
1772807483919232800,1.465232666015625,-0.0535479336977005,-0.0474289208650589,0.08421503752470016
1772807483929164800,1.475164794921875,-0.05361917242407799,-0.049145303666591644,0.06807950884103775
1772807483939096800,1.485096923828125,-0.05953245609998703,-0.06901275366544724,0.044882576912641525
1772807483949028900,1.49502880859375,-0.05426415801048279,-0.07942093163728714,0.031076563522219658
1772807483958961000,1.5049609375,-0.04086952283978462,-0.08353152126073837,0.02874257043004036
1772807483968893000,1.514892822265625,-0.03375861793756485,-0.09074282646179199,0.036844972521066666
1772807483978825000,1.524824951171875,-0.02503117173910141,-0.10902222990989685,0.07293134182691574
1772807483988757000,1.534757080078125,-0.013799336738884449,-0.11547452211380005,0.11086168140172958
1772807483998689000,1.54468896484375,-0.005868976004421711,-0.13343727588653564,0.12940314412117004
1772807484008621000,1.55462109375,0.0024385047145187855,-0.12957996129989624,0.1297609806060791
1772807484018553000,1.564552978515625,0.014026450924575329,-0.11000945419073105,0.10430542379617691
1772807484028483600,1.574483642578125,0.027171077206730843,-0.08551477640867233,0.05784780904650688
1772807484038415600,1.58441552734375,0.036441005766391754,-0.05686422437429428,0.0032354285940527916
1772807484048347600,1.59434765625,0.04036223143339157,-0.04384109750390053,-0.04192609712481499
1772807484058279400,1.604279541015625,0.038932912051677704,-0.039074305444955826,-0.07302702963352203
1772807484068211500,1.61421142578125,0.02890479378402233,-0.04139285534620285,-0.07836995273828506
1772807484078143500,1.6241435546875,0.023927878588438034,-0.05074188485741615,-0.07500877976417542
1772807484088075500,1.634075439453125,0.019018074497580528,-0.04265999048948288,-0.07253390550613403
1772807484098007600,1.644007568359375,0.014260604046285152,-0.03139721602201462,-0.065411277115345
1772807484107939800,1.65393994140625,0.009352821856737137,-0.024388546124100685,-0.06685006618499756
1772807484117871600,1.66387158203125,0.0007976834895089269,-0.023978153243660927,-0.0648481696844101
1772807484127803600,1.6738037109375,-0.002986934734508395,-0.0292860995978117,-0.06719068437814713
1772807484137735700,1.683735595703125,-0.008357465267181396,-0.026180321350693703,-0.0702032521367073
1772807484147667700,1.693667724609375,-0.006949765142053366,-0.029642587527632713,-0.0677814856171608
1772807484157599700,1.703599853515625,-0.005769452545791864,-0.02920929156243801,-0.06170574948191643
1772807484167531800,1.71353173828125,0.0029883526731282473,-0.020688241347670555,-0.06365225464105606
1772807484177463600,1.723463623046875,0.011375179514288902,-0.008367659524083138,-0.053010791540145874
1772807484187395600,1.7333955078125,0.015013041906058788,-0.006498116534203291,-0.02581263706088066
1772807484197327600,1.74332763671875,0.012917401269078255,-0.006876552011817694,-0.005464222282171249
1772807484207259600,1.753259765625,0.00474585173651576,-0.017968740314245224,0.006629022769629955
1772807484217191700,1.763191650390625,-0.0019216384971514344,-0.02516699954867363,0.010479421354830265
1772807484227123500,1.77312353515625,-0.010501262731850147,-0.0385802760720253,0.01770421862602234
1772807484237055500,1.783055419921875,-0.01782895065844059,-0.046376414597034454,0.023822298273444176
1772807484246987500,1.792987548828125,-0.020953010767698288,-0.04742316156625748,0.026663988828659058
1772807484256919600,1.80291943359375,-0.01903766579926014,-0.05448906123638153,0.027902625501155853
1772807484266851600,1.8128515625,-0.016119280830025673,-0.05964425951242447,0.031588803976774216
1772807484276783600,1.82278369140625,-0.01272827759385109,-0.05523566156625748,0.031000778079032898
1772807484286715400,1.83271533203125,-0.0017437874339520931,-0.05160631239414215,0.028943127021193504
1772807484296647400,1.8426474609375,0.007148773409426212,-0.041761938482522964,0.03208991885185242
1772807484306579700,1.852579833984375,0.01328391395509243,-0.03135723993182182,0.03710562363266945
1772807484316511700,1.86251171875,0.016157997772097588,-0.023304373025894165,0.039069175720214844
1772807484326443800,1.87244384765625,0.013649973087012768,-0.015836739912629128,0.04573994502425194
1772807484336375800,1.882375732421875,0.010068288072943687,-0.007081065326929092,0.04996664822101593
1772807484346307600,1.8923076171875,0.0035512507893145084,-0.007366017904132605,0.04080493375658989
1772807484356239600,1.902239501953125,-0.003597206436097622,-0.006854690611362457,0.02835545316338539
1772807484366171600,1.912171630859375,-0.0074299960397183895,-0.020099932327866554,0.01742113009095192
1772807484376102700,1.9221025390625,-0.011326199397444725,-0.020641086623072624,0.006024664733558893
1772807484386034700,1.93203466796875,-0.008784055709838867,-0.01668057218194008,0.001296483096666634
1772807484395966500,1.941966552734375,-0.008128918707370758,-0.005993840750306845,0.003319686511531472
1772807484405898500,1.9518984375,-0.005732339806854725,0.002708038315176964,0.01009317021816969
1772807484415830500,1.96183056640625,-0.005960572976619005,0.008653811179101467,0.014080455526709557
1772807484425762600,1.971762451171875,-0.007060082163661718,0.012042025104165077,0.015560644678771496
1772807484435694600,1.981694580078125,-0.012805585749447346,0.017265016213059425,0.021484047174453735
1772807484445626600,1.991626708984375,-0.010198445059359074,0.009880724363029003,0.014002332463860512
1772807484455558700,2.00155859375,-0.014795859344303608,0.00841758493334055,0.011115732602775097
1772807484465490700,2.01149072265625,-0.010828004218637943,0.015000559389591217,0.009524253197014332
1772807484475422700,2.021422607421875,-0.010550769045948982,0.0235088262706995,0.009203076362609863
1772807484485354800,2.031354736328125,-0.00501659233123064,0.035520438104867935,0.01355021446943283
1772807484495286800,2.041286865234375,-0.0012317076325416565,0.039180688560009,0.020203590393066406
1772807484505218600,2.051218505859375,0.0009969198144972324,0.04438997432589531,0.025731343775987625
1772807484515150600,2.061150634765625,-0.003417802508920431,0.042559850960969925,0.02642749436199665
1772807484525082600,2.07108251953125,-0.003851223737001419,0.04043744131922722,0.020795529708266258
1772807484535014700,2.0810146484375,-0.006737824063748121,0.03486344590783119,0.01538691483438015
1772807484544946700,2.09094677734375,-0.01152874156832695,0.02839130535721779,0.015021534636616707
1772807484554878700,2.100878662109375,-0.018344303593039513,0.025116950273513794,0.01944451406598091
1772807484564810500,2.110810546875,-0.018005989491939545,0.02544519677758217,0.024340033531188965
1772807484574742500,2.120742431640625,-0.019686710089445114,0.030676178634166718,0.021217742934823036
1772807484584674600,2.130674560546875,-0.01285541895776987,0.039003077894449234,0.02039952576160431
1772807484594606600,2.140606689453125,-0.010276680812239647,0.044373609125614166,0.037585172802209854
1772807484604538600,2.15053857421875,-0.011255234479904175,0.049313098192214966,0.050932131707668304
1772807484614470700,2.160470703125,-0.014870209619402885,0.052611157298088074,0.0655377060174942
1772807484624402400,2.17040234375,-0.018711429089307785,0.04330328106880188,0.07175769656896591
1772807484634334500,2.18033447265625,-0.022857703268527985,0.03671994432806969,0.0653727650642395
1772807484644266500,2.1902666015625,-0.02463957667350769,0.03169108182191849,0.05444128066301346
1772807484654198500,2.200198486328125,-0.02536209300160408,0.03235873579978943,0.05404739826917648
1772807484664130600,2.210130615234375,-0.029394308105111122,0.033818569034338,0.058935824781656265
1772807484674062800,2.220062744140625,-0.032536834478378296,0.03772196173667908,0.0681370422244072
1772807484683994600,2.22999462890625,-0.03619321808218956,0.0392286442220211,0.07287595421075821
1772807484693926700,2.2399267578125,-0.036638230085372925,0.04228275641798973,0.06827986985445023
1772807484703858700,2.249858642578125,-0.04113156348466873,0.039757389575242996,0.06861479580402374
1772807484713790700,2.259790771484375,-0.04034220054745674,0.04147539660334587,0.07868367433547974
1772807484723722800,2.26972265625,-0.03964557126164436,0.045481517910957336,0.0821395143866539
1772807484733654500,2.279654541015625,-0.04005277156829834,0.04368601366877556,0.07801081985235214
1772807484743586600,2.289586669921875,-0.037554480135440826,0.041555311530828476,0.06185482069849968
1772807484753518600,2.2995185546875,-0.035878293216228485,0.037582408636808395,0.04933236911892891
1772807484763450600,2.30945068359375,-0.038017041981220245,0.03109280951321125,0.05720662325620651
1772807484773381600,2.319381591796875,-0.04093773290514946,0.026364898309111595,0.0673585906624794
1772807484783313400,2.3293134765625,-0.03877133131027222,0.02946990355849266,0.06830580532550812
1772807484793245400,2.339245361328125,-0.04092875495553017,0.030148476362228394,0.05802707001566887
1772807484803177500,2.349177490234375,-0.04279676452279091,0.011442461982369423,0.0521482415497303
1772807484813109800,2.35910986328125,-0.04151631519198418,-0.009774410165846348,0.047840312123298645
1772807484823041800,2.369041748046875,-0.03793678805232048,-0.02378281205892563,0.04076063260436058
1772807484832973800,2.378973876953125,-0.03220992535352707,-0.032250333577394485,0.027299685403704643
1772807484842905600,2.388905517578125,-0.01704062707722187,-0.028863834217190742,-0.005445640999823809
1772807484852837600,2.398837646484375,0.00369474571198225,-0.012350637465715408,-0.035004064440727234
1772807484862769700,2.408769775390625,0.017199451103806496,0.0014120172709226608,-0.05381176993250847
1772807484872701700,2.41870166015625,0.02812373824417591,-0.003459969535470009,-0.06194399669766426
1772807484882633700,2.4286337890625,0.04053223505616188,-0.0028668928425759077,-0.05823732912540436
1772807484892565800,2.438565673828125,0.0491478256881237,-0.00714659271761775,-0.05211738497018814
1772807484902497500,2.44849755859375,0.050688277930021286,-0.0010930774733424187,-0.05294943228363991
1772807484912429600,2.4584296875,0.0520174615085125,0.011838167905807495,-0.05296967178583145
1772807484922361600,2.468361572265625,0.0513434000313282,0.009645059704780579,-0.060588885098695755
1772807484932293600,2.478293701171875,0.04914788901805878,0.015043288469314575,-0.07876869291067123
1772807484942225700,2.4882255859375,0.043406445533037186,0.012901287525892258,-0.0991869792342186
1772807484952157400,2.498157470703125,0.04264611005783081,0.013919413089752197,-0.12154528498649597
1772807484962089500,2.50808935546875,0.03800110146403313,0.012028719298541546,-0.13095644116401672
1772807484972021500,2.518021484375,0.035524360835552216,0.011119515635073185,-0.13393785059452057
1772807484981953500,2.52795361328125,0.027904102578759193,0.004158687777817249,-0.1366681009531021
1772807484991885600,2.537885498046875,0.02083660662174225,0.002021234482526779,-0.13309255242347717
1772807485001817600,2.547817626953125,0.016139354556798935,0.00001186830922961235,-0.12944313883781433
1772807485011749600,2.55774951171875,0.011545935645699501,-0.003625743556767702,-0.11896413564682007
1772807485021681400,2.567681396484375,0.009541107341647148,-0.0029213374946266413,-0.10475990176200867
1772807485031613400,2.577613525390625,0.004508265759795904,-0.005967727396637201,-0.09156925976276398
1772807485041545500,2.58754541015625,0.0035116616636514664,-0.007759750820696354,-0.08186575770378113
1772807485051477500,2.5974775390625,-0.001535294926725328,-0.01661955565214157,-0.07600414007902145
1772807485061409500,2.607409423828125,-0.007383930962532759,-0.03631946071982384,-0.0657908171415329
1772807485071341300,2.61734130859375,-0.005803344771265984,-0.03760603442788124,-0.04469511657953262
1772807485081273300,2.6272734375,-0.006905401591211557,-0.037456270307302475,-0.017887581139802933
1772807485091205400,2.637205322265625,-0.004773540887981653,-0.03520296886563301,0.0077488054521381855
1772807485101137400,2.647137451171875,0.0006822108989581466,-0.026513872668147087,0.024157339707016945
1772807485111069400,2.6570693359375,0.009319107979536057,-0.020018156617879868,0.028295626863837242
1772807485121001200,2.667001220703125,0.013102536089718342,-0.02266733907163143,0.022262321785092354
1772807485130933200,2.676933349609375,0.016445070505142212,-0.017141813412308693,0.016000164672732353
1772807485140865300,2.686865234375,0.021667055785655975,-0.006891408935189247,0.009320972487330437
1772807485150797300,2.69679736328125,0.025811465457081795,0.005402275361120701,0.004025277681648731
1772807485160729300,2.706729248046875,0.028938399627804756,0.018285805359482765,-0.0023999791592359543
1772807485170661400,2.716661376953125,0.026348209008574486,0.027803942561149597,-0.016556544229388237
1772807485180593200,2.72659326171875,0.020265141502022743,0.026166502386331558,-0.034447748214006424
1772807485190524400,2.7365244140625,0.017935672774910927,0.0220913328230381,-0.04693584516644478
1772807485200456400,2.74645654296875,0.01287153922021389,0.02040666900575161,-0.05984903499484062
1772807485210388500,2.756388427734375,0.012430519796907902,0.018097974359989166,-0.05923038348555565
1772807485220320500,2.766320556640625,0.009495708160102367,0.023394286632537842,-0.06061498820781708
1772807485230252300,2.776252197265625,0.008170519955456257,0.027337897568941116,-0.06013881787657738
1772807485240184300,2.786184326171875,0.0017200612928718328,0.025430813431739807,-0.05347789451479912
1772807485250116400,2.796116455078125,-0.006490730680525303,0.02832859754562378,-0.04525697976350784
1772807485260048400,2.80604833984375,-0.010752953588962555,0.03259449079632759,-0.04173839092254639
1772807485269980400,2.81598046875,-0.010611007921397686,0.03311806544661522,-0.04168299585580826
1772807485279912400,2.825912353515625,-0.010571167804300785,0.03599946200847626,-0.03612924739718437
1772807485289844200,2.83584423828125,-0.009068080224096775,0.02933916077017784,-0.03906857594847679
1772807485299776300,2.8457763671875,-0.005902172066271305,0.018739085644483566,-0.03850267082452774
1772807485309708300,2.855708251953125,-0.005241442006081343,0.0156090734526515,-0.030464986339211464
1772807485319640300,2.865640380859375,-0.0025635752826929092,0.013171911239624023,-0.008042218163609505
1772807485329572400,2.875572265625,0.0019840386230498552,0.015506170690059662,0.015378152951598167
1772807485339504000,2.885504150390625,0.007920988835394382,0.012093078345060349,0.026648836210370064
1772807485349436200,2.895436279296875,0.012878463603556156,0.006537192966789007,0.026884259656071663
1772807485359368400,2.905368408203125,0.012937959283590317,0.0000378941185772419,0.0178590789437294
1772807485369300500,2.915300537109375,0.010142705403268337,-0.0011876923963427544,0.005240755155682564
1772807485379232500,2.925232421875,0.012467997148633003,-0.006943888030946255,-0.0011225317139178514
1772807485389164500,2.93516455078125,0.015345276333391666,-0.016560561954975128,-0.000933979987166822
1772807485399096300,2.945096435546875,0.020403418689966202,-0.025456851348280907,0.003291125176474452
1772807485409028400,2.9550283203125,0.021922485902905464,-0.02794610895216465,0.001556075643748045
1772807485418960400,2.96496044921875,0.022725004702806473,-0.03981487452983856,-0.014510770328342915
1772807485428892400,2.974892333984375,0.027210034430027008,-0.03523530438542366,-0.03609142825007439
1772807485438824400,2.984824462890625,0.031150713562965393,-0.03607792779803276,-0.055405471473932266
1772807485448756500,2.994756591796875,0.03201597183942795,-0.04082634299993515,-0.060761623084545135
1772807485458688300,3.004688232421875,0.03684041276574135,-0.027023307979106903,-0.058078307658433914
1772807485468620300,3.014620361328125,0.03975284472107887,-0.007340950891375542,-0.05040227621793747
1772807485478552300,3.02455224609375,0.039982110261917114,-0.003998135216534138,-0.039381932467222214
1772807485488484400,3.034484375,0.035240087658166885,0.003785751760005951,-0.03158818930387497
1772807485498416400,3.04441650390625,0.035010166466236115,0.014465941116213799,-0.029337652027606964
1772807485508348400,3.054348388671875,0.03131076693534851,0.024002719670534134,-0.03539634495973587
1772807485518280200,3.0642802734375,0.025409294292330742,0.030879152938723564,-0.03904503956437111
1772807485528212200,3.074212158203125,0.025896651670336723,0.04948879033327103,-0.04340303689241409
1772807485538144300,3.084144287109375,0.028525544330477715,0.05856667459011078,-0.04266660287976265
1772807485548076300,3.094076171875,0.026769721880555153,0.06567065417766571,-0.042819734662771225
1772807485558008300,3.10400830078125,0.028333796188235283,0.06843208521604538,-0.040177349001169205
1772807485567940400,3.1139404296875,0.02495264634490013,0.07017858326435089,-0.03653201460838318
1772807485577872400,3.123872314453125,0.01801493763923645,0.06947166472673416,-0.04454510286450386
1772807485587804400,3.133804443359375,0.012156514450907707,0.06770386546850204,-0.05117078125476837
1772807485597736400,3.143736328125,0.010288030840456486,0.06000714749097824,-0.05820101872086525
1772807485607668500,3.15366845703125,0.012500585056841373,0.0612601637840271,-0.062383513897657394
1772807485617600500,3.1636005859375,0.00856955349445343,0.05379761382937431,-0.059509146958589554
1772807485627532300,3.1735322265625,0.007564210332930088,0.040677815675735474,-0.0562310628592968
1772807485637464300,3.18346435546875,0.008749516680836678,0.0361454114317894,-0.04942525178194046
1772807485647396400,3.193396240234375,0.009476026520133018,0.033049486577510834,-0.04688433185219765
1772807485657327400,3.203327392578125,0.009845773689448833,0.029224880039691925,-0.045355163514614105
1772807485667259400,3.21325927734375,0.008071841672062874,0.022987758740782738,-0.04098784551024437
1772807485677191200,3.223191162109375,0.009720593690872192,0.021527741104364395,-0.037405505776405334
1772807485687123200,3.233123291015625,0.010442577302455902,0.020914148539304733,-0.04003245010972023
1772807485697055200,3.24305517578125,0.020754370838403702,0.029505223035812378,-0.052613142877817154
1772807485706987300,3.2529873046875,0.03530535101890564,0.03699349984526634,-0.07055885344743729
1772807485716919300,3.262919189453125,0.04790375009179115,0.03781932219862938,-0.09720086306333542
1772807485726851600,3.2728515625,0.053638335317373276,0.03155290335416794,-0.112644262611866
1772807485736783400,3.282783447265625,0.0676102265715599,0.030136162415146828,-0.11178021878004074
1772807485746715400,3.29271533203125,0.07925995439291,0.023254020139575005,-0.0918552502989769
1772807485756647400,3.3026474609375,0.0841650739312172,0.025181230157613754,-0.07446985691785812
1772807485766579500,3.312579345703125,0.08510250598192215,0.022717006504535675,-0.05780353024601936
1772807485776511500,3.322511474609375,0.08629748225212097,0.01382078044116497,-0.05564463138580322
1772807485786443500,3.332443603515625,0.08179540932178497,0.023245174437761307,-0.06596730649471283
1772807485796375300,3.342375244140625,0.07419662177562714,0.014105729758739471,-0.08108697086572647
1772807485806307300,3.352307373046875,0.07182028144598007,0.027168001979589462,-0.09353165328502655
1772807485816239400,3.3622392578125,0.06378879398107529,0.028100620955228806,-0.10149939358234406
1772807485826171400,3.37217138671875,0.054685305804014206,0.02595144882798195,-0.09981334954500198
1772807485836103400,3.382103515625,0.0519406795501709,0.024311114102602005,-0.09610763192176819
1772807485846035200,3.39203515625,0.046745650470256805,0.01681218482553959,-0.08618123084306717
1772807485855967200,3.40196728515625,0.048226259648799896,0.013256650418043137,-0.08119124174118042
1772807485865899300,3.411899169921875,0.04522993788123131,0.018226642161607742,-0.08041093498468399
1772807485875831300,3.421831298828125,0.04274485260248184,0.019299019128084183,-0.08174663782119751
1772807485885763300,3.431763427734375,0.032526567578315735,0.020807700231671333,-0.0735427737236023
1772807485895695400,3.4416953125,0.030259493738412857,0.01718968339264393,-0.06533657759428024
1772807485905627100,3.451627197265625,0.028156662359833717,0.0202720258384943,-0.045444097369909286
1772807485915559200,3.46155908203125,0.02465204894542694,0.024219509214162827,-0.03359835222363472
1772807485925491500,3.471491455078125,0.014341888017952442,0.02869814820587635,-0.03412272781133652
1772807485935423500,3.481423583984375,0.004629144910722971,0.025573089718818665,-0.036766257137060165
1772807485945355500,3.49135546875,-0.0004034304292872548,0.017735939472913742,-0.038276005536317825
1772807485955287600,3.50128759765625,-0.006469333544373512,0.008145978674292564,-0.04535462334752083
1772807485965219300,3.51121923828125,-0.009147407487034798,0.001561046577990055,-0.04722575843334198
1772807485975151400,3.5211513671875,-0.013578496873378754,-0.0019819666631519794,-0.05010771378874779
1772807485985083400,3.53108349609375,-0.01801292598247528,-0.01677103340625763,-0.04723629355430603
1772807485995015400,3.541015380859375,-0.013560635969042778,-0.011549116112291813,-0.050196755677461624
1772807486004947500,3.550947509765625,0.0008515930385328829,0.006557716056704521,-0.028745261952280998
1772807486014879500,3.56087939453125,0.0018783779814839363,-0.00005017779767513275,-0.008568028919398785
1772807486024811500,3.5708115234375,0.003132993122562766,0.01127624697983265,0.013558311387896538
1772807486034743600,3.58074365234375,0.010680414736270905,0.012707607820630074,0.04212597757577896
1772807486044675600,3.590675537109375,0.01215340942144394,0.006343185901641846,0.057743288576602936
1772807486054607400,3.600607421875,0.02156352810561657,0.01690329611301422,0.058163806796073914
1772807486064539400,3.610539306640625,0.027795858681201935,0.01852329820394516,0.048549529165029526
1772807486074471400,3.620471435546875,0.03044966235756874,0.015533121302723885,0.03589516878128052
1772807486084403500,3.630403564453125,0.02382824569940567,0.012281134724617004,0.023803619667887688
1772807486094335500,3.64033544921875,0.022523030638694763,0.0027582035399973392,0.023425184190273285
1772807486104267500,3.650267578125,0.023211723193526268,0.007915947586297989,0.022941021248698235
1772807486114199300,3.66019921875,0.029000762850046158,0.00808306597173214,0.02509782835841179
1772807486124131300,3.67013134765625,0.03200400620698929,0.0204292144626379,0.01999308168888092
1772807486134063400,3.6800634765625,0.03405671939253807,0.014411360025405884,0.01303076185286045
1772807486143995600,3.68999560546875,0.02828085608780384,0.012693354859948158,0.006995772942900658
1772807486153927700,3.699927734375,0.024686813354492188,0.007358366623520851,0.001898476853966713
1772807486163859500,3.709859375,0.023156560957431793,0.0004634428769350052,-0.0009598938631825149
1772807486173791500,3.71979150390625,0.021730398759245872,-0.0014125313609838486,-0.01226533018052578
1772807486183723500,3.7297236328125,0.014707643538713455,-0.012353063561022282,-0.019200734794139862
1772807486193655600,3.739655517578125,0.011758551001548767,-0.00964095164090395,-0.022906454280018806
1772807486203587600,3.749587646484375,0.011966544203460217,-0.008450519293546677,-0.026994939893484116
1772807486213519600,3.75951953125,0.016876311972737312,-0.00002905121073126793,-0.026291411370038986
1772807486223450400,3.769450439453125,0.016717586666345596,0.005375035107135773,-0.028162548318505287
1772807486233382400,3.77938232421875,0.022899743169546127,0.00392346503213048,-0.018974117934703827
1772807486243314400,3.789314453125,0.020957499742507935,0.004360222723335028,-0.016124535351991653
1772807486253246500,3.79924658203125,0.021400809288024902,0.006719104014337063,-0.02104979194700718
1772807486263178500,3.809178466796875,0.01922926865518093,-0.010913952253758907,-0.01907479204237461
1772807486273110300,3.8191103515625,0.014527440071105957,-0.015545180067420006,-0.016205674037337303
1772807486283042300,3.829042236328125,0.01724839210510254,-0.010345358401536942,-0.014668231830000877
1772807486292974600,3.838974609375,0.014285995624959469,-0.008031653240323067,-0.013873301446437836
1772807486302906600,3.84890673828125,0.00791891012340784,-0.005655313841998577,-0.010431698523461819
1772807486312838700,3.858838623046875,0.009675302542746067,0.00034230249002575874,-0.0021275856997817755
1772807486322770700,3.868770751953125,0.007102422881871462,0.00542068388313055,0.004309007897973061
1772807486332702500,3.878702392578125,0.010176420211791992,0.01077880896627903,0.013675246387720108
1772807486342634500,3.888634521484375,0.01148349978029728,0.002809832338243723,0.024803798645734787
1772807486352566500,3.89856640625,0.011590946465730667,-0.0002796226181089878,0.02690364420413971
1772807486362498600,3.90849853515625,0.007405256386846304,-0.008382024243474007,0.023720633238554
1772807486372430600,3.9184306640625,0.005427542608231306,-0.02070944383740425,0.023034850135445595
1772807486382362600,3.928362548828125,0.006207848899066448,-0.02275768108665943,0.021067041903734207
1772807486392294400,3.93829443359375,0.004937947262078524,-0.0208885557949543,0.00912382360547781
1772807486402226400,3.948226318359375,0.009709000587463379,-0.014643442817032337,0.0030392995104193687
1772807486412158500,3.958158447265625,0.012012304738163948,-0.011848472990095615,-0.0016480869380757213
1772807486422090500,3.968090576171875,0.010421865619719028,-0.015088474377989769,0.007592016831040382
1772807486432022500,3.9780224609375,0.011743549257516861,-0.010096507146954536,0.007594631053507328
1772807486441954300,3.987954345703125,0.014444527216255665,-0.014989533461630344,0.01509302668273449
1772807486451885600,3.997885498046875,0.008319946937263012,-0.019622310996055603,0.016813719645142555
1772807486461817600,4.007817626953125,0.016614096239209175,-0.018182873725891113,0.028804868459701538
1772807486471749600,4.01774951171875,0.008992450311779976,-0.009257318452000618,0.02221805974841118
1772807486481681700,4.027681640625,0.011353341862559319,-0.012961775064468384,0.0292661152780056
1772807486491613400,4.037613525390625,0.009997330605983734,-0.010284330695867538,0.027615945786237717
1772807486501545500,4.04754541015625,0.007628980558365583,-0.008825717493891716,0.029771775007247925
1772807486511477500,4.0574775390625,0.004732635337859392,-0.01873593032360077,0.039279770106077194
1772807486521409500,4.067409423828125,-0.002205431926995516,-0.023829225450754166,0.049261562526226044
1772807486531341600,4.077341552734375,-0.0012816714588552713,-0.030870042741298676,0.06232669577002525
1772807486541273600,4.087273681640625,-0.005826355889439583,-0.019189421087503433,0.0732366070151329
1772807486551205400,4.097205322265625,-0.013144636526703835,-0.011716162785887718,0.07857047766447067
1772807486561137400,4.107137451171875,-0.011115839704871178,-0.012243734672665596,0.08096759021282196
1772807486571069400,4.1170693359375,-0.013729356229305267,-0.012855525128543377,0.08349703252315521
1772807486581001500,4.12700146484375,-0.01668626442551613,-0.014159941114485264,0.0797337219119072
1772807486590933500,4.13693359375,-0.02114114910364151,-0.012911006808280945,0.06647572666406631
1772807486600865500,4.146865478515625,-0.016101649031043053,0.003082872834056616,0.04977664351463318
1772807486610797300,4.15679736328125,-0.014621427282691002,-0.000860224012285471,0.03867773339152336
1772807486620729300,4.166729248046875,-0.019041474908590317,-0.00881162378937006,0.021201271563768387
1772807486630661400,4.176661376953125,-0.014216122217476368,-0.007860375568270683,0.022778520360589027
1772807486640593400,4.186593505859375,-0.011725268326699734,-0.007812438998371363,0.028468364849686623
1772807486650525700,4.196525634765625,-0.015879591926932335,-0.01633574441075325,0.03434094041585922
1772807486660457500,4.20645751953125,-0.020519617944955826,-0.014958091080188751,0.03818308562040329
1772807486670389500,4.216389404296875,-0.020277466624975204,-0.019839230924844742,0.046508848667144775
1772807486680321500,4.226321533203125,-0.01688300259411335,-0.01651507243514061,0.049991730600595474
1772807486690253600,4.236253662109375,-0.01599688082933426,-0.016428358852863312,0.04992631822824478
1772807486700185600,4.246185546875,-0.015240543521940708,-0.0027668760158121586,0.03904863819479942
1772807486710117600,4.25611767578125,-0.005450831726193428,0.0026245219632983208,0.038209814578294754
1772807486720049400,4.26604931640625,0.0005290302215144038,0.015574941411614418,0.0315130315721035
1772807486729981400,4.2759814453125,0.0035940920934081078,0.009804068133234978,0.029491005465388298
1772807486739913500,4.28591357421875,0.005105169489979744,0.00005396781489253044,0.03402503579854965
1772807486749845500,4.295845458984375,0.00624802615493536,0.017537031322717667,0.020494647324085236
1772807486759777500,4.305777587890625,0.011150638572871685,0.022817546501755714,0.0037313802167773247
1772807486769709600,4.31570947265625,0.008281528018414974,0.014598340727388859,-0.0066718244925141335
1772807486779641300,4.325641357421875,0.005340066738426685,0.014534958638250828,-0.005910959094762802
1772807486789573400,4.335573486328125,0.0015777304070070386,0.012700151652097702,-0.004982413724064827
1772807486799505400,4.34550537109375,-0.0006356227677315474,0.007920043542981148,-0.0035443066153675318
1772807486809437400,4.3554375,-0.0015253323363140225,0.010807083919644356,-0.011162261478602886
1772807486819370500,4.36537060546875,-0.002739999908953905,0.0072813257575035095,-0.018522705882787704
1772807486829302500,4.375302490234375,-0.00437152711674571,-0.0005627050995826721,-0.020114371553063393
1772807486839234600,4.385234619140625,-0.0026798872277140617,-0.002241029404103756,-0.015970226377248764
1772807486849166300,4.395166259765625,-0.0006858740234747529,-0.0009809364564716816,-0.019218742847442627
1772807486859098400,4.405098388671875,-0.0015665815444663167,-0.00017399899661540985,-0.017903674393892288
1772807486869030400,4.415030517578125,-0.0045141978189349174,-0.002115637995302677,-0.015009996481239796
1772807486878962400,4.42496240234375,-0.0033847512677311897,-0.001624018419533968,-0.006301459856331348
1772807486888894500,4.43489453125,-0.005900590680539608,-0.008847394026815891,0.007746999617666006
1772807486898826500,4.444826416015625,-0.00657303910702467,-0.010346753522753716,0.016411328688263893
1772807486908758500,4.454758544921875,-0.007594800554215908,-0.007652488071471453,0.019466841593384743
1772807486918690600,4.464690673828125,-0.008018243126571178,-0.010257059708237648,0.01986658200621605
1772807486928622600,4.47462255859375,-0.009358469396829605,-0.013662582263350487,0.023419858887791634
1772807486938554600,4.4845546875,-0.010154754854738712,-0.008145044557750225,0.02219560369849205
1772807486948486700,4.494486572265625,-0.011877535842359066,-0.0022099334746599197,0.015515503473579884
1772807486958418400,4.50441845703125,-0.01295691542327404,0.0005616182461380959,0.009337236173450947
1772807486968350500,4.5143505859375,-0.01609855704009533,-0.009605107828974724,0.012580265291035175
1772807486978282500,4.524282470703125,-0.020117534324526787,-0.014291206374764442,0.01571826823055744
1772807486988214500,4.534214599609375,-0.021173495799303055,-0.01105891726911068,0.015795858576893806
1772807486998146600,4.544146484375,-0.019292505457997322,-0.01208103820681572,0.01967022567987442
1772807487008078600,4.55407861328125,-0.01967390812933445,-0.006800499744713306,0.02007840946316719
1772807487018009300,4.56400927734375,-0.022631347179412842,-0.015052038244903088,0.02495412342250347
1772807487027941000,4.573941162109375,-0.02542516589164734,-0.020359300076961517,0.021910136565566063
1772807487037874200,4.583874267578125,-0.022143352776765823,-0.013314707204699516,0.022872069850564003
1772807487047805200,4.59380517578125,-0.020063932985067368,-0.010108483023941517,0.022156622260808945
1772807487057737200,4.6037373046875,-0.02163546532392502,-0.011683210730552673,0.023608844727277756
1772807487067669200,4.613669189453125,-0.019268199801445007,-0.004676791373640299,0.020322300493717194
1772807487077601300,4.623601318359375,-0.02018965408205986,-0.0032831591088324785,0.012370899319648743
1772807487087533300,4.633533203125,-0.018236353993415833,-0.00006588688120245934,0.008789360523223877
1772807487097465000,4.643465087890625,-0.021259574219584465,0.0015362706035375595,0.005869471002370119
1772807487107397000,4.653397216796875,-0.022852513939142227,-0.0009115911088883877,0.014189712703227997
1772807487117329200,4.6633291015625,-0.023639746010303497,0.005414748098701239,0.022224735468626022
1772807487127261200,4.67326123046875,-0.01940050721168518,0.01912708580493927,0.025489944964647293
1772807487137193200,4.683193115234375,-0.01861567236483097,0.032033033668994904,0.022926919162273407
1772807487147125200,4.693125244140625,-0.018914801999926567,0.04074320197105408,0.01948905736207962
1772807487157057000,4.70305712890625,-0.017811721190810204,0.0557895302772522,0.019052831456065178
1772807487166989000,4.712989013671875,-0.021874869242310524,0.07121799886226654,0.023279879242181778
1772807487176921000,4.722921142578125,-0.023559583351016045,0.085819311439991,0.027596065774559975
1772807487186853000,4.73285302734375,-0.026196209713816643,0.0917544960975647,0.027968840673565865
1772807487196785200,4.74278515625,-0.02865084633231163,0.0961441844701767,0.023323755711317062
1772807487206717200,4.75271728515625,-0.03184764087200165,0.08820024877786636,0.01522743608802557
1772807487216649000,4.76264892578125,-0.026765529066324234,0.08420258015394211,0.010809517465531826
1772807487226581000,4.7725810546875,-0.022916467860341072,0.08884548395872116,0.008189796470105648
1772807487236513000,4.782512939453125,-0.025276027619838715,0.09707412123680115,0.008856652304530144
1772807487246445000,4.792445068359375,-0.024917740374803543,0.0992581844329834,0.024242039769887924
1772807487256377300,4.80237744140625,-0.02803097665309906,0.10233653336763382,0.04254833981394768
1772807487266309400,4.812309326171875,-0.022008806467056274,0.09924029558897018,0.060157645493745804
1772807487276241200,4.8222412109375,-0.022538509219884872,0.09728393703699112,0.07387159019708633
1772807487286173200,4.832173095703125,-0.019604112952947617,0.07317022234201431,0.07611628621816635
1772807487296105200,4.842105224609375,-0.021444890648126602,0.04908166080713272,0.06154026836156845
1772807487306037200,4.852037353515625,-0.0220517385751009,0.01476060226559639,0.04390465095639229
1772807487315969300,4.86196923828125,-0.029020965099334717,-0.009760985150933266,0.02507317252457142
1772807487325901300,4.8719013671875,-0.02708526886999607,-0.02144167572259903,0.011769860051572323
1772807487335833000,4.8818330078125,-0.02623092569410801,-0.028871361166238785,0.0135587053373456
1772807487345765000,4.89176513671875,-0.017617322504520416,-0.035173870623111725,0.019687524065375328
1772807487355697200,4.901697265625,-0.014175187796354294,-0.03266437351703644,0.019732264801859856
1772807487365629200,4.911629150390625,-0.007059808354824781,-0.017786860466003418,0.01605684868991375
1772807487375561200,4.921561279296875,-0.0020277653820812702,-0.0027330766897648573,0.007579474709928036
1772807487385493000,4.931492919921875,0.004107144195586443,0.011665444821119308,0.0013114172033965588
1772807487395425000,4.941425048828125,0.004327387548983097,0.030468961223959923,0.00602787546813488
1772807487405357000,4.951357177734375,0.002905541565269232,0.048608846962451935,0.00973895750939846
1772807487415289000,4.9612890625,0.004368416033685207,0.0567043274641037,0.013838893733918667
1772807487425221000,4.97122119140625,0.001198702258989215,0.0587158240377903,0.01724463701248169
1772807487435153200,4.981153076171875,-0.00604642741382122,0.06044554337859154,0.01474792417138815
1772807487445085000,4.9910849609375,-0.006680727936327457,0.06514700502157211,0.009745368734002113
1772807487455017200,5.001017333984375,-0.016970116645097733,0.06928129494190216,0.007941875606775284
1772807487464949200,5.01094921875,-0.024220913648605347,0.061548151075839996,-0.0017074199859052896
1772807487474881300,5.02088134765625,-0.03394890949130058,0.05801334232091904,-0.0019393812399357557
1772807487484813300,5.030813232421875,-0.03603013977408409,0.050788380205631256,-0.0007139495573937893
1772807487494745300,5.040745361328125,-0.033945418894290924,0.05148106813430786,0.0012144454522058368
1772807487504677000,5.050677001953125,-0.027499845251441002,0.046634696424007416,0.004281980451196432
1772807487514609200,5.060609130859375,-0.023289920762181282,0.047764141112565994,0.007233827840536833
1772807487524541200,5.070541259765625,-0.01570717990398407,0.056756455451250076,0.006400394253432751
1772807487534473200,5.08047314453125,-0.011637336574494839,0.05233188346028328,0.009047044441103935
1772807487544405200,5.0904052734375,-0.009617850184440613,0.04409279674291611,0.015490233898162842
1772807487554337300,5.100337158203125,-0.01071693655103445,0.03531501814723015,0.018454331904649734
1772807487564269000,5.11026904296875,-0.009267683140933514,0.02130335383117199,0.0129074202850461
1772807487574201000,5.120201171875,-0.012364140711724758,0.013212138786911964,0.006110766436904669
1772807487584133000,5.130133056640625,-0.014564011245965958,0.01282205618917942,0.010596794076263905
1772807487594065200,5.140065185546875,-0.013833239674568176,0.01883574016392231,0.01496597658842802
1772807487603997200,5.1499970703125,-0.01506930310279131,0.02582455426454544,0.020502382889389992
1772807487613929000,5.159928955078125,-0.014724156819283962,0.03922984376549721,0.021249933168292046
1772807487623861000,5.169861083984375,-0.005181348416954279,0.05226394534111023,0.014057199470698833
1772807487633793000,5.17979296875,-0.0010494542075321078,0.05876259133219719,0.008446984924376011
1772807487643725000,5.18972509765625,0.006123990751802921,0.057253457605838776,0.005188854411244392
1772807487653657000,5.199656982421875,0.009748286567628384,0.05373302474617958,-0.001751609961502254
1772807487663589000,5.209589111328125,0.012176641263067722,0.040090613067150116,-0.008115134201943874
1772807487673521200,5.219521240234375,0.006447117310017347,0.028292808681726456,-0.014270498417317867
1772807487683453200,5.229453125,0.0036391443572938442,0.018985239788889885,-0.01811590977013111
1772807487693385200,5.23938525390625,-0.0007803714834153652,0.01582886092364788,-0.019056804478168488
1772807487703317200,5.249317138671875,-0.0007849629037082195,0.022313212975859642,-0.017371216788887978
1772807487713249300,5.259249267578125,-0.00722501939162612,0.03405322507023811,-0.013164487667381763
1772807487723181300,5.269181396484375,-0.005658633075654507,0.039499759674072266,-0.007574078626930714
1772807487733113000,5.279113037109375,-0.002017559017986059,0.04646419361233711,-0.005018243100494146
1772807487743045000,5.289045166015625,-0.0020103424321860075,0.042405471205711365,-0.007919911295175552
1772807487752977200,5.29897705078125,-0.0012718478683382273,0.03311077132821083,-0.0008500176481902599
1772807487762909200,5.3089091796875,0.002323972061276436,0.019969657063484192,0.0009262176463380456
1772807487772841200,5.31884130859375,0.0026968144811689854,0.013467282988131046,0.002143814926967025
1772807487782773200,5.328773193359375,0.004843548871576786,0.004150242544710636,-0.002798825968056917
1772807487792705000,5.338705078125,0.005984713323414326,-0.0023172444198280573,-0.010992040857672691
1772807487802637000,5.348636962890625,0.004088602028787136,-0.010903850197792053,-0.010453563183546066
1772807487812569000,5.358569091796875,0.0042507885955274105,-0.015859993174672127,-0.01324082724750042
1772807487822501000,5.368501220703125,0.004772073123604059,-0.015942662954330444,-0.01274041272699833
1772807487832433200,5.37843310546875,0.004532921127974987,-0.019003700464963913,-0.010536380112171173
1772807487842365200,5.388365234375,0.0025396880228072405,-0.022363685071468353,-0.002192876534536481
1772807487852297000,5.398296875,0.006308326963335276,-0.021754618734121323,0.009636884555220604
1772807487862229000,5.40822900390625,0.008227197453379631,-0.01297985389828682,0.0111470902338624
1772807487872161000,5.4181611328125,0.012931138277053833,-0.010790735483169556,0.010418182238936424
1772807487882093300,5.42809326171875,0.014535058289766312,-0.008998849429190159,0.01182485744357109
1772807487892025300,5.438025390625,0.019051779061555862,-0.013476954773068428,0.011769464239478111
1772807487901957000,5.44795703125,0.017399795353412628,-0.017998674884438515,0.010686510242521763
1772807487911889200,5.45788916015625,0.020075207576155663,-0.026850223541259766,0.001536155235953629
1772807487921821200,5.4678212890625,0.01670348457992077,-0.030994217842817307,-0.01926046423614025
1772807487931753200,5.477753173828125,0.015527430921792984,-0.03851711377501488,-0.0355217270553112
1772807487941685200,5.487685302734375,0.017254654318094254,-0.042193226516246796,-0.04009198024868965
1772807487951617300,5.4976171875,0.016939867287874222,-0.03807438164949417,-0.041741810739040375
1772807487961549000,5.507549072265625,0.018404753878712654,-0.025964908301830292,-0.03802294656634331
1772807487971481000,5.517481201171875,0.02132011577486992,-0.011666398495435715,-0.029412146657705307
1772807487981413000,5.5274130859375,0.022314250469207764,-0.0028597968630492687,-0.01574811153113842
1772807487991345200,5.53734521484375,0.02145671285688877,0.0036460398696362972,0.0031241115648299456
1772807488001277200,5.547277099609375,0.020220167934894562,0.001401286106556654,0.004502217285335064
1772807488011209200,5.557209228515625,0.015202771872282028,0.0019778604619205,-0.0044385469518601894
1772807488021141000,5.56714111328125,0.010080552659928799,-0.0052751051262021065,-0.018247297033667564
1772807488031073300,5.5770732421875,0.007734307087957859,-0.01429682970046997,-0.021081965416669846
1772807488041005300,5.58700537109375,0.0038795252330601215,-0.017833951860666275,-0.021832682192325592
1772807488050937300,5.596937255859375,0.00617410521954298,-0.016157226637005806,-0.021056637167930603
1772807488060869400,5.606869384765625,0.01437438651919365,-0.016098737716674805,-0.01900266297161579
1772807488070801200,5.61680126953125,0.013309388421475887,-0.016386626288294792,-0.013432128354907036
1772807488080733200,5.626733154296875,0.016054760664701462,-0.02791060134768486,-0.010223180055618286
1772807488090665200,5.636665283203125,0.019012998789548874,-0.03048481047153473,-0.00719090411439538
1772807488100597500,5.646597412109375,0.02140023745596409,-0.03388591855764389,-0.006274950224906206
1772807488110529500,5.656529541015625,0.02256137505173683,-0.03262624517083168,0.00039919797563925385
1772807488120461600,5.666461669921875,0.024696264415979385,-0.025685852393507957,0.0010746422922238708
1772807488130393300,5.676393310546875,0.02743026614189148,-0.02612660638988018,0.0029769381508231163
1772807488140325400,5.686325439453125,0.02495034784078598,-0.028394099324941635,-0.004673736169934273
1772807488150257400,5.69625732421875,0.02345578372478485,-0.03798520937561989,-0.012458155862987041
1772807488160189400,5.706189453125,0.020637936890125275,-0.042898744344711304,-0.019011789932847023
1772807488170121500,5.71612158203125,0.014426380395889282,-0.04318743199110031,-0.02055455930531025
1772807488180053500,5.726053466796875,0.013023285195231438,-0.03999442979693413,-0.020393526181578636
1772807488189985300,5.7359853515625,0.012565487995743752,-0.03234875947237015,-0.017308786511421204
1772807488199917300,5.745917236328125,0.009840643033385277,-0.031876157969236374,-0.02166118286550045
1772807488209849300,5.755849365234375,0.00796364713460207,-0.03132248669862747,-0.02255493961274624
1772807488219781400,5.765781494140625,0.009576084092259407,-0.030872521921992302,-0.030103882774710655
1772807488229713400,5.77571337890625,0.009429343976080418,-0.030068248510360718,-0.037798020988702774
1772807488239645200,5.785645263671875,0.008194277063012123,-0.03107854165136814,-0.03892805427312851
1772807488249577200,5.7955771484375,0.006236853543668985,-0.0271019097417593,-0.028380604460835457
1772807488259509200,5.80550927734375,0.007951703853905201,-0.03059946931898594,-0.01355417538434267
1772807488269441300,5.815441162109375,0.00386108853854239,-0.026783425360918045,0.001315851230174303
1772807488279373300,5.825373291015625,0.007245433516800404,-0.029677215963602066,0.008856858126819134
1772807488289305300,5.835305419921875,0.001802464947104454,-0.028957363218069077,0.006998238153755665
1772807488299237400,5.8452373046875,0.000991449924185872,-0.03243326023221016,0.006769579369574785
1772807488309169400,5.85516943359375,-0.0011079200776293874,-0.033124882727861404,0.0031562026124447584
1772807488319101400,5.865101318359375,-0.003587670624256134,-0.03281879052519798,0.006438714452087879
1772807488329033500,5.875033447265625,-0.0028568990528583527,-0.03263343498110771,0.014741652645170689
1772807488338965500,5.884965576171875,-0.004747825674712658,-0.028558969497680664,0.02109985053539276
1772807488348897500,5.8948974609375,-0.001547505147755146,-0.025187671184539795,0.023243427276611328
1772807488358829300,5.904829345703125,-0.0005684243515133858,-0.01973123475909233,0.019212473183870316
1772807488368761300,5.91476123046875,-0.0013902757782489061,-0.019397540017962456,0.015037168748676777
1772807488378693400,5.924693359375,-0.0031410381197929382,-0.017767686396837234,0.006986699998378754
1772807488388625400,5.93462548828125,-0.0023617970291525126,-0.019975446164608,-0.0013881427003070712
1772807488398557400,5.944557373046875,-0.003196022007614374,-0.01821363903582096,-0.006655788514763117
1772807488408489500,5.954489501953125,-0.004772613290697336,-0.015765128657221794,-0.008421198464930058
1772807488418421200,5.964421142578125,-0.004297997802495956,-0.012585874646902084,-0.007052253466099501
1772807488428353300,5.974353271484375,-0.004161643795669079,-0.012386936694383621,-0.00982859916985035
1772807488438285300,5.984285400390625,-0.0028728605248034,-0.014490162022411823,-0.005915308836847544
1772807488448217300,5.99421728515625,-0.005362383555620909,-0.0162944532930851,-0.005486007314175367
1772807488458149400,6.0041494140625,-0.0075740753673017025,-0.023950520902872086,-0.007439923007041216
1772807488468081400,6.014081298828125,-0.011018341407179832,-0.024481821805238724,-0.00359112280420959
1772807488478013200,6.02401318359375,-0.007872328162193298,-0.02874612808227539,0.00034354469971731305
1772807488487945200,6.0339453125,-0.00643741711974144,-0.02616153284907341,-0.0015086837811395526
1772807488497877200,6.043877197265625,-0.0035390369594097137,-0.026650799438357353,-0.0014085625298321247
1772807488507809300,6.053809326171875,-0.002252730308100581,-0.02459297515451908,0.002969940658658743
1772807488517741600,6.063741455078125,-0.0010804504854604602,-0.025106094777584076,0.007041628006845713
1772807488527673300,6.07367333984375,-0.004904749803245068,-0.021415486931800842,0.016308097168803215
1772807488537605400,6.08360546875,-0.003969178535044193,-0.023282935842871666,0.025046933442354202
1772807488547537400,6.093537353515625,-0.008214790374040604,-0.021350545808672905,0.022544628009200096
1772807488557469400,6.103469482421875,-0.011030447669327259,-0.02182842791080475,0.021792292594909668
1772807488567401500,6.1134013671875,-0.012563630007207394,-0.03405872732400894,0.019742989912629128
1772807488577333500,6.12333349609375,-0.01775703951716423,-0.04023701325058937,0.02271178737282753
1772807488587265300,6.133265380859375,-0.018261441960930824,-0.046508222818374634,0.023782111704349518
1772807488597197300,6.143197265625,-0.01693875342607498,-0.04818590730428696,0.02625085599720478
1772807488607129300,6.15312939453125,-0.01728123612701893,-0.04827219247817993,0.026320630684494972
1772807488617061400,6.163061279296875,-0.0159975104033947,-0.04083670303225517,0.02273591049015522
1772807488626993400,6.172993408203125,-0.015236911363899708,-0.02877631038427353,0.018059132620692253
1772807488636925400,6.182925537109375,-0.014970781281590462,-0.020907331258058548,0.018765976652503014
1772807488646857200,6.192857177734375,-0.008753631263971329,-0.006708689033985138,0.027877449989318848
1772807488656789200,6.202789306640625,-0.012338490225374699,0.00969160720705986,0.02249836176633835
1772807488666721300,6.21272119140625,-0.011283346451818943,0.008748315274715424,0.012645198032259941
1772807488676653300,6.2226533203125,-0.01259075291454792,0.006744330748915672,0.006832063663750887
1772807488686585300,6.23258544921875,-0.014903176575899124,0.00031093228608369827,0.0023475666530430317
1772807488696517400,6.242517333984375,-0.018598418682813644,0.003812880255281925,-0.003162193577736616
1772807488706449200,6.25244921875,-0.019403226673603058,0.014365389943122864,-0.0010511056752875447
1772807488716381200,6.262381103515625,-0.01609252765774727,0.016865096986293793,0.003959692548960447
1772807488726313500,6.2723134765625,-0.020385809242725372,0.01823103241622448,0.008355772122740746
1772807488736245500,6.28224560546875,-0.019560737535357475,0.011371542699635029,0.015907131135463715
1772807488746177500,6.292177490234375,-0.016567876562476158,0.015417682938277721,0.015495939180254936
1772807488756109600,6.302109619140625,-0.014102712273597717,0.016872696578502655,0.015159934759140015
1772807488766041300,6.312041259765625,-0.008270655758678913,0.023776941001415253,0.024670615792274475
1772807488775973400,6.321973388671875,-0.01001797616481781,0.02837330475449562,0.03924698755145073
1772807488785905400,6.331905517578125,-0.01568012312054634,0.02458336018025875,0.05759270489215851
1772807488795837400,6.34183740234375,-0.0239260271191597,0.01890840195119381,0.05865059420466423
1772807488805769500,6.35176953125,-0.026547642424702644,0.02252550609409809,0.046391263604164124
1772807488815701200,6.361701171875,-0.028684645891189575,0.024081915616989136,0.017621241509914398
1772807488825633300,6.37163330078125,-0.02703827992081642,0.02175005152821541,-0.005377018824219704
1772807488835565300,6.3815654296875,-0.022007731720805168,0.026027776300907135,-0.03506406769156456
1772807488845497300,6.391497314453125,-0.018972793594002724,0.030378852039575577,-0.050618261098861694
1772807488855429400,6.401429443359375,-0.01616453193128109,0.0269913412630558,-0.05458298698067665
1772807488865361400,6.411361328125,-0.01617225632071495,0.04299560934305191,-0.05071527883410454
1772807488875293200,6.421293212890625,-0.023533005267381668,0.03380882740020752,-0.036724649369716644
1772807488885225200,6.43122509765625,-0.028398068621754646,0.010366356000304222,-0.007481275591999292
1772807488895157200,6.4411572265625,-0.02834376133978367,-0.00008653663098812103,0.014488832093775272
1772807488905089300,6.45108935546875,-0.0260089673101902,0.02609047293663025,0.02022155188024044
1772807488915021300,6.461021240234375,-0.03098551370203495,0.0017432114109396935,0.051492661237716675
1772807488924953300,6.470953369140625,-0.03921894356608391,-0.009096120484173298,0.08311157673597336
1772807488934885400,6.480885498046875,-0.047135431319475174,-0.008423687890172005,0.08188802003860474
1772807488944817400,6.4908173828125,-0.04922068864107132,-0.007533126976341009,0.0651729553937912
1772807488954749400,6.50074951171875,-0.05095662176609039,-0.024283811450004578,0.04379960149526596
1772807488964681500,6.510681396484375,-0.045070238411426544,-0.03700946271419525,0.031130945309996605
1772807488974613500,6.520613525390625,-0.03877349570393562,-0.043192461133003235,0.03057192824780941
1772807488984545500,6.530545654296875,-0.035653337836265564,-0.057518936693668365,0.046912286430597305
1772807488994477300,6.540477294921875,-0.03725127875804901,-0.058698952198028564,0.072617307305336
1772807489004409300,6.550409423828125,-0.04089847579598427,-0.05546987056732178,0.10048755258321762
1772807489014341400,6.56034130859375,-0.04514574632048607,-0.06131651997566223,0.11608783155679703
1772807489024273000,6.57027294921875,-0.046214476227760315,-0.0698263868689537,0.11586305499076843
1772807489034205000,6.580204833984375,-0.0495401956140995,-0.07263766974210739,0.10140770673751831
1772807489044137000,6.590136962890625,-0.04706798493862152,-0.08029266446828842,0.06925350427627563
1772807489054069000,6.600069091796875,-0.04698093235492706,-0.07383124530315399,0.03095908649265766
1772807489064001000,6.6100009765625,-0.0481034554541111,-0.078734390437603,0.00965140014886856
1772807489073932800,6.619932861328125,-0.05391846224665642,-0.08478187024593353,0.0019711689092218876
1772807489083864800,6.62986474609375,-0.049628112465143204,-0.08103267848491669,0.021554457023739815
1772807489093796900,6.639796875,-0.041747111827135086,-0.06924548745155334,0.05614683777093887
1772807489103729000,6.64972900390625,-0.03561465069651604,-0.06241420656442642,0.08457421511411667
1772807489113661000,6.659660888671875,-0.034962333738803864,-0.05571884289383888,0.10783379524946213
1772807489123593200,6.66959326171875,-0.036362890154123306,-0.06683514267206192,0.10426516085863113
1772807489133525000,6.67952490234375,-0.04126615822315216,-0.06767311692237854,0.09450210630893707
1772807489143457000,6.68945703125,-0.036886587738990784,-0.06254679709672928,0.08331602811813354
1772807489153389000,6.69938916015625,-0.037035420536994934,-0.05727829784154892,0.07833626121282578
1772807489163321000,6.709321044921875,-0.03532460331916809,-0.0531780943274498,0.08400559425354004
1772807489173253000,6.719253173828125,-0.03608907386660576,-0.037102848291397095,0.09846914559602737
1772807489183185200,6.72918505859375,-0.03910404071211815,-0.024709826335310936,0.12059042602777481
1772807489193117000,6.739116943359375,-0.0431559756398201,-0.018503669649362564,0.1270706206560135
1772807489203049000,6.749049072265625,-0.0490274503827095,-0.01237227488309145,0.11760734021663666
1772807489212981000,6.75898095703125,-0.049510277807712555,0.005789713002741337,0.09700039029121399
1772807489222913000,6.7689130859375,-0.044269975274801254,0.01930925063788891,0.07051552087068558
1772807489232845000,6.778844970703125,-0.03509403392672539,0.023193426430225372,0.02760838158428669
1772807489242776800,6.78877685546875,-0.023995311930775642,0.03601441532373428,-0.014456513337790966
1772807489252708900,6.798708984375,-0.014048859477043152,0.04477319493889809,-0.036326825618743896
1772807489262641000,6.808640869140625,-0.009294584393501282,0.04595297574996948,-0.03379655256867409
1772807489272573000,6.818572998046875,-0.007978363893926144,0.045015208423137665,-0.028322800993919373
1772807489282505000,6.8285048828125,-0.009195694699883461,0.041706763207912445,-0.01916578784584999
1772807489292437000,6.83843701171875,-0.01466976385563612,0.03771194815635681,-0.015875790268182755
1772807489302368800,6.84836865234375,-0.02294633537530899,0.03775801882147789,-0.014385486021637917
1772807489312300800,6.85830078125,-0.03312542289495468,0.0400502011179924,-0.006791077088564634
1772807489322233000,6.868233154296875,-0.037489280104637146,0.045778658241033554,-0.014680691994726658
1772807489332165000,6.8781650390625,-0.02591053396463394,0.037522442638874054,-0.03830307722091675
1772807489342097200,6.88809716796875,-0.02312460169196129,0.045943617820739746,-0.06658770889043808
1772807489352029200,6.898029296875,-0.01757626049220562,0.03256796672940254,-0.0721307098865509
1772807489361961000,6.9079609375,-0.020977916195988655,0.02635827288031578,-0.06359314918518066
1772807489371893000,6.91789306640625,-0.02308538928627968,0.02406064234673977,-0.042821675539016724
1772807489381825000,6.927824951171875,-0.02250375598669052,0.013446347787976265,-0.006128376349806786
1772807489391757000,6.937757080078125,-0.026669248938560486,0.006129611749202013,0.04231124743819237
1772807489401689000,6.947689208984375,-0.038153067231178284,-0.0070426492020487785,0.07826711982488632
1772807489411621000,6.95762109375,-0.04182082787156105,-0.004338665399700403,0.11012472212314606
1772807489421553000,6.967552978515625,-0.0564250722527504,-0.016410773620009422,0.11423584073781967
1772807489431485000,6.97748486328125,-0.057808998972177505,-0.006241109687834978,0.10823160409927368
1772807489441417000,6.9874169921875,-0.04844878986477852,0.011963460594415665,0.09131147712469101
1772807489451350000,6.99735009765625,-0.03059784509241581,0.018850626423954964,0.058271583169698715
1772807489461282000,7.007281982421875,-0.01061774231493473,0.025226231664419174,0.035628851503133774
1772807489471213000,7.017213134765625,0.00013070926070213318,0.03622381016612053,0.0327550508081913
1772807489481146000,7.02714599609375,0.008000349625945091,0.05243021249771118,0.03541714698076248
1772807489491078000,7.037077880859375,0.01662672497332096,0.07672825455665588,0.04178020730614662
1772807489501010000,7.047010009765625,0.01483867783099413,0.10195744037628174,0.03868774697184563
1772807489510942000,7.05694189453125,-0.00013673934154212475,0.10687380284070969,0.038721080869436264
1772807489520874000,7.0668740234375,-0.012172895483672619,0.09264665842056274,0.030409350991249084
1772807489530806000,7.076805908203125,-0.023455921560525894,0.06679592281579971,0.018043113872408867
1772807489540737800,7.08673779296875,-0.030097046867012978,0.057169925421476364,-0.0031404681503772736
1772807489550669800,7.096669921875,-0.02192605845630169,0.05425229296088219,-0.03239414095878601
1772807489560601900,7.106601806640625,-0.01820908486843109,0.0441405363380909,-0.05742865055799484
1772807489570534000,7.116533935546875,-0.012396058067679405,0.032768696546554565,-0.08043242245912552
1772807489580466000,7.1264658203125,-0.00044991669710725546,0.037344008684158325,-0.08138982206583023
1772807489590398000,7.13639794921875,0.007872892543673515,0.04493199288845062,-0.06362015753984451
1772807489600330000,7.146330078125,0.016010448336601257,0.06018524616956711,-0.0366404727101326
1772807489610262000,7.156261962890625,0.017768457531929016,0.059578776359558105,-0.012767702341079712
1772807489620194000,7.166194091796875,0.009952080436050892,0.04974798113107681,-0.0039568995125591755
1772807489630126000,7.1761259765625,-0.001287480816245079,0.03990117460489273,-0.010186220519244671
1772807489640058000,7.18605810546875,-0.007075594738125801,0.026918532326817513,-0.025455188006162643
1772807489649990100,7.195990234375,-0.010141291655600071,0.02523578703403473,-0.04568959027528763
1772807489659922000,7.205921875,-0.008473887108266354,0.021564621478319168,-0.06328589469194412
1772807489669854000,7.21585400390625,-0.004219009540975094,0.01421915739774704,-0.07116265594959259
1772807489679786000,7.225785888671875,0.0014146411558613181,0.005549236666411161,-0.07350543886423111
1772807489689718000,7.235718017578125,0.003510714741423726,0.0018542069010436535,-0.07195308804512024
1772807489699650000,7.245650146484375,0.008676714263856411,-0.005356567446142435,-0.05721515789628029
1772807489709582000,7.25558203125,0.012813170440495014,-0.010481072589755058,-0.03848991543054581
1772807489719513900,7.265513916015625,0.017236415296792984,-0.0013751918449997902,-0.019210491329431534
1772807489729446000,7.27544580078125,0.013340764679014683,-0.005228804890066385,-0.001244901679456234
1772807489739378000,7.2853779296875,0.009515932761132717,-0.007120448164641857,0.004416179843246937
1772807489749310000,7.29531005859375,0.0042858729138970375,-0.006174617446959019,0.002921527484431863
1772807489759242000,7.305241943359375,0.001225900836288929,-0.0059381285682320595,0.0005172257078811526
1772807489769174000,7.315174072265625,0.006726481951773167,-0.0063797542825341225,-0.013056482188403606
1772807489779105800,7.325105712890625,0.007637549191713333,0.0014400859363377094,-0.023921646177768707
1772807489789037800,7.335037841796875,0.010081782005727291,0.008047696202993393,-0.02765125222504139
1772807489798970000,7.34497021484375,0.01398597564548254,0.011327380314469337,-0.018897974863648415
1772807489808902100,7.354902099609375,0.017373545095324516,0.007493153680115938,-0.005802714731544256
1772807489818834200,7.364834228515625,0.01607045903801918,0.007075836416333914,0.002722596749663353
1772807489828766000,7.374765869140625,0.015948519110679626,0.0068047228269279,-0.0018045470351353288
1772807489838698000,7.384697998046875,0.01861327886581421,0.00370586896315217,-0.001929981866851449
1772807489848630000,7.394630126953125,0.0161525160074234,0.0006933012045919895,-0.007455242332071066
1772807489858562000,7.40456201171875,0.010664541274309158,0.0013950439170002937,-0.013329110108315945
1772807489868494000,7.414494140625,0.00578821636736393,0.0002765599638223648,-0.015500427223742008
1772807489878426000,7.424426025390625,0.0063030049204826355,-0.006288930773735046,-0.010793290100991726
1772807489888358000,7.43435791015625,0.00793299451470375,-0.01008937694132328,-0.014321209862828255
1772807489898290000,7.4442900390625,0.011650234460830688,-0.006428329739719629,-0.026175472885370255
1772807489908222000,7.454221923828125,0.013991238549351692,0.0042886934243142605,-0.03464629873633385
1772807489918154000,7.464154052734375,0.017849359661340714,0.010988675057888031,-0.03730253502726555
1772807489928086000,7.4740859375,0.01742677390575409,0.017511481419205666,-0.030008474364876747
1772807489938018000,7.48401806640625,0.012762247584760189,0.014376675710082054,-0.018668733537197113
1772807489947949800,7.49394970703125,0.014279760420322418,0.010479902848601341,-0.020631937310099602
1772807489957881900,7.5038818359375,0.009524953551590443,0.0017809532582759857,-0.025419767946004868
1772807489967814000,7.51381396484375,0.006720656994730234,-0.004807739984244108,-0.01919264905154705
1772807489977746000,7.523745849609375,0.003531254827976227,-0.010574549436569214,-0.0187713373452425
1772807489987678000,7.533677978515625,0.001802685554139316,-0.005075195338577032,-0.015480577945709229
1772807489997610000,7.54360986328125,0.0035491865128278732,0.0054717217572033405,-0.02078665792942047
1772807490007542000,7.5535419921875,0.00698099983856082,0.005967777222394943,-0.025023438036441803
1772807490017474000,7.56347412109375,0.012644211761653423,0.012188654392957687,-0.028206713497638702
1772807490027406300,7.57340625,0.02032402716577053,0.016446750611066818,-0.023330597206950188
1772807490037338400,7.58333837890625,0.02248465083539486,0.023028751835227013,-0.01846873015165329
1772807490047270700,7.593270751953125,0.021365530788898468,0.02695241943001747,-0.015929007902741432
1772807490057202700,7.60320263671875,0.018441112712025642,0.0272459015250206,-0.015485060401260853
1772807490067134700,7.613134765625,0.013728220015764236,0.02556644193828106,-0.014320245943963528
1772807490077066500,7.62306640625,0.006114775314927101,0.028490593656897545,-0.01748514547944069
1772807490086998500,7.63299853515625,0.007948960177600384,0.017532389611005783,-0.018187908455729485
1772807490096930600,7.6429306640625,0.004369405098259449,0.007342868484556675,-0.012027219869196415
1772807490106862600,7.652862548828125,0.004829279612749815,0.011110772378742695,-0.007177798077464104
1772807490116794600,7.662794677734375,0.0012396048987284303,0.020584702491760254,-0.0019747803453356028
1772807490126726700,7.6727265625,0.001392881153151393,0.016068637371063232,-0.00429270975291729
1772807490136658400,7.682658447265625,-0.000758420443162322,0.013052873313426971,-0.011925329454243183
1772807490146590500,7.692590576171875,-0.0057698804885149,0.015918351709842682,-0.02401757799088955
1772807490156522500,7.7025224609375,-0.006187197752296925,0.009170698933303356,-0.0273345448076725
1772807490166454500,7.71245458984375,-0.008848176337778568,0.0065713925287127495,-0.02775220014154911
1772807490176386600,7.722386474609375,-0.011904153041541576,0.010661209002137184,-0.0201033353805542
1772807490186318600,7.732318603515625,-0.011767852120101452,0.0019218409433960915,-0.0038374741561710835
1772807490196250400,7.74225048828125,-0.010016290470957756,-0.004788792692124844,0.008595493622124195
1772807490206182400,7.752182373046875,-0.008329687640070915,-0.012326890602707863,0.01546475663781166
1772807490216114400,7.762114501953125,-0.01199659425765276,-0.023651182651519775,0.013894024305045605
1772807490226046500,7.77204638671875,-0.00863869208842516,-0.027174726128578186,0.005614422261714935
1772807490235978500,7.781978515625,-0.0036862771958112717,-0.02504073455929756,0.001743251457810402
1772807490245910500,7.79191064453125,0.002140273805707693,-0.025474635884165764,0.0041189491748809814
1772807490255842600,7.801842529296875,0.008267674595117569,-0.016399115324020386,0.0036531626246869564
1772807490265774600,7.811774658203125,0.013655861839652061,-0.003153440775349736,0.004066585563123226
1772807490275706600,7.82170654296875,0.010705078020691872,0.0021225479431450367,0.003415443003177643
1772807490285638700,7.831638671875,0.01090707816183567,0.003209766000509262,0.005368368234485388
1772807490295570700,7.84157080078125,0.011809890158474445,0.07828773558139801,0.06761043518781662
1772807490305502500,7.85150244140625,0.01859327219426632,0.028298035264015198,0.12085456401109695
1772807490315434500,7.8614345703125,0.012437908910214901,0.040073201060295105,0.12642084062099457
1772807490325366500,7.871366455078125,0.01143907941877842,0.029464643448591232,0.06994762271642685
1772807490335298600,7.881298583984375,0.006467489525675774,0.011438237503170967,-0.0009036496048793197
1772807490345230600,7.891230712890625,0.0004565903218463063,-0.001238532830029726,-0.0453854501247406
1772807490355163600,7.90116357421875,-0.0025826089549809694,-0.0031823739409446716,-0.03986738249659538
1772807490365095700,7.911095703125,0.001971297198906541,0.0009355098009109497,-0.02216402441263199
1772807490375027500,7.92102734375,0.004470673855394125,0.010876024141907692,-0.01489199697971344
1772807490384959500,7.93095947265625,0.008511754684150219,0.000837505329400301,-0.023122230544686317
1772807490394891500,7.9408916015625,0.002090606838464737,-0.014673810452222824,-0.06369388848543167
1772807490404823600,7.950823486328125,-0.005575401708483696,-0.04828492924571037,-0.115772545337677
1772807490414755600,7.960755615234375,-0.008328044787049294,-0.040409162640571594,-0.1344735324382782
1772807490424687600,7.9706875,-0.007582405116409063,-0.022643176838755608,-0.10265602916479111
1772807490434619400,7.980619384765625,-0.008022358641028404,-0.02788374572992325,-0.03231155127286911
