time,seconds_elapsed,z,y,x
1772807482517584000,0.063583984375,-0.019062107428908348,0.01594114862382412,0.04599146172404289
1772807482527515600,0.073515625,0.00025060345069505274,0.04334481060504913,0.07869907468557358
1772807482537447700,0.08344775390625,0.013688381761312485,0.04554964229464531,0.10633789002895355
1772807482547379700,0.093379638671875,0.012523781508207321,0.05554954335093498,0.12688657641410828
1772807482557311700,0.103311767578125,0.011453989893198013,0.040219858288764954,0.12828686833381653
1772807482567243800,0.113243896484375,0.008069644682109356,0.002968625631183386,0.06970078498125076
1772807482577175600,0.123175537109375,0.006933273747563362,-0.0036911412607878447,-0.011092598550021648
1772807482587107600,0.133107666015625,0.002781938062980771,-0.019099125638604164,-0.0684291273355484
1772807482597039600,0.14303955078125,0.003296460723504424,-0.01721866801381111,-0.07466597855091095
1772807482606971600,0.1529716796875,0.006973220966756344,-0.013946974650025368,-0.05173829570412636
1772807482616903700,0.162903564453125,0.016341954469680786,-0.0037324202712625265,-0.019464245066046715
1772807482626835700,0.172835693359375,0.01823652721941471,-0.004007524810731411,-0.0017204020405188203
1772807482636767700,0.182767822265625,0.02154870145022869,-0.008702677674591541,-0.0075718993321061134
1772807482646698800,0.19269873046875,0.017585385590791702,-0.013519536703824997,-0.02900954708456993
1772807482656630800,0.202630859375,0.01846236363053322,-0.020961740985512733,-0.04976409301161766
1772807482666562800,0.212562744140625,0.01392593514174223,-0.03152410313487053,-0.057679805904626846
1772807482676494800,0.222494873046875,0.02123231813311577,-0.030361900106072426,-0.049724679440259933
1772807482686426600,0.232426513671875,0.02707875519990921,-0.011994078755378723,-0.03459499403834343
1772807482696358700,0.242358642578125,0.027758393436670303,0.005079447291791439,-0.021332185715436935
1772807482706290700,0.252290771484375,0.0252747293561697,0.01128221582621336,-0.019776634871959686
1772807482716222700,0.26222265625,0.021859759464859962,0.009216401726007462,-0.019522035494446754
1772807482726154800,0.27215478515625,0.016632506623864174,0.009606288745999336,-0.025525333359837532
1772807482736086800,0.282086669921875,0.01309050153940916,0.01966717839241028,-0.023139674216508865
1772807482746018600,0.2920185546875,0.012064652517437935,0.028730981051921844,-0.02050740458071232
1772807482755950600,0.30195068359375,0.017773138359189034,0.03909467160701752,-0.0185859352350235
1772807482765882600,0.311882568359375,0.01751081645488739,0.043102994561195374,-0.017013071104884148
1772807482775814700,0.321814697265625,0.006602242588996887,0.03978735953569412,-0.012077169492840767
1772807482785746700,0.33174658203125,0.0012783173006027937,0.04212428256869316,-0.003065032185986638
1772807482795679000,0.341678955078125,-0.0011861718958243728,0.03209082409739494,0.0009486179915256798
1772807482805610800,0.35161083984375,0.0009518137667328119,0.056170862168073654,-0.005371862091124058
1772807482815542800,0.361542724609375,0.00028043086058460176,0.055270977318286896,-0.011988486163318157
1772807482825474800,0.371474853515625,0.0010548781137913465,0.05820018798112869,-0.024047546088695526
1772807482835406800,0.38140673828125,0.002234392100945115,0.06419017165899277,-0.03508847951889038
1772807482845339000,0.3913388671875,0.0007046724203974009,0.06138399988412857,-0.03485358878970146
1772807482855270700,0.401270751953125,0.003531884169206023,0.0641222596168518,-0.028967736288905144
1772807482865202700,0.41120263671875,0.0029763488564640284,0.07239829748868942,-0.01703491061925888
1772807482875134700,0.421134765625,0.004188885912299156,0.07649743556976318,-0.004283428192138672
1772807482885066800,0.431066650390625,0.003769704606384039,0.07696961611509323,0.0036991306114941835
1772807482894998800,0.440998779296875,0.003484213724732399,0.07230109721422195,-0.0028181569650769234
1772807482904930800,0.450930908203125,-0.0013515542959794402,0.056052882224321365,-0.018304971978068352
1772807482914862600,0.460862548828125,0.0009299758239649236,0.053224872797727585,-0.036379843950271606
1772807482924794600,0.470794677734375,-0.00013928332191426307,0.04460129141807556,-0.04296770691871643
1772807482934726700,0.4807265625,0.004758003633469343,0.04499756917357445,-0.04007817804813385
1772807482944658700,0.49065869140625,0.006139118690043688,0.04722583666443825,-0.03313132002949715
1772807482954590700,0.5005908203125,0.0073428675532341,0.0468098483979702,-0.034324418753385544
1772807482964522800,0.510522705078125,0.003340669209137559,0.04175064340233803,-0.03393399715423584
1772807482974453800,0.520453857421875,0.0011206581257283688,0.03545492887496948,-0.035285551100969315
1772807482984385800,0.5303857421875,0.004483431577682495,0.02317163161933422,-0.03689170628786087
1772807482994317800,0.54031787109375,0.006189985200762749,0.03172730281949043,-0.046244725584983826
1772807483004249900,0.550249755859375,0.009339706040918827,0.025172464549541473,-0.053589992225170135
1772807483014182000,0.560181884765625,0.015132879838347435,0.02291836589574814,-0.06365913897752762
1772807483024114000,0.570114013671875,0.020928984507918358,0.029826605692505836,-0.07925301045179367
1772807483034046000,0.5800458984375,0.01937902346253395,0.023918649181723595,-0.08390475064516068
1772807483043978000,0.58997802734375,0.02587154507637024,0.006086121778935194,-0.08035849034786224
1772807483053910000,0.599909912109375,0.02473330870270729,0.012478773482143879,-0.08023678511381149
1772807483063841800,0.609841796875,0.02273673750460148,0.0031611721497029066,-0.08463392406702042
1772807483073773800,0.61977392578125,0.020260795950889587,-0.010759703814983368,-0.07853688299655914
1772807483083705900,0.629705810546875,0.020555874332785606,-0.022062690928578377,-0.0718717947602272
1772807483093638000,0.639637939453125,0.01859552226960659,-0.020084494724869728,-0.07719012349843979
1772807483103570000,0.64956982421875,0.0256278645247221,-0.016707606613636017,-0.08116356283426285
1772807483113501700,0.659501708984375,0.029822876676917076,-0.006130596622824669,-0.08694954216480255
1772807483123433700,0.669433837890625,0.037934865802526474,-0.00027297402266412973,-0.08860097080469131
1772807483133365800,0.67936572265625,0.04201748967170715,0.0020748688839375973,-0.08326772600412369
1772807483143297800,0.6892978515625,0.04002757743000984,0.003698065411299467,-0.07212239503860474
1772807483153229800,0.699229736328125,0.035600073635578156,0.005721268709748983,-0.05812801793217659
1772807483163162000,0.709162109375,0.035892222076654434,0.006807305850088596,-0.04464363306760788
1772807483173094000,0.719093994140625,0.03521311283111572,0.018005365505814552,-0.034802187234163284
1772807483183026000,0.72902587890625,0.040156472474336624,0.031620778143405914,-0.03322240337729454
1772807483192958000,0.7389580078125,0.042991410940885544,0.04801679402589798,-0.029503563418984413
1772807483202890000,0.748889892578125,0.03922969475388527,0.034807782620191574,-0.017136642709374428
1772807483212822000,0.758822021484375,0.04002651199698448,0.03801502659916878,-0.011540808714926243
1772807483222754000,0.768754150390625,0.03752686828374863,0.0518602691590786,-0.011550928466022015
1772807483232685800,0.778685791015625,0.03467116132378578,0.05421716719865799,-0.008510397747159004
1772807483242617900,0.788617919921875,0.032410405576229095,0.062372297048568726,-0.003254116512835026
1772807483252550000,0.7985498046875,0.029033781960606575,0.06208467483520508,0.0027089675422757864
1772807483262482000,0.80848193359375,0.024335699155926704,0.057077135890722275,0.011988752521574497
1772807483272414000,0.8184140625,0.018913237378001213,0.05563769489526749,0.027900073677301407
1772807483282346000,0.828345947265625,0.009914948605000973,0.06720487028360367,0.04808630421757698
1772807483292277800,0.83827783203125,0.007137005217373371,0.08859378099441528,0.06210305169224739
1772807483302209800,0.848209716796875,0.007678692229092121,0.0985470786690712,0.06595185399055481
1772807483312141000,0.85814111328125,0.016654610633850098,0.12869592010974884,0.07027522474527359
1772807483322073000,0.868072998046875,0.01768711768090725,0.14159467816352844,0.06900116801261902
1772807483332004900,0.8780048828125,0.020612601190805435,0.15087713301181793,0.05600867420434952
1772807483341937000,0.88793701171875,0.021258950233459473,0.163442462682724,0.042271558195352554
1772807483351869000,0.897868896484375,0.017780061811208725,0.15517626702785492,0.02671869657933712
1772807483361801000,0.907801025390625,0.011920841410756111,0.15078498423099518,0.02462145686149597
1772807483371733000,0.91773291015625,0.0034967304673045874,0.14473427832126617,0.025494707748293877
1772807483381665000,0.9276650390625,-0.0008780442294664681,0.13940902054309845,0.029258020222187042
1772807483391596800,0.9375966796875,-0.0034296188969165087,0.12170007079839706,0.030305974185466766
1772807483401528800,0.94752880859375,-0.004643221385776997,0.09938091784715652,0.01709775999188423
1772807483411460900,0.9574609375,-0.007925567217171192,0.07994835823774338,-0.014164554886519909
1772807483421393000,0.967392822265625,-0.006658968050032854,0.06155417487025261,-0.048171255737543106
1772807483431325000,0.977324951171875,-0.0023576964158564806,0.044980257749557495,-0.07054287195205688
1772807483441257000,0.987257080078125,0.00923104863613844,0.04314853623509407,-0.08720973879098892
1772807483451188700,0.997188720703125,0.013836720027029514,0.03056243620812893,-0.07401750236749649
1772807483461120800,1.007120849609375,0.02099369838833809,0.0070216902531683445,-0.028089424595236778
1772807483471052800,1.017052734375,0.020857878029346466,0.0012796488590538502,0.01629934459924698
1772807483480984800,1.02698486328125,0.025123195722699165,-0.004071440547704697,0.05108315870165825
1772807483490916900,1.036916748046875,0.022654445841908455,-0.0063785370439291,0.07032369822263718
1772807483500849000,1.046848876953125,0.020679445937275887,-0.004972388036549091,0.0712968185544014
1772807483510781000,1.056781005859375,0.024287762120366096,-0.0004495415778364986,0.06884671002626419
1772807483520713000,1.066712890625,0.023242738097906113,0.002772883279249072,0.06404662877321243
1772807483530645000,1.07664501953125,0.013436446897685528,-0.010643056593835354,0.05573463439941406
1772807483540577000,1.086576904296875,0.006966296583414078,-0.03242079168558121,0.03988030552864075
1772807483550509000,1.096509033203125,0.001395496423356235,-0.047996021807193756,0.01764104515314102
1772807483560441000,1.106441162109375,0.0030117689166218042,-0.04741385579109192,-0.0027601001784205437
1772807483570372900,1.116372802734375,0.002329467097297311,-0.05230741202831268,-0.01528494618833065
1772807483580305000,1.126304931640625,0.0014053500490263104,-0.04536135494709015,-0.02287335693836212
1772807483590237000,1.13623681640625,0.0012365056900307536,-0.042537871748209,-0.022070948034524918
1772807483600169000,1.1461689453125,-0.0006894923863001168,-0.03762460872530937,-0.020959876477718353
1772807483610101000,1.15610107421875,0.00224903947673738,-0.04019562155008316,-0.020227773115038872
1772807483620032800,1.16603271484375,0.00024234765442088246,-0.03220454230904579,-0.018733739852905273
1772807483629964800,1.17596484375,0.0013632721966132522,-0.02942926064133644,-0.009652627632021904
1772807483639896800,1.185896728515625,-0.0022975089959800243,-0.02503850683569908,0.006647782865911722
1772807483649828900,1.195828857421875,-0.0032061797101050615,-0.017832260578870773,0.02173086255788803
1772807483659761000,1.205760986328125,-0.006588927004486322,-0.014687599614262581,0.034281276166439056
1772807483669692000,1.21569189453125,-0.005173190496861935,-0.006462426856160164,0.04324787110090256
1772807483679624000,1.2256240234375,-0.007136206608265638,-0.0059875850565731525,0.050705522298812866
1772807483689556000,1.235555908203125,-0.012166917324066162,-0.0030059099663048983,0.06127667427062988
1772807483699488000,1.245488037109375,-0.01685141772031784,0.005097290500998497,0.06995484977960587
1772807483709420000,1.255419921875,-0.020867731422185898,0.0041366880759596825,0.06806480139493942
1772807483719352000,1.26535205078125,-0.020956413820385933,0.0012370382901281118,0.06173047423362732
1772807483729283800,1.275283935546875,-0.020591827109456062,-0.006291984114795923,0.06124737858772278
1772807483739216000,1.2852158203125,-0.024104271084070206,-0.015692144632339478,0.061656173318624496
1772807483749148000,1.29514794921875,-0.02809501811861992,-0.023386815562844276,0.06764029711484909
1772807483759080000,1.305079833984375,-0.030598655343055725,-0.0315890833735466,0.0705825537443161
1772807483769012000,1.315011962890625,-0.03154247999191284,-0.03707413002848625,0.07322946935892105
1772807483778944000,1.324944091796875,-0.03281600400805473,-0.036262933164834976,0.07285263389348984
1772807483788875800,1.334875732421875,-0.03190040960907936,-0.03629542142152786,0.07511339336633682
1772807483798807800,1.344807861328125,-0.03290734812617302,-0.0385841429233551,0.07517863810062408
1772807483808739800,1.35473974609375,-0.031558193266391754,-0.03749997168779373,0.08060695976018906
1772807483818671900,1.364671875,-0.029404494911432266,-0.041429199278354645,0.08484884351491928
1772807483828604000,1.37460400390625,-0.025416942313313484,-0.044736046344041824,0.08533407002687454
1772807483838535700,1.38453564453125,-0.02321903593838215,-0.039024632424116135,0.07869481295347214
1772807483848467700,1.3944677734375,-0.019207250326871872,-0.0397612601518631,0.07107151299715042
1772807483858399700,1.404399658203125,-0.016758207231760025,-0.02377297356724739,0.05519001930952072
1772807483868332000,1.41433203125,-0.02677861787378788,-0.039927441626787186,0.0549338236451149
1772807483878264000,1.42426416015625,-0.041729602962732315,-0.05074573680758476,0.0635712519288063
1772807483888196000,1.434196044921875,-0.048711348325014114,-0.04155862703919411,0.07078681886196136
1772807483898128000,1.4441279296875,-0.05741428956389427,-0.03411376103758812,0.08442753553390503
1772807483908060000,1.454059814453125,-0.057914700359106064,-0.03858094662427902,0.09142152220010757
1772807483917992000,1.463991943359375,-0.05950700119137764,-0.040937844663858414,0.08712371438741684
1772807483927924000,1.473924072265625,-0.05680602416396141,-0.041906438767910004,0.0710427537560463
1772807483937856000,1.48385595703125,-0.05685156583786011,-0.06003324314951897,0.04664260149002075
1772807483947788000,1.4937880859375,-0.05523742362856865,-0.07162598520517349,0.032352615147829056
1772807483957719800,1.5037197265625,-0.044560544192790985,-0.07770677655935287,0.027426298707723618
1772807483967651800,1.51365185546875,-0.0347696989774704,-0.08290926367044449,0.03501896932721138
1772807483977583900,1.523583984375,-0.02990836463868618,-0.10363584756851196,0.06807652115821838
1772807483987516000,1.533515869140625,-0.017350761219859123,-0.10923115164041519,0.10489153116941452
1772807483997448000,1.543447998046875,-0.007648598402738571,-0.12613317370414734,0.1280900537967682
1772807484007380000,1.5533798828125,-0.00003355582884978503,-0.1267656683921814,0.13195669651031494
1772807484017311700,1.563311767578125,0.010840930044651031,-0.10524093359708786,0.10622550547122955
1772807484027242800,1.57324267578125,0.024992434307932854,-0.08402592688798904,0.06173153966665268
1772807484037174800,1.5831748046875,0.03629915043711662,-0.056121326982975006,0.009139702655375004
1772807484047106600,1.5931064453125,0.03899453580379486,-0.037642981857061386,-0.03791143000125885
1772807484057038600,1.60303857421875,0.03843554109334946,-0.034153975546360016,-0.07064247876405716
1772807484066970600,1.612970703125,0.028797825798392296,-0.035108450800180435,-0.0780564546585083
1772807484076902700,1.622902587890625,0.022660838440060616,-0.0439155250787735,-0.0766654834151268
1772807484086834700,1.632834716796875,0.020953219383955002,-0.040289100259542465,-0.07312401384115219
1772807484096766700,1.6427666015625,0.016222646459937096,-0.026388464495539665,-0.0665111169219017
1772807484106698500,1.652698486328125,0.01076849177479744,-0.01912815496325493,-0.06551722437143326
1772807484116630500,1.662630615234375,0.0032924660481512547,-0.01543328445404768,-0.06642669439315796
1772807484126562600,1.6725625,-0.005874933209270239,-0.022655777633190155,-0.06643122434616089
1772807484136494600,1.68249462890625,-0.010251305997371674,-0.017858892679214478,-0.07154315710067749
1772807484146426600,1.692426513671875,-0.009314139373600483,-0.021522868424654007,-0.06863418966531754
1772807484156358700,1.702358642578125,-0.007840346544981003,-0.021330589428544044,-0.063566192984581
1772807484166290400,1.71229052734375,0.002626675646752119,-0.015510516241192818,-0.06249932944774628
1772807484176222500,1.722222412109375,0.009225722402334213,-0.0038693067617714405,-0.05511518195271492
1772807484186154500,1.732154541015625,0.014062821865081787,-0.0014117417158558965,-0.030653515830636024
1772807484196086500,1.74208642578125,0.009525327943265438,0.0033007217571139336,-0.0092334458604455
1772807484206018600,1.7520185546875,0.005875465925782919,-0.01215653121471405,0.002910036128014326
1772807484215950800,1.761950927734375,-0.0010309095960110426,-0.016145413741469383,0.014240454882383347
1772807484225882600,1.771882568359375,-0.010036388412117958,-0.034393128007650375,0.018450113013386726
1772807484235814700,1.781814697265625,-0.0180509053170681,-0.03911571204662323,0.02165789157152176
1772807484245746700,1.79174658203125,-0.022121014073491096,-0.04207608103752136,0.02629152499139309
1772807484255678700,1.8016787109375,-0.022011026740074158,-0.04772517830133438,0.026486467570066452
1772807484265610800,1.81161083984375,-0.018451178446412086,-0.05028234422206879,0.0314098559319973
1772807484275542500,1.82154248046875,-0.01498241163790226,-0.051662661135196686,0.03038187325000763
1772807484285474600,1.831474609375,-0.0036077843979001045,-0.04415041580796242,0.029267873615026474
1772807484295406600,1.841406494140625,0.005745237227529287,-0.035950545221567154,0.03159947320818901
1772807484305338600,1.851338623046875,0.010087521746754646,-0.026933345943689346,0.03826802596449852
1772807484315270700,1.861270751953125,0.016498815268278122,-0.01876649633049965,0.04035887494683266
1772807484325202700,1.87120263671875,0.011216968297958374,-0.010460097342729568,0.043724045157432556
1772807484335134500,1.881134521484375,0.008495749905705452,-0.004965730011463165,0.049183789640665054
1772807484345066500,1.89106640625,0.0017539578257128596,-0.000059921123465755954,0.04120442643761635
1772807484354998500,1.90099853515625,-0.0031989889685064554,-0.001592037733644247,0.030118487775325775
1772807484364930600,1.9109306640625,-0.010691259987652302,-0.013093697838485241,0.019685819745063782
1772807484374861800,1.92086181640625,-0.013259346596896648,-0.015048191882669926,0.008235558867454529
1772807484384793600,1.930793701171875,-0.008784170262515545,-0.010510964319109917,0.00019041601626668125
1772807484394725600,1.9407255859375,-0.009867544285953045,0.00043010051012970507,0.0057649449445307255
1772807484404657700,1.95065771484375,-0.007842476479709148,0.005846437532454729,0.008485097438097
1772807484414589700,1.960589599609375,-0.008220645599067211,0.013500096276402473,0.011397263966500759
1772807484424521700,1.970521728515625,-0.008954878896474838,0.02039502002298832,0.019150525331497192
1772807484434453800,1.980453857421875,-0.014240188524127007,0.022464295849204063,0.02069595642387867
1772807484444385500,1.990385498046875,-0.012448679655790329,0.016054600477218628,0.016532104462385178
1772807484454317600,2.000317626953125,-0.014868960715830326,0.01335921511054039,0.008156996220350266
1772807484464249600,2.01024951171875,-0.01275547593832016,0.021472269669175148,0.011143730953335762
1772807484474181600,2.020181640625,-0.008342085406184196,0.027607925236225128,0.011020959354937077
1772807484484113700,2.03011376953125,-0.007349791936576366,0.038726091384887695,0.012620986439287663
1772807484494045400,2.04004541015625,-0.0017185378819704056,0.04405560716986656,0.01829405315220356
1772807484503977500,2.0499775390625,0.00010652644414221868,0.05247386172413826,0.029440978541970253
1772807484513909500,2.059909423828125,-0.0016487629618495703,0.048712678253650665,0.027221500873565674
1772807484523841500,2.069841552734375,-0.004087952431291342,0.04509131237864494,0.019508985802531242
1772807484533773600,2.079773681640625,-0.006202768534421921,0.04105555638670921,0.014522217214107513
1772807484543705600,2.08970556640625,-0.013659353367984295,0.03471536934375763,0.012526976875960827
1772807484553637600,2.0996376953125,-0.018865833058953285,0.03003193438053131,0.018485266715288162
1772807484563569700,2.109569580078125,-0.02034655027091503,0.032884713262319565,0.023247266188263893
1772807484573501700,2.119501708984375,-0.01967330276966095,0.037642981857061386,0.021286912262439728
1772807484583433700,2.129433837890625,-0.016507070511579514,0.044267863035202026,0.019164374098181725
1772807484593365800,2.13936572265625,-0.013283847831189632,0.050100184977054596,0.03280268609523773
1772807484603297800,2.1492978515625,-0.013410613872110844,0.05225148797035217,0.04913904890418053
1772807484613229600,2.1592294921875,-0.014822621829807758,0.056228652596473694,0.06332757323980331
1772807484623161600,2.16916162109375,-0.019399797543883324,0.050030142068862915,0.07043422013521194
1772807484633093600,2.17909375,-0.024940503761172295,0.04416586458683014,0.06530123949050903
1772807484643025700,2.189025634765625,-0.02420147694647312,0.03876417502760887,0.056166864931583405
1772807484652957700,2.198957763671875,-0.027523769065737724,0.037513818591833115,0.052082907408475876
1772807484662889700,2.2088896484375,-0.031092671677470207,0.04308009147644043,0.05789126455783844
1772807484672821500,2.218821533203125,-0.03483228385448456,0.043049465864896774,0.06780488044023514
1772807484682753500,2.22875341796875,-0.039994820952415466,0.04649985581636429,0.07187685370445251
1772807484692685600,2.238685546875,-0.03749118372797966,0.046417832374572754,0.07047363370656967
1772807484702617600,2.24861767578125,-0.03911864012479782,0.04741891473531723,0.07114901393651962
1772807484712549600,2.258549560546875,-0.040885381400585175,0.04651716724038124,0.07848308980464935
1772807484722481700,2.268481689453125,-0.040278445929288864,0.051123373210430145,0.08423445373773575
1772807484732413400,2.278413330078125,-0.04221802577376366,0.049682602286338806,0.07979229837656021
1772807484742345500,2.288345458984375,-0.03874846175312996,0.04657842218875885,0.0666796937584877
1772807484752277500,2.298277587890625,-0.037701305001974106,0.04380420595407486,0.05091644451022148
1772807484762209500,2.30820947265625,-0.04102173447608948,0.038171086460351944,0.0554874949157238
1772807484772140500,2.318140625,-0.03913382068276405,0.03519713506102562,0.06487061083316803
1772807484782072600,2.328072509765625,-0.04078071936964989,0.03272492438554764,0.0692238137125969
1772807484792004600,2.338004638671875,-0.04289953038096428,0.03626932576298714,0.05760124325752258
1772807484801936600,2.3479365234375,-0.042330678552389145,0.019511116668581963,0.0508277602493763
1772807484811868700,2.35786865234375,-0.0422917976975441,0.00024474450037814677,0.048459943383932114
1772807484821800700,2.36780078125,-0.042693935334682465,-0.015777364373207092,0.0411173440515995
1772807484831732500,2.377732421875,-0.03586452454328537,-0.028114724904298782,0.028958413749933243
1772807484841664500,2.38766455078125,-0.021151624619960785,-0.021924206987023354,-0.001110005541704595
1772807484851596500,2.397596435546875,-0.00012889699428342283,-0.009602559730410576,-0.02984924241900444
1772807484861528600,2.407528564453125,0.015691079199314117,0.004632302559912205,-0.05230208486318588
1772807484871460600,2.417460693359375,0.027413781732320786,0.003498594742268324,-0.06370361149311066
1772807484881392600,2.427392578125,0.04031013697385788,0.0012663330417126417,-0.058695536106824875
1772807484891324400,2.437324462890625,0.04727803170681,0.0014988270122557878,-0.04928472638130188
1772807484901256400,2.44725634765625,0.04921841248869896,0.0026612968649715185,-0.0524541512131691
1772807484911188500,2.4571884765625,0.05235375091433525,0.01477521751075983,-0.05258890986442566
1772807484921120800,2.467120849609375,0.051004063338041306,0.01877741515636444,-0.058692339807748795
1772807484931052800,2.477052734375,0.04681144654750824,0.01882854849100113,-0.07365237921476364
1772807484940984800,2.48698486328125,0.044734179973602295,0.0195476021617651,-0.09855054318904877
1772807484950916600,2.49691650390625,0.042640671133995056,0.020649883896112442,-0.11934636533260345
1772807484960848600,2.5068486328125,0.0377335287630558,0.018724951893091202,-0.1312086135149002
1772807484970780700,2.51678076171875,0.03251107037067413,0.017315873876214027,-0.13528911769390106
1772807484980712700,2.526712646484375,0.029517944902181625,0.013935789465904236,-0.13672029972076416
1772807484990644700,2.536644775390625,0.023007314652204514,0.0062637547962367535,-0.13127999007701874
1772807485000576500,2.546576416015625,0.0166745837777853,0.005007009021937847,-0.12923336029052734
1772807485010508500,2.556508544921875,0.011185276322066784,0.0015792545164003968,-0.11659372597932816
1772807485020440300,2.5664404296875,0.007503989152610302,0.0037529265973716974,-0.10590193420648575
1772807485030372400,2.576372314453125,0.0026413232553750277,0.0033044503070414066,-0.09297521412372589
1772807485040304400,2.586304443359375,0.002867958042770624,-0.0018761969404295087,-0.08461342006921768
1772807485050236400,2.596236328125,-0.0013960290234535933,-0.007162039168179035,-0.07747109234333038
1772807485060168200,2.606168212890625,-0.0065077003091573715,-0.029511019587516785,-0.06502560526132584
1772807485070100200,2.616100341796875,-0.009126386605203152,-0.032330241054296494,-0.04996276646852493
1772807485080032300,2.6260322265625,-0.0065140919759869576,-0.030345655977725983,-0.0220352616161108
1772807485089964300,2.63596435546875,-0.004483165219426155,-0.028415396809577942,0.005018194206058979
1772807485099896300,2.645896240234375,0.0012996225850656629,-0.021701833233237267,0.024710405617952347
1772807485109828400,2.655828369140625,0.007398261222988367,-0.013762683607637882,0.028189294040203094
1772807485119760400,2.665760498046875,0.011159444227814674,-0.014224476180970669,0.023499200120568275
1772807485129692400,2.6756923828125,0.014939268119633198,-0.01267132069915533,0.014598117209970951
1772807485139624400,2.68562451171875,0.020592892542481422,-0.0037926076911389828,0.00923317950218916
1772807485149556500,2.695556396484375,0.02701670303940773,0.010787134058773518,0.006256031803786755
1772807485159488500,2.705488525390625,0.027783693745732307,0.023069366812705994,0.00008468852320220321
1772807485169420300,2.715420166015625,0.024574585258960724,0.030364563688635826,-0.011363708414137363
1772807485179352300,2.725352294921875,0.02394155226647854,0.03382134810090065,-0.02900821529328823
1772807485189283300,2.735283447265625,0.017648767679929733,0.026698188856244087,-0.04621409997344017
1772807485199215400,2.74521533203125,0.012169580906629562,0.025849707424640656,-0.058514975011348724
1772807485209147400,2.7551474609375,0.012267318554222584,0.022410500794649124,-0.05962258204817772
1772807485219079200,2.7650791015625,0.00851439218968153,0.025856098160147667,-0.061167482286691666
1772807485229011200,2.77501123046875,0.006674148142337799,0.033780332654714584,-0.06150144338607788
1772807485238943200,2.784943115234375,0.00033955302205868065,0.029743514955043793,-0.055642224848270416
1772807485248875300,2.794875244140625,-0.004540689755231142,0.03569834306836128,-0.046062301844358444
1772807485258807300,2.804807373046875,-0.010448645800352097,0.03795803338289261,-0.04267396032810211
1772807485268739600,2.814739501953125,-0.00872211903333664,0.039201464504003525,-0.040280044078826904
1772807485278671400,2.82467138671875,-0.011596201919019222,0.04441114142537117,-0.03905818611383438
1772807485288603400,2.834603271484375,-0.008796154521405697,0.03526371344923973,-0.03608716279268265
1772807485298535400,2.844535400390625,-0.01002147514373064,0.029265210032463074,-0.0386296845972538
1772807485308467500,2.854467529296875,-0.0050687943585217,0.019836289808154106,-0.031318508088588715
1772807485318399500,2.8643994140625,-0.002344913315027952,0.020119382068514824,-0.013303820975124836
1772807485328331500,2.87433154296875,0.001865011639893055,0.020061591640114784,0.010922156274318695
1772807485338263300,2.88426318359375,0.004365986213088036,0.019508719444274902,0.025108816102147102
1772807485348195300,2.8941953125,0.011636416427791119,0.013846573419868946,0.027663318440318108
1772807485358127400,2.90412744140625,0.00806245394051075,0.007163104135543108,0.01967037469148636
1772807485368059400,2.914059326171875,0.010144246742129326,0.004246943164616823,0.007986021228134632
1772807485377991400,2.923991455078125,0.013200490735471249,0.00012144014181103557,-0.0025979136116802692
1772807485387923500,2.93392333984375,0.013525662012398243,-0.0111045828089118,0.00045593318645842373
1772807485397855200,2.943855224609375,0.017076987773180008,-0.018311629071831703,0.002671683207154274
1772807485407787300,2.953787353515625,0.01653982885181904,-0.02184777520596981,0.0005749764968641102
1772807485417719300,2.96371923828125,0.022278673946857452,-0.029688918963074684,-0.011453457176685333
1772807485427651300,2.9736513671875,0.025366077199578285,-0.03237445279955864,-0.03152383863925934
1772807485437583400,2.983583251953125,0.02857412025332451,-0.028966404497623444,-0.05341688543558121
1772807485447515100,2.99351513671875,0.029044168069958687,-0.03379444777965546,-0.05970194563269615
1772807485457447200,3.003447265625,0.035160649567842484,-0.023904267698526382,-0.05744491517543793
1772807485467379500,3.01337939453125,0.040277380496263504,-0.0015488944482058287,-0.052859220653772354
1772807485477311500,3.0233115234375,0.03993622958660126,0.004881840664893389,-0.04423084482550621
1772807485487243500,3.033243408203125,0.03484240174293518,0.008839298039674759,-0.031153658404946327
1772807485497175600,3.043175537109375,0.032885778695344925,0.019395802170038223,-0.028659075498580933
1772807485507107300,3.053107421875,0.030654847621917725,0.027959994971752167,-0.03369351476430893
1772807485517039400,3.063039306640625,0.02605077438056469,0.03682459518313408,-0.03747813403606415
1772807485526971400,3.072971435546875,0.027341077104210854,0.058040931820869446,-0.04548918828368187
1772807485536903400,3.0829033203125,0.02629045955836773,0.06628980487585068,-0.04276876896619797
1772807485546835500,3.09283544921875,0.025711487978696823,0.0697159618139267,-0.04324733838438988
1772807485556767500,3.102767578125,0.027104588225483894,0.07272373884916306,-0.0401170589029789
1772807485566699300,3.11269921875,0.022828882560133934,0.07428301870822906,-0.03538089245557785
1772807485576631300,3.12263134765625,0.01648097299039364,0.07457197457551956,-0.04548226296901703
1772807485586563300,3.132563232421875,0.014985607005655766,0.07506731897592545,-0.05098675191402435
1772807485596495400,3.142495361328125,0.010582869872450829,0.065965436398983,-0.055812932550907135
1772807485606427400,3.152427490234375,0.01128194946795702,0.06514118611812592,-0.06308495998382568
1772807485616359400,3.162359375,0.0071069118566811085,0.06254646927118301,-0.06119517982006073
1772807485626291200,3.172291259765625,0.007988950237631798,0.04638161137700081,-0.05777940899133682
1772807485636223200,3.18222314453125,0.01007793378084898,0.043308325111866,-0.05139954015612602
1772807485646155300,3.1921552734375,0.010496849194169044,0.040349021553993225,-0.0504077784717083
1772807485656086500,3.20208642578125,0.007194796111434698,0.036854688078165054,-0.04386598989367485
1772807485666018300,3.212018310546875,0.007769239600747824,0.031089209020137787,-0.040236104279756546
1772807485675950300,3.221950439453125,0.007665909361094236,0.030423153191804886,-0.039078958332538605
1772807485685882400,3.23188232421875,0.00660410663112998,0.02707316353917122,-0.03988989070057869
1772807485695814400,3.241814453125,0.01619068719446659,0.032593097537755966,-0.048528652638196945
1772807485705746400,3.251746337890625,0.03098694421350956,0.041190847754478455,-0.07010798156261444
1772807485715678500,3.261678466796875,0.0470639131963253,0.044249486178159714,-0.09297654777765274
1772807485725610200,3.2716103515625,0.0533609576523304,0.038607314229011536,-0.1097898781299591
1772807485735542300,3.281542236328125,0.06483598798513412,0.0347241573035717,-0.11285251379013062
1772807485745474300,3.291474365234375,0.07586786895990372,0.029691582545638084,-0.09497418254613876
1772807485755406300,3.30140625,0.08352791517972946,0.03178056702017784,-0.078631691634655
1772807485765338400,3.31133837890625,0.08901509642601013,0.029825540259480476,-0.06035708263516426
1772807485775270400,3.3212705078125,0.0857258215546608,0.020054135471582413,-0.05670296028256416
1772807485785202200,3.3312021484375,0.0815153643488884,0.029219403862953186,-0.06393157690763474
1772807485795134200,3.34113427734375,0.07529022544622421,0.014298511669039726,-0.07917604595422745
1772807485805066200,3.351066162109375,0.07161692529916763,0.034977689385414124,-0.09222979843616486
1772807485814998300,3.360998291015625,0.06394169479608536,0.03135525807738304,-0.10072688013315201
1772807485824930300,3.370930419921875,0.05667659640312195,0.03063514083623886,-0.10147202759981155
1772807485834862600,3.380862548828125,0.051359593868255615,0.03231240063905716,-0.09878170490264893
1772807485844794400,3.39079443359375,0.04482073336839676,0.02154976688325405,-0.08673329651355743
1772807485854726400,3.400726318359375,0.04506148397922516,0.0212435033172369,-0.08292950689792633
1772807485864658400,3.410658447265625,0.04162893444299698,0.02257721498608589,-0.08108872920274734
1772807485874590500,3.420590576171875,0.04382497817277908,0.02522199973464012,-0.08287011831998825
1772807485884522500,3.4305224609375,0.03261546790599823,0.02887825295329094,-0.07498955726623535
1772807485894454500,3.44045458984375,0.03134780377149582,0.02117292955517769,-0.06523359566926956
1772807485904386300,3.45038623046875,0.02767476998269558,0.022156700491905212,-0.04597761109471321
1772807485914318300,3.460318359375,0.023140473291277885,0.028985312208533287,-0.03449033200740814
1772807485924250400,3.47025048828125,0.013639379292726517,0.03284556418657303,-0.03268231078982353
1772807485934182400,3.480182373046875,0.008165517821907997,0.033001624047756195,-0.03550552949309349
1772807485944114400,3.490114501953125,-0.0031097731553018093,0.023273097351193428,-0.0410800576210022
1772807485954046200,3.500046142578125,-0.00583844818174839,0.014143249951303005,-0.04440155252814293
1772807485963978200,3.509978271484375,-0.010481403209269047,0.008441687561571598,-0.0493643544614315
1772807485973910300,3.51991015625,-0.014572817832231522,0.004397677723318338,-0.0543532520532608
1772807485983842300,3.52984228515625,-0.014722486957907677,-0.007754858583211899,-0.044076912105083466
1772807485993774300,3.5397744140625,-0.015033544041216373,-0.00899962056428194,-0.05245521664619446
1772807486003706400,3.549706298828125,-0.001347293145954609,0.010149306617677212,-0.030537402257323265
1772807486013638100,3.55963818359375,-0.0009065400226972997,0.009369000792503357,-0.010386594571173191
1772807486023570400,3.5695703125,0.0014684670604765415,0.017300160601735115,0.012292086146771908
1772807486033502500,3.57950244140625,0.006925550289452076,0.018455173820257187,0.03861530125141144
1772807486043434500,3.5894345703125,0.0091732582077384,0.012774118222296238,0.056590575724840164
1772807486053366500,3.599366455078125,0.01998009905219078,0.02250956930220127,0.058107245713472366
1772807486063298600,3.609298583984375,0.02508750930428505,0.024835042655467987,0.052076518535614014
1772807486073230600,3.619230712890625,0.029470540583133698,0.021684255450963974,0.03910745680332184
1772807486083162600,3.62916259765625,0.022999592125415802,0.018074607476592064,0.02605929784476757
1772807486093094700,3.6390947265625,0.02273647114634514,0.00646615494042635,0.02111380733549595
1772807486103026400,3.6490263671875,0.02316444180905819,0.00839721318334341,0.023667512461543083
1772807486112958500,3.65895849609375,0.026756778359413147,0.013174657709896564,0.024439295753836632
1772807486122890500,3.668890380859375,0.03031875751912594,0.022976955398917198,0.01985359936952591
1772807486132822500,3.678822509765625,0.032236497849226,0.02287442237138748,0.013745905831456184
1772807486142754600,3.688754638671875,0.02738022617995739,0.01919233612716198,0.008157528936862946
1772807486152686600,3.6986865234375,0.02418017014861107,0.012897955253720284,0.004229366313666105
1772807486162618400,3.708618408203125,0.021311946213245392,0.007065100129693747,-0.001252484624274075
1772807486172550400,3.71855029296875,0.019541477784514427,0.004543352872133255,-0.010096309706568718
1772807486182482400,3.728482421875,0.012686500325798988,-0.004846420604735613,-0.017679128795862198
1772807486192414500,3.73841455078125,0.012090750969946384,-0.005963616538792849,-0.02268507145345211
1772807486202346500,3.748346435546875,0.013523265719413757,-0.003591539105400443,-0.02773522399365902
1772807486212278300,3.7582783203125,0.016094014048576355,0.006609166972339153,-0.02564038150012493
1772807486222209500,3.76820947265625,0.01642770878970623,0.012035357765853405,-0.02575436607003212
1772807486232141600,3.7781416015625,0.021930865943431854,0.01053253561258316,-0.022780945524573326
1772807486242073600,3.788073486328125,0.019331352785229683,0.00794607400894165,-0.016714265570044518
1772807486252005600,3.798005615234375,0.020129503682255745,0.012592490762472153,-0.021277058869600296
1772807486261937400,3.8079375,0.019028818234801292,-0.0033281524665653706,-0.020177174359560013
1772807486271869400,3.817869384765625,0.011756524443626404,-0.006725813262164593,-0.014120878651738167
1772807486281801500,3.827801513671875,0.013613280840218067,-0.004395014606416225,-0.015663648024201393
1772807486291733500,3.8377333984375,0.013605291023850441,-0.003436276689171791,-0.015215704217553139
1772807486301665500,3.84766552734375,0.010998322628438473,-0.000464188982732594,-0.011847604997456074
1772807486311597600,3.85759765625,0.011006845161318779,0.006187322083860636,-0.0047058057971298695
1772807486321529300,3.867529296875,0.005030444823205471,0.01136770285665989,0.0027803401462733746
1772807486331461400,3.87746142578125,0.008725847117602825,0.01654062792658806,0.010968495160341263
1772807486341393400,3.887393310546875,0.010422547347843647,0.012485697865486145,0.02039262279868126
1772807486351325400,3.897325439453125,0.009301888756453991,0.00794154591858387,0.02666436694562435
1772807486361257500,3.907257568359375,0.006051500793546438,-0.001698830397799611,0.024707477539777756
1772807486371189500,3.917189453125,0.004935902543365955,-0.014349112287163734,0.02329360507428646
1772807486381121300,3.927121337890625,0.006911701988428831,-0.015223427675664425,0.021759623661637306
1772807486391053300,3.93705322265625,0.0062246061861515045,-0.01625806652009487,0.01215919479727745
1772807486400985600,3.946985595703125,0.009620669297873974,-0.010235860012471676,0.0012988236267119646
1772807486410917600,3.956917724609375,0.010775149799883366,-0.005874933209270239,-0.001193362521007657
1772807486420849700,3.966849609375,0.008434231393039227,-0.007197459228336811,0.005714078433811665
1772807486430781700,3.97678173828125,0.009248625487089157,-0.0054608117789030075,0.006686931010335684
1772807486440713500,3.98671337890625,0.014899320900440216,-0.005033640656620264,0.013106481172144413
1772807486450644500,3.99664453125,0.005931125953793526,-0.012513660825788975,0.014625548385083675
1772807486460576500,4.006576416015625,0.015189073048532009,-0.011148790828883648,0.027359452098608017
1772807486470508500,4.016508544921875,0.01008113007992506,-0.0038314899429678917,0.022474948316812515
1772807486480440300,4.0264404296875,0.01019830908626318,-0.004282363224774599,0.03027108684182167
1772807486490372400,4.036372314453125,0.009812682867050171,-0.007848868146538734,0.029378661885857582
1772807486500304400,4.046304443359375,0.010551710613071918,-0.001326786819845438,0.030416760593652725
1772807486510236400,4.056236328125,0.004956408869475126,-0.01065024733543396,0.03693298250436783
1772807486520168400,4.06616845703125,-0.0025449167005717754,-0.015808524563908577,0.04559358209371567
1772807486530100500,4.0761005859375,-0.0018793927738443017,-0.022908776998519897,0.06115150451660156
1772807486540032500,4.086032470703125,-0.00689119566231966,-0.015370966866612434,0.07429420202970505
1772807486549964500,4.095964599609375,-0.010931743308901787,-0.005914880894124508,0.07569955289363861
1772807486559896600,4.105896484375,-0.012558668851852417,-0.0057494984939694405,0.08465656638145447
1772807486569828600,4.11582861328125,-0.012741894461214542,-0.004984105937182903,0.0815579742193222
1772807486579759600,4.125759521484375,-0.01606152392923832,-0.008013451471924782,0.07943916320800781
1772807486589691400,4.13569140625,-0.020713267847895622,-0.0070251524448394775,0.06834470480680466
1772807486599623400,4.14562353515625,-0.018313759937882423,0.007690143771469593,0.05067356303334236
1772807486609555500,4.155555419921875,-0.016148610040545464,0.006428604479879141,0.0388089157640934
1772807486619487500,4.165487548828125,-0.020374247804284096,-0.0025688852183520794,0.025374332442879677
1772807486629419500,4.17541943359375,-0.016083361580967903,-0.005592105444520712,0.02002670429646969
1772807486639351300,4.185351318359375,-0.01461915671825409,-0.00029827404068782926,0.029832463711500168
1772807486649283300,4.195283447265625,-0.016511864960193634,-0.00765765318647027,0.03460884466767311
1772807486659215400,4.20521533203125,-0.021868014708161354,-0.010046775452792645,0.03945579752326012
1772807486669147400,4.2151474609375,-0.02239292301237583,-0.011636948212981224,0.04303481802344322
1772807486679079400,4.225079345703125,-0.01805783063173294,-0.012487029656767845,0.04833877086639404
1772807486689011500,4.235011474609375,-0.017293237149715424,-0.011759720742702484,0.05416044220328331
1772807486698943500,4.244943603515625,-0.016876984387636185,-0.0005965480813756585,0.04205184429883957
1772807486708875500,4.25487548828125,-0.005204349290579557,0.0046701193787157536,0.04176422581076622
1772807486718807600,4.2648076171875,-0.0018961706664413214,0.022416891530156136,0.03454279527068138
1772807486728739600,4.274739501953125,0.004309527110308409,0.020490894094109535,0.0294905137270689
1772807486738671600,4.284671630859375,0.003826163476333022,0.006783337332308292,0.03431509807705879
1772807486748603600,4.294603759765625,0.007138070650398731,0.020172646269202232,0.021289842203259468
1772807486758535400,4.304535400390625,0.007222226355224848,0.03063114546239376,0.00615163566544652
1772807486768467500,4.314467529296875,0.006305033806711435,0.021695708855986595,-0.0056890444830060005
1772807486778399500,4.3243994140625,0.005081311333924532,0.02135801874101162,-0.00538544449955225
1772807486788331500,4.33433154296875,-0.00013422331539914012,0.015748336911201477,-0.007903729565441608
1772807486798263600,4.344263671875,0.0015270565636456013,0.014449512585997581,-0.003743072971701622
1772807486808195600,4.354195556640625,-0.0022660838440060616,0.01619015447795391,-0.00803182739764452
1772807486818129700,4.364129638671875,-0.005316734779626131,0.014074273407459259,-0.016339026391506195
1772807486828061700,4.374061767578125,-0.006100503262132406,0.006521814968436956,-0.01810390315949917
1772807486837993500,4.383993408203125,-0.006235259119421244,0.0037470676470547915,-0.018216287717223167
1772807486847925500,4.393925537109375,-0.003148122690618038,0.003581951605156064,-0.018251707777380943
1772807486857857500,4.403857421875,-0.0054213968105614185,0.0056922403164207935,-0.01829245500266552
1772807486867789600,4.41378955078125,-0.005739378277212381,0.004055728204548359,-0.016618924215435982
1772807486877721600,4.4237216796875,-0.004387824330478907,0.0035601137205958366,-0.0075753615237772465
1772807486887653600,4.433653564453125,-0.005014466121792793,0.0001512675517005846,0.0038986015133559704
1772807486897585400,4.44358544921875,-0.007386809680610895,-0.0029678267892450094,0.015282549895346165
1772807486907517400,4.453517333984375,-0.007265902124345303,-0.004742024466395378,0.01937662810087204
1772807486917449500,4.463449462890625,-0.008052067831158638,-0.00344506511464715,0.019478360190987587
1772807486927381500,4.473381591796875,-0.009546900168061256,-0.007652326952666044,0.022227274253964424
1772807486937313500,4.4833134765625,-0.010332532227039337,-0.007041131611913443,0.0246086735278368
1772807486947245600,4.49324560546875,-0.009340238757431507,0.0018823222490027547,0.017317205667495728
1772807486957177300,4.50317724609375,-0.014103035442531109,0.005081844050437212,0.011396997608244419
1772807486967109400,4.513109375,-0.016235163435339928,-0.0018849853659048676,0.01324283517897129
1772807486977041400,4.52304150390625,-0.01889219880104065,-0.0075913406908512115,0.014956844970583916
1772807486986973400,4.532973388671875,-0.022183066233992577,-0.008383897133171558,0.018157431855797768
1772807486996905500,4.542905517578125,-0.020977187901735306,-0.010432400740683079,0.019900204613804817
1772807487006837200,4.552837158203125,-0.02147573046386242,-0.0027505126781761646,0.021812887862324715
1772807487016768500,4.5627685546875,-0.021644042804837227,-0.009058210067451,0.026193253695964813
1772807487026700300,4.5727001953125,-0.027570107951760292,-0.012435897253453732,0.02124723233282566
1772807487036633300,4.58263330078125,-0.024599086493253708,-0.007903196848928928,0.024332769215106964
1772807487046564000,4.592564208984375,-0.020183032378554344,-0.008105331100523472,0.022825421765446663
1772807487056496000,4.60249609375,-0.0208288487046957,-0.0052083441987633705,0.02299080230295658
1772807487066428200,4.61242822265625,-0.02033483237028122,0.0003885551996063441,0.01817314513027668
1772807487076360200,4.622360107421875,-0.019880497828125954,0.00227806787006557,0.016390157863497734
1772807487086292200,4.632292236328125,-0.019047461450099945,0.0057375142350792885,0.009367136284708977
1772807487096224000,4.64222412109375,-0.018933743238449097,0.005059739574790001,0.004195810295641422
1772807487106156000,4.652156005859375,-0.02340785413980484,0.0059684100560843945,0.011974903754889965
1772807487116088000,4.662088134765625,-0.024958346039056778,0.0111647704616189,0.021138841286301613
1772807487126020000,4.67202001953125,-0.02262887917459011,0.024937041103839874,0.025320537388324738
1772807487135952100,4.6819521484375,-0.02002537250518799,0.03700622171163559,0.02316018007695675
1772807487145884200,4.69188427734375,-0.02099582925438881,0.04691983759403229,0.019847474992275238
1772807487155816200,4.701816162109375,-0.020479975268244743,0.05607258901000023,0.021918881684541702
1772807487165748200,4.711748291015625,-0.020804613828659058,0.0748545303940773,0.024219052866101265
1772807487175680300,4.72168017578125,-0.024958878755569458,0.08938633650541306,0.02588459476828575
1772807487185612300,4.7316123046875,-0.02617621049284935,0.09726876020431519,0.029826605692505836
1772807487195544300,4.74154443359375,-0.02931181527674198,0.09941393882036209,0.023867782205343246
1772807487205476000,4.75147607421875,-0.030166158452630043,0.0954120084643364,0.016030365601181984
1772807487215408000,4.761408203125,-0.02840234711766243,0.09085720032453537,0.008279235102236271
1772807487225340200,4.771340087890625,-0.025139175355434418,0.09328893572092056,0.010154899209737778
1772807487235272200,4.781272216796875,-0.02785639837384224,0.10236791521310806,0.009868343360722065
1772807487245204200,4.791204345703125,-0.026860110461711884,0.10332692414522171,0.021579060703516006
1772807487255136300,4.80113623046875,-0.025611620396375656,0.10696905851364136,0.03882675617933273
1772807487265068000,4.811068115234375,-0.023324230685830116,0.10703244060277939,0.05721775069832802
1772807487275000000,4.821,-0.02339746803045273,0.10816242545843124,0.07227792590856552
1772807487284932000,4.83093212890625,-0.022476812824606895,0.08325520902872086,0.07558344304561615
1772807487294864100,4.840864013671875,-0.02112925425171852,0.05669443681836128,0.06401626765727997
1772807487304796200,4.850796142578125,-0.02064429223537445,0.025047563016414642,0.04506414756178856
1772807487314728200,4.860728271484375,-0.029416212812066078,-0.0009664611425250769,0.02485981024801731
1772807487324660000,4.870659912109375,-0.025015071034431458,-0.013794641941785812,0.01197809912264347
1772807487334592000,4.880592041015625,-0.024100009351968765,-0.021558554843068123,0.011956261470913887
1772807487344524000,4.89052392578125,-0.020110061392188072,-0.028244687244296074,0.01739923097193241
1772807487354456000,4.9004560546875,-0.015721971169114113,-0.026330674067139626,0.01972869783639908
1772807487364388400,4.910388427734375,-0.007684018462896347,-0.011109376326203346,0.01853373646736145
1772807487374320400,4.9203203125,-0.0034059167373925447,0.00007004113285802305,0.006388923618942499
1772807487384252200,4.930252197265625,0.004197674337774515,0.016038620844483376,0.0023963123094290495
1772807487394184200,4.94018408203125,0.0030839405953884125,0.03280055522918701,0.006998787168413401
1772807487404116200,4.9501162109375,0.0033622407354414463,0.05150633305311203,0.011287275701761246
1772807487414048300,4.96004833984375,-0.00004021373388241045,0.06149718165397644,0.015239140018820763
1772807487423980300,4.969980224609375,0.000010386328540334944,0.06077999249100685,0.018200309947133064
1772807487433912000,4.979912109375,-0.006269347388297319,0.06853591650724411,0.01600613072514534
1772807487443844000,4.989843994140625,-0.009123989380896091,0.0742579847574234,0.011899802833795547
1772807487453776100,4.999776123046875,-0.014929947443306446,0.07645242661237717,0.008900816552340984
1772807487463708200,5.009708251953125,-0.025140773504972458,0.06903313100337982,-0.00018562232435215265
1772807487473640200,5.01964013671875,-0.03183409571647644,0.062063369899988174,-0.00239151855930686
1772807487483572200,5.029572265625,-0.036076776683330536,0.0588500015437603,-0.0009289105655625463
1772807487493504000,5.03950390625,-0.03778785839676857,0.05892590060830116,-0.002386725042015314
1772807487503436000,5.04943603515625,-0.0303184911608696,0.05249250307679176,0.0033534523099660873
1772807487513368000,5.0593681640625,-0.023569241166114807,0.055504005402326584,0.008170577697455883
1772807487523300000,5.069300048828125,-0.018375812098383904,0.05745450407266617,0.006591590121388435
1772807487533232000,5.079232177734375,-0.011492072604596615,0.05745770037174225,0.012321647256612778
1772807487543164200,5.0891640625,-0.009648632258176804,0.051110055297613144,0.014430604875087738
1772807487553096000,5.099095947265625,-0.00977406743913889,0.042576223611831665,0.014742461033165455
1772807487563028200,5.1090283203125,-0.009065399877727032,0.0284111350774765,0.012487296015024185
1772807487572960300,5.118960205078125,-0.013618340715765953,0.020005399361252785,0.008782838471233845
1772807487582892300,5.128892333984375,-0.013470535166561604,0.01648789644241333,0.012973056174814701
1772807487592824300,5.13882421875,-0.018153969198465347,0.02363954856991768,0.015981629490852356
1772807487602756400,5.14875634765625,-0.016943829134106636,0.03238324075937271,0.01990792714059353
1772807487612688100,5.158688232421875,-0.014342720620334148,0.04290006309747696,0.01896330527961254
1772807487622620200,5.1686201171875,-0.007976965978741646,0.05753440037369728,0.014256966300308704
1772807487632552200,5.17855224609375,-0.0022833943367004395,0.06505356729030609,0.010337858460843563
1772807487642484200,5.188484130859375,0.005311142187565565,0.0627235695719719,0.004649346694350243
1772807487652416300,5.198416259765625,0.006183593533933163,0.06112620607018471,-0.0006042712484486401
1772807487662348300,5.208348388671875,0.007602259516716003,0.05025118589401245,-0.007406517397612333
1772807487672280000,5.218280029296875,0.0075668394565582275,0.03538994863629341,-0.016447149217128754
1772807487682212000,5.228212158203125,0.0005619269795715809,0.023093601688742638,-0.01733930967748165
1772807487692144000,5.23814404296875,0.000401604687795043,0.023783626034855843,-0.019118301570415497
1772807487702076200,5.248076171875,-0.004201669245958328,0.026811640709638596,-0.01506736595183611
1772807487712008200,5.25800830078125,-0.005946039687842131,0.035534825176000595,-0.012747220695018768
1772807487721940000,5.26793994140625,-0.00330338510684669,0.04651051014661789,-0.009636647999286652
1772807487731872000,5.2778720703125,-0.004821120295673609,0.05174735188484192,-0.005794506054371595
1772807487741804000,5.287803955078125,-0.000850879936479032,0.04779309034347534,-0.0070187607780098915
1772807487751736000,5.297736083984375,-0.003961452282965183,0.04171788692474365,-0.0031989889685064554
1772807487761668000,5.307668212890625,0.0013142699608579278,0.02935975231230259,0.002094576135277748
1772807487771600100,5.31760009765625,0.0013792511308565736,0.02034175768494606,0.003632019041106105
1772807487781532200,5.3275322265625,0.0054727960377931595,0.010308030992746353,-0.002139317337423563
1772807487791464200,5.337464111328125,0.006016080733388662,0.002775546396151185,-0.009368201717734337
1772807487801396200,5.347396240234375,0.0037433390971273184,-0.0030056436080485582,-0.010814031586050987
1772807487811328300,5.357328369140625,0.004702077247202396,-0.007752461824566126,-0.015177621506154537
1772807487821260300,5.36726025390625,0.003165965899825096,-0.010571683757007122,-0.011736816726624966
1772807487831192300,5.3771923828125,0.0036482643336057663,-0.012990100309252739,-0.012326707132160664
1772807487841124000,5.3871240234375,0.003035204717889428,-0.0154354153200984,-0.0016881778137758374
1772807487851056000,5.39705615234375,0.00558092026039958,-0.017792578786611557,0.005083708092570305
1772807487860988200,5.40698828125,0.0044394894503057,-0.007535147946327925,0.011174623854458332
1772807487870920200,5.416920166015625,0.00962493009865284,-0.0027944548055529594,0.009987653233110905
1772807487880852200,5.426852294921875,0.015151788480579853,-0.0018434401135891676,0.009532252326607704
1772807487890784300,5.4367841796875,0.019627496600151062,-0.005723932292312384,0.012752546928822994
1772807487900716000,5.446716064453125,0.018245050683617592,-0.011456652544438839,0.009433981962502003
1772807487910648000,5.45664794921875,0.014507303945720196,-0.019299395382404327,0.0015592807903885841
1772807487920580000,5.466580078125,0.014927816577255726,-0.02484969049692154,-0.014397847466170788
1772807487930512100,5.47651220703125,0.013628194108605385,-0.034270357340574265,-0.033073265105485916
1772807487940444200,5.486444091796875,0.014495319686830044,-0.034812308847904205,-0.03898414969444275
1772807487950376000,5.4963759765625,0.016658606007695198,-0.03296194598078728,-0.04309633746743202
1772807487960308000,5.506307861328125,0.01642078533768654,-0.020120181143283844,-0.03918575122952461
1772807487970240000,5.516239990234375,0.019534286111593246,-0.007662447169423103,-0.035535089671611786
1772807487980172000,5.526172119140625,0.021617943421006203,0.0012658004416152835,-0.017360348254442215
1772807487990104300,5.536104248046875,0.022057631984353065,0.010046242736279964,-0.0036557212006300688
1772807488000036400,5.546036376953125,0.016807209700345993,0.010115218348801136,0.005561745725572109
1772807488009968000,5.555968017578125,0.015399728901684284,0.007719172164797783,-0.002704173792153597
1772807488019900200,5.565900146484375,0.007997206412255764,0.001967277145013213,-0.014377341605722904
1772807488029832400,5.57583251953125,0.003704457078129053,-0.006251237820833921,-0.02141501009464264
1772807488039764500,5.585764404296875,0.005268531385809183,-0.012914999388158321,-0.022408103570342064
1772807488049696500,5.595696533203125,0.006363090593367815,-0.010381268337368965,-0.02045094594359398
1772807488059628300,5.605628173828125,0.011831891722977161,-0.011084076017141342,-0.019965453073382378
1772807488069560300,5.615560302734375,0.015845010057091713,-0.011986088939011097,-0.014031928963959217
1772807488079492400,5.625492431640625,0.014940333552658558,-0.021286645904183388,-0.01023000106215477
1772807488089424400,5.63542431640625,0.01787140779197216,-0.024392424151301384,-0.007515174336731434
1772807488099356400,5.6453564453125,0.021373465657234192,-0.02618340030312538,-0.006856841035187244
1772807488109288400,5.655288330078125,0.02347523160278797,-0.028138427063822746,0.000529702752828598
1772807488119220200,5.66522021484375,0.022367356345057487,-0.020843496546149254,0.0019321233266964555
1772807488129152300,5.67515234375,0.02322036772966385,-0.02069089747965336,0.0014921691035851836
1772807488139084300,5.685084228515625,0.025964222848415375,-0.020792895928025246,-0.0036125779151916504
1772807488149016300,5.695016357421875,0.022832078859210014,-0.02708275057375431,-0.011493937112390995
1772807488158948400,5.7049482421875,0.01882535219192505,-0.035289548337459564,-0.019031215459108353
1772807488168880400,5.71488037109375,0.014005297794938087,-0.03581951558589935,-0.0199795663356781
1772807488178812200,5.724812255859375,0.01139779668301344,-0.03429405763745308,-0.02028609625995159
1772807488188744200,5.734744140625,0.010222543962299824,-0.027655063197016716,-0.019351327791810036
1772807488198676200,5.74467626953125,0.009846772067248821,-0.025420671328902245,-0.021759090945124626
1772807488208608500,5.7546083984375,0.009043029509484768,-0.025048894807696342,-0.024232368916273117
1772807488218540500,5.76454052734375,0.007246461231261492,-0.02484862506389618,-0.02743402123451233
1772807488228472600,5.77447265625,0.0073388731107115746,-0.024951688945293427,-0.0376238077878952
1772807488238404400,5.784404296875,0.00740358792245388,-0.023194801062345505,-0.03678491339087486
1772807488248336400,5.79433642578125,0.008505071513354778,-0.021942850202322006,-0.03160746023058891
1772807488258268400,5.804268310546875,0.010944260284304619,-0.022849921137094498,-0.016335297375917435
1772807488268200400,5.814200439453125,0.006417152937501669,-0.02287069521844387,-0.002424009144306183
1772807488278132500,5.824132568359375,0.0046480149030685425,-0.022309832274913788,0.007419033907353878
1772807488288064300,5.834064208984375,-0.00025007082149386406,-0.02455727383494377,0.007288539316505194
1772807488297996300,5.843996337890625,-0.0013512879377231002,-0.028690233826637268,0.007976699620485306
1772807488307928300,5.85392822265625,-0.0004809668753296137,-0.02744733728468418,0.004596616141498089
1772807488317860400,5.8638603515625,-0.004565190523862839,-0.02913391776382923,0.00446851784363389
1772807488327792400,5.87379248046875,-0.004004861693829298,-0.027873709797859192,0.01136743649840355
1772807488337724400,5.883724365234375,-0.00418249424546957,-0.025794045999646187,0.018810439854860306
1772807488347656200,5.89365625,-0.0029758161399513483,-0.016272712498903275,0.022882945835590363
1772807488357588200,5.903588134765625,-0.0011821772204712033,-0.01601465232670307,0.019166236743330956
1772807488367520300,5.913520263671875,-0.0016285229939967394,-0.012040417641401291,0.01350568886846304
1772807488377452300,5.923452392578125,-0.0026732811238616705,-0.01323990523815155,0.009830259718000889
1772807488387384300,5.93338427734375,-0.0006106628570705652,-0.012316853739321232,0.004281031433492899
1772807488397316400,5.94331640625,-0.004210457671433687,-0.015515842474997044,-0.0029915287159383297
1772807488407248400,5.953248291015625,-0.0057617491111159325,-0.014142450876533985,-0.009439574554562569
1772807488417180400,5.963180419921875,-0.006009423173964024,-0.008009989745914936,-0.009276056662201881
1772807488427112400,5.973112548828125,-0.0057106162421405315,-0.005781190004199743,-0.008194279856979847
1772807488437044500,5.98304443359375,-0.00631888210773468,-0.005401156842708588,-0.006701312027871609
1772807488446976500,5.9929765625,-0.006179066374897957,-0.010851582512259483,-0.005224589258432388
1772807488456908500,6.002908447265625,-0.009475793689489365,-0.018264757469296455,-0.0060022324323654175
1772807488466840300,6.01284033203125,-0.009322129189968109,-0.019275160506367683,-0.004292482975870371
1772807488476772400,6.0227724609375,-0.010946923866868019,-0.022793995216488838,-0.0011739213950932026
1772807488486704400,6.032704345703125,-0.00720464950427413,-0.020930316299200058,0.00030599720776081085
1772807488496636400,6.042636474609375,-0.0032107068691402674,-0.018506307154893875,-0.0002181128947995603
1772807488506568400,6.052568359375,-0.0029763488564640284,-0.02015293948352337,0.002900714986026287
1772807488516500500,6.06250048828125,-0.004705273080617189,-0.017975538969039917,0.004180896561592817
1772807488526432300,6.072432373046875,-0.0030032468494027853,-0.01618456281721592,0.014769092202186584
1772807488536364300,6.0823642578125,-0.006339388433843851,-0.018163291737437248,0.023731695488095284
1772807488546296300,6.09229638671875,-0.006440322380512953,-0.016223443672060966,0.024937573820352554
1772807488556228400,6.102228271484375,-0.011177287437021732,-0.015195997431874275,0.02213193289935589
1772807488566160400,6.112160400390625,-0.016220249235630035,-0.027055585756897926,0.02286563441157341
1772807488576092200,6.122092041015625,-0.015150190331041813,-0.03436995670199394,0.02237854339182377
1772807488586024200,6.132024169921875,-0.01914067193865776,-0.04086966812610626,0.024763403460383415
1772807488595956200,6.141956298828125,-0.019038138911128044,-0.04382205009460449,0.026104038581252098
1772807488605888300,6.15188818359375,-0.019272496923804283,-0.0425887405872345,0.02604944445192814
1772807488615820300,6.1618203125,-0.018325744196772575,-0.035117775201797485,0.025853967294096947
1772807488625752600,6.171752685546875,-0.01630973070859909,-0.024236630648374557,0.020620590075850487
1772807488635684400,6.181684326171875,-0.015984026715159416,-0.01744397170841694,0.015961123630404472
1772807488645616400,6.191616455078125,-0.009296828880906105,-0.004340952727943659,0.02736903913319111
1772807488655548400,6.20154833984375,-0.012922456488013268,0.01215493306517601,0.024657143279910088
1772807488665480400,6.21148046875,-0.01263856329023838,0.015088671818375587,0.012461462989449501
1772807488675412500,6.22141259765625,-0.012982377782464027,0.01624368503689766,0.006879744119942188
1772807488685344500,6.231344482421875,-0.014758972451090813,0.006592122372239828,-0.000333161442540586
1772807488695276300,6.2412763671875,-0.017655692994594574,0.007227818947285414,-0.0031140341889113188
1772807488705208300,6.251208251953125,-0.0167922955006361,0.020437896251678467,-0.002344646956771612
1772807488715140400,6.261140380859375,-0.020661868155002594,0.020926320925354958,0.0037502634804695845
1772807488725072400,6.271072265625,-0.02178359217941761,0.024766333401203156,0.008560198359191418
1772807488735004400,6.28100439453125,-0.02178918570280075,0.02124376967549324,0.014343785122036934
1772807488744936400,6.2909365234375,-0.019304456189274788,0.0201561339199543,0.01371980644762516
1772807488754868200,6.3008681640625,-0.01372353546321392,0.02172047458589077,0.01751561090350151
1772807488764800300,6.31080029296875,-0.011930429376661777,0.02871073968708515,0.02111673727631569
1772807488774732300,6.320732177734375,-0.01164600346237421,0.031614650040864944,0.03816070035099983
1772807488784664300,6.330664306640625,-0.015804795548319817,0.03218643367290497,0.055687498301267624
1772807488794596400,6.340596435546875,-0.02309866063296795,0.02269039861857891,0.061649248003959656
1772807488804528400,6.3505283203125,-0.02918584831058979,0.029798908159136772,0.048406947404146194
1772807488814460200,6.360460205078125,-0.02954590693116188,0.03322479873895645,0.020676782354712486
1772807488824392200,6.37039208984375,-0.029168538749217987,0.027891552075743675,-0.003063966752961278
1772807488834324500,6.380324462890625,-0.023912256583571434,0.02936188317835331,-0.032280709594488144
1772807488844256500,6.390256591796875,-0.01997850090265274,0.036685310304164886,-0.049976881593465805
1772807488854188500,6.4001884765625,-0.0178168136626482,0.031185349449515343,-0.05523103103041649
1772807488864120300,6.410120361328125,-0.01908048428595066,0.04644313082098961,-0.05127144232392311
1772807488874052400,6.42005224609375,-0.023272300139069557,0.04164304956793785,-0.039867520332336426
1772807488883984400,6.429984375,-0.025973010808229446,0.02027677558362484,-0.014270548708736897
1772807488893916400,6.43991650390625,-0.03194807842373848,0.0015899071004241705,0.013124857097864151
1772807488903848400,6.449848388671875,-0.02413090318441391,0.03224475681781769,0.018374480307102203
1772807488913780500,6.459780517578125,-0.030099311843514442,0.009882458485662937,0.04892732948064804
1772807488923712300,6.469712158203125,-0.04008696600794792,-0.00112438655924052,0.08030123263597488
1772807488933644300,6.479644287109375,-0.04844662919640541,-0.0003398193512111902,0.08127781003713608
1772807488943576300,6.489576416015625,-0.04928019642829895,-0.0011739213950932026,0.06705892831087112
1772807488953508400,6.49950830078125,-0.049902576953172684,-0.015863917768001556,0.043597809970378876
1772807488963440400,6.5094404296875,-0.04801572859287262,-0.029230322688817978,0.030361367389559746
1772807488973372400,6.519372314453125,-0.038474153727293015,-0.03714417293667793,0.031629033386707306
1772807488983304200,6.52930419921875,-0.03548981621861458,-0.04884636774659157,0.04241137206554413
1772807488993236200,6.539236328125,-0.039026226848363876,-0.053711432963609695,0.06851541250944138
1772807489003168300,6.549168212890625,-0.04099403694272041,-0.05260195955634117,0.0970810130238533
1772807489013100300,6.559100341796875,-0.0458092987537384,-0.054239802062511444,0.11474309116601944
1772807489023032000,6.569031982421875,-0.04825275018811226,-0.06063351780176163,0.1157953068614006
1772807489032964000,6.578964111328125,-0.05066930130124092,-0.06717770546674728,0.10333411395549774
1772807489042896100,6.588896240234375,-0.048716139048337936,-0.07243877649307251,0.07314904779195786
1772807489052828200,6.598828125,-0.04748363047838211,-0.06754522025585175,0.03496677055954933
1772807489062760000,6.608760009765625,-0.049125466495752335,-0.06954365968704224,0.011755725368857384
1772807489072692000,6.61869189453125,-0.051967594772577286,-0.07851798087358475,0.0017350494163110852
1772807489082624000,6.6286240234375,-0.05248424783349037,-0.07639756798744202,0.01774277724325657
1772807489092556000,6.63855615234375,-0.04394375532865524,-0.06591376662254333,0.05372288450598717
1772807489102488000,6.648488037109375,-0.0403016172349453,-0.0560787171125412,0.07923596352338791
1772807489112420000,6.658420166015625,-0.0369364470243454,-0.050753191113471985,0.10627690702676773
1772807489122351900,6.668351806640625,-0.03328844904899597,-0.06102101132273674,0.10665906965732574
1772807489132284000,6.678283935546875,-0.0432119183242321,-0.061221811920404434,0.09576407819986343
1772807489142216000,6.6882158203125,-0.04146435111761093,-0.05764119327068329,0.08472953736782074
1772807489152148000,6.69814794921875,-0.03921744227409363,-0.05458175390958786,0.07875340431928635
1772807489162080000,6.708080078125,-0.03742886334657669,-0.049254097044467926,0.08125517517328262
1772807489172012000,6.718011962890625,-0.037762824445962906,-0.03423413634300232,0.09842750430107117
1772807489181943800,6.72794384765625,-0.03927310183644295,-0.022522352635860443,0.11950003355741501
1772807489191875800,6.737875732421875,-0.044522725045681,-0.01721227541565895,0.12880484759807587
1772807489201808000,6.747807861328125,-0.051183559000492096,-0.007964449934661388,0.12289822846651077
1772807489211740000,6.757739990234375,-0.05176838859915733,0.008930644020438194,0.10276100039482117
1772807489221672000,6.767671875,-0.04541408643126488,0.02147732861340046,0.07399939000606537
1772807489231604200,6.777604248046875,-0.037993188947439194,0.030403446406126022,0.032457008957862854
1772807489241536000,6.787535888671875,-0.026320554316043854,0.0407402403652668,-0.011975969187915325
1772807489251468000,6.797468017578125,-0.018556905910372734,0.04830441623926163,-0.0345771498978138
1772807489261400000,6.807400146484375,-0.011410313658416271,0.0539013147354126,-0.03564747795462608
1772807489271332000,6.81733203125,-0.007139136083424091,0.050447460263967514,-0.02864149771630764
1772807489281264000,6.82726416015625,-0.01221432164311409,0.048781655728816986,-0.023315176367759705
1772807489291196000,6.83719580078125,-0.01703331246972084,0.04334001615643501,-0.019292205572128296
1772807489301128000,6.8471279296875,-0.022470422089099884,0.042503517121076584,-0.012507801875472069
1772807489311060000,6.85706005859375,-0.02991475537419319,0.04434163123369217,-0.005811017472296953
1772807489320992000,6.866991943359375,-0.034865040332078934,0.04885036498308182,-0.011474762111902237
1772807489330924000,6.876924072265625,-0.02810646966099739,0.04495096206665039,-0.03917429968714714
1772807489340856000,6.88685595703125,-0.022047245875000954,0.051123104989528656,-0.061944860965013504
1772807489350787800,6.896787841796875,-0.0170865748077631,0.03989947959780693,-0.07004566490650177
1772807489360720000,6.906719970703125,-0.02184164896607399,0.03467302396893501,-0.06541336327791214
1772807489370652000,6.91665185546875,-0.025601767003536224,0.029641781002283096,-0.04355759546160698
1772807489380584000,6.926583984375,-0.02269545942544937,0.021739650517702103,-0.011982360854744911
1772807489390516000,6.936515869140625,-0.025439046323299408,0.014877483248710632,0.03999348729848862
1772807489400448000,6.946447998046875,-0.03711088374257088,0.0018679412314668298,0.07236021757125854
1772807489410379800,6.9563798828125,-0.04259166866540909,0.0037031255196779966,0.10897308588027954
1772807489420311800,6.966311767578125,-0.05638417974114418,-0.009815080091357231,0.11439342051744461
1772807489430244000,6.976244140625,-0.0601152703166008,-0.0002247707889182493,0.11006897687911987
1772807489440176000,6.986176025390625,-0.052197691053152084,0.015571769326925278,0.09257813543081284
1772807489450109000,6.99610888671875,-0.03476623445749283,0.023684291169047356,0.06172088906168938
1772807489460041000,7.006041015625,-0.01582476869225502,0.03226073458790779,0.036321256309747696
1772807489469972000,7.015971923828125,-0.0023273364640772343,0.037939127534627914,0.03389351814985275
1772807489479904800,7.02590478515625,0.005374258849769831,0.05354205518960953,0.03340562805533409
1772807489489837000,7.035837158203125,0.017724668607115746,0.07858109474182129,0.03856150805950165
1772807489499769000,7.04576904296875,0.01452701073139906,0.10433971881866455,0.040457144379615784
1772807489509701000,7.055701171875,-0.00024714134633541107,0.11416731774806976,0.039153262972831726
1772807489519633200,7.065633056640625,-0.01372247003018856,0.09995056688785553,0.03032514825463295
1772807489529565200,7.075565185546875,-0.022522885352373123,0.07460366189479828,0.01888873614370823
1772807489539497000,7.0854970703125,-0.03099413402378559,0.06560377776622772,-0.002438656520098448
1772807489549429000,7.095428955078125,-0.02262967824935913,0.06070089712738991,-0.026823092252016068
1772807489559361000,7.105361083984375,-0.01950046420097351,0.04929857328534126,-0.05564648285508156
1772807489569293000,7.11529296875,-0.015625298023223877,0.04025501012802124,-0.07553603500127792
1772807489579225000,7.12522509765625,-0.0031726236920803785,0.040527451783418655,-0.08090177178382874
1772807489589156900,7.135156982421875,0.0036879454273730516,0.05132763460278511,-0.06720273941755295
1772807489599089000,7.1450888671875,0.015049522742629051,0.06064204126596451,-0.041599374264478683
1772807489609021000,7.15502099609375,0.01876809448003769,0.06713056564331055,-0.014800517819821835
1772807489618953000,7.164952880859375,0.008233695290982723,0.05613677203655243,-0.0033926009200513363
1772807489628885000,7.174885009765625,-0.0016679377295076847,0.04657735675573349,-0.006878945045173168
1772807489638817000,7.184817138671875,-0.010510697960853577,0.03478620946407318,-0.0253375805914402
1772807489648748800,7.194748779296875,-0.009099755436182022,0.0316692478954792,-0.044558413326740265
1772807489658680800,7.204680908203125,-0.010192183777689934,0.027093669399619102,-0.06154138967394829
1772807489668612900,7.21461279296875,-0.004574778024107218,0.022059496492147446,-0.06971170008182526
1772807489678545000,7.224544921875,-0.00043276368523947895,0.013887852430343628,-0.07550088316202164
1772807489688477000,7.234476806640625,0.000532632227987051,0.007636614143848419,-0.07481937855482101
1772807489698409000,7.244408935546875,0.006560697220265865,-0.000009853695701167453,-0.058928828686475754
1772807489708341000,7.254341064453125,0.01194161456078291,-0.0018607506062835455,-0.03795377537608147
1772807489718273000,7.26427294921875,0.014577611349523067,0.003343598684296012,-0.018606441095471382
1772807489728205000,7.274205078125,0.01284788828343153,0.002172074280679226,-0.002938798163086176
1772807489738137000,7.28413720703125,0.007016896735876799,-0.000931041082367301,0.0051926313899457455
1772807489748069000,7.294069091796875,0.0042733084410429,-0.0015510249650105834,0.004293015692383051
1772807489758001200,7.304001220703125,0.0018338527297601104,-0.002243446884676814,0.001597363967448473
1772807489767933000,7.313932861328125,0.0031936627347022295,0.0006258428329601884,-0.009019860066473484
1772807489777865000,7.323864990234375,0.006141249556094408,0.00791225116699934,-0.02291730046272278
1772807489787797000,7.333796875,0.007309578359127045,0.015388810075819492,-0.02533811330795288
1772807489797729000,7.34372900390625,0.010781541466712952,0.017048757523298264,-0.02027730830013752
1772807489807661000,7.3536611328125,0.012704876251518726,0.015027418732643127,-0.006990797817707062
1772807489817593000,7.363593017578125,0.015036473982036114,0.012924853712320328,0.0006804376607760787
1772807489827524900,7.37352490234375,0.014062821865081787,0.012466789223253727,-0.0012785836588591337
1772807489837457000,7.383456787109375,0.015977101400494576,0.010235327295958996,-0.002758502261713147
1772807489847389000,7.393388916015625,0.016444487497210503,0.0070736221969127655,-0.0051718587055802345
1772807489857321000,7.403321044921875,0.008224373683333397,0.008765527978539467,-0.012593289837241173
1772807489867253000,7.4132529296875,0.008495217189192772,0.006192381959408522,-0.014741928316652775
1772807489877184800,7.423184814453125,0.005595034919679165,0.001597363967448473,-0.012547217309474945
1772807489887116800,7.43311669921875,0.005792375188320875,-0.0021172130946069956,-0.014489993453025818
1772807489897048800,7.443048828125,0.011924570426344872,-0.0007217166712507606,-0.02582280896604061
1772807489906980900,7.45298095703125,0.013245231471955776,0.011321097612380981,-0.03670395165681839
1772807489916913200,7.4629130859375,0.01709243468940258,0.017127055674791336,-0.034984614700078964
1772807489926845200,7.47284521484375,0.01721067912876606,0.02190556563436985,-0.03033553436398506
1772807489936777000,7.48277685546875,0.012679842300713062,0.02142033725976944,-0.022167352959513664
1772807489946709000,7.492708984375,0.00923238042742014,0.018390458077192307,-0.02130981534719467
1772807489956641000,7.50264111328125,0.00811944529414177,0.009048888459801674,-0.023991618305444717
1772807489966573000,7.512572998046875,0.005175853613764048,0.0013334447285160422,-0.020913271233439445
1772807489976505000,7.522505126953125,0.0033803503029048443,-0.004355866461992264,-0.018608039245009422
1772807489986437000,7.53243701171875,0.0025094966404139996,0.0016887104138731956,-0.01378079317510128
1772807489996369000,7.542368896484375,0.004496214911341667,0.007902131415903568,-0.02118651196360588
1772807490006301000,7.552301025390625,0.006972421891987324,0.009843842126429081,-0.024687236174941063
1772807490016233000,7.56223291015625,0.010547449812293053,0.017224792391061783,-0.025783393532037735
1772807490026165500,7.57216552734375,0.019838951528072357,0.022600384429097176,-0.024207867681980133
1772807490036097500,7.58209765625,0.022109029814600945,0.02881513722240925,-0.019403791055083275
1772807490046029600,7.592029541015625,0.019726566970348358,0.029260950163006783,-0.01671825908124447
1772807490055961600,7.601961669921875,0.017477793619036674,0.03308844566345215,-0.017359282821416855
1772807490065893400,7.611893310546875,0.015245798043906689,0.035836827009916306,-0.016110792756080627
1772807490075825400,7.621825439453125,0.00592526700347662,0.03809758275747299,-0.016988305374979973
1772807490085757400,7.63175732421875,0.006993460934609175,0.025584988296031952,-0.016741428524255753
1772807490095689500,7.641689453125,0.0023249397054314613,0.015058311633765697,-0.014139787293970585
1772807490105621500,7.65162158203125,0.002058889716863632,0.0182943195104599,-0.007300789933651686
1772807490115553500,7.661553466796875,0.0016136092599481344,0.024462465196847916,-0.0017917747609317303
1772807490125485300,7.6714853515625,-0.00025779398856684566,0.023796143010258675,-0.0014482269762083888
1772807490135417300,7.681417236328125,-0.001564873498864472,0.02233300171792507,-0.014823420904576778
1772807490145349400,7.691349365234375,-0.0062304651364684105,0.022647522389888763,-0.020846160128712654
1772807490155281700,7.70128173828125,-0.009572465904057026,0.018394187092781067,-0.026994332671165466
1772807490165213700,7.711213623046875,-0.007809986360371113,0.013736318796873093,-0.029642313718795776
1772807490175145700,7.721145751953125,-0.01245400682091713,0.015413044951856136,-0.02202301099896431
1772807490185077500,7.731077392578125,-0.010513360612094402,0.008212123066186905,-0.00869122613221407
1772807490195009500,7.741009521484375,-0.012890231795608997,0.0024748756550252438,0.004976915195584297
1772807490204941600,7.750941650390625,-0.009734652936458588,-0.00603392394259572,0.01601332053542137
1772807490214873600,7.76087353515625,-0.012589295394718647,-0.015461248345673084,0.013198892585933208
1772807490224805600,7.7708056640625,-0.011721637099981308,-0.020081033930182457,0.005103948060423136
1772807490234737700,7.780737548828125,-0.005257346201688051,-0.01973988302052021,0.0008519452530890703
1772807490244669400,7.79066943359375,0.0015694007743149996,-0.020076772198081017,0.002704173792153597
1772807490254601500,7.8006015625,0.0049185920506715775,-0.013227388262748718,0.00410552928224206
1772807490264533500,7.810533447265625,0.011759188026189804,0.0015899071004241705,0.003882356220856309
1772807490274465500,7.820465576171875,0.010223343037068844,0.008430236019194126,0.00370126124471426
1772807490284397600,7.8303974609375,0.012849751859903336,0.008330633863806725,0.0048855687491595745
1772807490294329600,7.84032958984375,0.008745554834604263,0.0781342163681984,0.0540752187371254
1772807490304261400,7.850261474609375,0.01842215098440647,0.03744537755846977,0.11955729126930237
1772807490314193400,7.860193359375,0.010807373560965061,0.04432911425828934,0.1261608600616455
1772807490324125400,7.87012548828125,0.013796505518257618,0.03984301909804344,0.07661754637956619
1772807490334057500,7.880057373046875,0.00800173357129097,0.019534818828105927,0.007044061087071896
1772807490343989500,7.889989501953125,0.001437041675671935,0.00401604687795043,-0.04169418290257454
1772807490353922600,7.899922607421875,-0.003826163476333022,0.0004972121678292751,-0.04268354922533035
1772807490363854300,7.909854248046875,-0.002153698354959488,0.004532966297119856,-0.02490188740193844
1772807490373786400,7.919786376953125,0.004714327864348888,0.014672951772809029,-0.014666561037302017
1772807490383718400,7.929718505859375,0.0057676080614328384,0.011245463974773884,-0.023809459060430527
1772807490393650400,7.939650390625,0.0018969696247950196,-0.005953496787697077,-0.05909101665019989
1772807490403582500,7.94958251953125,-0.0046578687615692616,-0.03952983394265175,-0.10683590173721313
1772807490413514500,7.959514404296875,-0.007486944552510977,-0.036732714623212814,-0.13731524348258972
1772807490423446500,7.969446533203125,-0.010553840547800064,-0.015230884775519371,-0.11029162257909775
1772807490433378600,7.979378662109375,-0.009924801997840405,-0.0204504132270813,-0.03972717374563217
