time,seconds_elapsed,z,y,x
1772882857486969900,0.071969970703125,0.02160392904281616,0.005923343900684267,-0.013721025739307514
1772882857496903000,0.08190283203125,0.021306991922855376,0.0036599838122725486,-0.012207712266640736
1772882857506836000,0.0918359375,0.05707505539655685,0.011944905745144932,0.0005155026409309358
1772882857516768000,0.10176806640625,0.04301788847148418,-0.020381109249591828,-0.005560990561428479
1772882857526701000,0.111701171875,0.003073416095972061,-0.013729852933157234,-0.023274099877895787
1772882857536633900,0.1216337890625,0.018942016357183455,-0.009235610253829508,-0.013752393558528274
1772882857546566000,0.13156591796875,0.014158289211988449,-0.013921923172846436,-0.003493965895869769
1772882857556499000,0.1414990234375,-0.018012626552581786,-0.008122844972647727,-0.007692166504380293
1772882857566432000,0.151431884765625,0.023588380858302116,0.0015225333921611308,-0.015781337536289356
1772882857576364000,0.161364013671875,0.03885492357313633,0.008730893868394195,0.010180594919784925
1772882857586297000,0.171297119140625,0.03182254071831703,0.0008815503411926329,-0.004571367602725513
1772882857596230100,0.181230224609375,0.031225743868947026,0.0005317505228333174,-0.002443036637408659
1772882857606162000,0.191161865234375,0.0455921228736639,-0.00429302101880312,-0.03226863138484768
1772882857616095000,0.201094970703125,0.027487141862511635,0.006142119484208524,-0.002856732004834339
1772882857626028000,0.211028076171875,0.01985971572399139,0.011934073823876679,0.0008226095284568145
1772882857635959800,0.220959716796875,0.030331425377726554,0.006746149791963398,-0.009493863897793926
1772882857645892900,0.230892822265625,0.030627777975797653,-0.009010642391536384,-0.01171203313760925
1772882857655826000,0.240825927734375,0.002494739425182342,0.010633622217178344,-0.010632110680104234
1772882857665758000,0.250758056640625,0.029276363366842268,0.012911960679013281,-0.025884834932140072
1772882857675691000,0.26069091796875,0.03317103271782398,-0.0018211510125547645,-0.011411360557447186
1772882857685623800,0.270623779296875,0.017906828090548513,-0.02215938923479989,-0.010660377793363296
1772882857695555800,0.280555908203125,0.031073768177628514,-0.007861983813066036,-0.014528780191927215
1772882857705489000,0.290489013671875,0.0370610258936882,0.0017436835958622395,-0.012262565992726012
1772882857715422000,0.300421875,0.039160043999552724,-0.016207221098430452,0.017326644449261946
1772882857725354000,0.31035400390625,0.035870354804396626,0.0020826880255714057,0.00018016517276410013
1772882857735287000,0.320287109375,0.006242693781852722,-0.005147117097489535,-0.018307225584983825
1772882857745219800,0.3302197265625,0.006991466322541237,-0.0060671728181652725,-0.018782432748144492
1772882857755152000,0.34015185546875,0.005042085820436477,-0.006013597733713686,-0.022606977738672866
1772882857765085000,0.3500849609375,0.007875263419747352,0.0016670929620042443,0.0060290875637903805
1772882857775018000,0.36001806640625,0.04094400480687618,0.0015937354648485778,-0.016861433523730374
1772882857784950000,0.369949951171875,0.059497898629307745,-0.004648154599405825,-0.009315338126267307
1772882857794883000,0.379883056640625,0.036600422644615174,-0.017896434560697526,0.0037269207017961888
1772882857804816100,0.389816162109375,0.031363106513023375,-0.0005749503437429667,-0.01991727286381647
1772882857814748200,0.399748046875,0.030911271092295644,-0.007586308676842599,-0.01663979012968484
1772882857824681000,0.409680908203125,0.017594693401455877,-0.007471705853845924,-0.012967841884982772
1772882857834614000,0.419614013671875,0.013556816187500953,-0.008751224270369857,-0.004809386742836795
1772882857844545800,0.4295458984375,0.026275427985191342,0.016296269355062395,0.00015766108001116663
1772882857854478800,0.439478759765625,0.018791209709644315,-0.008368746025115252,-0.004834836277924478
1772882857864412200,0.449412109375,0.025519056659936902,-0.00029012378668412565,-0.004307236773823388
1772882857874344000,0.459343994140625,0.03524082472920417,-0.007261807696521282,-0.02540734448034782
1772882857884277000,0.469277099609375,0.015337269863486288,-0.013989234521705656,-0.023605359392566604
1772882857894209800,0.479209716796875,0.04705985733866691,-0.000904693754762411,-0.009348541709547862
1772882857904142800,0.489142822265625,0.04840367316305637,0.0009913308585993946,-0.008038422658783384
1772882857914075000,0.499074951171875,0.021165537625551224,0.007171681727655231,-0.0005309559383895248
1772882857924008000,0.509008056640625,0.0008095628172159195,0.014569573426619171,-0.001858400583290495
1772882857933941000,0.51894091796875,0.02265139226913452,-0.004766081890650093,-0.0000719327250495553
1772882857943873000,0.528873046875,0.02190028164088726,0.0016099376809783279,0.009994598227855749
1772882857953805800,0.538805908203125,0.022791093000769615,0.00662937327818945,-0.01467594271081034
1772882857963739000,0.54873876953125,0.04358312113881111,0.0031645649781450627,-0.011024598862719722
1772882857973671000,0.5586708984375,0.030113398712873458,-0.0022135843962430954,-0.023056009280961007
1772882857983604000,0.56860400390625,0.02188333050608635,0.006659366557653993,-0.030086191045539452
1772882857993537000,0.578537109375,0.03998948056101799,0.01905519440807402,-0.006726262347982265
1772882858003469000,0.588468994140625,0.03580255026519298,-0.005010448573157191,0.016954906793730334
1772882858013402000,0.598402099609375,0.018893501040339468,-0.0007256656597368419,0.004993164078216068
1772882858023335000,0.6083349609375,0.0009346505016088485,0.0002205839481204748,-0.01575117986004334
1772882858033267000,0.618266845703125,-0.03648351826667785,0.0065704461651854215,-0.04047752437286544
1772882858043200000,0.628199951171875,-0.002531564304232597,-0.010811444735806435,-0.017220238632452672
1772882858053133000,0.638133056640625,0.037709260669350625,-0.001567651175521314,-0.020841593767656014
1772882858063065000,0.648065185546875,0.10624328319132327,0.011153645769599825,-0.004143666542833671
1772882858072998100,0.657998046875,0.03755611593425274,-0.01403179502179846,0.02533479070079047
1772882858082931000,0.667930908203125,0.008821604359149932,-0.002168959803227335,-0.027432530165021306
1772882858092863000,0.677863037109375,0.048916298860311506,-0.010574220180138944,-0.010578672592970541
1772882858102796000,0.687796142578125,0.07839490680098533,-0.03165176899498329,0.0071435333454050115
1772882858112729000,0.69772900390625,-0.035633038917183876,-0.0014548019181936979,0.0006138667151797563
1772882858122661000,0.7076611328125,-0.026667642173171042,-0.0025812486648559567,-0.06076908760890364
1772882858132594200,0.71759423828125,0.026738369321823118,0.015614534168597309,0.010277050164737738
1772882858142527000,0.72752685546875,0.028370938959717748,-0.0046552967262454325,-0.004125879724393599
1772882858152459300,0.737459228515625,0.0632335780262947,-0.013717559707164763,0.018114666721527464
1772882858162392000,0.74739208984375,0.05769523312151432,0.007166731557901949,-0.004967367483256384
1772882858172325000,0.7573251953125,0.010856909579038619,0.004830488896369934,-0.02042011923586251
1772882858182257200,0.767257080078125,0.02192716964781284,-0.006391308472305536,-0.020094136401219292
1772882858192190200,0.777190185546875,0.0605365940272808,-0.003973780735488981,-0.020424886742525267
1772882858202123300,0.787123291015625,0.02911678889095783,-0.009452540940139443,-0.025683042449457568
1772882858212055300,0.79705517578125,0.019092238482832907,-0.002014372029714286,-0.014614577045547776
1772882858221988000,0.806988037109375,-0.000367079746723175,0.005471362349484116,-0.03564560157123487
1772882858231921200,0.816921142578125,0.002766542103886604,0.015793142138514668,-0.009133355455752461
1772882858241853000,0.82685302734375,0.0235585702419281,0.018711130210757255,0.003035184711124748
1772882858251786200,0.8367861328125,0.04300678255558014,0.007627937595173716,0.01029166092869127
1772882858261719300,0.84671923828125,0.07413432674705982,-0.010402206347789615,0.014555022028170059
1772882858271651000,0.856651123046875,0.051993222087621686,0.002651537422090769,-0.023303325972380114
1772882858281584000,0.866584228515625,0.027907997623085976,-0.008136270709801465,-0.03162965306129772
1772882858291517000,0.876516845703125,0.06158873342871666,-0.004934168466553091,0.015959881574125027
1772882858301449000,0.886448974609375,-0.01576981606185436,0.0023826025539077818,-0.03073441668804735
1772882858311382000,0.896382080078125,-0.012935469418764113,0.007893109603691845,-0.02654539489983581
1772882858321315000,0.906315185546875,0.023120178824663162,-0.0034688999532721935,0.0014401637547765858
1772882858331247000,0.9162470703125,0.036733109113574025,-0.010900145932566373,0.025492230301804374
1772882858341180200,0.92618017578125,0.06875497179627418,0.004500489757023752,0.009572139598662033
1772882858351113000,0.936113037109375,0.01787643295228481,0.0007074541496112942,-0.0329946715039201
1772882858361045200,0.946045166015625,0.013234160104393959,0.001047481492627412,-0.01489998584120767
1772882858370978000,0.95597802734375,0.04031739734113216,-0.004475044788513332,-0.014948281962343025
1772882858380911000,0.9659111328125,0.022362053933739662,0.007134308859333396,-0.006377549375011585
1772882858390843100,0.975843017578125,0.027145196557044983,-0.0016123853663913906,-0.04405274337797891
1772882858400776200,0.985776123046875,-0.003236497703194618,-0.0025653752422891557,-0.024940341173240448
1772882858410709200,0.995709228515625,0.031928339180350304,-0.012684143272507935,0.004804569003824144
1772882858420641300,1.005641357421875,0.05856149456202984,0.0050672202616930005,-0.00017398887701565398
1772882858430574000,1.015573974609375,0.020998364365100858,-0.012440854302234947,-0.02200849582229275
1772882858440507100,1.025507080078125,0.011123451560735702,0.0014781645274721084,-0.0224546801036573
1772882858450439200,1.035439208984375,0.032521044376492496,-0.010034414215013384,-0.02100342869928572
1772882858460372200,1.045372314453125,0.02563596103787422,-0.009072126787807791,-0.012833070773503277
1772882858470305300,1.05530517578125,0.024736381849646567,-0.004660575689561665,-0.015226756410428787
1772882858480237000,1.065237060546875,0.025333763220906257,0.007076002800837158,-0.03356926337134791
1772882858490170000,1.075170166015625,0.027875848919153214,-0.0018339556952007114,-0.013408986948337405
1772882858500103200,1.085103271484375,0.030572832918167113,-0.010364596017450094,-0.0076801906555076125
1772882858510036200,1.0950361328125,0.02129939313828945,0.011918985852599144,-0.010486142321175429
1772882858519968000,1.104968017578125,0.01935702689886093,0.007472473038826137,-0.008355591999308671
1772882858529901000,1.114901123046875,0.013969488641619681,-0.00013358151810243725,-0.0066406367410090745
1772882858539834000,1.124834228515625,0.019351766201853752,-0.013437975580804049,-0.0124291844140389
1772882858549766100,1.13476611328125,0.03132394354641437,0.01094190271506086,-0.019320734026061836
1772882858559699000,1.144698974609375,0.03102466833889484,0.011369791004620492,-0.01728787649158621
1772882858569632000,1.154632080078125,0.021000117930769918,0.011770243297982961,-0.019663910024100912
1772882858579564000,1.16456396484375,0.033864860200881954,0.018690324884746222,-0.016788633149000816
1772882858589497000,1.1744970703125,0.029074703314900398,0.010979202518146484,-0.007289773415680974
1772882858599430100,1.18443017578125,0.022188450932502744,0.004202876783628016,0.0030851339332293717
1772882858609362200,1.194362060546875,0.028621698850393295,-0.0009805537362582981,-0.00838796446552733
1772882858619295200,1.204295166015625,0.002285480588674545,-0.006514532993175089,-0.008429317105934024
1772882858629228000,1.21422802734375,0.013057049971818923,0.008995536153949796,-0.015224466271931305
1772882858639160000,1.22416015625,0.03205810303986072,0.01015785793159157,-0.007163206160254776
1772882858649093000,1.234093017578125,0.034301498052477834,0.011993074002116917,-0.010300405924150253
1772882858659026200,1.244026123046875,0.026072598889470097,0.013307773329876363,-0.0066272840690915465
1772882858668958200,1.253958251953125,0.031608021184802056,0.002273388292081654,-0.008161147139442618
1772882858678891300,1.263891357421875,0.03116027741730213,-0.005243910269159823,-0.014951357552129774
1772882858688824000,1.273823974609375,0.013203764966130255,-0.0026938604601658878,-0.0035743216726812532
1772882858698756000,1.283756103515625,0.01679331389069557,-0.009956380542740225,-0.0016114857506705448
1772882858708689200,1.293689208984375,0.03175532070100307,-0.014080419936496764,-0.019134849215275605
1772882858718622200,1.303622314453125,0.028463293418288228,-0.013176621230877934,-0.011875836264039388
1772882858728554000,1.313553955078125,0.0214279879540205,0.0005096482888795435,-0.020334071220492477
1772882858738487000,1.323487060546875,0.020524901634454727,0.010162278378382324,-0.022600748927285894
1772882858748420000,1.333420166015625,0.0196241534024477,0.0032352921267971395,-0.01591820470673265
1772882858758352100,1.34335205078125,0.015732991182804107,-0.00571348227597773,-0.01067198831605492
1772882858768285000,1.353284912109375,0.014237784188985823,-0.0009551270340569317,-0.005860964455269277
1772882858778218000,1.363218017578125,0.03234451876580715,-0.0020083989466540514,-0.023055518373905213
1772882858788150000,1.37314990234375,0.030247838747501372,0.009113353847339748,-0.0012768378356704487
1772882858798083000,1.3830830078125,0.011093056422471999,0.011392112434282899,0.0011288738824776373
1772882858808016100,1.39301611328125,0.018424129962921143,-0.003059990358818322,0.0008465452431817539
1772882858817948200,1.4029482421875,0.03713116852045059,-0.002725771702080965,-0.005043152116227429
1772882858827881200,1.412881103515625,0.02007540430128574,-0.00881990559240803,0.0023515178624773396
1772882858837814000,1.42281396484375,0.03623918811678886,0.00211390514774248,-0.01895766373417573
1772882858847746000,1.43274609375,0.03953530705273151,-0.00551710118735209,-0.0027098548970301635
1772882858857679000,1.44267919921875,0.03369827146232128,-0.002934464283008128,-0.02376563027148368
1772882858867612200,1.452612060546875,0.037440380600094796,-0.00012463102666661143,-0.015972830103954765
1772882858877544200,1.462544189453125,0.0347474882543087,-0.00045483109541237353,-0.022607482345460447
1772882858887477200,1.472477294921875,0.016194178953766823,0.007716510927770286,0.0016254389274981804
1772882858897410000,1.48241015625,0.0173889416962862,-0.0005898739182390272,-0.011632209367048925
1772882858907342000,1.492342041015625,0.017838439029455182,0.008098221988044678,-0.012506877876305953
1772882858917275100,1.502275146484375,0.0265168355256319,0.015444164304062723,0.006972606358444318
1772882858927208200,1.512208251953125,0.02981003185212612,-0.0038932811114937064,-0.01006835073394468
1772882858937140200,1.52214013671875,0.030558219870924948,-0.0006210362414829433,-0.013111926530790515
1772882858947073300,1.5320732421875,0.0320545959085226,-0.008087280468922108,0.00442537184433313
1772882858957006300,1.54200634765625,0.020829437538981435,0.0033812399361282585,-0.01120006274419138
1772882858966938000,1.551938232421875,0.03235036398470401,-0.008390190671943128,-0.023013181636098307
1772882858976871000,1.561870849609375,0.025763386809825897,-0.00933377339867875,-0.004005185087327845
1772882858986804000,1.571803955078125,0.03534077797234058,-0.0018863434695638715,-0.020254512311413418
1772882858996736000,1.581736083984375,0.026215222230553625,-0.00047437604609876867,-0.0027248994858236984
1772882859006669000,1.5916689453125,0.041029345002770425,0.008637571295443921,-0.0040323744883527975
1772882859016602000,1.60160205078125,0.017537410256266595,0.00034866730719804764,-0.0068399061897536735
1772882859026534100,1.6115341796875,0.022025369325280188,-0.004392371473740786,-0.0065432590474491
1772882859036467200,1.62146728515625,0.02950724951326847,-0.0032214279982261357,-0.0015412769085378386
1772882859046400000,1.63139990234375,0.010654665005207061,-0.0019530337639153002,-0.00006846669290680438
1772882859056332000,1.64133203125,0.02112695918083191,0.0050323498777113855,-0.020477427497226745
1772882859066265000,1.65126513671875,0.025317396607995032,0.003505505636613816,-0.017785848042403813
1772882859076198100,1.6611982421875,0.03234802589714527,0.0043497744410298765,-0.005833169982756953
1772882859086130200,1.671130126953125,0.023368016105890274,-0.0033722894446924327,-0.013351452641398646
1772882859096063200,1.681063232421875,0.03623860359489917,0.000009882073197513819,-0.016318878479092382
1772882859105996000,1.69099609375,0.026211715099215507,-0.007747033930197358,-0.009300113157671876
1772882859115928000,1.700927978515625,0.029207389783859252,-0.0050315278938040135,0.0025532281467691063
1772882859125861000,1.710861083984375,0.02816343368887901,0.019066830046940594,0.0021786934626637955
1772882859135794200,1.720794189453125,0.023377368456125258,0.003698763186391443,-0.02026853170361137
1772882859145726200,1.730726318359375,0.014848609563708304,0.013844126962590962,-0.0009496060421457514
1772882859155659300,1.7406591796875,0.021581132689118383,0.008824928827397525,-0.013366501796769443
1772882859165592300,1.75059228515625,0.03669628423452377,0.009222677707020193,-0.018153884487063624
1772882859175524400,1.7605244140625,0.017094927185773847,0.0063492046299390495,-0.017753363695042206
1772882859185457200,1.77045703125,0.016045125871896743,0.0018061909054405986,-0.007370985425729304
1772882859195390200,1.78039013671875,0.02248012735545635,-0.02275954708503559,-0.013048183962062466
1772882859205322200,1.790322265625,0.037895723152160644,0.013049378122016786,-0.006167776798561681
1772882859215255300,1.80025537109375,0.008418868777155876,0.0037083347323350604,-0.005426833654590882
1772882859225188400,1.810188232421875,0.007074468430876731,-0.016420827316492796,-0.012321611836738884
1772882859235120400,1.820120361328125,0.01979366475045681,0.007961498664785176,-0.0005369541376247071
1772882859245053200,1.83005322265625,0.009466916525363921,-0.0003660568334162235,-0.007359002726990729
1772882859254986200,1.839986328125,0.043133039283752436,-0.007755144171416759,-0.009580309205385856
1772882859264918000,1.84991796875,0.032057518517971034,-0.002579257637169212,0.0017002988285734317
1772882859274851000,1.85985107421875,0.021131050834059716,-0.006794847771897912,-0.012208454335446003
1772882859284784400,1.869784423828125,0.030558219870924948,0.005958214284665882,-0.01797871514982544
1772882859294716200,1.879716064453125,0.023672552010416983,-0.011474603085964917,0.010014465122239198
1772882859304649200,1.889649169921875,0.010953940212726592,-0.009569646247476339,-0.0023932381123537194
1772882859314582000,1.89958203125,0.0425292281717062,-0.010221917877439408,-0.005449385696405079
1772882859324514000,1.90951416015625,0.022930793732404708,0.006358830974809825,-0.0009644771010032854
1772882859334447000,1.919447021484375,0.015898995399475098,0.0010851831545121966,0.0009882370025035925
1772882859344380200,1.929380126953125,0.03116203098297119,0.003785893480572849,-0.008635018578753807
1772882859354312200,1.939312255859375,0.028615853631496428,-0.004984638278465718,-0.022090545799268873
1772882859364245200,1.949245361328125,0.030559973436594008,0.006871657601464539,-0.009874351115361786
1772882859374178000,1.959177978515625,0.04238368222117424,0.004240340983495116,-0.008829499971237964
1772882859384110300,1.9691103515625,0.01829261253774166,0.007507562618516385,-0.00003300037059234455
1772882859394043100,1.979043212890625,0.02038753899037838,0.006021068654116243,-0.021104012130084445
1772882859403976200,1.98897607421875,0.034301498052477834,0.0067123936528339975,-0.012925589628855231
1772882859413908200,1.998908203125,0.026068507236242294,0.003227437613904476,-0.0058639395803562365
1772882859423841300,2.00884130859375,0.019784312400221823,-0.0024874694341793656,-0.004824892555933911
1772882859433774300,2.0187744140625,0.022178514060378074,-0.0021959391416981815,0.004846615763974841
1772882859443706400,2.028706298828125,0.027710429224371908,0.004860390844289213,0.009577464227750897
1772882859453639200,2.03863916015625,0.01813128449618816,-0.008377422521915286,-0.006064663483959156
1772882859463572200,2.048572265625,0.038629882645606996,-0.016374704886134715,-0.014806460055569185
1772882859473504300,2.058504150390625,0.018729250389337537,-0.00280168648250401,0.00347108049391536
1772882859483437300,2.068437255859375,0.027858313262462613,-0.003145732413511723,-0.01881877357000485
1772882859493370400,2.078370361328125,0.025311551389098165,-0.015598715544957667,-0.00833621144540375
1772882859503302100,2.08830224609375,0.035035073024034497,-0.004120166936237365,-0.018724142672668677
1772882859513235200,2.098235107421875,0.013186813831329344,0.0016159472966566682,-0.015027439012622925
1772882859523168000,2.10816796875,0.02380991465449333,0.002413728344533592,-0.018709808186639566
1772882859533100000,2.11810009765625,0.03159107005000114,-0.00043625425910577174,-0.01624181748777628
1772882859543033000,2.128033203125,0.038027240577340124,0.006993183355592191,-0.007673655883444007
1772882859552966100,2.137966064453125,0.008698270240426064,-0.006771229434292763,-0.0045639240817865355
1772882859562898200,2.147898193359375,0.011389993542432784,-0.0007180303425528109,-0.007541220576234627
1772882859572831200,2.157831298828125,0.025158406654000282,0.0011769713575020431,-0.01232361884744605
1772882859582764000,2.167763916015625,0.023062311157584187,-0.020038579422235487,-0.010170516483765095
1772882859592696000,2.177696044921875,0.016926000359654424,-0.0018934125311672687,0.003251740938099101
1772882859602629000,2.187629150390625,0.027847791868448254,-0.00034236543057486414,0.0027990492841345254
1772882859612562200,2.197562255859375,0.020064298385381697,-0.015388196333125232,-0.010226023230399004
1772882859622494200,2.207494140625,0.012132920864224433,0.0033546441901475188,-0.024676625902869273
1772882859632427300,2.21742724609375,0.035623686566948885,-0.00015044132135808467,-0.012232020157412624
1772882859642360300,2.2273603515625,0.031135142976045607,0.005668620220944285,0.007634595664823427
1772882859652292400,2.237292236328125,0.016321604725718496,-0.0008054528976790607,0.005592725990118924
1772882859662225200,2.24722509765625,0.019460487273335457,-0.010851356621086597,0.004650449304480571
1772882859672158200,2.257158203125,0.04130582385659218,-0.008849679676163942,-0.012559299899998586
1772882859682090200,2.26709033203125,0.040407998234033585,0.009230842747166752,0.000863295448583085
1772882859692023300,2.277023193359375,0.016464228066802023,0.01111391654741019,0.004106485470756888
1772882859701956400,2.286956298828125,0.028732758009433746,-0.014709803881216793,-0.022936237092502414
1772882859711888400,2.296888427734375,0.026491116562485692,0.006873666895460337,-0.021381888356548733
1772882859721821200,2.3068212890625,0.027387188619375228,0.005602824975736439,-0.022834824827930422
1772882859731754200,2.316754150390625,0.019754501783847807,0.007458225317765027,-0.00017803486447082832
1772882859741686000,2.32668603515625,0.03337152372598648,-0.0030044242466799914,0.0005750211256905459
1772882859751619000,2.336619140625,0.032924949002265926,-0.0019025639520026743,0.000026239552954211828
1772882859761552100,2.34655224609375,0.03995557829141617,0.0010224383829161524,-0.01204916070406325
1772882859771484200,2.356484130859375,0.03381985201537609,-0.010933427147660404,-0.0035986227135872467
1772882859781417200,2.366417236328125,0.02963058363199234,-0.01021382590252906,0.0015742590128211304
1772882859791350000,2.37635009765625,0.005392798954248428,-0.00587658214950934,0.0009495695095276459
1772882859801282000,2.386281982421875,0.024248890593647956,0.004204867811314761,-0.018999950239632742
1772882859811215000,2.396215087890625,0.021107085436582563,-0.006891604410950094,-0.01523644897066988
1772882859821148200,2.406148193359375,0.027992753297090528,0.0017081556247547267,0.007228430583304725
1772882859831080200,2.416080078125,0.012276713249087332,-0.015212218711711465,-0.0005855151202413254
1772882859841013200,2.42601318359375,0.02544774498939514,-0.013698197419568896,-0.02074288491682382
1772882859850946300,2.4359462890625,0.017218845826387403,-0.010737831510324031,-0.002271735191112384
1772882859860878300,2.44587841796875,0.002704582783579826,0.0036134777894243596,-0.013220816565630957
1772882859870811100,2.45581103515625,0.02185585797727108,-0.017103019160684196,-0.03395223252365831
1772882859880744200,2.465744140625,0.0255932909399271,-0.007843078183196484,-0.011676315653545316
1772882859890676200,2.47567626953125,0.029932196927070616,0.0032491197227500377,0.0010012220649514346
1772882859900609300,2.485609375,0.024093407770991324,0.018024828447028993,-0.001349204385560006
1772882859910542300,2.495542236328125,0.036513913404941555,0.01425584956863895,0.005807005778327584
1772882859920474400,2.505474365234375,0.03052724021077156,0.014895115586556493,0.003611484478448983
1772882859930407200,2.5154072265625,0.0234931037902832,0.013884166712034494,0.010882279199024196
1772882859940340200,2.52534033203125,0.007779401829838752,0.003922507205978035,-0.003064632284606341
1772882859950272000,2.53527197265625,0.023640987828373906,0.006001414105575531,-0.0016565510183922014
1772882859960205300,2.545205322265625,0.02408873159587383,0.011586721690930425,-0.012469374860532116
1772882859970138400,2.555138427734375,0.014359364742040633,0.00841740747243166,-0.01817239739128854
1772882859980070100,2.565070068359375,0.029773206973075866,-0.005837145188264548,-0.013201187133265192
1772882859990003200,2.575003173828125,0.029625322934985158,0.006805076904967427,0.005682219488034024
1772882859999936000,2.58493603515625,0.03950140478312969,0.006655749828461557,-0.007926418218249454
1772882860009868000,2.594867919921875,0.011368950754404068,0.002197327381186187,-0.0011184438200085424
1772882860019801000,2.604801025390625,0.008078677037358284,0.00618455212013796,-0.00245337536833249
1772882860029734100,2.614734130859375,0.01645604476034641,0.009105627198610454,-0.009651036354037933
1772882860039666200,2.624666259765625,0.028128946897387503,-0.005897040415648371,-0.002642781010188628
1772882860049599200,2.63459912109375,0.015709610307216643,0.0009638583297841251,0.005587657089356798
1772882860059532300,2.6445322265625,0.039650457864999766,-0.00047585561713203787,-0.005227975197799969
1772882860069464300,2.65446435546875,0.027981062859296798,-0.0035764154483564196,-0.01429984169070376
1772882860079397000,2.664397216796875,0.021996727752685546,-0.013665299796964972,-0.0166239715060452
1772882860089330400,2.674330322265625,0.03426701126098632,-0.008726546486839652,0.007462976841407362
1772882860099262500,2.684262451171875,0.026336802783608435,-0.003800232533179223,-0.00784079946114216
1772882860109195500,2.694195556640625,0.03082826898396015,-0.003746438253019005,-0.007093657188536599
1772882860119128600,2.704128662109375,0.022148703444004058,-0.01316854752227664,-0.006544398408476263
1772882860129060600,2.714060546875,0.021100071173906325,0.006325056569371372,0.0003811037054983899
1772882860138993400,2.723993408203125,0.03456687099039554,0.007093848984781652,-0.00008510501716518775
1772882860148926500,2.733926513671875,0.028286183285713196,0.02518878352595493,0.007029551576916128
1772882860158858500,2.7438583984375,0.038757308417558665,0.005859667547326535,-0.006554017903481144
1772882860168791600,2.75379150390625,0.026636662513017655,-0.005103679814562201,0.005921811814012471
1772882860178724600,2.763724609375,0.018708207601308823,0.00947891749041155,-0.025901927630836142
1772882860188656600,2.77365673828125,0.031575872480869294,-0.00783852987224236,-0.018325615191622638
1772882860198589400,2.78358935546875,0.028133623072504995,-0.0007809212446212769,-0.008089915384002961
1772882860208522500,2.7935224609375,0.024990064349770545,-0.01061752959890291,0.0017043196998536587
1772882860218454500,2.80345458984375,0.020796704313158988,0.0011845153431408106,-0.0016282610722468233
1772882860228387600,2.8133876953125,0.02319090597331524,0.00446949183056131,0.004524996293906588
1772882860238320600,2.823320556640625,0.02423603111207485,-0.016400222919881344,0.006681256445765029
1772882860248252400,2.83325244140625,0.036059739896655084,-0.013637772469222546,-0.011242577578511555
1772882860258185500,2.843185546875,0.027681787651777267,0.0010927819390781223,-0.0008830755779985338
1772882860268118300,2.8531181640625,0.020949264526367185,-0.007513627033121883,-0.0008687342421035282
1772882860278050300,2.86305029296875,0.013768413111567497,-0.01448288152385503,-0.003612920666998252
1772882860287983400,2.8729833984375,0.022599369820952415,0.005037226982228458,-0.008765551906533072
1772882860297916400,2.88291650390625,0.030230303090810776,-0.006767192579992115,-0.007805410770641174
1772882860307848400,2.892848388671875,0.02813596116006374,-0.009169102622568606,-0.006642335507750977
1772882860317781500,2.902781494140625,0.032923779958486554,0.0019224011636339126,-0.001599108042998705
1772882860327714600,2.912714599609375,0.0170621939599514,0.015077449883520602,-0.005518160633277148
1772882860337646600,2.922646484375,0.019905308431386947,-0.0021259791780263186,-0.007603828350512776
1772882860347579400,2.932579345703125,0.04115443268716335,0.00277994957473129,-0.004500619904475752
1772882860357512400,2.942512451171875,0.016165537381172178,0.008037175983190536,-0.00033788105170242484
1772882860367444500,2.952444580078125,0.0206523274064064,-0.0023595322055742145,-0.012621017191710415
1772882860377377500,2.96237744140625,0.023795301607251167,-0.0039039669022895396,-0.018742029955808537
1772882860387310600,2.972310546875,0.02798223190307617,0.003985836499463767,-0.009390083862910978
1772882860397242600,2.98224267578125,0.03307049495279789,-0.004116879000607878,-0.00800950709155295
1772882860407175400,2.992175537109375,0.04519289442300796,-0.004942242175154388,0.01146195595023455
1772882860417108500,3.0021083984375,0.025590952852368353,-0.0022740824118256567,-0.003960494278941769
1772882860427040500,3.01204052734375,0.022297756525874138,-0.003305672215577215,0.000378208495513536
1772882860436973600,3.0219736328125,0.03292144187092781,-0.002993318330775946,-0.01320022130217403
1772882860446906600,3.03190673828125,0.02454115153849125,-0.006551704932097345,-0.02025902637303807
1772882860456838700,3.041838623046875,0.017506430596113204,0.01162935525625944,-0.011752627726190257
1772882860466771700,3.051771728515625,0.01675531996786594,0.0014187990230508148,-0.005209103817259892
1772882860476704500,3.06170458984375,0.022888708156347273,0.009280435776244848,0.0050797920488985255
1772882860486636300,3.07163623046875,0.007924363258481025,-0.009697546943463385,-0.007074340566713362
1772882860496569300,3.0815693359375,0.027527473872900006,-0.0027030849462375043,0.00013967561546014622
1772882860506502400,3.09150244140625,0.03186871794760227,0.003545782848075032,0.014239019448135513
1772882860516434400,3.101434326171875,0.02708031462728977,-0.0027578290744684633,0.0075319321580813265
1772882860526367500,3.111367431640625,0.026333295652270317,-0.003409461383614689,-0.0020442922439426183
1772882860536300500,3.121300537109375,0.005084171396493912,-0.0013084522500634193,-0.009172538971959148
1772882860546232600,3.131232666015625,0.024836335092782973,-0.003997618268802762,-0.005017092943075113
1772882860556165400,3.141165283203125,0.029328385815024373,-0.007706318327318876,0.0012808701233938335
1772882860566098400,3.151098388671875,0.024238953721523283,0.0031255298756994307,-0.0021599453797098247
1772882860576030500,3.161030517578125,0.008675473886728286,0.009604315702058374,0.0033041150127304715
1772882860585963500,3.170963623046875,0.01137362692952156,0.006884498816728591,0.008313202745863236
1772882860595896600,3.180896484375,0.0273883576631546,-0.017647738762944936,0.012888967962493189
1772882860605828600,3.19082861328125,0.02215045700967312,0.003019822745211422,0.00101265905770706
1772882860615761400,3.200761474609375,0.015565233400464057,-0.002782945249415934,0.005548464439995586
1772882860625694500,3.210694580078125,0.025590952852368353,0.010384268832299858,-0.0014674581870785914
1772882860635626500,3.22062646484375,0.0392091438382864,0.0063060048090294,0.0025818834190955383
1772882860645559600,3.2305595703125,0.03756313019692897,-0.0013200330900028348,-0.009109540755324996
1772882860655492600,3.24049267578125,0.014517770174145697,-0.003977178268972784,-0.020764857003325594
1772882860665424600,3.250424560546875,0.026788638204336166,-0.0032502339676022526,-0.0010461982844164595
1772882860675357700,3.260357666015625,0.028586627537012098,0.008502838999871164,-0.013143225851352325
1772882860685290500,3.27029052734375,0.025143793606758117,0.00975901307342574,-0.004979943837039172
1772882860695222300,3.28022216796875,0.036218145328760144,-0.007185929448716342,0.004292655692622065
1772882860705155600,3.290155517578125,0.029333646512031554,0.000620926643628627,0.0006758762678364291
1772882860715088600,3.300088623046875,0.03771218327879906,0.010239983257092534,0.008846820998797193
1772882860725020400,3.3100205078125,0.026489362996816635,0.006069437840487807,0.0017013445747666991
1772882860734953500,3.319953369140625,0.020355390286445618,0.012910152314417063,-0.00699382952627493
1772882860744886300,3.32988623046875,0.021700959676504133,0.00052110126465559,-0.0012967001634766346
1772882860754818600,3.339818603515625,0.04354804982542992,0.0026227314527146515,-0.012493525204388425
1772882860764751400,3.34975146484375,0.023650340178608894,0.0027625052495859562,0.013260411073791329
1772882860774684400,3.359684326171875,0.03038344782590866,-0.010689078731462359,0.0014692528519430197
1772882860784616400,3.369616455078125,0.035171266624331475,-0.009772146549634635,-0.005719544407294597
1772882860794549500,3.379549560546875,0.02903846295773983,0.00165693689417094,0.015514279531361534
1772882860804482600,3.389482666015625,0.020956278789043426,0.002481733813136816,-0.01622048700537998
1772882860814414600,3.39941455078125,0.027390695750713345,0.0011506861387751996,-0.010828005428251344
1772882860824347400,3.409347412109375,0.028587796580791473,-0.0036406215246766803,0.005265290983906015
1772882860834280400,3.419280517578125,0.015270049846172333,0.007746705136634409,0.014176726767688523
1772882860844212500,3.42921240234375,0.039214404535293575,-0.013869279670156538,0.009646931001078336
1772882860854145500,3.4391455078125,0.032629180926084515,-0.02129959406768903,0.007154607295268215
1772882860864078600,3.44907861328125,0.028588381102681158,-0.0051374176873825485,0.009726471643848345
1772882860874010600,3.4590107421875,0.02245440839231014,-0.007428962690662592,0.007397962480911519
1772882860883943700,3.468943603515625,0.02514846978187561,-0.007592446156684309,-0.016553045711282174
1772882860893876500,3.47887646484375,0.011831307569146155,0.009581318418961017,-0.012216388763440772
1772882860903808500,3.48880859375,0.01676934849321842,0.0007742357755079865,-0.009280992898670955
1772882860913741600,3.498741455078125,0.023352234014868734,-0.014892247776035218,-0.01136852377942996
1772882860923674600,3.508674560546875,0.020959785920381543,-0.0019109481878578662,-0.001702947443386074
1772882860933606400,3.5186064453125,0.03652034314572811,0.0072973722002469,-0.0069062425743672065
1772882860943539500,3.52853955078125,0.03607318390011787,0.011130447557102888,0.0027792394719668664
1772882860953472300,3.53847216796875,0.026644845819473264,0.009820223475061356,0.0030106188087374902
1772882860963404500,3.548404541015625,0.020955694267153737,-0.003999682361725717,-0.004809185813437216
1772882860973337300,3.55833740234375,0.025443068814277648,-0.006639620677568018,0.00018988741575740276
1772882860983270400,3.5682705078125,0.02514496265053749,0.005570639739185572,0.006953515782195609
1772882860993202400,3.578202392578125,0.02634089443683624,0.007566051340103149,-0.014060655790101736
1772882861003135500,3.588135498046875,0.02963350624144077,0.005156122387852519,-0.0027689121574861926
1772882861013068500,3.598068603515625,0.016015315255522727,-0.021733364108763635,-0.005874358226382173
1772882861023000600,3.60800048828125,0.023200258323550223,-0.007896689800266176,0.0067654161814367396
1772882861032933400,3.617933349609375,0.025897242322564122,0.0005316409249790013,0.0011625455399276688
1772882861042866400,3.627866455078125,0.01976151604652405,-0.004533168183919042,-0.003711558735882863
1772882861052798500,3.637798583984375,0.038465631994605065,-0.006324234585464,0.0029613385902019216
1772882861062731500,3.6477314453125,0.02948620672523975,-0.0049224597624503074,-0.004126366064872127
1772882861072664600,3.65766455078125,0.019609540355205533,-0.00806305934311822,-0.023690667622420003
1772882861082596600,3.6675966796875,0.022600538864731786,0.0020488770875148475,-0.0231039035432972
1772882861092529000,3.67752880859375,0.03546937278807163,-0.0035017427769489583,-0.023415330412914045
1772882861102460700,3.687460693359375,0.020058453166484833,-0.017474829881452023,-0.00531735453128349
1772882861112393700,3.697393798828125,0.028587212058901783,-0.005924896536953747,-0.008779007326439022
1772882861122326500,3.707326416015625,0.037569559937715526,0.005745923240855336,0.0043767857455415645
1772882861132259600,3.717259521484375,0.019309680625796317,-0.002485277477093041,0.007273518683912698
1772882861142191600,3.727191650390625,0.026494623693823813,-0.001401592159923166,-0.0012319186984212137
1772882861152124700,3.737124755859375,0.04669219307005405,0.001108509231172502,0.002277137452014722
1772882861162056700,3.747056640625,0.005387538257241249,0.0033589367727749047,0.005136951896501705
1772882861171989800,3.75698974609375,0.018104981011152266,-0.004504873671196401,-0.016571063141874037
1772882861181922600,3.766922607421875,0.04279577015340328,0.002798234150093049,-0.007708373287087306
1772882861191854600,3.7768544921875,0.024238369199633597,-0.009234039351250976,-0.008775655458727851
1772882861201787600,3.78678759765625,0.053421209064126014,-0.006806739139091223,-0.013417247886606492
1772882861211720700,3.796720703125,0.036062662506103516,0.003082348321098834,0.003034511140978429
1772882861221652700,3.80665283203125,0.025138532909750936,-0.01619045262672007,-0.0011443454462452792
1772882861231585800,3.816585693359375,0.03067746233642101,-0.007582655415032059,0.005452568600757513
1772882861241518800,3.826518798828125,0.02080196501016617,0.0028426212810911235,-0.0008639347693999297
1772882861251451000,3.836450927734375,0.010028057539463042,0.000009023556672036648,-0.005442768725950736
1772882861261383700,3.8463837890625,0.03980535616576671,0.015147793439682573,-0.005238371010939591
1772882861271316700,3.856316650390625,0.022296587482094763,-0.0053045726815238595,0.0009387741208774969
1772882861281248800,3.866248779296875,0.02813128498494625,-0.0007917896985076367,-0.02570752387016546
1772882861291181800,3.876181884765625,0.03815349730551243,-0.010677333494741469,0.00111904432491865
1772882861301115000,3.886114990234375,0.039946810463070866,-0.010291475982312113,0.01403180643824162
1772882861311046700,3.896046630859375,0.02872515922486782,-0.008099354499205947,0.01828901407485828
1772882861320979700,3.905979736328125,0.032169746720790864,0.0019720672579482197,-0.009976468916120938
1772882861330912500,3.91591259765625,0.027834347864985464,-0.006246730636153369,0.009352215520956088
1772882861340844500,3.925844482421875,0.03277472687661648,0.001742222291138023,-0.006179051677824464
1772882861350777600,3.935777587890625,0.028283845198154446,-0.0005868782435543835,-0.016968213799875228
1772882861360710700,3.945710693359375,0.023494272834062576,0.0021653978729620576,-0.01317398174921982
1772882861370642700,3.955642578125,0.03202536981403827,-0.008364763969741762,0.0033728739665821192
1772882861380575700,3.96557568359375,0.024245383462309835,-0.013799465836957096,0.01579790507860016
1772882861390508500,3.975508544921875,0.032926118046045304,0.013667236025724559,0.012454435303015633
1772882861400440600,3.985440673828125,0.03412497244179249,-0.00015489830076694487,-0.0004949439100921154
1772882861410373600,3.99537353515625,0.01751402938067913,-0.0014394764848984778,0.010627923128753899
1772882861420305700,4.0053056640625,0.022453823870420456,0.013445866626314818,0.0012485615892568603
1772882861430238700,4.01523876953125,0.019312018713355063,-0.003782495947089046,0.004570225958409719
1772882861440171800,4.025171875,0.02873860322833061,0.0017858970360830424,-0.004268418583797756
1772882861450103800,4.035103759765625,0.033822774624824525,-0.0066096639307215805,-0.010832533189607783
1772882861460036900,4.045036865234375,0.030384616869688033,-0.008531389240920543,-0.01698523571662372
1772882861469969000,4.054968994140625,0.024102175599336622,-0.00621472806269303,-0.003925146687636152
1772882861479901700,4.064901611328125,0.03218202168047428,-0.014285879380721598,-0.0008868612705497071
1772882861489834800,4.074834716796875,0.0214104522973299,0.005099916954897344,-0.0034725143991759977
1772882861499766500,4.0847666015625,0.030087095227837563,0.016567122185695917,0.007817683447035961
1772882861509699600,4.094699462890625,0.042211248263716694,-0.0009087306090630591,-0.0032479209962184537
1772882861519633000,4.1046328125,0.015424948146939278,-0.0050734856056980785,-0.013760627097333781
1772882861529564700,4.114564697265625,0.019019173246622084,0.008428111529536545,-0.008564101917145307
1772882861539497700,4.124497802734375,0.03458089951574802,0.005602203921228647,-0.012914376398385502
1772882861549430500,4.134430419921875,0.0384726462572813,-0.007587569052167236,-0.0014385175036732106
1772882861559362600,4.144362548828125,0.023657354441285132,-0.009660064477287232,-0.010326455964148044
1772882861569295600,4.154295654296875,0.031444939577579496,0.005515968676190823,0.005383636116969864
1772882861579228700,4.164228759765625,0.023669044879078862,-0.005460238167271017,-0.00598006307358155
1772882861589160700,4.17416064453125,0.015440145716071128,-0.011211440371442586,-0.003062520242622122
1772882861599093800,4.18409375,0.01828384470939636,0.0032947124301455914,-0.005627052951406222
1772882861609026600,4.194026611328125,0.006463058534264564,0.016282953215762973,-0.004212386680778581
1772882861618958600,4.20395849609375,0.02277121925652027,0.006802355224918574,0.0005035473416559398
1772882861628891600,4.2138916015625,0.03249707897901535,-0.00006743921302258968,0.0007525605165283196
1772882861638824700,4.22382470703125,0.03055237465202808,-0.0009826543617993593,-0.0036153249699273143
1772882861648756700,4.2337568359375,0.0283078105956316,-0.012480656589660792,-0.004913931679411326
1772882861658689800,4.243689697265625,0.041028175958991046,0.012157415984664112,-0.014011304789618588
1772882861668622800,4.253622802734375,0.03459258995354175,0.009078848789539188,-0.011728696578042581
1772882861678555000,4.263554931640625,0.01933013889193535,0.0060463674921542405,0.01369594609697815
1772882861688487700,4.27348779296875,0.018729834911227226,-0.000599755991436541,-0.012389382126613054
1772882861698420700,4.283420654296875,0.04012625868320465,0.0009791106978431342,-0.010803729503520298
1772882861708352800,4.293352783203125,0.025910101804137227,-0.007255688482988625,0.010857690463750623
1772882861718285800,4.303285888671875,0.026061492973566053,-0.0031432299291715023,0.013659721722838003
1772882861728219000,4.313218994140625,0.032196634727716444,0.0005986965455114841,0.010901570704672485
1772882861738150700,4.323150634765625,0.031148586979508397,0.0019573446128517387,-0.01141612349753268
1772882861748084700,4.333084716796875,0.03803308579623699,-0.004834050826635211,0.016966702262801118
1772882861758017800,4.343017822265625,0.011544891843199729,0.007221439153514802,0.0036573009481304323
1772882861767950800,4.352950927734375,0.0040630116552114485,0.0024355565838515758,0.007231544988998212
1772882861777883000,4.3628828125,0.016188333734869956,0.00016963921217247842,0.010853916187642608
1772882861787816000,4.37281591796875,0.013495441389083861,0.007480400616955011,-0.004539915301825385
1772882861797748700,4.382748779296875,0.020676292803883552,0.0023195837876759467,-0.002598747788928449
1772882861807680500,4.392680419921875,0.02726151641309261,-0.004005929439421743,0.002541151833196636
1772882861817613600,4.402613525390625,0.02591711606681347,0.004452997353486717,-0.004541933728975709
1772882861827546600,4.412546630859375,0.029956162324547765,0.005376158346701413,0.008574511430016718
1772882861837478700,4.422478759765625,0.029506664991378783,-0.006135982004366815,0.0023061352176358923
1772882861847411700,4.43241162109375,0.007211246553063392,-0.005992810674011707,0.003451247848861385
1772882861857344500,4.442344482421875,0.027112463331222532,-0.0025268333301879465,0.003464543438563123
1772882861867276500,4.452276611328125,0.012596446722745895,-0.0029433234428986907,-0.0026569807821884748
1772882861877209600,4.462209716796875,0.027709844702482223,-0.011463551968988031,-0.015255459631816484
1772882861887142700,4.472142578125,0.028457448199391364,0.0008405790099874138,0.006078847272938582
1772882861897074700,4.48207470703125,0.017834931898117065,-0.00549063330553472,0.0011805447042104787
1772882861907007700,4.4920078125,0.029354104778170582,-0.00611718597235158,-0.007915232387243305
1772882861916939800,4.501939697265625,0.04252279843091965,0.0010493629224598408,-0.002008835054782685
1772882861926872800,4.511872802734375,0.03459258995354175,0.0053661118767224245,-0.006763310989318415
1772882861936805600,4.5218056640625,0.02352057631909847,0.010389712192397564,0.008113698118389584
1772882861946737700,4.531737548828125,0.021728432205319403,0.008913282964285462,-0.011735411729908081
1772882861956670700,4.541670654296875,0.02367138296663761,0.005248001922387629,-0.028926938007818533
1772882861966603800,4.551603759765625,0.04132920473217964,-0.0019519743179902433,-0.014878321998671161
1772882861976535800,4.561535888671875,0.03938742301464081,-0.0001400843241252005,-0.0012565325498697347
1772882861986468900,4.57146875,0.014997662645578384,-0.001967518946994096,0.005686457271734252
1772882861996401700,4.581401611328125,0.03250409324169159,-0.004768840103317052,-0.005057089310034644
1772882862006333700,4.591333740234375,0.025621932512521744,0.0038656624522060154,-0.01027209314511856
1772882862016266500,4.6012666015625,0.02098082870841026,0.010364157626032829,-0.009214823194127529
1772882862026199800,4.61119970703125,0.03190729639232159,-0.004699683857243508,-0.00031336538166506215
1772882862036131600,4.621131591796875,0.03654781567454338,-0.02228016607025638,-0.007127945333917159
1772882862046064600,4.631064697265625,0.032061025649309155,-0.0005334675558842718,-0.007174437657033558
1772882862055997700,4.640997802734375,0.020538930159807203,-0.001258621758967638,0.00439969398038229
1772882862065929700,4.6509296875,0.02278700134754181,0.002341064967121929,-0.002862020101305097
1772882862075862500,4.660862548828125,0.02652911048531532,-0.00714338721493259,0.008673973766097333
1772882862085795800,4.6707958984375,0.022790508478879926,-0.013960483351256698,-0.0026804210232803595
1772882862095727900,4.680727783203125,0.007379004335403442,-0.00966585489725694,0.002768046791094821
1772882862105661000,4.690660888671875,0.026233926931023596,0.0016840075641870497,-0.0034495079829241146
1772882862115594000,4.700593994140625,0.03416062827706337,-0.0029785408867523074,-0.008247647245961706
1772882862125526000,4.710526123046875,0.025929975548386573,-0.003233721224218607,-0.012208454335446003
1772882862135459000,4.720458984375,0.02263970183134079,0.0005842478950507939,-0.005098451083595864
1772882862145391900,4.730391845703125,0.015159575209021567,0.014293752159923314,0.007955434250179678
1772882862155324000,4.740323974609375,0.02638005740344524,-0.010766144289355725,-0.010910254051338416
1772882862165257000,4.750257080078125,0.037303017956018446,0.0036131672621704638,-0.01472105592759326
1772882862175190000,4.76018994140625,0.026377719315886495,0.00246987897856161,-0.02719476675323676
1772882862185122000,4.7701220703125,0.02009293995797634,-0.01651740129245445,-0.007112409838067833
1772882862195055000,4.78005517578125,0.03266132963001728,-0.010334036482404918,0.003161758816416841
1772882862204988000,4.78998779296875,0.04433423176705837,-0.007846329586207866,-0.002061222829145845
1772882862214920000,4.799919921875,0.02682663212716579,0.003971935838274657,0.005974788676842581
1772882862224853000,4.80985302734375,0.02906885809600353,-0.005703070479817688,0.00735804146247683
1772882862234786000,4.8197861328125,0.024279285731911657,-0.0002734831791371107,0.015038999302964656
1772882862244718000,4.829718017578125,0.025327333480119705,-0.0034289150027558206,-0.013236669438600074
1772882862254651100,4.839651123046875,0.025628946775197982,0.013987188695091753,-0.009177541657350958
1772882862264584200,4.849584228515625,0.02008943282663822,-0.01820524478154257,-0.004620506257365923
1772882862274516200,4.85951611328125,0.02457330024242401,0.0015947766444645822,-0.0031362430659588425
1772882862284449000,4.869448974609375,0.030707272952795028,0.010028441131953149,-0.000561606804979965
1772882862294382000,4.879382080078125,0.025620178946852683,-0.0021009726009331643,0.005606699716544244
1772882862304313900,4.88931396484375,0.020536592072248457,-0.0010468056391924618,0.004463297268503811
1772882862314247000,4.899246826171875,0.022181436669826506,-0.005026851718686521,-0.005657646735780872
1772882862324180000,4.909179931640625,0.013349895438551902,-0.0182365167026408,-0.018450456280843353
1772882862334112000,4.919112060546875,0.01469546482861042,-0.007250281655509025,-0.007558521054196171
1772882862344044800,4.929044921875,0.027267946153879164,-0.0122893170023337,-0.01781029521378223
1772882862353977900,4.938977783203125,0.025024551141262053,-0.00007874605832621455,0.00583671593000181
1772882862363910000,4.948909912109375,0.027568974927067755,-0.0075887928948737676,0.004678677601832896
1772882862373843000,4.958843017578125,0.02322831537425518,0.0030731421013362706,-0.0034915433266316537
1772882862383776000,4.96877587890625,0.023377952978014944,0.0014073460472747684,-0.0026627666355809195
1772882862393708000,4.9787080078125,0.0381938293159008,0.01704891435327008,-0.0033811965536442584
1772882862403641000,4.98864111328125,0.02487608258128166,0.009692432376928626,-0.01045241586479824
1772882862413574000,4.998573974609375,0.013951368463039397,-0.006860222891997545,0.008756343403481878
1772882862423506000,5.008505859375,0.02891688240468502,-0.0018328779829666017,-0.00046736178342252966
1772882862433439000,5.01843896484375,0.03176116591989994,0.006042312371544539,0.011270525031362194
1772882862443372000,5.0283720703125,0.03026362083852291,-0.0006661722911521792,0.00783898652996868
1772882862453304000,5.038303955078125,0.034306174227595326,-0.01063711108220741,0.0021732889184728262
1772882862463237000,5.048237060546875,0.0241337397813797,-0.012980642001051455,-0.0013634954891051166
1772882862473170000,5.058169921875,0.009174071058630943,0.005573598881252109,-0.0018784866733825764
1772882862483102200,5.068102294921875,0.02788286318182945,-0.00597021524971351,-0.002074390554684214
1772882862493035000,5.078034912109375,0.012771218767762183,-0.0037515345532447095,-0.002581913101847749
1772882862502968000,5.087968017578125,0.031027590948343276,-0.010349197518918662,-0.005376062448578887
1772882862512899800,5.09789990234375,0.0437491253554821,-0.0032678792221471666,0.012198622494598384
1772882862522833200,5.107833251953125,0.027293080595135688,-0.004938424516562372,0.006868429031339473
1772882862532766200,5.11776611328125,0.021010639324784277,0.0057486266545951365,0.011264202605141327
1772882862542698000,5.127697998046875,0.025051439148187638,0.00574338422389701,-0.0022880218889215027
1772882862552630800,5.137630859375,0.01697276211082935,-0.006287501037959009,-0.012434780754474923
1772882862562563800,5.147563720703125,0.02235854680240154,-0.002344078908115625,-0.002550661730347201
1772882862572496000,5.157495849609375,0.025349545311927794,-0.001223349516186863,-0.0016602339629549533
1772882862582429000,5.167428955078125,0.023407179072499274,-0.026180205716099587,-0.005668012866168283
1772882862592362000,5.177362060546875,0.018918050959706306,-0.009273604176659136,0.009821728162269573
1772882862602294000,5.1872939453125,0.020116320833563805,0.008800159712322056,-0.009674273382441605
1772882862612227000,5.19722705078125,0.026701544442772864,0.004569572937861085,-0.019251739893481133
1772882862622160000,5.207159912109375,0.02894552397727966,-0.010368669404368846,-0.00921979848005576
1772882862632092000,5.217091796875,0.022808628657460212,-0.014947905219718814,-0.012065015860321
1772882862642025000,5.22702490234375,0.02714753464460373,-0.004301204325258732,-0.011238529307767748
1772882862651958000,5.2369580078125,0.038220132800936696,-0.006529018176253885,-0.013865299898071679
1772882862661890000,5.24689013671875,0.025053192713856694,-0.00821178363142535,0.006808778115839231
1772882862671823000,5.256822998046875,0.027896891707181928,0.000887815685197711,0.0021858538558124562
1772882862681756000,5.266755859375,0.011140402695536613,-0.00879020457388833,-0.0006040691236616112
1772882862691688000,5.27668798828125,0.0177244572609663,-0.007004892059694975,0.009863062536367215
1772882862701621000,5.28662109375,0.02849778020977974,0.0123088984856382,-0.011751534030935727
1772882862711554000,5.296553955078125,0.01787351034283638,0.002860230003017932,0.006821254004922229
1772882862721486000,5.306486083984375,0.030296354064345356,0.00157572488412261,0.004388825526495929
1772882862731419100,5.316419189453125,0.04136953674256801,-0.0002237440195865929,-0.013769388075813184
1772882862741351000,5.326350830078125,0.018776596662402154,0.0005785122740082443,-0.008560206626739819
1772882862751284000,5.336283935546875,0.02521510527729988,-0.0004591967432759702,0.00034990256634773685
1772882862761216800,5.346216796875,0.02790507501363754,-0.012616923255193977,-0.005564358412160072
1772882862771148800,5.356148681640625,0.02177168682515621,0.0006539155977778136,0.012668715091224294
1772882862781081900,5.366081787109375,0.026857611787319182,-0.0006435951331630349,-0.017836151174246334
1772882862791015000,5.376014892578125,0.03164835319519043,-0.003715129799302667,0.001526136421621777
1772882862800947000,5.385947021484375,0.029856793603301048,-0.0002613726162351668,0.0028440255035995505
1772882862810880000,5.3958798828125,0.02282441074848175,-0.012562507920525967,-0.009143038882839027
1772882862820813000,5.40581298828125,0.027014263653755186,-0.0035737485672347248,-0.0117916057464201
1772882862830745000,5.4157451171875,0.020134441012144087,-0.008036847189627588,-0.004528341311751865
1772882862840678000,5.425677978515625,0.03255377760231495,-0.0035396636345423754,0.007270118867140263
1772882862850611000,5.43561083984375,0.03135141607522964,-0.011126922159455715,-0.006271780595730524
1772882862860543000,5.44554296875,0.0030716625303030013,0.0003283186389133334,-0.015958210206846707
1772882862870476000,5.45547607421875,0.02536766549050808,-0.0013328560389578342,-0.013457885857671499
1772882862880409000,5.4654091796875,0.030604981622099875,0.0001467697932384908,-0.01931540939697297
1772882862890341000,5.475341064453125,0.023124270477890965,-0.012165873285755514,0.011532822379493154
1772882862900274000,5.48527392578125,0.021631986093521117,-0.008572689365688712,-0.0029815936436527407
1772882862910207000,5.49520703125,0.030460604715347287,-0.010990692026540636,-0.009219761947437654
1772882862920139000,5.505138916015625,0.023428806382417677,-0.014929163986630738,0.00021092107063159346
1772882862930072000,5.515072021484375,0.015046762484312057,-0.014401066725607961,-0.0014519272578065283
1772882862940005000,5.525005126953125,0.03644493982195854,-0.002260674940980971,-0.001790513845696114
1772882862949937200,5.534937255859375,0.035846973928809166,-0.004683463374804705,-0.0024016680139815434
1772882862959870200,5.5448701171875,0.008465630528330803,-0.0031448556306771934,-0.00022061363087268546
1772882862969803000,5.554802978515625,0.016546645653247833,-0.001482110050227493,-0.01291299272547476
1772882862979734800,5.56473486328125,0.031361937469244004,-0.006902856457326561,-0.0030256040320266035
1772882862989667800,5.574667724609375,0.016247954967617988,-0.007179938099347054,0.0003445414046407677
1772882862999601000,5.584600830078125,0.03525426873266697,-0.0014299780041910708,-0.003364606178447138
1772882863009533000,5.594532958984375,0.033009120154380796,0.002316715977154672,-0.012697596409125253
1772882863019466000,5.604466064453125,0.028521745607256888,-0.01542341377697885,-0.018363147890148684
1772882863029399000,5.61439892578125,0.024631752431392668,-0.008279076713975519,-0.017800696268375032
1772882863039331000,5.6243310546875,0.019243045130372047,-0.004014423273131251,-0.004129361739556771
1772882863049263900,5.634263916015625,0.014004559955000877,-0.0036453890313394364,0.003342745973088313
1772882863059197000,5.644197021484375,0.01699848107397556,0.008279752567410469,-0.024596859214524737
1772882863069129000,5.65412890625,0.04079261363744736,-0.004509878639876843,0.008959871185524389
1772882863079062000,5.66406201171875,0.020297522619366643,0.006377206881716847,0.016530744831217453
1772882863088995600,5.67399560546875,0.030920038920640942,-0.004358487470448017,-0.0013835633128881453
1772882863098927600,5.683927734375,0.018797054928541182,-0.004127162932604551,-0.001018321613513399
1772882863108860700,5.693860595703125,0.02044365309178829,-0.011615418062452226,-0.013778996154374909
1772882863118793700,5.703793701171875,0.03316168036758899,0.0019049385721795259,-0.013063376964617054
1772882863128725800,5.713725830078125,0.004131400716304779,-0.0033012152361683545,-0.021923103110759984
1772882863138658800,5.723658935546875,0.027774142110347746,-0.007063472112827002,-0.014934648445923812
1772882863148591900,5.733591796875,0.021040449941158293,-0.004800294687505811,-0.018278373949835076
1772882863158524000,5.74352392578125,0.030765725141763685,-0.005762399451620877,-0.0004290573333390057
1772882863168456700,5.753456787109375,0.041540217134356495,-0.002939085659198463,-0.0030031935541075653
1772882863178389800,5.7633896484375,0.031216976040601727,-0.014069368819519876,0.007086948886536992
1772882863188321500,5.773321533203125,0.0231359609156847,-0.009289550664462149,0.0021054798126919193
1772882863198254600,5.783254638671875,0.023583704683184624,-0.009121427555941045,-0.001456420769833494
1772882863208186600,5.7931865234375,0.03166413528621197,-0.005110675810929387,-0.007068504480971023
1772882863218119700,5.80311962890625,0.01550502764582634,-0.005787570425495505,-0.015035211327124851
1772882863228052700,5.813052734375,0.03974690397679805,-0.009246734436042606,-0.018465025945601517
1772882863237984800,5.82298486328125,0.04333762194514274,-0.010867887630779295,-0.017383180959068704
1772882863247917600,5.83291748046875,0.015353051954507826,0.002235449168179184,-0.011082756507454905
1772882863257850600,5.8428505859375,0.021337387061119078,0.010531276087556034,-0.0019961605195887386
1772882863267782700,5.85278271484375,0.01864507923722267,-0.0019342742645181714,-0.008598620674677659
1772882863277715700,5.8627158203125,0.027922610670328137,0.007478720116522163,0.010897346620704046
1772882863287648800,5.872648681640625,0.01879588588476181,-0.0024327618385665117,0.007763103715586476
1772882863297580800,5.882580810546875,0.030465280890464783,0.0027359643025323746,-0.004710849138651974
1772882863307513600,5.892513671875,0.031962241449952127,-0.015835045051481575,-0.003988900672807358
1772882863317446700,5.90244677734375,0.02642857272028923,-0.009988730176072567,-0.005792874504986684
1772882863327378700,5.912378662109375,0.026882746228575706,-0.013948098793718963,-0.013861000465578399
1772882863337311700,5.922311767578125,0.01012275008559227,-0.01975384419672191,-0.029988041600422
1772882863347244800,5.932244873046875,0.028375030612945554,-0.006299355872534215,-0.02124966539518209
1772882863357176800,5.9421767578125,0.027177345260977745,0.0132081123476848,0.007969773302786053
1772882863367110000,5.95210986328125,0.02313420735001564,0.010784428864717482,0.0129828933236422
1772882863377042700,5.962042724609375,0.019843933632969855,-0.006641410775855183,-0.007345887517090886
1772882863386974700,5.971974609375,0.026126374903321266,-0.010136869942490011,0.013374484173825476
1772882863396907800,5.98190771484375,0.0336059170037508,-0.02172476067719981,0.0018747945956652983
1772882863406840800,5.9918408203125,0.03076163348853588,-0.008058036108128726,0.005338123324676416
1772882863416772600,6.001772705078125,0.016994973942637444,-0.00926059856461361,-0.0017589108477463014
1772882863426705700,6.01170556640625,0.03479951070249081,0.0005358969749882817,-0.022963437909970526
1772882863436638700,6.021638671875,0.024023849666118622,-0.009556056113541126,-0.018223684620531276
1772882863446570800,6.03157080078125,0.03001169190406799,-0.013351027949713169,-0.020647427469003013
1772882863456503600,6.041503662109375,0.036890345501899714,-0.00579469428602606,-0.014787682289863005
1772882863466436600,6.0514365234375,0.030153730723261832,-0.014131620400771499,-0.00917489989240421
1772882863476368600,6.06136865234375,0.02625847685039043,0.001357077164761722,-0.0014754748134640976
1772882863486301700,6.0713017578125,0.01907294926047325,-0.01376552703473717,0.0008432367579545825
1772882863496234800,6.08123486328125,0.021016484543681144,0.01398649457534775,0.00694834185015643
1772882863506166800,6.091166748046875,0.008746201035380362,0.008583229026012123,0.010078230523853562
1772882863516099600,6.101099609375,0.02984744125306606,0.003994184202700853,0.007439959008712321
1772882863526032600,6.11103271484375,0.033738603472709655,-0.00037162805767729874,0.01842888376985211
1772882863535964700,6.120964599609375,0.01802723959982395,-0.01659903342761099,0.003258789450104814
1772882863545897700,6.130897705078125,0.026857027265429496,-0.011855747890658675,-0.014989388007577507
1772882863555830800,6.140830810546875,0.02192249347269535,-0.016800967474188654,-0.027846953901520463
1772882863565762800,6.1507626953125,0.03134849346578121,-0.006272595729772001,-0.007554032108746469
1772882863575696000,6.16069580078125,0.021622633743286133,-0.024120240978989748,-0.010749257086636498
1772882863585628700,6.170628662109375,0.015488076511025428,-0.01442002715440467,0.00824678872943623
1772882863595560700,6.180560791015625,0.024765607944130897,0.0023496318660676477,0.01222072701184079
1772882863605493800,6.19049365234375,0.022825579792261123,-0.0004098411762155592,-0.006735016476595774
1772882863615426800,6.2004267578125,0.029110943672060966,-0.012582089403830468,0.004081668406620156
1772882863625358800,6.21035888671875,0.028815760117769238,-0.020240221207868305,0.010147544316842685
1772882863635292000,6.2202919921875,0.01894143183529377,0.013476444427669048,-0.01871691834743833
1772882863645224700,6.230224609375,0.03360767056941986,-0.0060531808254309,-0.011632307548460084
1772882863655156700,6.24015673828125,0.04169277734756469,-0.006525785039551556,0.00035298728928901253
1772882863665089500,6.250089599609375,0.031070845568180083,-0.007696783313993364,0.007705347929650452
1772882863675021600,6.260021484375,0.035110476347804065,-0.009765881205629557,0.001778869073675014
1772882863684954600,6.26995458984375,0.02433539983332157,-0.006715316262282431,0.000580382287397515
1772882863694887700,6.2798876953125,0.01056757124364376,0.009209306768793613,-0.015719517496589105
1772882863704819700,6.28981982421875,0.031816695499420164,-0.014585666044894604,0.00670180147687206
1772882863714752800,6.299752685546875,0.01476385388970375,-0.008199198144488036,-0.002434855614241678
1772882863724685600,6.309685546875,0.009377484676241873,-0.01496158668519929,-0.006251342879189178
1772882863734617600,6.31961767578125,0.03331950127780437,-0.007911649907380343,-0.007841970788210164
1772882863744550700,6.329550537109375,0.03407178094983101,-0.013002872099168597,0.004264715089637321
1772882863754483700,6.339483642578125,0.02599368843436241,-0.00039511853111907837,0.0009956097414949908
1772882863764415700,6.349415771484375,0.02718962022066116,0.0005558803170919418,-0.006824210863700136
1772882863774348800,6.359348876953125,0.022252163818478582,-0.0022948329389095305,-0.027561627304251303
1772882863784281900,6.36928173828125,0.014021511089801788,0.006873904357478022,-0.018532070149690844
1772882863794214000,6.3792138671875,0.04289923052787781,-0.005148907195776701,-0.005070444265240803
1772882863804146700,6.389146728515625,0.017309446719288826,0.01406082018688321,0.004834304271673318
1772882863814079700,6.399079833984375,0.026436171504855156,-0.0066896886306814845,-0.006175747759174555
1772882863824011800,6.40901171875,0.03646013739109039,-0.01529880101662129,0.008238936499832197
1772882863833944800,6.41894482421875,0.0020405659168958664,-0.002479560122359544,0.011888928641052916
1772882863843878000,6.4288779296875,0.03600888649225235,-0.023907986467797307,-0.0004203580036526546
1772882863853809700,6.4388095703125,0.02942658549249172,-0.026071740372944623,-0.012121008947433438
1772882863863742500,6.448742431640625,0.011620295166969299,-0.01952418189300224,0.00006915167949628085
1772882863873675500,6.458675537109375,0.03092588413953781,-0.005542107764445245,-0.011819719879340846
1772882863883607600,6.468607666015625,0.03346913888156414,-0.0002613726162351668,-0.013634685462992638
1772882863893540600,6.47854052734375,0.012219430103898048,0.0059345411481335755,-0.00007824373482726513
1772882863903473700,6.4884736328125,0.030024551385641095,-0.0026605244461447,0.0044301850167685185
1772882863913405700,6.49840576171875,0.023290274694561956,-0.0015895524800755084,-0.003440180748864077
1772882863923338800,6.5083388671875,0.017004910814762113,0.0015838899242691694,-0.008580893221742008
1772882863933271600,6.518271484375,0.03436462641656399,-0.0022459157632663844,-0.006472837859473657
1772882863943203600,6.52820361328125,0.03496200778782368,-0.0008507716104388237,-0.020576997147873043
1772882863953136600,6.53813671875,0.02434182957410812,-0.013158902911096811,-0.0030494780979584903
1772882863963069700,6.548069580078125,0.03437105615735054,-0.0035844708906486627,-0.005296610854065511
1772882863973001700,6.558001708984375,0.01507014335989952,-0.006972432828508317,-0.02455548602452036
1772882863982934800,6.567934814453125,0.03302665581107139,0.0033420952358283102,-0.009001447588216978
1772882863992867600,6.57786767578125,0.03676993399262428,-0.005571790516655892,-0.003589708754769526
1772882864002799900,6.5877998046875,0.02390051554739475,-0.016492394715361295,-0.005520873180171475
1772882864012732700,6.597732666015625,0.01911269674897194,-0.000380925608985126,-0.0020677507513435557
1772882864022665700,6.607665771484375,0.030785014364123342,0.0013922032770700753,-0.015825530587753746
1772882864032597800,6.61759765625,0.0400631303191185,0.010063110586535185,0.004841455531667452
1772882864042530800,6.62753076171875,0.030185294905304905,0.0011301365410909057,0.0021714371713926085
1772882864052462800,6.637462890625,0.02764496277272701,0.005061886499449611,0.006889259473525453
1772882864062396000,6.64739599609375,0.021358429849147795,0.004233746845927089,-0.008098495982680469
1772882864072328700,6.65732861328125,0.01342705232799053,-0.004863897975627332,-0.010251774159586056
1772882864082260700,6.6672607421875,0.033626959791779515,-0.03311221520267427,-0.006177802718942985
1772882864092193300,6.677193359375,0.020162498062849043,-0.003737853087764233,-0.0072427833356428885
1772882864102126300,6.687126220703125,0.029439444974064824,-0.018991244060080497,-0.00008926516905194148
1772882864112058400,6.697058349609375,0.027647885382175445,-0.012707505881786346,0.012436353940342086
1772882864121991400,6.706991455078125,0.02794657606780529,0.00019619842553511262,0.005088276749453507
1772882864131924500,6.716924560546875,0.03407937973439693,0.01165635286103934,-0.007245742477709427
1772882864141856500,6.7268564453125,0.028841479080915448,0.002871335918921977,0.0034477178846369495
1772882864151789300,6.736789306640625,0.01761865879893303,-0.012548698590882122,-0.004798675835866015
1772882864161722400,6.746722412109375,0.026145079603791234,-0.013026125110592692,0.011389970709546468
1772882864171654400,6.756654296875,0.026590485283732413,-0.006567998479772358,0.003174472167517524
1772882864181587500,6.76658740234375,0.018360417076945305,-0.008346314997598529,0.001387342155573424
1772882864191520500,6.7765205078125,0.032871757510304446,-0.017794143230002373,-0.007509873306611552
1772882864201452500,6.78645263671875,0.018353987336158752,-0.004681600211281329,-0.007628704780153929
1772882864211385600,6.796385498046875,0.025236732587218282,-0.007060202443506568,0.0009506974541116505
1772882864221318400,6.806318359375,0.04244681058526039,-0.0023373021074570713,-0.001903979590954259
1772882864231250400,6.81625048828125,0.03721066349744796,-0.007764825315214693,-0.00781532480987953
1772882864241183500,6.82618359375,0.018204349732398987,-0.004339892367832362,-0.0024891271017258984
1772882864251116500,6.836116455078125,0.029280455020070074,0.0003265650732442736,-0.009770781143032946
1772882864261048600,6.846048583984375,0.021649521750211714,0.00014594780933111905,-0.005656427459651604
1772882864270981600,6.855981689453125,0.03137713503837585,-0.011726879080291836,-0.004647232150798663
1772882864280914400,6.86591455078125,0.03407411903738975,-0.017549593884404746,-0.0035457919812295585
1772882864290846500,6.875846435546875,0.030331425377726554,0.00196633163690567,-0.011382399324444122
1772882864300779300,6.885779296875,0.02150514484345913,-0.011719554290361702,-0.001075250848964788
1772882864310712300,6.89571240234375,0.029285131195187566,-0.019584405913949013,0.003956160597119014
1772882864320644400,6.905644287109375,0.018810498932003972,-0.004773735474143177,0.005243716189626138
1772882864330577400,6.915577392578125,0.011632570126652716,-0.010223507046326994,-0.010130798678018619
1772882864340510500,6.925510498046875,0.015823592075705526,0.0010966178639791905,-0.010792797117552254
1772882864350442500,6.9354423828125,0.015079495710134505,0.00451702076671645,-0.010228224320639856
1772882864360375300,6.945375244140625,0.030193478211760518,-0.011971154431253671,-0.003946321906405501
1772882864370308400,6.955308349609375,0.014184592697024344,-0.0042889841645024716,0.005825635130272712
1772882864380240400,6.965240478515625,0.025562311279773712,-0.000752973791770637,-0.011583865296852309
1772882864390173400,6.97517333984375,0.03544248478114605,-0.0022335677383467554,-0.006888410090154502
1772882864400105500,6.98510546875,0.02751344534754753,-0.012780991243105382,-0.015827882375044282
1772882864410038500,6.99503857421875,0.03275076147913933,-0.0018762969995848834,-0.010440250502969138
1772882864419971600,7.0049716796875,0.02467266896367073,-0.002112096783146262,-0.0021033677707077004
1772882864429903600,7.014903564453125,0.028415947145223615,-0.002521572633180767,0.006985315142967738
1772882864439836400,7.02483642578125,0.019140753799676894,0.018945596553757785,-0.012390923346439375
1772882864449769500,7.03476953125,0.020336685585975647,0.0038519444541074335,-0.005276419732696377
1772882864459701500,7.044701416015625,0.02886661352217197,-0.004094247043691575,-0.010004694930184632
1772882864469634600,7.054634521484375,0.02332709957361221,-0.004756017154362052,0.002961717616114765
1772882864479567600,7.064567626953125,0.022729133680462837,0.005557816790230572,-0.013359090241871308
1772882864489499600,7.074499755859375,0.03664484630823135,-0.004435626093577593,-0.009120180880348197
1772882864499432400,7.084432373046875,0.03514730122685432,-0.0058796143568120894,-0.018007941244309766
1772882864509365500,7.094365478515625,0.026170214045047758,-0.0066567362091504035,-0.012514821437455248
1772882864519297300,7.10429736328125,0.022281974434852598,-0.013042674386594445,0.004111084014060907
1772882864529230300,7.114230224609375,0.01958791304528713,0.0001562682739458978,-0.0029163326879846864
1772882864539163400,7.124163330078125,0.041432080584764476,-0.010665314263384788,0.0038643906604382207
1772882864549095400,7.134095458984375,0.017787585625052452,-0.001640716411732137,-0.014590680146729573
1772882864559028500,7.144028564453125,0.005216857865452766,-0.009370890538673847,0.005275823794363532
1772882864568961300,7.153961181640625,0.03020516864955425,-0.011451751933339983,-0.00661584479304729
1772882864578893300,7.163893310546875,0.0254191034168005,-0.02054356980230659,0.0002272328846156597
1772882864588826400,7.173826416015625,0.0162953012406826,-0.007849434858746826,0.007969663704931736
1772882864598759400,7.183759521484375,0.03320435046553612,-0.007998104348126799,0.011193868182133882
1772882864608691500,7.19369140625,0.0321592253267765,-0.0028530148109421134,0.007190103300334885
1772882864618624500,7.20362451171875,0.02467617609500885,-0.008813201856985687,0.008687993158295285
1772882864628557600,7.2135576171875,0.03156184395551681,-0.008140618091356008,-0.008690956866939086
1772882864638489600,7.223489501953125,0.033656185886263845,-0.0067693297381512816,0.00212966212258907
1772882864648422400,7.23342236328125,0.033953123006224634,-0.00516571220010519,0.002379355717473663
1772882864658354400,7.2433544921875,0.033654432320594785,-0.009083342301566153,-0.015505694366106763
1772882864668287500,7.25328759765625,0.03185995011925697,-0.012720895086321979,-0.003353911254496779
1772882864678220500,7.263220458984375,0.012108955466747283,-0.00754566613920033,0.0012349235062603838
1772882864688152600,7.273152587890625,0.02138473333418369,-0.002380483662057668,-0.016282284212193916
1772882864698085600,7.283085693359375,0.018691256466507912,-0.032888452916778624,-0.02215510578532703
1772882864708018400,7.293018310546875,0.018544541472196578,-0.02192952600168064,-0.0014229477584944107
1772882864717950500,7.302950439453125,0.019890110862255096,-0.002426277298852801,-0.019086151235341093
1772882864727883300,7.31288330078125,0.024225509718060492,-0.0022721096504479646,0.0019600137772620655
1772882864737816300,7.32281640625,0.03155775230228901,-0.000019197890814393756,-0.0018508634475176223
1772882864747748400,7.332748291015625,0.02332417696416378,-0.003766092801559716,-0.01700155666376231
1772882864757681400,7.342681396484375,0.019732289952039718,-0.005694156520999968,-0.008472345680196303
1772882864767614500,7.352614501953125,0.028263386932015418,-0.0029255320578813553,0.003965524363797158
1772882864777546500,7.36254638671875,0.02572013218998909,-0.0041434016813524065,-0.015134258104674517
1772882864787479300,7.372479248046875,0.010008183795213699,-0.018654632516857235,0.001617566148296464
1772882864797412400,7.382412353515625,0.010608487775921821,-0.01154098285306245,0.000012297792569734155
1772882864807344400,7.392344482421875,0.026620880421996115,-0.010841419748961925,-0.0065907994000473985
1772882864817277400,7.40227734375,0.03110883949100971,-0.004662858978193253,0.020177412504190577
1772882864827210500,7.41221044921875,0.012404723542928695,-0.00018395999846979974,0.012403965491103008
1772882864837142500,7.422142578125,0.005368249034881592,0.00024862273251637817,0.00508018705783179
1772882864847075600,7.43207568359375,0.02033259393274784,-0.00515086169084534,-0.00798775420075981
1772882864857008400,7.44200830078125,0.01853694268763065,-0.005446574968099594,0.009388716173020657
1772882864866940400,7.4519404296875,0.03125613900721073,0.0029221345243975517,-0.015305036677874159
1772882864876873500,7.46187353515625,0.025573417195677756,-0.016805077393725512,-0.013446690893510822
1772882864886806500,7.471806640625,0.01779459988772869,-0.004172536444291472,-0.0033471709864563307
1772882864896738600,7.481738525390625,0.024079963767528533,0.0009030497869476676,0.012234335412085056
1772882864906671600,7.491671630859375,0.03036298955976963,-0.0003612893267534673,0.003087960644555278
1772882864916604400,7.5016044921875,0.04039046257734299,-0.0014412117842584847,-0.0042516934945713725
1772882864926536400,7.511536376953125,0.04038753996789455,0.00014808496749028563,0.007139005584048573
1772882864936469500,7.521469482421875,0.03484977958500385,-0.00938393268333748,-0.009425255640991963
1772882864946401300,7.5314013671875,0.019886603730916975,-0.005518416361603886,-0.016925436387362422
1772882864956334300,7.541334228515625,0.024974866780638694,-0.012438351817894726,-0.005871090840350371
1772882864966267400,7.551267333984375,0.02302957793176174,-0.017087858124170453,0.003210143985808827
1772882864976199400,7.561199462890625,0.03515548453330993,-0.015174681446608156,-0.008540257533965631
1772882864986132500,7.571132568359375,0.045184711116552354,-0.012161306708492338,-0.0036743525476311332
1772882864996065300,7.581065185546875,0.017805705803632735,-0.018640476127341387,-0.005247134272707626
1772882865005997300,7.590997314453125,0.020653496450185774,-0.005497994628082961,0.0034638949845917522
1772882865015930400,7.600930419921875,0.033524668461084366,0.0038418797178193923,-0.0005802886725636199
1772882865025863400,7.610863525390625,0.01721416965126991,-0.008132836643699556,0.00008480590635444969
1772882865035795500,7.62079541015625,0.02574409758746624,-0.01458137346226722,-0.0002260478578158654
1772882865045728500,7.630728515625,0.017668927681446074,-0.0021944413043558596,0.0031371906307409514
1772882865055661300,7.640661376953125,0.035625440132617946,-0.014630856893491,-0.012758797677606343
1772882865065593600,7.650593505859375,0.014225509229302406,-0.0006731134885922074,-0.009507926672475877
1772882865075526400,7.6605263671875,0.012727964147925376,-0.013345931649487466,-0.017739924258156677
1772882865085459500,7.67045947265625,0.0287391877502203,-0.03232493728250265,-0.012113124751788563
1772882865095390500,7.680390380859375,0.02828852137327194,-0.014182254609465598,0.0029197918702615422
1772882865105323500,7.690323486328125,0.016615034714341163,-0.005889149370137602,-0.000832055493525695
1772882865115256600,7.700256591796875,0.02320084284543991,-0.009236980227008461,-0.0034834536350099366
1772882865125188600,7.710188720703125,0.032329905718564984,-0.027856614495720713,0.004329873297316953
1772882865135121700,7.72012158203125,0.025000001221895215,-0.013286639210302383,0.005537415606307331
1772882865145054500,7.730054443359375,0.025149054303765295,-0.008184786026645451,-0.004465792902978137
1772882865154986500,7.739986572265625,0.025746435675024985,-0.004398983877617866,-0.010850253792677539
1772882865164919600,7.74991943359375,0.018866028511524198,0.004311232528928667,0.0011558851869893259
1772882865174852600,7.7598525390625,0.03502455163002014,-0.0038298239538446066,-0.011739989723614416
1772882865184784600,7.76978466796875,0.016616788280010224,-0.01632377841649577,-0.008306403112318367
1772882865194717700,7.7797177734375,0.005992518413066863,-0.0021024339056573806,0.004074638160923495
1772882865204649700,7.789649658203125,0.0413046548128128,-0.009481109447497874,-0.004784060505335219
1772882865214582800,7.799582763671875,0.035766309908032416,-0.005362970071565359,-0.011920814766793046
1772882865224515600,7.809515625,0.029033786782622334,-0.01483730271840468,-0.006067971969186328
1772882865234447400,7.819447265625,0.024545243191719055,-0.013675328000634908,-0.006742033022560645
1772882865244380400,7.82938037109375,0.01990823104083538,-0.011183273722883313,-0.0031117570786736905
1772882865254313500,7.8393134765625,0.02903670939207077,-0.00659298679055646,-0.0014349989558919331
1772882865264245500,7.84924560546875,0.01856149260699749,0.008124744668789208,-0.017354651267617007
1772882865274178600,7.859178466796875,0.018712883776426315,-0.006136730923037976,-0.017319395007856654
1772882865284111600,7.869111572265625,0.026793314379453658,-0.00702220852067694,0.0037577702144975774
1772882865294043600,7.879043701171875,0.033679566761851305,-0.023610044700838623,-0.0043615356607711875
1772882865303976400,7.8889765625,0.021110008046030998,-0.0023849041088484227,-0.009915751704829744
1772882865313909500,7.898909423828125,0.004648702588677406,-0.002792626393213868,-0.0014309004527982324
1772882865323841500,7.908841552734375,0.020511457630991936,-0.010340374891646206,0.00709814385069767
1772882865333774600,7.918774658203125,0.019316694888472555,-0.00039057022016495465,0.0022351523406570774
1772882865343707600,7.928707763671875,0.0067477206945419305,-0.00490424825232476,0.003310916929563973
1772882865353639700,7.9386396484375,0.03861702316403389,-0.011813497917819767,-0.0036335798625368623
1772882865363572500,7.948572509765625,0.03906593597531319,-0.016322353644389657,-0.007297184970579109
1772882865373505500,7.958505615234375,0.010036825367808342,-0.0012140884974971412,0.004640137973020319
1772882865383437600,7.9684375,0.02529869190752506,-0.0031095285889692604,0.003668349781818688
1772882865393370600,7.97837060546875,0.016468904241919515,-0.018047533469181507,-0.0029204197746352293
1772882865403301400,7.98830126953125,0.017964695757627488,-0.023272099717054514,-0.006299821663415059
1772882865413234400,7.998234375,0.017068039178848266,-0.022263598527945575,-0.016628337153908795
1772882865423167500,8.00816748046875,0.016323358291387556,-0.01313196010524407,-0.0025878268194035625
1772882865433099500,8.018099609375,0.03233633545935154,0.00475444625178352,-0.01690181348318001
1772882865443032600,8.028032470703126,0.01976560769975185,-0.00926876360476017,-0.02181284766931785
1772882865452965400,8.03796533203125,0.01542436362504959,-0.017439612437598406,-0.0034605499667464752
1772882865462897700,8.047897705078125,0.02081190188229084,-0.01820889804335311,-0.0006482439088169485
1772882865472830500,8.05783056640625,0.02365384730994701,-0.029088037720508872,-0.008051647466537542
1772882865482763500,8.067763427734375,0.015574585750699043,-0.011777677685767412,-0.012382484311657026
1772882865492695600,8.077695556640625,0.02979132715165615,0.005240951127093285,-0.013048092630517203
1772882865502628600,8.087628662109376,0.03488134376704693,-0.02044493173342198,-0.005441679597273469
1772882865512561700,8.097561767578124,0.03129413293004036,-0.01476810993971303,0.006384271376742981
1772882865522493700,8.10749365234375,0.02740530879795551,-0.014091891178581863,0.006634248099417891
1772882865532426500,8.117426513671875,0.03713116852045059,-0.014964472762029618,-0.0026535079001798294
1772882865542359600,8.127359619140625,0.03728080612421036,-0.003745250942930579,-0.011096264442999382
1772882865552291600,8.13729150390625,0.03563420796096325,-0.02061384029323235,-0.007400227503234055
1772882865562224600,8.147224609375,0.024113866037130356,-0.0015453480121679602,-0.007476877502596471
1772882865572157700,8.15715771484375,0.018878303471207617,-0.00014307999880984424,-0.012378171179431956
1772882865582089700,8.16708984375,0.010798457390069962,0.0023727387470193206,-0.007851067410118411
1772882865592022800,8.177022705078125,0.03084697368443012,-0.004994977009389549,-0.010199984606844372
1772882865601954600,8.18695458984375,0.015734744748473167,0.003484572446439415,-0.014602587496943306
1772882865611887600,8.1968876953125,0.023215455892682074,-0.0066145227689296,-0.007329440989077556
1772882865621820700,8.206820556640626,0.022616320955753326,-0.011663294058479368,-0.013963323762314394
1772882865631752400,8.21675244140625,0.021267244434356687,-0.02848046374879777,0.007084480651526246
1772882865641685500,8.226685546875,0.019619477227330206,-0.01825600685440004,0.013451579414471051
1772882865651618600,8.23661865234375,0.03518178801834583,-0.004655260193627327,0.004722521310136653
1772882865661550600,8.246550537109375,0.04161094428300857,-0.0025180107029154895,-0.010463407616270706
1772882865671483400,8.2564833984375,0.010933481946587562,-0.006198306650854647,-0.0011216701068449764
1772882865681416400,8.26641650390625,0.009736381116509436,-0.003171086050476879,0.008314253058633767
1772882865691348500,8.276348388671876,0.04310732032060623,-0.018647252927999944,-0.01703765317373909
1772882865701281500,8.286281494140624,0.030988427981734273,-0.015142203949112445,-0.002560566636431031
1772882865711214600,8.296214599609375,0.015276479586958885,-0.01768644507182762,0.0006278678410686552
1772882865721146600,8.306146728515625,0.016622633498907087,-0.010489427973516284,-0.01039389061059337
1772882865731079700,8.31607958984375,0.02485211718380451,-0.008809786057192832,-0.008144221120816655
1772882865741012500,8.326012451171875,0.042510523471236225,0.003261138954106718,-0.016153308087261394
1772882865750945500,8.335945556640626,0.025302783560752867,-0.0029106632823124525,-0.017861317581543697
1772882865760877600,8.345877685546874,0.023358663755655287,-0.0008534202252514659,-0.009233507344999815
1772882865770810600,8.355810546875,0.028446926805377006,-0.011370539923291652,-0.019460099114268086
1772882865780743700,8.36574365234375,0.008695932152867316,0.0036704869399778544,0.01047652510945918
1772882865790675700,8.37567578125,0.01692833844721317,-0.0010376176857389509,-0.00004942406571935862
1772882865800608500,8.3856083984375,0.025006430962681767,-0.013214907414652406,-0.007600608913542237
1772882865810541600,8.39554150390625,0.026202947270870205,-0.013799173576012253,-0.005651219278282951
1772882865820473600,8.4054736328125,0.026052725145220754,-0.0160316636021249,-0.017558427928120363
1772882865830406700,8.41540673828125,0.016477087548375128,-0.008297032495774329,-0.01019181500012055
1772882865840339700,8.425339599609375,0.01902034229040146,-0.017422606503870338,-0.009509161931625567
1772882865850271500,8.435271484375,0.043859015470743175,-0.018439290999434886,0.0007296910975943319
1772882865860204500,8.44520458984375,0.032336919981241226,-0.002728255920112133,-0.0018374765262706204
1772882865870137600,8.4551376953125,0.027250410497188567,-0.006810958656482398,0.00025806184771936386
1772882865880069400,8.4650693359375,0.0034603695869445798,-0.005846040880773216,-0.0026805169214028863
1772882865890002400,8.47500244140625,0.020972645401954648,-0.01199349412722513,-0.013836895787494722
1772882865899935500,8.484935546875,0.03653554071485996,-0.0028652897706255313,0.004394373917870689
1772882865909867500,8.494867431640625,0.03159749979078769,0.014031502760853617,0.01058226420598803
1772882865919800600,8.504800537109375,0.027105449068546294,-0.010262322953063995,-0.010261297756468411
1772882865929733600,8.514733642578125,0.040272973677515984,-0.019376918909419328,-0.00829075116874883
1772882865939665700,8.524665771484376,0.020971476358175277,-0.015247673617582768,-0.0024120752435643224
1772882865949598500,8.534598388671874,0.02097089183628559,-0.01868639762829989,-0.01385213217253331
1772882865959531500,8.544531494140625,0.026809096470475195,-0.01607961266338825,-0.009905472339410333
1772882865969463600,8.554463623046875,0.021722586986422536,-0.006552252921368926,-0.001428872892493382
1772882865979396600,8.564396728515625,0.009899462723731994,-0.005125946445297449,-0.011609677874832414
1772882865989328600,8.57432861328125,0.024262919119000432,-0.030336996601987628,-0.0009105298405047505
1772882865999261700,8.58426171875,0.02950198881626129,0.0023724830186925825,-0.01385874457641039
1772882866009194500,8.594194580078126,0.02396539747714996,-0.01723420779230073,-0.012735667963768354
1772882866019126500,8.60412646484375,0.03682897070348263,-0.01272637497903779,-0.011517471830022986
1772882866029059600,8.6140595703125,0.014533552265167235,-0.00033016353612765666,0.005787255331664346
1772882866038992600,8.62399267578125,0.02021978120803833,-0.00033807284794747826,-0.004471450892207213
1772882866048924700,8.633924560546875,0.035034488502144814,-0.011432663640379905,0.0044646877912804485
1772882866058857700,8.643857666015625,0.014383330139517782,-0.005225534362252801,-0.003493433889618609
1772882866068790800,8.653790771484376,0.020516718327999114,-0.010095314089395105,-0.000021679825556930153
1772882866078722600,8.66372265625,0.02605214062333107,-0.0085570899377577,-0.0005648034090641886
1772882866088655400,8.6736552734375,0.025604981377720833,-0.00804570634951815,0.0009114751219982281
1772882866098589000,8.6835888671875,0.02545125212073326,-0.01867249696711078,-0.006204517195932567
1772882866108521000,8.69352099609375,0.030984920850396155,-0.008363777589052915,-0.004037749349791556
1772882866118454000,8.7034541015625,0.029342414340376852,-0.012686590957920997,0.004245638213120401
1772882866128387000,8.713386962890626,0.02500117026567459,-0.0024304054846987127,-0.001642773654789198
1772882866138319000,8.723319091796874,0.009887772285938262,0.0016123671000823378,-0.024228496259590608
1772882866148252000,8.733251953125,0.026197686573863028,-0.002406001695804298,0.00021639411348151042
1772882866158185000,8.74318505859375,0.020660510712862012,-0.003302932269219309,-0.003180495482927654
1772882866168117000,8.753116943359375,0.020665186887979508,-0.019479612098913638,0.006055418448289856
1772882866178050000,8.763050048828125,0.016921908706426618,0.0068014784420840435,0.014597954704309813
1772882866187981800,8.77298193359375,0.012886954101920128,-0.0068854121321812265,0.002318378211278468
1772882866197915000,8.782914794921876,0.025903672063350675,-0.0059235630963928995,-0.0015302303581382147
1772882866207848000,8.792847900390624,0.020066051951050757,-0.011838102636113762,0.003019612682657316
1772882866217780000,8.802780029296875,0.03248948019444942,-0.007633472286816686,0.003224437372642569
1772882866227712800,8.812712646484375,0.04371463856399059,-0.008467110099364072,-0.009589127266081049
1772882866237645800,8.822645751953125,0.023214871370792388,-0.005048716490622609,-0.007545140982815064
1772882866247577900,8.832577880859375,0.034738135904073715,-0.0019396262930706143,0.010962840471812523
1772882866257511000,8.842510986328126,0.03788111010491848,-0.00867651506634429,0.01080696720679989
1772882866267444000,8.85244384765625,0.028007366344332693,-0.005319587587565183,-0.01646318917047465
1772882866277376000,8.8623759765625,0.013640987339615822,-0.005439944297913462,-0.018087552669027354
1772882866287309000,8.87230908203125,0.03339607364535332,-0.013468370719067752,-0.019890955679048784
1772882866297241900,8.882241943359375,0.03339607364535332,-0.0016524251158349214,-0.0013769029599498025
1772882866307174000,8.892173828125,0.02157470294833183,-0.011968359685968606,0.0068760392323485575
1772882866317107000,8.90210693359375,0.04327390905916691,-0.014725330243911594,0.006599622027319856
1772882866327040000,8.9120400390625,0.03279927679598331,-0.003514127334486693,0.014165079712378792
1772882866336972000,8.921971923828124,0.02232639809846878,-0.007635152787249535,0.0007063969869748689
1772882866346905000,8.931905029296875,0.024721184280514716,-0.010480915873497724,-0.009499905479513108
1772882866356838000,8.941837890625,0.021277765828371046,-0.007881766225770115,-0.005173571279575117
1772882866366770000,8.95177001953125,0.013793547552824019,-0.011536251879017799,-0.007208045382401906
1772882866376703000,8.961702880859375,0.029355858343839643,-0.010477518340013921,-0.009509760153247043
1772882866386636000,8.971635986328126,0.025917700588703154,-0.012241751533560455,0.0002217712582089007
1772882866396568000,8.981568115234374,0.02142740343213081,-0.01411461446704343,0.011841854079335462
1772882866406501000,8.991501220703125,0.021724925073981285,-0.022423392199538646,0.003548534210876096
1772882866416433000,9.001432861328125,0.03429214570224285,-0.01635631071291864,-0.010486160587484483
1772882866426366000,9.011365966796875,0.027113632375001907,-0.007669073323160409,0.0036968064080341715
1772882866436298800,9.021298828125,0.0191840084195137,-0.00668148705791682,-0.0058549091738183045
1772882866446230800,9.031230712890626,0.01948328362703323,-0.005179996453784406,-0.02407724437076831
1772882866456163800,9.041163818359376,0.015443652847409247,-0.002787657957151532,0.000621963256667368
1772882866466097000,9.051096923828124,0.025017536878585815,-0.0073345806717872615,0.001697752961749211
1772882866476029000,9.06102880859375,0.039082302588224406,-0.016852935123443602,-0.011045347106514964
1772882866485962000,9.0709619140625,0.029509587600827215,-0.0076021090341731904,0.01489611795026576
1772882866495894800,9.080894775390625,0.027262100934982297,-0.01603020229740068,0.004552482522453647
1772882866505827000,9.0908271484375,0.023973580783605574,-0.014817301109991967,0.0086254767155624
1772882866515759900,9.100759765625,0.02696750190258026,-0.013227675564680248,0.004950971187592949
1772882866525693000,9.11069287109375,0.013202011400461197,-0.013115739622805267,-0.0006074255579500458
1772882866535625000,9.120625,0.02412614099681377,-0.021965455831587315,-0.021431469969183672
1772882866545558000,9.13055810546875,0.034601942303776737,-0.012104571552574633,-0.016136172006081324
1772882866555491000,9.140490966796875,0.02697100903391838,-0.022757026334386317,-0.0027175381632754576
1772882866565423000,9.150423095703125,0.03086275577545166,-0.01339369804766029,-0.004837512292200699
1772882866575356000,9.16035595703125,0.016349077254533766,-0.011056377673894167,-0.005493131223297677
1772882866585288000,9.170287841796876,0.02383037292063236,-0.007734046584460884,0.004652737159689423
1772882866595221000,9.180220947265624,0.03385726141631603,0.0013422814544290303,-0.0017158366077113896
1772882866605154000,9.190154052734375,0.03325871100127697,-0.010499675372894852,-0.010349190669052767
1772882866615085800,9.2000859375,0.018141221368312834,-0.010183156769629567,0.002383422254526522
1772882866625019000,9.210018798828125,0.028914544317126274,-0.009418456007447094,-0.010008681552135384
1772882866634952200,9.2199521484375,0.02173252385854721,-0.01393133032200858,-0.000987951591424644
1772882866644884000,9.229884033203126,0.025624855121970175,-0.017127770009450614,0.006903395313443615
1772882866654816800,9.239816650390624,0.03774900815784931,-0.003781381702236831,0.0030771743890596554
1772882866664749800,9.249749755859375,0.037898645761609076,-0.005110310484748333,0.0002810751138371415
1772882866674681900,9.259681884765625,0.031463644278049464,-0.007327986534219235,-0.012481980897067113
1772882866684615000,9.269614990234375,0.0171013569265604,-0.00745716587183997,-0.013289552686596288
1772882866694548000,9.2795478515625,0.023389643415808677,-0.014932835514750331,-0.006945412390842102
1772882866704480000,9.28947998046875,0.031472412106394766,-0.004702770863473415,0.003082439652644098
1772882866714412800,9.299412841796874,0.028627544069290158,-0.005388652502093464,0.005545617179071996
1772882866724345900,9.309345947265625,0.019347674548625945,0.0011281272470951079,-0.02797222881558118
1772882866734278000,9.31927783203125,0.02473579732775688,-0.003379979560803622,-0.012199850903882179
1772882866744211000,9.3292109375,0.01935001263618469,-0.005352540009096265,-0.007453220349084586
1772882866754144000,9.33914404296875,0.035810733571648594,-0.012382000254467129,-0.0027125765770790165
1772882866764076000,9.349075927734376,0.035061376509070395,-0.01505023308303207,-0.014647481518017593
1772882866774009000,9.359009033203124,0.03116904524564743,-0.019463263752311468,-0.018697332297556567
1772882866783941000,9.368941162109374,0.026080197674036024,-0.018659016431029886,0.004391588305740151
1772882866793874000,9.3788740234375,0.018299042278528212,-0.006388349330238997,-0.005403350031014997
1772882866803807000,9.388806884765625,0.025032149925827977,-0.004580624054837972,-0.011422573787916916
1772882866813739000,9.398739013671875,0.02832125459909439,-0.015409878441970795,-0.0015887236463022418
1772882866823672000,9.408672119140626,0.014990648382902145,-0.008214541844092309,-0.009728990111208986
1772882866833605000,9.418605224609376,-0.032092005309462546,0.04033953610770404,-0.07035148830667604
1772882866843537000,9.428536865234374,-0.07829378451406956,0.004415204360056668,-0.15561023016227407
1772882866853470000,9.438469970703125,-0.03766951318085193,-0.01525890739765018,0.14559294061199762
1772882866863402800,9.44840283203125,0.37735739510953425,-0.012888360607717185,0.00018697508110781199
1772882866873334800,9.458334716796875,-0.141734867811203,0.03472317579695955,-0.08369025499643758
1772882866883267800,9.468267822265625,-0.17635025411844252,-0.011403547143749892,-0.052895495556434614
1772882866893201000,9.478200927734376,0.36350597988963124,-0.033859581237565724,0.04093881717510521
1772882866903133000,9.4881328125,0.0027507600128650663,-0.03195500799156725,0.10536235390463844
1772882866913066000,9.49806591796875,-0.1417880593031645,-0.013594097724277525,-0.12750955951130016
1772882866922998800,9.507998779296875,0.030796120280027386,-0.01373893128875643,0.05102679734141566
1772882866932931000,9.51793115234375,0.23753099126815794,-0.026154486752953378,0.04265581369344145
1772882866942864000,9.52786376953125,-0.06511924564242362,-0.01720483556734398,-0.003919728443713393
1772882866952797000,9.537796875,-0.06565875934660434,-0.012579093729145825,-0.0021029887447948565
1772882866962729000,9.54772900390625,0.15081190823614596,-0.02867317330930382,0.03461892083804123
1772882866972662000,9.557662109375,0.0726800362855196,-0.010295293640904127,0.04682779301530681
1772882866982594000,9.567593994140625,0.01566401759982109,-0.0043105384091846645,0.0427602878480684
1772882866992527000,9.577527099609375,0.082474285069108,-0.00794606363363564,0.019023806039255575
1772882867002460000,9.5874599609375,-0.03695347386598587,0.06145938969431445,-0.19392967688553034
