time,seconds_elapsed,z,y,x
1772882857474556000,0.059555908203125,-0.0000958738019107841,-0.0001371527905575931,-0.0016871124971657991
1772882857484488000,0.069488037109375,-0.00129695946816355,0.00743181724101305,0.00031851406674832106
1772882857494421000,0.0794208984375,-0.0002724413643591106,0.0013704627053812146,-0.0006359628750942647
1772882857504354000,0.08935400390625,-0.000966993800830096,-0.010848652571439743,-0.005647499579936266
1772882857514286000,0.0992861328125,-0.0020730046089738607,-0.012526710517704487,-0.009795905090868473
1772882857524219100,0.10921923828125,-0.0011017497163265944,-0.009235842153429985,-0.009413475170731544
1772882857534152000,0.11915185546875,-0.00011451592581579462,-0.0035545211285352707,-0.0033065807074308395
1772882857544083700,0.129083740234375,-0.0033936661202460527,0.002406165935099125,-0.0015009575290605426
1772882857554017000,0.13901708984375,-0.0005763080553151667,0.007839547470211983,0.0012519520241767168
1772882857563950000,0.1489501953125,0.00009800432599149644,0.011943744495511055,0.00025992453447543085
1772882857573881900,0.1588818359375,-0.0018884475575760007,0.00430260319262743,-0.00044288369826972485
1772882857583815000,0.16881494140625,-0.0011073424248024821,-0.000182959163794294,-0.00430233683437109
1772882857593748000,0.178748046875,-0.0009030779474414885,-0.001998702296987176,-0.0033803503029048443
1772882857603680000,0.188679931640625,-0.004245078656822443,-0.0024405207950621843,-0.004059189930558205
1772882857613612800,0.19861279296875,-0.0012218583142384887,-0.003054911969229579,-0.0010373012628406286
1772882857623545900,0.2085458984375,-0.002175003755837679,-0.00433109886944294,-0.004536961205303669
1772882857633478000,0.218477783203125,-0.0007677893154323101,-0.00583791546523571,-0.002252768026664853
1772882857643411000,0.228410888671875,0.00011345066013745964,-0.0047055394388735294,-0.003204049076884985
1772882857653344000,0.238343994140625,-0.000699079770129174,-0.0005273058777675033,0.000013315805517777335
1772882857663276000,0.248276123046875,0.001074052881449461,0.007796137593686581,0.002356897573918104
1772882857673208800,0.258208740234375,-0.0034027209039777517,0.007739412598311901,0.0003206445835530758
1772882857683142000,0.268141845703125,-0.000988032785244286,0.006853645201772451,-0.0012482235906645656
1772882857693074000,0.278073974609375,-0.002005626680329442,0.007438475266098976,-0.001079645473510027
1772882857703007000,0.288007080078125,-0.0005779059720225632,0.0011925635626539588,-0.0009257147903554142
1772882857712940000,0.29793994140625,-0.001788312685675919,-0.007877896539866924,-0.003296460723504424
1772882857722872000,0.3078720703125,0.001573928166180849,-0.009519735351204872,-0.006337258033454418
1772882857732805000,0.31780517578125,-0.0003534014686010778,-0.001672198879532516,-0.0011086739832535386
1772882857742738000,0.327738037109375,-0.001478587044402957,0.009720804169774055,-0.000821318884845823
1772882857752670000,0.337669921875,0.00015819176041986793,0.015990950167179108,0.006055229343473911
1772882857762603000,0.34760302734375,-0.00012596751912496984,0.0194258950650692,0.004865861497819424
1772882857772536000,0.3575361328125,-0.0016974988393485546,0.015354721806943417,0.004165450111031532
1772882857782467800,0.3674677734375,0.001508414396084845,0.0067665595561265945,0.00006311691686278209
1772882857792401000,0.37740087890625,-0.002270611235871911,-0.0033103092573583126,-0.004190217703580856
1772882857802334000,0.387333984375,0.0004519384237937629,0.00014407701382879168,-0.0011883024126291275
1772882857812266000,0.397265869140625,-0.001871403306722641,0.005846171174198389,-0.0012130698887631297
1772882857822198800,0.40719873046875,-0.0018365158466622233,0.006901049055159092,0.0011108045000582933
1772882857832131800,0.4171318359375,-0.002371544949710369,0.01131204329431057,0.002491120947524905
1772882857842064000,0.42706396484375,-0.0004170510219410062,0.011921374127268791,-0.00011105381418019533
1772882857851997000,0.436996826171875,-0.0002633866388350725,0.013263607397675514,0.002356364857405424
1772882857861930000,0.446929931640625,0.00022130868455860764,0.012585033662617207,0.0037521275226026773
1772882857871862000,0.456862060546875,-0.002782470779493451,0.02010047435760498,0.004475708585232496
1772882857881794800,0.466794921875,-0.001219461439177394,0.019820310175418854,0.008022240363061428
1772882857891728000,0.476727783203125,-0.0002721750643104315,0.01840910129249096,0.0024647556710988283
1772882857901661000,0.486660888671875,-0.0012799152173101902,0.01082681491971016,0.0016010924009606242
1772882857911593000,0.496593017578125,-0.001876995898783207,0.012793559581041336,0.00663446681573987
1772882857921526000,0.506526123046875,0.000477504770969972,0.020503411069512367,0.006530071143060923
1772882857931459000,0.516458984375,-0.0023252058308571577,0.019881296902894974,0.005532184615731239
1772882857941391000,0.52639111328125,0.00000958738019107841,0.014723286032676697,0.00566907087340951
1772882857951324000,0.536323974609375,-0.00042876892257481813,0.017597369849681854,0.0030807447619736195
1772882857961257000,0.546257080078125,-0.001561944023706019,0.017361147329211235,0.006235791835933924
1772882857971189000,0.55618896484375,-0.00019361180602572858,0.015851400792598724,0.003866909770295024
1772882857981122000,0.5661220703125,-0.001978462329134345,0.012870258651673794,0.0023148194886744022
1772882857991055000,0.57605517578125,-0.0008096009842120111,0.008390022441744804,0.0006716492353007197
1772882858000987100,0.585987060546875,0.001198688754811883,0.003997138235718012,-0.0023126890882849693
1772882858010920000,0.595919921875,-0.0036613137926906347,0.0046240463852882385,-0.00025539714260958135
1772882858020853000,0.60585302734375,-0.0015853798249736428,0.022647522389888763,0.0065045044757425785
1772882858030784800,0.61578466796875,-0.0019925772212445736,0.04042332246899605,0.014604242518544197
1772882858040717800,0.6257177734375,-0.001258343574590981,0.04898804798722267,0.016446884721517563
1772882858050651000,0.63565087890625,-0.0035475967451930046,0.04174478352069855,0.012209261767566204
1772882858060583000,0.6455830078125,-0.0019148128340020776,0.013218600302934647,0.0015683355741202831
1772882858070516000,0.655515869140625,-0.002038117265328765,0.012947224080562592,-0.0013989584986120462
1772882858080448800,0.66544873046875,-0.0016378440195694566,0.024729048833251,0.004938299767673016
1772882858090381000,0.675381103515625,-0.0021110877860337496,0.025675268843770027,0.007090932689607143
1772882858100314000,0.685314208984375,-0.0010381002211943269,-0.008283229544758797,-0.0021694109309464693
1772882858110247200,0.6952470703125,-0.0025070998817682266,0.023967383429408073,0.0026258768048137426
1772882858120179200,0.70517919921875,-0.0022391858510673046,0.045463088899850845,0.017247164621949196
1772882858130112300,0.7151123046875,-0.0018884475575760007,0.04026805981993675,0.01203881949186325
1772882858140045000,0.725045166015625,-0.003094060579314828,0.023374564945697784,0.007115433923900127
1772882858149977000,0.73497705078125,-0.001186970854178071,0.014376009814441204,0.003025350859388709
1772882858159910100,0.74491015625,-0.003126817522570491,0.006487460341304541,0.0009305084822699428
1772882858169843200,0.75484326171875,0.0010303769959136844,0.0038421424105763435,-0.0004854942671954632
1772882858179775000,0.76477490234375,-0.001141963410191238,0.008128500543534756,-0.0015161376213654876
1772882858189708300,0.774708251953125,0.000022370553779182956,0.004006725735962391,-0.0011488876771181822
1772882858199641300,0.784641357421875,-0.0021198762115091085,0.0013560815714299679,-0.0005542038124985993
1772882858209573000,0.794572998046875,-0.0033190976828336716,0.009738114662468433,0.0013920343481004238
1772882858219506000,0.804505859375,-0.000529436394572258,0.021859759464859962,0.004957474302500486
1772882858229439000,0.81443896484375,-0.003569700988009572,0.02870328351855278,0.005034706089645624
1772882858239371000,0.82437109375,-0.002686064224690199,0.026276344433426857,0.005438175052404404
1772882858249304000,0.834303955078125,-0.0002490055630914867,0.01019537914544344,0.001614940818399191
1772882858259237000,0.844237060546875,0.000360059377271682,-0.006867493502795696,-0.0033454629592597485
1772882858269169200,0.854169189453125,-0.0021979068405926228,0.005505552981048822,-0.0003557983145583421
1772882858279102200,0.864102294921875,-0.0013816480059176683,-0.002118544653058052,-0.0046120621263980865
1772882858289035000,0.874034912109375,-0.001264202524907887,-0.013438044115900993,-0.004379035905003548
1772882858298967000,0.883967041015625,-0.0029984530992805958,0.014607438817620277,0.0017638115677982569
1772882858308900000,0.893900146484375,-0.0022160164080560207,0.028867334127426147,0.007574296556413174
1772882858318833200,0.903833251953125,-0.002266882685944438,0.020623253658413887,0.004823783412575722
1772882858328765200,0.91376513671875,-0.0022248048335313797,0.004201935604214668,0.0012231898726895452
1772882858338698200,0.9236982421875,-0.002811499172821641,0.0024895230308175087,0.0002532666258048266
1772882858348631000,0.933631103515625,-0.001493500778451562,0.010683802887797356,-0.0014064153656363487
1772882858358563000,0.94356298828125,-0.00037683729897253215,0.007620369084179401,0.003582750679925084
1772882858368496000,0.95349609375,-0.004482100252062082,0.002629871480166912,-0.00042344260145910084
1772882858378429200,0.96342919921875,-0.000928111607208848,0.005696235224604607,-0.0008191883680410683
1772882858388361200,0.973361328125,-0.001294029993005097,0.006730873137712479,0.0014583469601348042
1772882858398294300,0.983294189453125,0.0004444815858732909,0.008930111303925514,0.004577973857522011
1772882858408227300,0.993227294921875,-0.0022807312197983265,0.0073652383871376514,0.003704723436385393
1772882858418159000,1.0031591796875,-0.0015366439474746585,0.005685050040483475,-0.0006841660942882299
1772882858428092000,1.013091796875,-0.0005720470217056572,0.006468551699072123,0.0022130869328975677
1772882858438025200,1.023025146484375,-0.001874332781881094,0.009243565611541271,-0.0013824469642713666
1772882858447957000,1.03295703125,0.0002812298189383,0.005922870244830847,-0.0012128035305067897
1772882858457890000,1.04289013671875,0.0005222458858042955,0.005615541245788336,0.0014471617760136724
1772882858467823000,1.052822998046875,-0.001888980157673359,0.00569916469976306,0.001249821507371962
1772882858477755100,1.062755126953125,0.00012117382721044123,0.00854448601603508,-0.0005997438565827906
1772882858487688200,1.072688232421875,-0.0012309130979701877,0.005847236607223749,0.00045300371129997075
1772882858497621000,1.08262109375,-0.0020628846250474453,0.0067931911908090115,-0.0002372876479057595
1772882858507554000,1.092553955078125,0.0004854942671954632,0.005627259146422148,-0.0002801645314320922
1772882858517486000,1.102486083984375,-0.000969656917732209,0.007654723711311817,0.001255680457688868
1772882858527419100,1.112419189453125,-0.0035167040769010782,0.006385195069015026,0.0007752461824566126
1772882858537352200,1.122352294921875,-0.0021318604703992605,0.006311425473541021,0.0019832560792565346
1772882858547284200,1.1322841796875,-0.0006676545017398894,0.005909288302063942,-0.0010745854815468192
1772882858557217000,1.142217041015625,-0.000041811628761934116,0.005059206858277321,-0.00039707732503302395
1772882858567150000,1.152150146484375,-0.0024855281226336956,0.007928763516247272,-0.002284992253407836
1772882858577082000,1.16208203125,-0.0006231797160580754,0.008616924285888672,0.00024527712957933545
1772882858587015200,1.17201513671875,-0.0011025486746802926,0.006221144460141659,0.0002490055630914867
1772882858596948200,1.1819482421875,-0.0007472829893231392,0.0065559037029743195,0.0018242653459310532
1772882858606880300,1.19188037109375,-0.0033193640410900116,0.008158328011631966,0.0004396878939587623
1772882858616813000,1.20181298828125,-0.0006583334179595113,0.006112753413617611,-0.00039228363311849535
1772882858626746000,1.21174609375,-0.0021995047573000193,0.007162305526435375,0.000026365294615970924
1772882858636678100,1.22167822265625,-0.001175252953544259,0.00552312983199954,-0.0009624664089642465
1772882858646611200,1.231611083984375,-0.003174754325300455,0.006095176562666893,-0.0013100089272484183
1772882858656544300,1.241544189453125,-0.003430684097111225,0.006204898934811354,-0.001216531964018941
1772882858666476000,1.25147607421875,-0.0009432916413061321,0.00917139369994402,-0.0013422331539914012
1772882858676409000,1.2614091796875,-0.001541171339340508,0.006132993847131729,-0.0036554548423737288
1772882858686342000,1.271341796875,-0.0008884305134415627,0.004554271697998047,0.001240766723640263
1772882858696274000,1.28127392578125,-0.0032945964485406876,0.006814230233430862,-0.00037950044497847557
1772882858706207000,1.29120703125,-0.0005672533297911286,0.00481206551194191,0.0015603461069986224
1772882858716140000,1.30114013671875,-0.003412840887904167,0.007926632650196552,-0.00027057717670686543
1772882858726072000,1.311072021484375,0.0009928264189511538,0.006344981025904417,-0.00029294771957211196
1772882858736005000,1.321005126953125,-0.0013382384786382318,0.007561779581010342,0.004208060912787914
1772882858745938200,1.330938232421875,-0.0006559365428984165,0.006332464516162872,0.0017872473690658808
1772882858755870200,1.3408701171875,-0.0016815199051052332,0.006858705077320337,0.0003174488083459437
1772882858765803000,1.350802978515625,-0.0026104305870831013,0.005668005906045437,0.0006482133758254349
1772882858775736000,1.360736083984375,-0.00036432043998502195,0.006367618218064308,-0.001502555445767939
1772882858785668000,1.370668212890625,0.0011025486746802926,0.004954012110829353,0.00041305628838017583
1772882858795601200,1.38060107421875,-0.0007787083159200847,0.005569202359765768,0.0010402307379990816
1772882858805534200,1.3905341796875,-0.0028367992490530014,0.007413174957036972,0.00017976337403524667
1772882858815466200,1.40046630859375,-0.0010410296963527799,0.00500940578058362,-0.0009355684742331505
1772882858825399000,1.41039892578125,-0.0017033577896654606,0.00635057408362627,-0.0015331818722188473
1772882858835332000,1.42033203125,-0.001648230361752212,0.009194563142955303,-0.0003451456723269075
1772882858845264100,1.43026416015625,-0.0005060005933046341,0.006312224548310041,0.00042450788896530867
1772882858855197200,1.440197265625,-0.0010868359822779894,0.006359362509101629,0.001883387565612793
1772882858865130200,1.450130126953125,-0.0007305050967261195,0.007455519400537014,0.0005360943032428622
1772882858875062300,1.460062255859375,-0.0010279801208525896,0.0059937103651463985,0.001329716295003891
1772882858884995300,1.469995361328125,-0.0005147890187799931,0.0037819549906998873,0.0012112056137993932
1772882858894928100,1.47992822265625,-0.000838895735796541,0.006484797224402428,0.0003294330381322652
1772882858904860000,1.48985986328125,0.00010865696822293103,0.00890933908522129,-0.00015100123709999025
1772882858914793000,1.49979296875,-0.002222940558567643,0.008523447439074516,-0.0008974852971732616
1772882858924726000,1.50972607421875,-0.00015046859334688634,0.005685316398739815,0.001371527905575931
1772882858934658000,1.519657958984375,-0.002145442645996809,0.005653624422848225,0.0000780306218075566
1772882858944591000,1.529591064453125,-0.004579572007060051,0.008465656079351902,0.0001906823308672756
1772882858954524200,1.539524169921875,-0.002329200739040971,0.005304217804223299,0.0012090750969946384
1772882858964456200,1.549456298828125,-0.001988049829378724,0.004143878817558289,-0.00005352953667170368
1772882858974389000,1.559388916015625,-0.0022072279825806618,0.008144479244947433,-0.000913197931367904
1772882858984322000,1.569322021484375,-0.0011233213590458035,0.0037436054553836584,0.00023196132679004222
1772882858994254000,1.579254150390625,-0.0033039175905287266,0.006674148142337799,0.002150768879801035
1772882859004187100,1.589187255859375,-0.0020237360149621964,0.006023005116730928,-0.0009076052810996771
1772882859014120200,1.5991201171875,-0.0024796691723167896,0.007022489327937365,0.0022027005907148123
1772882859024052200,1.60905224609375,0.0014287859667092562,0.004434163216501474,0.0005901564727537334
1772882859033985000,1.618985107421875,0.00014647385978605598,0.006402505561709404,0.0002687129599507898
1772882859043918000,1.62891796875,-0.0013872405979782343,0.007817177101969719,-0.0008229167433455586
1772882859053850000,1.63885009765625,-0.0015036207623779774,0.0059907808899879456,0.0012149340473115444
1772882859063783200,1.648783203125,-0.0011544802691787481,0.006579073145985603,-0.0008096009842120111
1772882859073716200,1.65871630859375,-0.0018777948571369052,0.007593204732984304,-0.0026021746452897787
1772882859083648300,1.668648193359375,-0.00022743394947610795,0.00788482092320919,0.0019145464757457376
1772882859093581300,1.678581298828125,-0.0018106831703335047,0.005372394807636738,0.00018375810759607702
1772882859103514000,1.68851416015625,-0.0003304982965346426,0.005078648217022419,0.000474575295811519
1772882859113446100,1.698446044921875,-0.0009528790251351893,0.007384679280221462,-0.00025246766745112836
1772882859123379200,1.708379150390625,-0.0005882922559976578,0.006591323763132095,0.0005259743193164468
1772882859133312300,1.718312255859375,0.0000029294772048160667,0.004875981714576483,-0.0004889564006589353
1772882859143244300,1.728244384765625,-0.0010892328573390841,0.0051659997552633286,-0.0008498146780766547
1772882859153177300,1.73817724609375,-0.000642354425508529,0.005933522712439299,0.0004977448261342943
1772882859163110100,1.748110107421875,-0.0005672533297911286,0.007714378647506237,-0.001445830101147294
1772882859173042200,1.758042236328125,-0.0008306399104185402,0.00631941482424736,0.00019707392493728548
1772882859182975200,1.767975341796875,0.00036938043194822967,0.005682386923581362,-0.0001573928166180849
1772882859192908300,1.777908203125,-0.0020000338554382324,0.0043563987128436565,0.0003249056462664157
1772882859202840000,1.787840087890625,-0.0004791026876773685,0.005212604999542236,0.0009691243176348507
1772882859212773000,1.797773193359375,-0.004577174782752991,0.006611563730984926,-0.0008101335843093693
1772882859222706400,1.80770654296875,-0.0013550163712352514,0.005905293393880129,-0.002406165935099125
1772882859232638200,1.81763818359375,0.003591539105400443,0.005812349263578653,0.0003206445835530758
1772882859242571000,1.827571044921875,0.0007368966471403837,0.00703793577849865,0.0016825852217152715
1772882859252504000,1.837504150390625,-0.0014599448768422008,0.010173807851970196,-0.00022077605535741895
1772882859262436000,1.84743603515625,0.0001310275256400928,0.005843241699039936,-0.0004620584368240088
1772882859272369200,1.857369140625,-0.0015480954898521304,0.005129780620336533,0.0021901836153119802
1772882859282302200,1.86730224609375,0.00046392265358008444,0.00737429317086935,-0.0006314354832284153
1772882859292234200,1.877234130859375,-0.000895621080417186,0.005300223361700773,0.0018370485631749034
1772882859302167300,1.887167236328125,-0.0013289173366501927,0.007762848399579525,0.0011640676530078053
1772882859312100000,1.89710009765625,0.0007613977650180459,0.005511944647878408,-0.00040772996726445854
1772882859322032000,1.9070322265625,-0.0011318434262648225,0.005459214095026255,-0.002523345174267888
1772882859331965200,1.916965087890625,-0.0006719155353493989,0.007419033907353878,0.0002777676854748279
1772882859341898200,1.926898193359375,0.00047643951256759465,0.0057047572918236256,0.0015523566398769617
1772882859351830300,1.936830322265625,-0.0013371731620281935,0.004847751930356026,-0.00005246427463134751
1772882859361763300,1.946763427734375,-0.000005858954409632133,0.005601426586508751,0.0005547364708036184
1772882859371696000,1.956696044921875,-0.0009408948244526982,0.006640592124313116,-0.00009827064059209079
1772882859381628200,1.966628173828125,0.0007283745799213648,0.0037446708884090185,-0.00020479709201026708
1772882859391561200,1.976561279296875,-0.0019209380261600018,0.00660650385543704,-0.001088700257241726
1772882859401494300,1.986494384765625,0.00033955302205868065,0.006849650293588638,-0.0000250337143370416
1772882859411426300,1.99642626953125,-0.0022498385515064,0.0054576159454882145,-0.0015536881983280182
1772882859421359400,2.006359375,-0.0017451694002375007,0.006871488410979509,-0.0003246393462177366
1772882859431292400,2.01629248046875,-0.00007163903501350433,0.003932956140488386,0.0006564692012034357
1772882859441224200,2.02622412109375,-0.0008564725867472589,0.006677077617496252,0.0037148434203118086
1772882859451157000,2.036156982421875,-0.0023696806747466326,0.005660548806190491,-0.00006072007090551779
1772882859461090000,2.046090087890625,-0.0002609897928778082,0.005253617651760578,0.002270078519359231
1772882859471022000,2.05602197265625,-0.0005169195355847478,0.0054698665626347065,-0.0008655273704789579
1772882859480955100,2.065955078125,-0.00038456046604551375,0.006177468225359917,-0.00016698020044714212
1772882859490888200,2.07588818359375,0.0009715211344882846,0.0062128882855176926,-0.00162426196038723
1772882859500820200,2.0858203125,-0.0018397116800770164,0.006293049547821283,-0.0010010822443291545
1772882859510753300,2.095753173828125,0.0007262440049089491,0.004565989598631859,0.0007249124464578927
1772882859520686000,2.10568603515625,-0.00222027744166553,0.006726612336933613,0.0014471617760136724
1772882859530618000,2.1156181640625,-0.001264202524907887,0.00691915862262249,-0.0011270497925579548
1772882859540551200,2.12555126953125,-0.003317233407869935,0.009475527331233025,0.00020959076937288046
1772882859550484200,2.135484130859375,0.0004543352697510272,0.006465356331318617,0.0005667206714861095
1772882859560416300,2.145416259765625,-0.0005044027348048985,0.008388424292206764,-0.0009544769418425858
1772882859570349300,2.155349365234375,-0.000577107013668865,0.006433397997170687,0.00034408041392453015
1772882859580282000,2.1652822265625,0.001258876291103661,0.004806206561625004,0.0004527373821474612
1772882859590214100,2.175214111328125,-0.002058623591437936,0.007533550262451172,0.002656236756592989
1772882859600147200,2.185147216796875,-0.00038056570338085294,0.006726878695189953,-0.00019973708549514413
1772882859610080300,2.195080322265625,-0.0004814995336346328,0.004968393128365278,0.0003075950953643769
1772882859620012300,2.20501220703125,0.00003355582884978503,0.007691209204494953,0.0018516959389671683
1772882859629945300,2.2149453125,-0.0008338357438333333,0.007477889768779278,-0.000051399008953012526
1772882859639878400,2.22487841796875,-0.0014692660188302398,0.007699198555201292,0.0004290352517273277
1772882859649810400,2.234810546875,0.0017153420485556126,0.006580937188118696,-0.0014567491598427296
1772882859659743200,2.2447431640625,-0.001767273643054068,0.007830758579075336,0.0008556736283935606
1772882859669676300,2.25467626953125,-0.0007163903210312128,0.004816060420125723,0.0005251753609627485
1772882859679608000,2.264608154296875,-0.0019598202779889107,0.004098072182387114,0.001758218975737691
1772882859689541000,2.274541015625,-0.0017366473330184817,0.008653142489492893,0.0021433120127767324
1772882859699474200,2.28447412109375,-0.0019797938875854015,0.00646801944822073,0.00032570460462011397
1772882859709406200,2.29440625,-0.001487375469878316,0.007119162008166313,-0.0014644722687080503
1772882859719339000,2.304339111328125,-0.004269047174602747,0.009912285953760147,0.001755289500579238
1772882859729272000,2.31427197265625,-0.0005531385540962219,0.006874417886137962,0.0007597998483106494
1772882859739204000,2.3242041015625,-0.0026098978705704212,0.008921323344111443,0.0007076018955558538
1772882859749137200,2.33413720703125,-0.0024748756550252438,0.0067756143398582935,-0.0005033374181948602
1772882859759070200,2.3440703125,-0.0009416937828063965,0.008535430766642094,0.00005885586142539978
1772882859769002200,2.354002197265625,-0.003552124137058854,0.008318116888403893,0.0011467571603134274
1772882859778935300,2.363935302734375,-0.0014628743520006537,0.004286624025553465,-0.0013731258222833276
1772882859788868000,2.3738681640625,-0.0007922904333099723,0.003465305082499981,-0.0018759306985884905
1772882859798800100,2.383800048828125,-0.0015361113473773003,0.006652043666690588,0.0004237089306116104
1772882859808733200,2.393733154296875,0.00041278995922766626,0.006305566523224115,0.0010303769959136844
1772882859818666200,2.403666259765625,-0.0024655545130372047,0.004580903332680464,-0.0005438174703158438
1772882859828598300,2.413598388671875,-0.0022120214998722076,0.006066148169338703,0.0016197345685213804
1772882859838531300,2.42353125,-0.0018911106744781137,0.0074030552059412,-0.0018727348651736975
1772882859848464100,2.433464111328125,-0.003757187630981207,0.009665144607424736,-0.0013017531018704176
1772882859858396400,2.443396484375,-0.0022863238118588924,0.006776147056370974,0.00224903947673738
1772882859868329200,2.4533291015625,0.0005153216770850122,0.003976631909608841,-0.0012769857421517372
1772882859878262300,2.46326220703125,-0.0017350494163110852,0.005360144190490246,0.0016176040517166257
1772882859888194000,2.473194091796875,-0.0029550434555858374,0.009471531957387924,-0.0031217574141919613
1772882859898127400,2.48312744140625,-0.00039015308720991015,0.005905559752136469,0.0011049455497413874
1772882859908060400,2.493060302734375,-0.0018181400373578072,0.004292749334126711,0.0006186523241922259
1772882859917992200,2.5029921875,-0.0035302862524986267,0.00743155088275671,-0.0016450346447527409
1772882859927925000,2.512925048828125,-0.002959304489195347,0.003736414946615696,-0.000499875342939049
1772882859937858000,2.522858154296875,-0.00041252365917898715,0.006382531952112913,-0.0006570018595084548
1772882859947790000,2.5327900390625,-0.001350222621113062,0.006293848622590303,0.0005313006113283336
1772882859957723100,2.54272314453125,0.00009134642459684983,0.008437160402536392,-0.0007038734620437026
1772882859967656200,2.55265625,-0.0036184368655085564,0.00854342058300972,-0.00048416267964057624
1772882859977588200,2.562588134765625,0.0004239752306602895,0.006720487028360367,-0.0014721954939886928
1772882859987521300,2.572521240234375,-0.002597380895167589,0.006673881784081459,-0.0020269318483769894
1772882859997454000,2.5824541015625,-0.0025928535033017397,0.005763080436736345,-0.00006072007090551779
1772882860007386000,2.59238623046875,0.0005464806454256177,0.006494384724646807,0.0015371765475720167
1772882860017319200,2.602319091796875,0.0015781891997903585,0.004769455175846815,0.00003968110104324296
1772882860027252200,2.612252197265625,-0.0007283745799213648,0.004070641472935677,0.0013651363551616669
1772882860037184300,2.622184326171875,-0.0034961977507919073,0.006736732088029385,-0.0002205097407568246
1772882860047117300,2.632117431640625,-0.0035931370221078396,0.005810218397527933,-0.001454618526622653
1772882860057050000,2.642050048828125,-0.001359277404844761,0.006794522982090712,0.0015550197567790747
1772882860066982100,2.651982177734375,-0.002296710154041648,0.007908789440989494,-0.0026264095213264227
1772882860076915200,2.661915283203125,0.0009499495499767363,0.004620584659278393,0.003599528456106782
1772882860086848500,2.6718486328125,0.0002721750643104315,0.0028133634477853775,-0.000007989483492565341
1772882860096780500,2.681780517578125,-0.001290834159590304,0.009148756973445415,0.00022663500567432493
1772882860106713600,2.691713623046875,-0.0029997846577316523,0.006468818057328463,-0.0012516856659203768
1772882860116646700,2.701646728515625,-0.00008788431296125054,0.0040978058241307735,-0.00023755396250635386
1772882860126578700,2.71157861328125,-0.001356614287942648,0.005870672408491373,-0.0000601874417043291
1772882860136511500,2.721511474609375,-0.0003989415417890996,0.0073234266601502895,-0.0022807312197983265
1772882860146444500,2.731444580078125,-0.0005305017111822963,0.005822735372930765,-0.0023675502743571997
1772882860156376600,2.74137646484375,-0.001927862293086946,0.005447762086987495,-0.00009480853623244911
1772882860166309600,2.7513095703125,-0.0018668759148567915,0.005289570428431034,-0.002635996788740158
1772882860176242700,2.76124267578125,-0.0008218514849431813,0.005755091086030006,0.0004340952436905354
1772882860186174500,2.771174560546875,0.00016245282313320786,0.00672421557828784,0.000565122754778713
1772882860196107300,2.781107177734375,-0.0016607472207397223,0.006620618514716625,0.0012218583142384887
1772882860206040300,2.791040283203125,-0.0007179882377386093,0.008678709156811237,-0.0001752359967213124
1772882860215972400,2.800972412109375,-0.0008444883860647678,0.007531685754656792,0.00017656758427619934
1772882860225905400,2.810905517578125,0.00039254993316717446,0.004893292207270861,-0.0023257385473698378
1772882860235838500,2.82083837890625,-0.0011877698125317693,0.007075219880789518,0.0011116034584119916
1772882860245770500,2.8307705078125,0.0024232103023678064,0.006334594916552305,0.0004450142150744796
1772882860255703600,2.84070361328125,0.0021973741240799427,0.0035153725184500217,0.0008183894096873701
1772882860265636400,2.85063623046875,-0.0008442220860160887,0.005025917664170265,0.0009211873984895647
1772882860275568400,2.860568359375,-0.001633316627703607,0.0041252365335822105,-0.0018583538476377726
1772882860285501400,2.87050146484375,-0.0010463559301570058,0.006702910177409649,-0.000009054747351910919
1772882860295434500,2.8804345703125,-0.0011385013349354267,0.009351423941552639,0.0003376888344064355
1772882860305366500,2.890366455078125,-0.0010002832859754562,0.0052376389503479,-0.0007683219737373292
1772882860315299600,2.900299560546875,-0.0013366405619308352,0.005347094964236021,0.00035260253935121
1772882860325232400,2.910232421875,-0.0009270463488064706,0.004403803031891584,-0.0035121769178658724
1772882860335164700,2.92016455078125,-0.00013262542779557407,0.0033688987605273724,-0.0005046690348535776
1772882860345097500,2.930097412109375,0.00025060345069505274,0.006470416206866503,-0.001466336427256465
1772882860355030500,2.940030517578125,-0.00023861923546064645,0.006997189484536648,0.0012442287988960743
1772882860364962600,2.949962646484375,-0.0033539850264787674,0.007869907654821873,0.00044048685231246054
1772882860374895600,2.9598955078125,-0.001014398061670363,0.005768939387053251,0.0010133327450603247
1772882860384828700,2.96982861328125,-0.0008705873624421656,0.0062333946116268635,0.0015022892039269209
1772882860394760700,2.9797607421875,-0.0025297366082668304,0.004192614462226629,-0.001654622028581798
1772882860404693500,2.989693603515625,-0.0017233315156772733,0.007939149625599384,-0.0001257012045243755
1772882860414626600,2.99962646484375,-0.002671150490641594,0.006070942152291536,-0.0012716593919321895
1772882860424558300,3.009558349609375,0.000404534162953496,0.003996872343122959,0.0022117553744465113
1772882860434491400,3.019491455078125,-0.0020602215081453323,0.007240602280944586,0.0014735270524397492
1772882860444424400,3.029424560546875,-0.0003757720405701548,0.006650179624557495,-0.0013339773286134005
1772882860454356500,3.0393564453125,-0.0007906925166025758,0.0062517705373466015,0.0013281183782964945
1772882860464289500,3.04928955078125,-0.002603772561997175,0.005388373974710703,0.0020535634830594063
1772882860474222300,3.059222412109375,-0.001725462032482028,0.006423544604331255,-0.0015531554818153381
1772882860484154400,3.069154296875,-0.002977946773171425,0.0059479037299752235,0.0010418286547064781
1772882860494087400,3.07908740234375,-0.003355849301442504,0.009009473957121372,-0.001957956003025174
1772882860504020500,3.0890205078125,-0.003549993736669421,0.006286391522735357,-0.0001906823308672756
1772882860513952500,3.098952392578125,-0.000013848437447450124,0.005330849438905716,0.00033396040089428425
1772882860523885600,3.108885498046875,-0.001389637473039329,0.0039007319137454033,-0.0023065637797117233
1772882860533818400,3.118818359375,-0.0015659386990591884,0.0073508573696017265,0.0008857673965394497
1772882860543750400,3.12875048828125,-0.0025808694772422314,0.005626194179058075,-0.0007805725326761603
1772882860553683500,3.138683349609375,-0.002560895634815097,0.005394232925027609,0.0019478360190987587
1772882860563616500,3.148616455078125,0.0014945659786462784,0.005843774415552616,0.000036218989407643676
1772882860573548500,3.158548583984375,-0.002010686555877328,0.005991047248244286,0.0002868224401026964
1772882860583481600,3.168481689453125,-0.0018471685471013188,0.008285360410809517,0.0015475628897547722
1772882860593414700,3.17841455078125,-0.0012719257501885295,0.006448844447731972,0.0015981629258021712
1772882860603346700,3.1883466796875,-0.0011622034944593906,0.005885586142539978,-0.0012394351651892066
1772882860613279500,3.198279541015625,-0.0007595335482619703,0.0065593658946454525,0.0006490123341791332
1772882860623212500,3.208212646484375,-0.0019947076216340065,0.006657902617007494,-0.00012223910016473383
1772882860633144300,3.218144287109375,-0.0009358347742818296,0.005952697712928057,0.0003323625132907182
1772882860643077400,3.228077392578125,-0.0008815063047222793,0.005597698036581278,0.0024618261959403753
1772882860653010700,3.2380107421875,-0.0008873652550391853,0.005715143866837025,-0.001275920425541699
1772882860662942500,3.2479423828125,-0.0021763353142887354,0.005379851907491684,-0.0025856629945337772
1772882860672875500,3.25787548828125,-0.000006924218723725062,0.008036887273192406,0.0016072177095338702
1772882860682808300,3.267808349609375,-0.0008519452530890703,0.007190801203250885,0.0011227887589484453
1772882860692740400,3.277740234375,-0.0019291938515380025,0.007200655061751604,0.0009406284661963582
1772882860702673400,3.28767333984375,0.001455151243135333,0.004430701024830341,0.0022708773612976074
1772882860712606500,3.2976064453125,-0.0002490055630914867,0.006873618811368942,-0.0004450142150744796
1772882860722538500,3.30753857421875,-0.0002822950773406774,0.006843524985015392,0.000051132694352418184
1772882860732471600,3.317471435546875,-0.001532116555608809,0.005923402961343527,-0.00008602010348113254
1772882860742404400,3.327404296875,0.0015824503498151898,0.007931159809231758,0.0028759476263076067
1772882860752336400,3.33733642578125,-0.0030575753189623356,0.007983357645571232,-0.003570233704522252
1772882860762269400,3.34726953125,-0.0004900216590613127,0.007792143151164055,-0.0009507485083304346
1772882860772202500,3.357202392578125,-0.0007661914569325745,0.007803594693541527,0.00014753911818843335
1772882860782134500,3.367134521484375,-0.001133174984715879,0.0070158313028514385,-0.0011140003334730864
1772882860792067600,3.377067626953125,-0.0024551681708544493,0.006000900641083717,0.0005278385360725224
1772882860802000600,3.387000732421875,-0.0006615291931666434,0.007399060297757387,-0.0008892294717952609
1772882860811932700,3.3969326171875,-0.0012650014832615852,0.008826781064271927,0.00000852211542223813
1772882860821865500,3.406865478515625,-0.00079735042527318,0.0049313753843307495,0.00015446334145963192
1772882860831798500,3.416798583984375,-0.0010950918076559901,0.00774686923250556,0.00036724991514347494
1772882860841730600,3.42673046875,-0.0017803232185542583,0.006095176562666893,0.0015483618481084704
1772882860851663600,3.43666357421875,-0.0005014732014387846,0.007793474476784468,-0.0022562299855053425
1772882860861596700,3.4465966796875,-0.0020186761394143105,0.005864014383405447,-0.0010295780375599861
1772882860871528400,3.456528564453125,-0.0036842171102762222,0.007595867849886417,-0.0011265170760452747
1772882860881461500,3.46646142578125,-0.004090082831680775,0.008794024586677551,-0.0006652576266787946
1772882860891394300,3.476394287109375,-0.0011377023765817285,0.00600462919101119,-0.0006343649583868682
1772882860901326300,3.486326416015625,-0.0023811322171241045,0.007872037589550018,0.0005464806454256177
1772882860911259400,3.49625927734375,0.0005155879771336913,0.004315386060625315,0.0009896307019516826
1772882860921192400,3.5061923828125,0.0009326389990746975,0.005527390632778406,0.00036485306918621063
1772882860931124500,3.51612451171875,-0.0007800398743711412,0.00532525684684515,0.0004450142150744796
1772882860941057500,3.5260576171875,-0.0005619269795715809,0.005132177844643593,0.0002609897928778082
1772882860950990300,3.535990234375,-0.000570981705095619,0.006112487055361271,0.00036192359402775764
1772882860960922400,3.54592236328125,0.0000900148443179205,0.007258978206664324,-0.00004420847471919842
1772882860970855400,3.55585546875,-0.0009523464250378311,0.006050435826182365,0.000904409505892545
1772882860980788500,3.56578857421875,-0.00031079089967533946,0.006183859892189503,-0.00027750138542614877
1772882860990720500,3.575720458984375,-0.0008684568456374109,0.007952732034027576,-0.0031531827989965677
1772882861000653600,3.585653564453125,0.0012189288390800357,0.006998787168413401,0.0008074704091995955
1772882861010586600,3.595586669921875,-0.0020578245166689157,0.006595051847398281,0.00012250541476532817
1772882861020518700,3.6055185546875,-0.001228782464750111,0.006052566226571798,-0.0015363775892183185
1772882861030451500,3.615451416015625,-0.0005107942852191627,0.007784153334796429,-0.00029055087361484766
1772882861040384500,3.625384521484375,0.0011515507940202951,0.007424360606819391,-0.00018109494703821838
1772882861050316500,3.635316650390625,-0.0017480988753959537,0.004571582190692425,-0.0008093346259556711
1772882861060249600,3.64524951171875,-0.002030926523730159,0.005555087700486183,0.0003904194163624197
1772882861070182700,3.6551826171875,0.00021012341312598437,0.006837399676442146,-0.0002205097407568246
1772882861080114700,3.66511474609375,-0.00034700988908298314,0.004811266902834177,0.0017299894243478775
1772882861090046700,3.675046630859375,-0.0019180085510015488,0.005973470397293568,0.0013888385146856308
1772882861099978800,3.684978759765625,-0.0019086875254288316,0.006996656768023968,0.0007017429452389479
1772882861109911800,3.694911865234375,-0.0010852381819859147,0.006656038574874401,0.00019228023302275687
1772882861119844600,3.7048447265625,-0.0020548950415104628,0.00657614367082715,0.0009526127250865102
1772882861129777700,3.714777587890625,-0.0006410228670574725,0.004339887294918299,0.0006857639527879655
1772882861139709700,3.724709716796875,-0.0015132081462070346,0.008101335726678371,-0.0026937874499708414
1772882861149642800,3.734642822265625,-0.002749447477981448,0.004542820155620575,0.0014362427173182368
1772882861159574800,3.74457470703125,-0.0009659285424277186,0.00884941779077053,0.0005448827287182212
1772882861169507800,3.7545078125,-0.0006261091912165284,0.006000102031975985,0.0010237190872430801
1772882861179440600,3.764440673828125,-0.0017307883827015758,0.007472297176718712,-0.00037710359902121127
1772882861189372700,3.77437255859375,0.0001382180635118857,0.006373743526637554,0.0017728663515299559
1772882861199305700,3.7843056640625,-0.00020879182557109743,0.007970042526721954,-0.0013251889031380415
1772882861209238800,3.79423876953125,-0.001076715998351574,0.006099704187363386,0.0011949603212997317
1772882861219170800,3.8041708984375,-0.0008293083519674838,0.00440992834046483,-0.002412823960185051
1772882861229103900,3.814103759765625,0.002520682057365775,0.004497013986110687,0.0016772588714957237
1772882861239036700,3.82403662109375,-0.0014239922165870667,0.005225654691457748,-0.0013353090034797788
1772882861248968700,3.83396875,-0.0007456850726157427,0.008806540630757809,0.00033635724685154855
1772882861258901500,3.843901611328125,-0.0035151063930243254,0.009338374249637127,0.0006657902849838138
1772882861268834600,3.85383447265625,-0.0030120352748781443,0.006370281334966421,0.0004569984448608011
1772882861278766600,3.8637666015625,-0.0014215953415259719,0.0030008498579263687,0.000672448193654418
1772882861288699600,3.87369970703125,0.0014974954538047314,0.006794256623834372,0.00016724651504773647
1772882861298632700,3.8836328125,-0.0011914982460439205,0.006867227144539356,-0.001912948559038341
1772882861308564700,3.893564697265625,-0.0022506373934447765,0.007099721115082502,-0.0013520868960767984
1772882861318497500,3.90349755859375,0.00039015308720991015,0.007276555057615042,0.0003062635369133204
1772882861328430600,3.9134306640625,-0.0006982808117754757,0.0079748360440135,-0.00009028115891851485
1772882861338362600,3.923362548828125,-0.0012434299569576979,0.00791251752525568,-0.000025566347176209092
1772882861348295700,3.933295654296875,-0.0012492889072746038,0.0065255435183644295,0.00034887410583905876
1772882861358228700,3.943228759765625,0.0007315703551284969,0.0076091839000582695,0.00096113485051319
1772882861368160800,3.953160888671875,-0.0025859293527901173,0.007257113698869944,0.0009800433181226254
1772882861378093800,3.96309375,-0.0022682142443954945,0.003099120454862714,-0.00037497308221645653
1772882861388026600,3.973026611328125,-0.00130894361063838,0.005242166109383106,-0.00008921589324017987
1772882861397958000,3.9829580078125,0.00003328951424919069,0.00692102313041687,-0.0019765980541706085
1772882861407889700,3.9928896484375,-0.000014647385796706658,0.0075849490240216255,0.0008013451588340104
1772882861417822700,4.00282275390625,-0.002049835165962577,0.007931692525744438,-0.002132925670593977
1772882861427755500,4.012755615234375,-0.00004793690095539205,0.007518103811889887,0.001978728687390685
1772882861437687600,4.0226875,0.00045034053619019687,0.006053897552192211,0.0014138722326606512
1772882861447620600,4.03262060546875,-0.0015904398169368505,0.008609467186033726,-0.0008162588928826153
1772882861457553700,4.0425537109375,-0.0017624800093472004,0.008065116591751575,-0.001395230065099895
1772882861467485700,4.052485595703125,-0.002097771968692541,0.006081061903387308,-0.0013944311067461967
1772882861477418800,4.062418701171875,-0.0012093414552509785,0.00358781055547297,-0.0008341020438820124
1772882861487351600,4.0723515625,-0.0006285060080699623,0.007619570009410381,-0.00032437301706522703
1772882861497283600,4.08228369140625,0.0005081311101093888,0.006808104924857616,0.0012546151410788298
1772882861507216600,4.092216552734375,-0.00017177389236167073,0.005570267792791128,0.0011206581257283688
1772882861517149700,4.102149658203125,-0.0006799050024710596,0.005599828902631998,0.0015227955300360918
1772882861527081700,4.112081787109375,-0.00039494677912443876,0.007184143178164959,0.00044022052315995097
1772882861537014800,4.122014892578125,-0.0008524778531864285,0.006293848622590303,-0.000016777914424892515
1772882861546947800,4.13194775390625,-0.0008982842555269599,0.0049825082533061504,0.00020879182557109743
1772882861556880000,4.1418798828125,0.00040613205055706203,0.005621133837848902,0.001800030586309731
1772882861566812700,4.151812744140625,0.0011464908020570874,0.006150570698082447,-0.001538241864182055
1772882861576745700,4.161745849609375,-0.0026168220210820436,0.004891161806881428,0.00004420847471919842
1772882861586677800,4.171677734375,-0.0028871328104287386,0.004954278469085693,-0.0007843009079806507
1772882861596610800,4.18161083984375,-0.0010871023405343294,0.005446164403110743,-0.0015345134306699038
1772882861606544000,4.1915439453125,-0.0017121462151408195,0.004944424610584974,-0.0003701793903019279
1772882861616475600,4.2014755859375,-0.0007219829712994397,0.005709550809115171,0.0017025588313117623
1772882861626408700,4.21140869140625,-0.002566754585132003,0.0068214209750294685,-0.0005544701125472784
1772882861636341800,4.221341796875,-0.001058872789144516,0.007493868935853243,-0.003622697899118066
1772882861646273500,4.2312734375,-0.0022280006669461727,0.004718588665127754,0.0020727382507175207
1772882861656206600,4.24120654296875,-0.0033835461363196373,0.005012867972254753,0.0016282566357403994
1772882861666139600,4.2511396484375,-0.0020730046089738607,0.005979862064123154,0.0009486179915256798
1772882861676071700,4.26107177734375,-0.0012141350889578462,0.006086654495447874,0.002246376359835267
1772882861686004700,4.271004638671875,-0.0005478122038766742,0.006795854307711124,0.003001915058121085
1772882861695937500,4.2809375,-0.0017102820565924048,0.00549197057262063,0.0008820389630272985
1772882861705869600,4.29086962890625,-0.0026434536557644606,0.0062520368956029415,0.002332396572455764
1772882861715802600,4.300802734375,-0.0016772588714957237,0.0067990501411259174,0.0009970874525606632
1772882861725735700,4.310735595703125,-0.0018804579740390182,0.007531419396400452,-0.0011797803454101086
1772882861735667700,4.320667724609375,-0.0011464908020570874,0.00518837058916688,0.0020000338554382324
1772882861745600800,4.330600830078125,0.0013739247806370258,0.0073564499616622925,0.0006628608098253608
1772882861755533600,4.340533447265625,-0.0020354539155960083,0.00589623861014843,-0.0000021305288555595325
1772882861765465900,4.3504658203125,-0.0014199974248185754,0.005860019475221634,0.00017470336752012372
1772882861775398700,4.360398681640625,-0.0013012205017730594,0.006434197071939707,-0.0014407701091840863
1772882861785331700,4.370331787109375,-0.0013424995122477412,0.006647250149399042,0.0011478224769234657
1772882861795263700,4.380263671875,-0.0007811051327735186,0.009488842450082302,-0.0014349111588671803
1772882861805196800,4.39019677734375,-0.00004021373388241045,0.006864297669380903,0.0024232103023678064
1772882861815129900,4.4001298828125,-0.0011893677292391658,0.001794171635992825,-0.0006570018595084548
1772882861825062000,4.410061767578125,0.00034434671397320926,0.005976666230708361,0.0006668555433861911
1772882861834994700,4.41999462890625,-0.0032519858796149492,0.004977447912096977,0.000025832661776803434
1772882861844927700,4.429927734375,-0.002388855442404747,0.004746552091091871,-0.001255946815945208
1772882861854859500,4.439859619140625,0.0007387608638964593,0.008755408227443695,-0.0010684601729735732
1772882861864792600,4.44979248046875,-0.0006420881254598498,0.007261374965310097,-0.001374723738990724
1772882861874726000,4.459725830078125,0.0011651329696178436,0.0070669641718268394,0.0012857741676270962
1772882861884657700,4.46965771484375,-0.0007643272401764989,0.008471515029668808,0.0003225088003091514
1772882861894590700,4.4795908203125,0.0006807039608247578,0.007281082216650248,0.0007009439868852496
1772882861904522800,4.489522705078125,-0.001163268811069429,0.006675479467958212,0.00012357067316770554
1772882861914455600,4.49945556640625,-0.0015366439474746585,0.007268565706908703,-0.0006625944515690207
1772882861924388600,4.509388671875,-0.0014389059506356716,0.004541222471743822,0.00034461304312571883
1772882861934320600,4.519320556640625,-0.002150502521544695,0.0068184914998710155,-0.00022264027211349458
1772882861944253700,4.529253662109375,-0.0008170577930286527,0.00498011102899909,-0.0020248014479875565
1772882861954186800,4.539186767578125,-0.0006767092272639275,0.006420348770916462,-0.0008162588928826153
1772882861964118800,4.549118896484375,-0.0014540859265252948,0.0027720844373106956,0.002019208623096347
1772882861974051800,4.5590517578125,-0.003543335711583495,0.008123706094920635,0.0006729807937517762
1772882861983984600,4.568984619140625,-0.002001898130401969,0.006081328261643648,0.001434112200513482
1772882861993916700,4.578916748046875,0.0011709919199347496,0.006365221459418535,-0.0008958873804658651
1772882862003849700,4.588849609375,-0.0009265137487091124,0.007822503335773945,0.001728657865896821
1772882862013782800,4.59878271484375,-0.0020386497490108013,0.006114085204899311,-0.0014972290955483913
1772882862023714800,4.60871484375,-0.0036940707359462976,0.005332181230187416,-0.0019092201255261898
1772882862033647900,4.61864794921875,-0.00213612150400877,0.005162005312740803,-0.0008594020619057119
1772882862043580700,4.62858056640625,0.0011036139912903309,0.0038890140131115913,-0.00017603494052309543
1772882862053512700,4.6385126953125,0.0004990763845853508,0.007970042526721954,0.0012607404496520758
1772882862063445800,4.64844580078125,-0.0016500946367159486,0.0033153691329061985,-0.0027827369049191475
1772882862073378800,4.65837890625,-0.001996571896597743,0.0046906257048249245,0.0009422263829037547
1772882862083310600,4.668310546875,-0.0012482235906645656,0.0041406829841434956,0.0002772350562736392
1772882862093244200,4.678244140625,-0.002287921728566289,0.0073021212592720985,-0.001208009896799922
1772882862103177000,4.688177001953125,-0.0000679106087773107,0.0054967645555734634,0.0013427657540887594
1772882862113109000,4.69810888671875,-0.002915362361818552,0.008519185706973076,-0.0001531317684566602
1772882862123042000,4.7080419921875,-0.0010096043115481734,0.005992378573864698,0.0025989788118749857
1772882862132975000,4.71797509765625,-0.0035838158801198006,0.006945790257304907,0.0012799152173101902
1772882862142907000,4.727906982421875,-0.0005627259379252791,0.0057164751924574375,-0.0023363912478089333
1772882862152840000,4.73783984375,-0.00014807176194153726,0.006361226551234722,0.001574194524437189
1772882862162773000,4.74777294921875,-0.00034354778472334146,0.005822469014674425,0.0002008023438975215
1772882862172705000,4.757705078125,0.00013875069271307439,0.005185973364859819,0.0012956279097124934
1772882862182637800,4.767637939453125,-0.0018796591321006417,0.00875034835189581,-0.0018399780383333564
1772882862192571000,4.77757080078125,0.00008841694943839684,0.005193696822971106,0.00010412959818495438
1772882862202503000,4.7875029296875,-0.0008423578692600131,0.007411044556647539,0.0035686357878148556
1772882862212436000,4.79743603515625,-0.00012223910016473383,0.005565473809838295,0.0011289139511063695
1772882862222369000,4.807369140625,0.00014700648898724467,0.006580937188118696,-0.0019920445047318935
1772882862232301000,4.817301025390625,-0.0007531419396400452,0.005361209623515606,0.0025004418566823006
1772882862242234000,4.827234130859375,-0.0011859056539833546,0.005498362239450216,0.0006727144937030971
1772882862252167000,4.8371669921875,-0.0006056028068996966,0.005545233841985464,0.0013004215434193611
1772882862262099000,4.847098876953125,-0.0002468750171829015,0.0037297571543604136,0.001600559800863266
1772882862272032000,4.857031982421875,-0.00007936220208648592,0.007677893154323101,0.002409095410257578
1772882862281965000,4.866965087890625,-0.0017358483746647835,0.007895473390817642,0.0002162486780434847
1772882862291897000,4.87689697265625,0.0007387608638964593,0.008022506721317768,0.0013203952694311738
1772882862301830100,4.886830078125,-0.0004948153509758413,0.006946322973817587,0.0007400924805551767
1772882862311763000,4.896762939453125,-0.0012423646403476596,0.008485097438097,-0.001555552356876433
1772882862321695000,4.906695068359375,-0.0004316983977332711,0.006578806787729263,0.002597114769741893
1772882862331628000,4.9166279296875,-0.0032000544015318155,0.007337008602917194,0.001537975505925715
1772882862341561000,4.92656103515625,-0.000857005245052278,0.007505320478230715,-0.0011664645280689
1772882862351492900,4.936492919921875,0.0003382214636076242,0.005658951122313738,0.0010490191634744406
1772882862361426000,4.946426025390625,0.000330231967382133,0.00646828580647707,-0.00023622238950338215
1772882862371359200,4.956359130859375,0.002273007994517684,0.006423278246074915,0.0003981425834354013
1772882862381291000,4.966291015625,-0.0032232238445430994,0.006099704187363386,-0.001100684516131878
1772882862391223800,4.976223876953125,-0.0016980315558612347,0.006656837183982134,-0.0013688647886738181
1772882862401156900,4.986156982421875,-0.001228782464750111,0.008698150515556335,-0.0027233485598117113
1772882862411089000,4.9960888671875,0.0004069310089107603,0.006849383935332298,0.002112685702741146
1772882862421022000,5.00602197265625,-0.0016178702935576439,0.006032059900462627,0.0005278385360725224
1772882862430955000,5.015955078125,-0.0018660769565030932,0.004448277875781059,0.0002846919232979417
1772882862440887000,5.025886962890625,0.00024501082953065634,0.005693838465958834,0.0036964674945920706
1772882862450820000,5.035820068359375,0.0013262542197480798,0.00740119069814682,-0.0006370281334966421
1772882862460753000,5.0457529296875,-0.002010420197620988,0.006362824235111475,-0.0012034825049340725
1772882862470685000,5.055684814453125,-0.0011448930017650127,0.0060355220921337605,-0.0003502056933939457
1772882862480618000,5.065617919921875,-0.0006077333819121122,0.009095760062336922,0.002157160546630621
1772882862490551000,5.075551025390625,-0.0012426309986039996,0.007685083895921707,0.0005395564367063344
1772882862500483000,5.085483154296875,0.00022849922243040055,0.005937251262366772,0.0004037352045997977
1772882862510416100,5.095416015625,0.00019893812714144588,0.007023821119219065,0.0014919028617441654
1772882862520349000,5.105348876953125,-0.0012756541837006807,0.00478330347687006,0.000016777914424892515
1772882862530281000,5.115281005859375,0.00033103092573583126,0.008448079228401184,-0.0020540961995720863
1772882862540214000,5.125214111328125,0.0007368966471403837,0.005567604675889015,0.00010226538870483637
1772882862550147000,5.13514697265625,-0.001398159540258348,0.005518868565559387,0.0013342436868697405
1772882862560079000,5.1450791015625,-0.0010072075529024005,0.004522047471255064,-0.0002788329729810357
1772882862570012200,5.15501220703125,-0.002201635157689452,0.007808920927345753,-0.00028389296494424343
1772882862579945000,5.164945068359375,-0.002585396869108081,0.006839530076831579,0.0006948187365196645
1772882862589877000,5.174876953125,-0.002302835462614894,0.006195844151079655,-0.0011414308100938797
1772882862599809800,5.184809814453125,-0.0009587379754520953,0.0075846826657652855,0.0024639565963298082
1772882862609742800,5.194742919921875,-0.004313255660235882,0.00621049152687192,0.0003323625132907182
1772882862619675000,5.2046748046875,-0.0014482269762083888,0.0054725296795368195,0.00004314320904086344
1772882862629608000,5.21460791015625,0.002796585438773036,0.004340153653174639,-0.0004948153509758413
1772882862639541000,5.224541015625,-0.0009970874525606632,0.006280532572418451,-0.0011994877131655812
1772882862649473000,5.23447314453125,-0.00027616979787126184,0.005597964394837618,0.0010663296561688185
1772882862659405800,5.24440576171875,-0.0009046758059412241,0.005871737375855446,-0.002514024032279849
1772882862669339000,5.2543388671875,-0.000529702752828598,0.0054419031366705894,-0.0015984292840585113
1772882862679271000,5.26427099609375,-0.0006314354832284153,0.009618538431823254,-0.0003414172388147563
1772882862689204000,5.274203857421875,-0.003070891136303544,0.0050687943585217,0.0007281082216650248
1772882862699136000,5.284135986328125,-0.0010072075529024005,0.004530036821961403,0.0011701929615810513
1772882862709069000,5.294069091796875,-0.0020777983590960503,0.007285077124834061,-0.0014197311829775572
1772882862719002000,5.304002197265625,0.0014354437589645386,0.007897604256868362,0.0006420881254598498
1772882862728934100,5.31393408203125,-0.0018551580142229795,0.00729493098333478,0.00037390782381407917
1772882862738867000,5.323866943359375,-0.0014045510906726122,0.0059961071237921715,0.0013483584625646472
1772882862748800000,5.333800048828125,-0.0009805759182199836,0.005980127956718206,-0.0016114787431433797
1772882862758732000,5.34373193359375,0.0002460760879330337,0.0046967510133981705,0.0008700547041371465
1772882862768665000,5.3536650390625,0.0008868326549418271,0.007679491303861141,-0.0007310376968234777
1772882862778598100,5.36359814453125,-0.00061279337387532,0.0046541402116417885,0.0013907026732340455
1772882862788530200,5.3735302734375,-0.0024700819049030542,0.00711836339905858,0.0011286477092653513
1772882862798463200,5.383463134765625,-0.003260774305090308,0.005988384131342173,0.0021851237397640944
1772882862808396000,5.39339599609375,-0.00024234765442088246,0.00839428324252367,0.0013915016315877438
1772882862818327800,5.403327880859375,-0.00038269624928943813,0.007689877413213253,0.0012777847005054355
1772882862828260900,5.4132607421875,-0.0010122675448656082,0.004760134033858776,0.00003435477628954686
1772882862838194000,5.42319384765625,0.0000023968450477696024,0.006425142288208008,0.0012130698887631297
1772882862848126000,5.4331259765625,-0.0007036071619950235,0.0030093719251453876,-0.0015821839915588498
1772882862858059000,5.44305908203125,-0.0012306467397138476,0.006217149551957846,0.0012964267516508698
1772882862867991800,5.45299169921875,-0.00022690132027491927,0.0033103092573583126,0.0008833705214783549
1772882862877923800,5.462923828125,-0.00009214537567459047,0.005301288329064846,0.000059388490626588464
1772882862887857000,5.47285693359375,0.00042290997225791216,0.006533532869070768,0.000018375811123405583
1772882862897790000,5.4827900390625,-0.0012716593919321895,0.005100485868752003,0.0005038700764998794
1772882862907722000,5.492721923828125,-0.0009744506096467376,0.004923386033624411,-0.0013409015955403447
1772882862917655000,5.502655029296875,-0.0007123955874703825,0.0048799761570990086,-0.002130262553691864
1772882862927588000,5.512588134765625,-0.002026399364694953,0.003944141324609518,0.00018668759730644524
1772882862937520000,5.52252001953125,-0.0005597964627668262,0.00971414614468813,0.0007352987886406481
1772882862947453000,5.532452880859375,-0.0021579593885689974,0.007755924016237259,0.002508964156731963
1772882862957386000,5.542385986328125,-0.0017209346406161785,0.007940481416881084,-0.00010972223390126601
1772882862967318000,5.552318115234375,-0.0002466087171342224,0.009023589082062244,-0.0005573995877057314
1772882862977251000,5.5622509765625,-0.0011491540353745222,0.006829143967479467,-0.0009241168736480176
1772882862987184000,5.57218408203125,-0.0015486282063648105,0.0028716865926980972,0.0020722055342048407
1772882862997116200,5.5821162109375,-0.003620301140472293,0.005381982307881117,-0.000865793670527637
1772882863007049000,5.592049072265625,-0.0023076289799064398,0.006829410325735807,0.0001150485550169833
1772882863016982000,5.60198193359375,-0.0015393070643767715,0.005009139887988567,-0.0018016285030171275
1772882863026913800,5.611913818359375,-0.00046605319948866963,0.00577719509601593,0.00026738137239590287
1772882863036846800,5.621846923828125,-0.000550475378986448,0.005092496518045664,0.0021912488155066967
1772882863046780200,5.6317802734375,-0.0005195827106945217,0.006957241799682379,0.0013017531018704176
1772882863056712000,5.6417119140625,-0.0017177389236167073,0.0073444657027721405,-0.00011957593233091757
1772882863066645000,5.65164501953125,-0.0032344090286642313,0.008049670606851578,-0.001811482128687203
1772882863076577800,5.661577880859375,0.0006077333819121122,0.005682386923581362,0.0014948323369026184
1772882863086509800,5.671509765625,-0.005602758377790451,0.00717588746920228,-0.0009305084822699428
1772882863096443600,5.681443603515625,0.000024234765078290366,0.00845793355256319,-0.001377919572405517
1772882863106376700,5.691376708984375,-0.0011912320042029023,0.007155647501349449,0.00016058860637713224
1772882863116308700,5.701308837890625,-0.0012996225850656629,0.005071723833680153,0.0015459649730473757
1772882863126241800,5.71124169921875,-0.001544100814498961,0.007355917245149612,0.0035718316212296486
1772882863136174600,5.721174560546875,0.0005837649223394692,0.007187072653323412,0.0008127967594191432
1772882863146106600,5.731106689453125,-0.0013582120882347226,0.007998538203537464,-0.00034221619716845453
1772882863156039700,5.741039794921875,-0.00259418529458344,0.0074619110673666,0.0019299928098917007
1772882863165972700,5.75097265625,-0.0010847054654732347,0.006426474079489708,-0.001193096162751317
1772882863175904800,5.76090478515625,-0.0006500775925815105,0.005826996639370918,0.0016088156262412667
1772882863185837800,5.770837890625,-0.0020154803059995174,0.004847219679504633,0.00008202536264434457
1772882863195769900,5.780769775390625,-0.0018200043123215437,0.007640609052032232,-0.0012519520241767168
1772882863205702700,5.79070263671875,-0.0013720606220886111,0.005003280472010374,0.000651675509288907
1772882863215635700,5.8006357421875,-0.002243180526420474,0.006131129339337349,-0.002264219569042325
1772882863225567700,5.810567626953125,-0.0000031957933970261365,0.007217699196189642,0.0009307747823186219
1772882863235500800,5.820500732421875,-0.0017422399250790477,0.006368150934576988,0.001210406655445695
1772882863245433900,5.830433837890625,-0.0002796319022309035,0.007932225242257118,0.0011238539591431618
1772882863255365600,5.84036572265625,-0.0007102650706656277,0.0065713501535356045,-0.0009390306076966226
1772882863265298700,5.850298583984375,-0.0015819176333025098,0.005221926141530275,-0.0024916534312069416
1772882863275231500,5.8602314453125,-0.0017148094484582543,0.004707936197519302,-0.00029880666988901794
1772882863285163500,5.87016357421875,-0.001547030289657414,0.007290936075150967,-0.0020013656467199326
1772882863295096600,5.8800966796875,-0.00036245622322894633,0.00714606000110507,0.0011776498286053538
1772882863305029600,5.890029541015625,-0.0014239922165870667,0.006554305553436279,-0.0005611280212178826
1772882863314961700,5.899961669921875,-0.002083390951156616,0.006653109099715948,0.0008346347021870315
1772882863324894700,5.909894775390625,-0.003563842037692666,0.0065593658946454525,0.0012279836228117347
1772882863334827800,5.919827880859375,-0.00039654469583183527,0.00495188171043992,0.00011664645717246458
1772882863344759800,5.929759765625,-0.0035212314687669277,0.007720237597823143,0.0009869674686342478
1772882863354692600,5.939692626953125,-0.0008996158139780164,0.008815329521894455,0.0018194715958088636
1772882863364625700,5.949625732421875,-0.0017438378417864442,0.0067226174287498,0.00022157499915920198
1772882863374557700,5.9595576171875,-0.0009606021922081709,0.007391603663563728,0.0015547533985227346
1772882863384490800,5.96949072265625,-0.0012090750969946384,0.005970540922135115,0.00041199102997779846
1772882863394423800,5.979423828125,-0.0009238505735993385,0.00680197961628437,0.0008583368035033345
1772882863404355800,5.98935595703125,-0.002231196267530322,0.005281581077724695,-0.00035260253935121
1772882863414288600,5.99928857421875,-0.0023435817565768957,0.008475244045257568,0.0007091998122632504
1772882863424221700,6.0092216796875,-0.0022248048335313797,0.007814513519406319,0.00008788431296125054
1772882863434153700,6.01915380859375,-0.00279099284671247,0.007466438226401806,-0.0005805690889246762
1772882863444086800,6.029086669921875,-0.001969673903658986,0.008323975838720798,0.0006615291931666434
1772882863454019800,6.039019775390625,-0.0005110605852678418,0.009821738116443157,0.0028642297256737947
1772882863463951600,6.04895166015625,-0.0023228090722113848,0.010411628521978855,0.002667954657226801
1772882863473884700,6.058884765625,-0.0006002765148878098,0.007512511219829321,0.0023350596893578768
1772882863483817700,6.068817626953125,-0.00013395700079854578,0.00818176381289959,0.00031079089967533946
1772882863493749500,6.07874951171875,-0.00043516053119674325,0.0027771443128585815,0.0013424995122477412
1772882863503682600,6.0886826171875,-0.0013606089632958174,0.005750563926994801,-0.0006090649403631687
1772882863513615600,6.09861572265625,-0.0035143073182553053,0.0038397456519305706,-0.0024839304387569427
1772882863523547600,6.108547607421875,-0.000580036488827318,0.004033357370644808,-0.0010908307740464807
1772882863533480700,6.118480712890625,-0.0021606225054711103,0.005794771946966648,-0.0025417208671569824
1772882863543413800,6.128413818359375,-0.0020562265999615192,0.004580370616167784,0.0009374326909892261
1772882863553345800,6.138345703125,-0.0025949841365218163,0.007740743923932314,0.0005283711361698806
1772882863563278600,6.148278564453125,0.0005568669876083732,0.004984638653695583,0.001038366463035345
1772882863573211600,6.158211669921875,0.0008817726047709584,0.006986004300415516,-0.0006490123341791332
1772882863583143700,6.168143798828125,-0.001478587044402957,0.006396380253136158,0.0009446232579648495
1772882863593076700,6.17807666015625,-0.00037736992817372084,0.0054789213463664055,0.001163268811069429
1772882863603009800,6.188009765625,-0.0017664746847003698,0.006042712368071079,0.0005483448621816933
1772882863612941800,6.19794189453125,-0.0019177423091605306,0.003293531248345971,-0.0006708502769470215
1772882863622874600,6.20787451171875,-0.0011427623685449362,0.005246427375823259,-0.0014120079576969147
1772882863632807700,6.2178076171875,-0.000901480030734092,0.006012618541717529,-0.0009765811264514923
1772882863642739700,6.22773974609375,-0.0011736550368368626,0.00512844929471612,-0.0011861718958243728
1772882863652672800,6.2376728515625,-0.000005858954409632133,0.007845140062272549,0.0005789712304249406
1772882863662604800,6.247604736328125,-0.002414954360574484,0.0046211169101297855,-0.00039308256236836314
1772882863672537900,6.257537841796875,-0.003599794814363122,0.004256263840943575,-0.003447994589805603
1772882863682471000,6.267470947265625,-0.0022024342324584723,0.007226221263408661,-0.0002873550693038851
1772882863692402700,6.277402587890625,0.0015904398169368505,0.006913299672305584,0.0017273263074457645
1772882863702335500,6.28733544921875,-0.001335841603577137,0.005853361915796995,0.0019744676537811756
1772882863712268500,6.2972685546875,-0.0013494236627593637,0.007203318178653717,0.0003818972909357399
1772882863722200600,6.30720068359375,-0.001505751279182732,0.007499994244426489,0.00126739835832268
1772882863732133600,6.317133544921875,-0.0009302421822212636,0.008897621184587479,-0.0015813850332051516
1772882863742066700,6.327066650390625,-0.0010370349045842886,0.004954544827342033,-0.0021635519806295633
1772882863751998700,6.336998779296875,0.00014327807002700865,0.007711182814091444,-0.0008322378271259367
1772882863761931800,6.346931884765625,-0.0014711301773786545,0.006667756475508213,0.0014122743159532547
1772882863771864600,6.356864501953125,-0.0004897553008049726,0.005172924138605595,-0.0009022789890877903
1772882863781796600,6.366796630859375,-0.0014397049089893699,0.006072273477911949,-0.00005619269722956233
1772882863791729700,6.376729736328125,-0.0008548747282475233,0.008771919645369053,-0.00042504051816649735
1772882863801662700,6.386662841796875,-0.0016674051294103265,0.006725280545651913,0.002671949565410614
1772882863811594800,6.3965947265625,-0.002426938619464636,0.00845660176128149,0.00004500742215896025
1772882863821527800,6.40652783203125,-0.0014644722687080503,0.004950284026563168,0.00010066748654935509
1772882863831460600,6.416460693359375,-0.003356115659698844,0.004795554094016552,0.0010980212828144431
1772882863841392600,6.426392578125,-0.0021933794487267733,0.00666349520906806,-0.0009659285424277186
1772882863851325700,6.43632568359375,-0.0002663161139935255,0.008473912253975868,0.0000031957933970261365
1772882863861258800,6.4462587890625,0.0000577905957470648,0.005058674607425928,-0.00014034859486855567
1772882863871190800,6.456190673828125,0.0002836266648955643,0.006246710661798716,-0.0012365056900307536
1772882863881123800,6.466123779296875,-0.0007097324123606086,0.00606401776894927,0.0010165285784751177
1772882863891057000,6.476056884765625,-0.0017718010349199176,0.007852330803871155,-0.0003355582884978503
1772882863900989000,6.485989013671875,-0.0011835087789222598,0.004899683874100447,-0.00043569316039793193
1772882863910921700,6.495921630859375,0.00045380264054983854,0.007092796731740236,0.0007131945458240807
1772882863920854800,6.505854736328125,-0.0003193130251020193,0.007405451964586973,-0.0036280243657529354
1772882863930786600,6.51578662109375,-0.0018530274974182248,0.005253617651760578,0.0007076018955558538
1772882863940719600,6.5257197265625,-0.0026019082870334387,0.004858671221882105,0.0014586133183911443
1772882863950652700,6.535652587890625,0.0014927018200978637,0.006084257736802101,-0.0014538196846842766
1772882863960584700,6.545584716796875,0.00041332258842885494,0.0065353973768651485,0.00010626012954162434
1772882863970517800,6.555517822265625,-0.0012450277572497725,0.00791491474956274,-0.00039840888348408043
1772882863980450600,6.565450439453125,-0.0022298647090792656,0.006351905409246683,0.0028599686920642853
1772882863990382600,6.575382568359375,-0.0013635384384542704,0.007154582068324089,0.0008434231276623905
1772882864000315600,6.585315673828125,-0.00006258428766159341,0.0018543590558692813,-0.0004386226355563849
1772882864010248700,6.595248779296875,-0.0011883024126291275,0.005772934295237064,-0.001702026231214404
1772882864020180700,6.6051806640625,-0.0020730046089738607,0.007302920334041119,0.001216531964018941
1772882864030113800,6.61511376953125,-0.0019329222850501537,0.007661914452910423,0.0011555455857887864
1772882864040045800,6.6250458984375,-0.001278849900700152,0.004006992094218731,0.0015198660548776388
1772882864049978600,6.634978515625,-0.0024588967207819223,0.007764712441712618,0.0008940231637097895
1772882864059911700,6.64491162109375,-0.0025928535033017397,0.007386277429759502,0.0002671150432433933
1772882864069843700,6.65484375,0.0006687197601422668,0.006734335329383612,-0.001457548001781106
1772882864079776800,6.66477685546875,-0.002448510378599167,0.006630206014961004,0.00013448962999973446
1772882864089709800,6.674709716796875,-0.0010484865633770823,0.0046453517861664295,0.0024884575977921486
1772882864099641600,6.6846416015625,-0.0012186624808236957,0.006126069463789463,-0.002062085550278425
1772882864109574700,6.69457470703125,-0.0020471718162298203,0.006030994467437267,-0.00039974047103896737
1772882864119507500,6.704507568359375,-0.0011206581257283688,0.007476292084902525,0.0023086944129318
1772882864129439200,6.714439208984375,-0.00016458335448987782,0.00788801722228527,0.00101146858651191
1772882864139372300,6.724372314453125,0.00015233281010296196,0.0063092950731515884,0.0014655375853180885
1772882864149305300,6.734305419921875,0.000749679864384234,0.006383064668625593,-0.0021979068405926228
1772882864159237400,6.7442373046875,-0.0013294500531628728,0.006311425473541021,0.0014226606581360102
1772882864169170400,6.75417041015625,-0.0005243764026090503,0.007494668010622263,0.004253334365785122
1772882864179103500,6.764103515625,-0.0026256104465574026,0.007695204112678766,-0.0015017564874142408
1772882864189035500,6.774035400390625,-0.0025363946333527565,0.005570267792791128,0.002603506203740835
1772882864198968300,6.78396826171875,-0.001847967505455017,0.005819273181259632,0.0017923073610290885
1772882864208901400,6.7939013671875,-0.0011046791914850473,0.005638178437948227,0.001344896387308836
1772882864218833400,6.80383349609375,-0.0013273194199427962,0.006329801399260759,0.00039254993316717446
1772882864228766500,6.813766357421875,0.0004420847399160266,0.00698014535009861,-0.001112935016863048
1772882864238699500,6.823699462890625,-0.0003038666909560561,0.00857457984238863,0.001065264455974102
1772882864248631600,6.833631591796875,-0.002567020943388343,0.0038096518255770206,-0.0003563309437595308
1772882864258564400,6.843564453125,0.0003099919413216412,0.005124720744788647,0.00021784658019896597
1772882864268497400,6.853497314453125,-0.0024626250378787518,0.008358331397175789,0.0010753844399005175
1772882864278429400,6.863429443359375,-0.003573163179680705,0.009671003557741642,0.0012578109744936228
1772882864288362500,6.873362548828125,-0.0034938009921461344,0.0075721656903624535,0.00016431703988928348
1772882864298295600,6.883295654296875,-0.0022620889358222485,0.006307430565357208,-0.002374740783125162
1772882864308227600,6.8932275390625,-0.002853044541552663,0.0060296631418168545,-0.0011757856700569391
1772882864318160600,6.90316064453125,-0.0011241203173995018,0.006654973141849041,-0.0014564828015863895
1772882864328093400,6.913093505859375,-0.0015393070643767715,0.0057289921678602695,0.00006524744821945205
1772882864338025500,6.923025390625,-0.003305515507236123,0.007015032693743706,-0.0015374429058283567
1772882864347958500,6.93295849609375,-0.000319845654303208,0.007154049351811409,-0.0012873720843344927
1772882864357890300,6.942890380859375,-0.003340402850881219,0.006420881487429142,0.0013555489713326097
1772882864367823400,6.9528232421875,0.001577123999595642,0.004489556886255741,0.0009227853151969612
1772882864377756400,6.96275634765625,-0.00261788722127676,0.007048321887850761,-0.0006048039067536592
1772882864387688400,6.9726884765625,-0.0020327907986938953,0.00797510240226984,-0.0007635282818228006
1772882864397621500,6.98262158203125,0.0015907060587778687,0.00487118773162365,-0.00108284130692482
1772882864407554300,6.99255419921875,-0.00022397184511646628,0.006647516507655382,0.0007827030494809151
1772882864417486300,7.002486328125,-0.0027174896094948053,0.005372128449380398,-0.00007696535612922162
1772882864427419400,7.01241943359375,-0.001418932224623859,0.006765228230506182,-0.001386441639624536
1772882864437352400,7.0223525390625,0.00002370213405811228,0.004197674337774515,-0.0007731156656518579
1772882864447284500,7.032284423828125,-0.0032674323301762342,0.0060150157660245895,-0.001657551503740251
1772882864457217500,7.042217529296875,-0.0009693906176835299,0.006068544927984476,-0.0009837717516347766
1772882864467150300,7.052150390625,-0.0007619303651154041,0.004707403481006622,0.000032490566809428856
1772882864477082400,7.062082275390625,0.001204547705128789,0.006447779480367899,0.0008873652550391853
1772882864487015400,7.072015380859375,-0.0034133736044168472,0.008314388804137707,-0.0003451456723269075
1772882864496948500,7.081948486328125,-0.000720118754543364,0.003719370812177658,0.0011611381778493524
1772882864506880500,7.091880615234375,-0.00045327001134864986,0.007029413711279631,0.000011451592399680521
1772882864516813600,7.1018134765625,-0.000737695605494082,0.004000866785645485,0.0003246393462177366
1772882864526746600,7.11174658203125,-0.002953445538878441,0.006661897525191307,0.002148105762898922
1772882864536678700,7.1216787109375,-0.0019212043844163418,0.00720411678776145,0.0027089675422757864
1772882864546611500,7.131611572265625,-0.001532382913865149,0.00541394017636776,-0.0008162588928826153
1772882864556544500,7.14154443359375,0.0009797769598662853,0.005401156842708588,0.0008258462767116725
1772882864566476300,7.151476318359375,-0.0023819312918931246,0.004187554586678743,0.0001685781026026234
1772882864576409300,7.161409423828125,-0.0017230651574209332,0.006656837183982134,0.0025563682429492474
1772882864586342400,7.17134228515625,0.0008961536805145442,0.00541473925113678,-0.0008412926108576357
1772882864596274400,7.1812744140625,-0.0018274611793458462,0.006461095064878464,0.00321843009442091
1772882864606207500,7.19120751953125,-0.0004191815387457609,0.004066647030413151,-0.0009454221581108868
1772882864616140300,7.201140380859375,-0.00033635724685154855,0.004671184346079826,-0.0010924286907538772
1772882864626072300,7.211072265625,-0.0014948323369026184,0.006932474672794342,-0.0020727382507175207
1772882864636005400,7.22100537109375,-0.0012455604737624526,0.008420382626354694,0.00001304948909819359
1772882864645938400,7.2309384765625,-0.0009827064350247383,0.007522630970925093,0.0022796657867729664
1772882864655870500,7.240870361328125,-0.0010189254535362124,0.006632336415350437,-0.0006295712664723396
1772882864665803500,7.250803466796875,-0.0029294772539287806,0.006209426559507847,-0.00034194986801594496
1772882864675736300,7.260736328125,0.0013600763631984591,0.005170261021703482,-0.0009185242815874517
1772882864685668400,7.27066845703125,-0.003406449221074581,0.007611047942191362,0.0023401195649057627
1772882864695601400,7.280601318359375,-0.002311357529833913,0.006819023750722408,0.000999750685878098
1772882864705533400,7.290533447265625,0.0004165183927398175,0.005060805007815361,-0.00028389296494424343
1772882864715466500,7.300466552734375,-0.0025068335235118866,0.006864031311124563,0.0005070658517070115
1772882864725399600,7.310399658203125,0.0010719223646447062,0.00498170917853713,0.00044474788592197
1772882864735331600,7.32033154296875,-0.0031004520133137703,0.00708773685619235,-0.0015361113473773003
1772882864745264600,7.3302646484375,-0.0012490225490182638,0.005993976723402739,0.0020186761394143105
1772882864755197400,7.340197509765625,-0.001645300886593759,0.00851252768188715,-0.0012394351651892066
1772882864765129500,7.35012939453125,0.00006231796578504145,0.005216599907726049,0.0011030812747776508
1772882864775062500,7.3600625,-0.0013915016315877438,0.005881591234356165,-0.0002873550693038851
1772882864784995600,7.36999560546875,0.00007110639853635803,0.008227836340665817,0.000336090917699039
1772882864794927400,7.37992724609375,0.0008748483960516751,0.006900250446051359,-0.00042450788896530867
1772882864804860400,7.3898603515625,0.0006993460701778531,0.005197425372898579,-0.0013970943400636315
1772882864814793500,7.39979345703125,-0.0022775353863835335,0.004697549622505903,0.0004950816510245204
1772882864824725500,7.4097255859375,0.000523843802511692,0.007092264015227556,0.0013558153295889497
1772882864834658300,7.419658203125,0.00032570460462011397,0.005634449888020754,0.0015632755821570754
1772882864844591400,7.42959130859375,0.0008793757879175246,0.0068267472088336945,0.0004894890007562935
1772882864854523400,7.4395234375,-0.000708134553860873,0.005283977836370468,-0.0010665960144251585
1772882864864456400,7.44945654296875,0.00017949705943465233,0.006858705077320337,0.0005342300864867866
1772882864874389500,7.459389404296875,0.0006833671359345317,0.00788561999797821,-0.00017257283616345376
1772882864884321500,7.469321533203125,-0.00010412959818495438,0.0060115535743534565,-0.0012234562309458852
1772882864894254300,7.47925439453125,0.00014753911818843335,0.006193980108946562,-0.0009898969437927008
1772882864904187400,7.4891875,-0.0008812400046736002,0.0062794676050543785,0.00038722361205145717
1772882864914119400,7.499119384765625,0.0011925635626539588,0.007031544111669064,0.000773381965700537
1772882864924052500,7.509052490234375,0.00042290997225791216,0.006650712341070175,-0.00032570460462011397
1772882864933985500,7.518985595703125,-0.000657534459605813,0.004599811974912882,-0.0006679208017885685
1772882864943917600,7.52891748046875,-0.000925448490306735,0.008739429526031017,-0.0015403723809868097
1772882864953850600,7.5388505859375,-0.0030959248542785645,0.0072778863832354546,-0.0014788532862439752
1772882864963782700,7.54878271484375,-0.0031784826423972845,0.006303968373686075,-0.00015046859334688634
1772882864973715500,7.558715576171875,-0.0012996225850656629,0.005693838465958834,0.0005344964447431266
1772882864983648500,7.5686484375,-0.0011965582380071282,0.0043505397625267506,-0.001999235013499856
1772882864993580300,7.578580322265625,-0.00041758365114219487,0.005247492343187332,0.0047060721553862095
1772882865003513300,7.588513427734375,0.0005427522119134665,0.006812898442149162,0.000006924218723725062
1772882865013446700,7.59844677734375,-0.0024173513520509005,0.006342051550745964,-0.00038642468280158937
1772882865023378400,7.60837841796875,-0.002273007994517684,0.005213137716054916,0.0005475459038279951
1772882865033311500,7.6183115234375,-0.00003328951424919069,0.006681338418275118,0.0012042814632877707
1772882865043244300,7.628244384765625,-0.00293347192928195,0.009614810347557068,-0.0023936491925269365
1772882865053176300,7.63817626953125,0.00012996226723771542,0.006248041987419128,-0.0026501116808503866
1772882865063109400,7.648109375,-0.0014138722326606512,0.0057199373841285706,-0.0007430219557136297
1772882865073042400,7.65804248046875,-0.0026176210958510637,0.007553790230304003,0.003662378992885351
1772882865082974500,7.667974365234375,0.0016269250772893429,0.007904528640210629,0.0019291938515380025
1772882865092906500,7.677906494140625,-0.0017955031944438815,0.007303453050553799,0.001160339335910976
1772882865102839600,7.687839599609375,0.00008415588672505692,0.006050968077033758,0.001427720650099218
1772882865112771600,7.697771484375,-0.0005661880713887513,0.007728759665042162,0.0014940333785489202
1772882865122704400,7.707704345703125,-0.002275138394907117,0.007699464913457632,0.000913197931367904
1772882865132637400,7.717637451171875,-0.003004844533279538,0.006207295693457127,-0.0011970909545198083
1772882865142569500,7.727569580078125,0.0024983114562928677,0.006970557849854231,-0.0001073253879440017
1772882865152502500,7.73750244140625,-0.0036160401068627834,0.006554305553436279,0.00012064119800925255
1772882865162435600,7.747435546875,-0.0004111920716241002,0.007254450581967831,0.0007893609581515193
1772882865172367600,7.75736767578125,-0.0005075985100120306,0.005573463626205921,0.000877511571161449
1772882865182300700,7.76730078125,0.0007627293234691024,0.0062461779452860355,-0.0006101301987655461
1772882865192232700,7.777232666015625,-0.0006082659820094705,0.00765845226123929,0.0006498112925328314
1772882865202165500,7.78716552734375,-0.0030133668333292007,0.00974397361278534,0.001957689644768834
1772882865212098600,7.7970986328125,-0.00253479671664536,0.002980609890073538,-0.0011163970921188593
1772882865222031600,7.807031494140625,-0.0009126652730628848,0.005657619331032038,-0.0013550163712352514
1772882865231963600,7.816963623046875,0.0004444815858732909,0.007121292874217033,0.0007520766812376678
1772882865241896700,7.826896728515625,-0.0014612764352932572,0.005499427672475576,-0.0012985573848709464
1772882865251828700,7.836828857421875,-0.0008796420879662037,0.005230980925261974,-0.0020277309231460094
1772882865261761800,7.84676171875,-0.0018788601737469435,0.007207046262919903,-0.0011257182341068983
1772882865271694600,7.856694580078125,-0.0007265103631652892,0.009431318379938602,0.000570981705095619
1772882865281626400,7.86662646484375,-0.0027712853625416756,0.007654723711311817,0.00025539714260958135
1772882865291559400,7.876559326171875,-0.00159443449229002,0.00598572101444006,-0.00014993596414569765
1772882865301492700,7.88649267578125,-0.001678057829849422,0.003560912562534213,0.0009835053933784366
1772882865311424500,7.896424560546875,-0.0018631474813446403,0.006268548313528299,-0.0005134574603289366
1772882865321357600,7.906357666015625,0.00042024682625196874,0.005330583080649376,0.0006431533838622272
1772882865331290400,7.916290283203125,-0.0019057580502703786,0.007801197934895754,0.0006016080733388662
1772882865341222400,7.926222412109375,-0.0029443909879773855,0.007071757689118385,0.0011507519520819187
1772882865351155500,7.936155517578125,0.0003283677506260574,0.004720186814665794,0.0011227887589484453
1772882865361088500,7.946088623046875,-0.0033776871860027313,0.004208593629300594,-0.000538491178303957
1772882865371020500,7.9560205078125,-0.00017656758427619934,0.007467770017683506,0.000586161739192903
1772882865380953600,7.96595361328125,-0.001975532853975892,0.0068027786910533905,0.001100950757972896
1772882865390886700,7.97588671875,-0.0023062974214553833,0.004142280668020248,0.0019259981345385313
1772882865400818700,7.985818603515625,-0.0009177253232337534,0.005269863177090883,0.0013283847365528345
1772882865410751500,7.99575146484375,-0.001710814656689763,0.006972155533730984,0.000278300343779847
1772882865420684500,8.0056845703125,-0.003477555699646473,0.005695702508091927,0.0007576693315058947
1772882865430616600,8.015616455078124,-0.0005600627628155053,0.00678307143971324,0.0016727314796298742
1772882865440549600,8.025549560546875,-0.0002460760879330337,0.008824383839964867,0.000901480030734092
1772882865450481700,8.035481689453125,0.0010996191995218396,0.006149771623313427,-0.0003206445835530758
1772882865460414700,8.045414794921875,0.00037710359902121127,0.006460562348365784,-0.00009214537567459047
1772882865470347500,8.055347412109375,-0.0005454153870232403,0.006537261418998241,0.00039414784987457097
1772882865480279800,8.06527978515625,-0.000182959163794294,0.0026610305067151785,0.0017635452095419168
1772882865490212600,8.075212646484376,-0.00040266994619742036,0.005921538453549147,0.0007281082216650248
1772882865500145700,8.085145751953124,-0.0021497036796063185,0.00629012007266283,0.000391218374716118
1772882865510077400,8.095077392578125,0.00039228363311849535,0.004252535756677389,0.0006402239087037742
1772882865520010500,8.105010498046875,-0.0010684601729735732,0.004957207944244146,-0.0006072007236070931
1772882865529943600,8.114943603515625,-0.002156627830117941,0.007888815365731716,0.0008586031035520136
1772882865539875600,8.12487548828125,0.0006713828770443797,0.005559614859521389,0.0015907060587778687
1772882865549808400,8.134808349609376,-0.0023872575256973505,0.0041092573665082455,-0.001978728687390685
1772882865559741400,8.144741455078124,-0.0013725932221859694,0.0049795787781476974,-0.000761664065066725
1772882865569673500,8.154673583984374,-0.002292981604114175,0.007011037785559893,-0.00177952426020056
1772882865579606500,8.1646064453125,-0.0006639260682277381,0.007429953198879957,0.0008101335843093693
1772882865589539600,8.17453955078125,-0.0002668487431947142,0.008833439089357853,-0.00015579492901451886
1772882865599471600,8.1844716796875,-0.0004474110610317439,0.0065476479940116405,-0.00040480049210600555
1772882865609404700,8.19440478515625,-0.0009478190331719816,0.007998271845281124,-0.0001691107318038121
1772882865619337500,8.20433740234375,-0.001460477476939559,0.0073050507344305515,-0.00009747169679030776
1772882865629269500,8.21426953125,-0.0014937670202925801,0.005975867155939341,-0.0011179950088262558
1772882865639202600,8.22420263671875,-0.0007744472241029143,0.0073013221845030785,0.0004966795677319169
1772882865649135600,8.234135498046875,-0.004375573713332415,0.007676029112190008,0.0013432984706014395
1772882865659067600,8.244067626953125,0.00034194986801594496,0.003784351982176304,0.0018279937794432044
1772882865669000700,8.254000732421876,-0.00031904669594950974,0.007479754276573658,0.0005611280212178826
1772882865678932700,8.2639326171875,0.00027297402266412973,0.00926407240331173,-0.0018911106744781137
1772882865688865500,8.273865478515624,-0.002469815546646714,0.007734352257102728,-0.0003502056933939457
1772882865698798600,8.283798583984375,0.0001174454009742476,0.005601426586508751,-0.00016245282313320786
1772882865708730400,8.29373046875,-0.0007275756215676665,0.007107444107532501,-0.0011267834343016148
1772882865718663700,8.30366357421875,0.0009544769418425858,0.005579855293035507,-0.001990712946280837
1772882865728596700,8.3135966796875,0.00005352953667170368,0.005079713650047779,0.0008325041271746159
1772882865738530600,8.323530517578124,-0.0013765880139544606,0.0049428269267082214,-0.0019499665359035134
1772882865748463600,8.333463623046875,-0.0009483516332693398,0.007023288402706385,-0.0009558085002936423
1772882865758395600,8.343395751953125,-0.0005941512063145638,0.0057042245753109455,0.0007113303290680051
1772882865768328700,8.35332861328125,-0.0024517059791833162,0.00660543842241168,-0.0006700513185933232
1772882865778261800,8.36326171875,-0.002444781828671694,0.004474376793950796,0.0008511462947353721
1772882865788193500,8.373193603515626,-0.0025369273498654366,0.006539924535900354,0.000913197931367904
1772882865798126300,8.383126220703126,-0.0035396073944866657,0.0078102522529661655,0.00014061490946915
1772882865808059600,8.3930595703125,-0.0014788532862439752,0.007650729268789291,-0.003263703780248761
1772882865817991400,8.402991455078125,-0.000672181835398078,0.006399576086550951,-0.00010040117194876075
1772882865827924500,8.412924560546875,-0.0008918926469050348,0.006441387813538313,-0.0014855111949145794
1772882865837857500,8.422857421875,-0.002121474128216505,0.005269330460578203,0.002804841147735715
1772882865847789600,8.43278955078125,-0.00025060345069505274,0.004988367203623056,0.001050084363669157
1772882865857722600,8.44272265625,0.0007728493656031787,0.005269330460578203,0.0009797769598662853
1772882865867655400,8.452655517578124,-0.000031158982892520726,0.0059598879888653755,-0.0010695254895836115
1772882865877587500,8.46258740234375,-0.0023752732668071985,0.005363606382161379,0.0010498181218281388
1772882865887520500,8.4725205078125,-0.0006340986583381891,0.004894091282039881,-0.00010120012302650139
1772882865897453600,8.48245361328125,-0.0014764565275982022,0.008440356701612473,-0.00011451592581579462
1772882865907385600,8.492385498046875,-0.0023614249657839537,0.006666957400739193,-0.0012535499408841133
1772882865917318700,8.502318603515626,-0.0011179950088262558,0.008784170262515545,0.0018583538476377726
1772882865927251500,8.51225146484375,0.0011835087789222598,0.007321296259760857,-0.0014543522847816348
1772882865937183700,8.522183837890625,-0.0015590144321322441,0.0059420447796583176,-0.0007206514128483832
1772882865947116500,8.532116455078125,-0.0009715211344882846,0.0055034225806593895,-0.0032591766212135553
1772882865957049600,8.542049560546875,-0.002389121800661087,0.00720438314601779,-0.000055926382628967986
1772882865966981600,8.551981689453125,0.0013262542197480798,0.0065375277772545815,0.0014287859667092562
1772882865976914700,8.561914794921876,-0.00011664645717246458,0.005941778887063265,0.00022796659322921187
1772882865986846700,8.5718466796875,-0.0007150587625801563,0.008271511644124985,0.0005022721597924829
1772882865996779800,8.58177978515625,-0.0022772690281271935,0.00746217742562294,-0.001939313835464418
1772882866006712600,8.591712646484375,-0.0013542174128815532,0.005519134923815727,-0.00008655273268232122
1772882866016644400,8.601644287109375,-0.0006815029191784561,0.006316218990832567,-0.0007305050967261195
1772882866026577400,8.611577392578125,-0.0007518103811889887,0.007576959673315287,0.0009872338268905878
1772882866036510500,8.621510498046876,-0.0004820321628358215,0.006706106010824442,0.0008367652189917862
1772882866046442500,8.6314423828125,-0.0008993495139293373,0.006659500766545534,-0.00046072687837295234
1772882866056375600,8.64137548828125,0.0010450243717059493,0.006426474079489708,0.0031222901307046413
1772882866066308600,8.65130859375,-0.0024881914723664522,0.0059907808899879456,0.001383245806209743
1772882866076240600,8.66124072265625,0.0020852552261203527,0.00535348616540432,0.0011182613670825958
1772882866086173400,8.67117333984375,0.0015670040156692266,0.006681871134787798,0.0014884406700730324
1772882866096107000,8.68110693359375,-0.0004649879119824618,0.00675324397161603,0.0012295814231038094
1772882866106039000,8.6910390625,-0.00047697214176878333,0.008702944032847881,0.001130245509557426
1772882866115972000,8.70097216796875,-0.0010359697043895721,0.007536213379353285,0.0019180085510015488
1772882866125905200,8.7109052734375,-0.0008740494376979768,0.0068206219002604485,0.0002412823960185051
1772882866135837000,8.7208369140625,-0.0018516959389671683,0.007522364612668753,-0.001261805766262114
1772882866145769700,8.730769775390625,-0.0015539544401690364,0.005052815657109022,-0.0015683355741202831
1772882866155703000,8.740703125,-0.0025739450938999653,0.005711415316909552,-0.0006538060260936618
1772882866165634800,8.750634765625,0.0005081311101093888,0.006797985173761845,0.0011952266795560718
1772882866175568000,8.76056787109375,-0.00024740767548792064,0.004098338540643454,0.0011534150689840317
1772882866185500000,8.7705,-0.001475657569244504,0.006493585649877787,-0.0002633866388350725
1772882866195433000,8.780432861328125,0.0002956108655780554,0.00549276964738965,-0.001460477476939559
1772882866205366000,8.790365966796875,-0.005257346201688051,0.008625978603959084,0.0017678063595667481
1772882866215298000,8.800298095703125,-0.0005795038305222988,0.006462160497903824,-0.0010727213229984045
1772882866225230800,8.81023095703125,-0.001145425601862371,0.007318633142858744,0.0026615632232278585
1772882866235164000,8.820163818359376,0.0003802994033321738,0.004143878817558289,0.002430667169392109
1772882866245096000,8.830095947265624,-0.00021491710504051298,0.005344431847333908,0.0005070658517070115
1772882866255029000,8.840029052734375,-0.0009528790251351893,0.005166532471776009,-0.00030306773260235786
1772882866264962000,8.849962158203125,-0.001347825862467289,0.007642473094165325,0.0016650082543492317
1772882866274894000,8.85989404296875,-0.0017635452095419168,0.008870723657310009,-0.0009978864109143615
1772882866284827000,8.869826904296875,-0.0002924150903709233,0.005191300064325333,-0.0013795174891129136
1772882866294760000,8.879760009765626,-0.0020482372492551804,0.008891762234270573,-0.000648479734081775
1772882866304692000,8.88969189453125,0.0002511360798962414,0.0065287393517792225,0.0007954862085171044
1772882866314625000,8.899625,-0.005390504375100136,0.0076089175418019295,-0.0007371630053967237
1772882866324558000,8.90955810546875,-0.0017204020405188203,0.00683074165135622,-0.001449025934562087
1772882866334490000,8.919489990234375,-0.0030093719251453876,0.005417136009782553,0.001621066126972437
1772882866344423200,8.929423095703125,0.0002844255941454321,0.005304750520735979,-0.0009230516152456403
1772882866354356000,8.93935595703125,0.0010655306978151202,0.006601177155971527,0.0015925703337416053
1772882866364287700,8.949287841796876,-0.0013230583863332868,0.006828877609223127,-0.0003062635369133204
1772882866374220800,8.959220703125,-0.0017965685110539198,0.00771704176440835,0.000743820914067328
1772882866384153900,8.96915380859375,0.00008122641156660393,0.007378820329904556,0.000987766426987946
1772882866394086000,8.9790859375,-0.0000655137628200464,0.005934588145464659,0.0006005428149364889
1772882866404019000,8.98901904296875,-0.0012434299569576979,0.005234709475189447,0.00004873584839515388
1772882866413951000,8.998950927734375,-0.001752093667164445,0.005504487548023462,0.00036485306918621063
1772882866423884000,9.008884033203126,-0.0007550061563961208,0.007415305823087692,-0.003269562730565667
1772882866433816800,9.01881689453125,-0.0017385114915668964,0.0075671058148145676,-0.0007323693134821951
1772882866443748900,9.028748779296874,-0.0018455706303939223,0.004128698725253344,0.0007976167253218591
1772882866453682000,9.038681884765625,-0.0006261091912165284,0.00634844321757555,-0.0005973470397293568
1772882866463615000,9.048614990234375,-0.0025933862198144197,0.007129282224923372,-0.00039974047103896737
1772882866473547000,9.058547119140625,-0.0013185309944674373,0.003879426745697856,0.0013377057621255517
1772882866483480000,9.06847998046875,0.0014303837670013309,0.004896221682429314,-0.001330249011516571
1772882866493412900,9.078412841796874,0.0001805623178370297,0.0044115264900028706,0.0018612833227962255
1772882866503345000,9.088344970703124,-0.0005001416429877281,0.007906125858426094,-0.00038003307417966425
1772882866513278000,9.09827783203125,-0.0027262780349701643,0.005251753609627485,0.002624012529850006
1772882866523211000,9.1082109375,-0.0008162588928826153,0.00899882148951292,-0.00041332258842885494
1772882866533143000,9.11814306640625,-0.0020359866321086884,0.009473130106925964,-0.000021837920940015465
1772882866543076000,9.128076171875,-0.0006942860782146454,0.007980961352586746,0.002669020090252161
1772882866553009200,9.138009033203126,-0.003154514357447624,0.004827511962503195,0.0006370281334966421
1772882866562941000,9.14794091796875,-0.0009076052810996771,0.004803277086466551,0.00014647385978605598
1772882866572874000,9.1578740234375,0.0008186557097360492,0.004077565856277943,0.00025273399660363793
1772882866582805800,9.1678056640625,-0.0034671693574637175,0.008519984781742096,0.002020274056121707
1772882866592738800,9.17773876953125,-0.0007257114048115909,0.006105030421167612,0.0009086705395020545
1772882866602671900,9.187671875,-0.0008026767172850668,0.006191050633788109,0.00037736992817372084
1772882866612604000,9.19760400390625,0.0008351673022843897,0.0075937374494969845,-0.00036911413189955056
1772882866622537000,9.207536865234376,0.0005174521938897669,0.005805957596749067,-0.0014210627414286137
1772882866632470000,9.217469970703124,-0.00021997711155563593,0.006108758971095085,0.0012796488590538502
1772882866642402000,9.227402099609375,-0.0026117621455341578,0.005336974747478962,0.0008253136184066534
1772882866652334800,9.2373349609375,-0.0006745787104591727,0.00751890242099762,-0.0005281048361212015
1772882866662268000,9.247267822265625,-0.001407214323990047,0.005775597412139177,0.0005129248020239174
1772882866672200000,9.257199951171875,0.0015339808305725455,0.003510046284645796,-0.00045912896166555583
1772882866682133000,9.267133056640626,-0.0005531385540962219,0.005558549892157316,0.0003403519804123789
1772882866692066000,9.277066162109374,0.0014692660188302398,0.006654174067080021,-0.0013187973527237773
1772882866701998000,9.286998046875,-0.0016695356462150812,0.007433681283146143,-0.00119629199616611
1772882866711931000,9.296930908203125,-0.00140987744089216,0.005783853121101856,-0.0006588660762645304
1772882866721864000,9.306864013671875,-0.0005776396137662232,0.006548712961375713,0.0013611416798084974
1772882866731796000,9.3167958984375,-0.0007384945638477802,0.005964415613561869,0.001243962557055056
1772882866741729000,9.32672900390625,-0.00037630466977134347,0.006146309431642294,-0.0006146575906313956
1772882866751662000,9.336662109375,-0.00019494339358061552,0.003753991797566414,-0.0005515406373888254
1772882866761594000,9.346593994140624,-0.002427471335977316,0.005559348501265049,-0.0014405038673430681
1772882866771527200,9.356527099609375,-0.0026818031910806894,0.006432865746319294,-0.0006583334179595113
1772882866781459000,9.366458984375,0.0005123922019265592,0.005006209947168827,0.0012932310346513987
1772882866791391700,9.376391845703125,-0.0012269183062016964,0.005230448208749294,-0.002254632068797946
1772882866801324800,9.38632470703125,-0.0003014698449987918,0.005557484459131956,-0.0009257147903554142
1772882866811256800,9.3962568359375,-0.00013768543431069702,0.007059241179376841,-0.0013185309944674373
1772882866821190000,9.40618994140625,-0.0013488910626620054,0.015308382920920849,0.005964948330074549
1772882866831123000,9.416123046875,-0.004122573416680098,0.1718311458826065,0.059854812920093536
1772882866841055000,9.426054931640625,-0.005857090000063181,0.145196333527565,0.04996276646852493
1772882866850988000,9.435988037109375,-0.0025798040442168713,0.04332670196890831,0.0191904716193676
1772882866860920800,9.4459208984375,-0.0024343954864889383,0.08183281123638153,0.033434655517339706
1772882866870852900,9.455852783203126,-0.006633135490119457,0.1422301083803177,0.056293364614248276
1772882866880786000,9.465785888671874,-0.003014165675267577,0.13513997197151184,0.06025481969118118
1772882866890719000,9.475718994140625,-0.0004367584188003093,-0.00256382510997355,-0.005468534771353006
1772882866900651000,9.485651123046875,0.0011400992516428232,-0.0008072041091509163,-0.01013918686658144
1772882866910584000,9.495583984375,-0.0010452907299622893,0.022892532870173454,-0.002400839701294899
1772882866920516900,9.505516845703125,0.001933454885147512,-0.038607046008110046,-0.021980665624141693
1772882866930449000,9.515448974609376,0.0006727144937030971,-0.05469653382897377,-0.023394538089632988
1772882866940382000,9.5253818359375,-0.00014168016787152737,-0.03735083341598511,-0.018384600058197975
1772882866950315000,9.53531494140625,-0.0008175904513336718,-0.04066966474056244,-0.02208426408469677
1772882866960247000,9.5452470703125,0.0004772384709212929,-0.08045649528503418,-0.03263144567608833
1772882866970180000,9.55518017578125,0.003667971817776561,-0.12025796622037888,-0.04837685450911522
1772882866980112000,9.56511181640625,0.0008258462767116725,-0.1733483523130417,-0.0682206004858017
1772882866990045000,9.575044921875,0.0024953819811344147,-0.08426348119974136,-0.023672040551900864
1772882866999978000,9.58497802734375,-0.003757187630981207,0.10565905272960663,0.02377244085073471
