time,seconds_elapsed,z,y,x
1772882857486969900,0.071969970703125,0.00020486960420385003,-0.00005174009129405022,-0.003536041360348463
1772882857496903000,0.08190283203125,0.003185745794326067,-0.008058800362050533,-0.0018689024727791548
1772882857506836000,0.0918359375,0.0004159925738349557,-0.018266711384058,-0.008861081674695015
1772882857516768000,0.10176806640625,0.0018309300066903234,-0.019866473972797394,-0.011280830018222332
1772882857526701000,0.111701171875,-0.0009436619002372026,-0.01319463923573494,-0.0064535122364759445
1772882857536633900,0.1216337890625,-0.0008081069681793451,-0.007078689057379961,-0.0028414668049663305
1772882857546566000,0.13156591796875,-0.00020128325559198856,-0.003342191455885768,-0.002441920805722475
1772882857556499000,0.1414990234375,0.00008687074296176434,0.00316604133695364,0.00009154435247182846
1772882857566432000,0.151431884765625,0.0003393182996660471,0.0045781987719237804,-0.0006079744198359549
1772882857576364000,0.161364013671875,0.002062383573502302,-0.002173180226236582,-0.0011150402715429664
1772882857586297000,0.171297119140625,-0.0002966641914099455,-0.009414434432983398,-0.0031866198405623436
1772882857596230100,0.181230224609375,-0.0013118610950186849,-0.008635193109512329,-0.005101965274661779
1772882857606162000,0.191161865234375,0.0006076294230297208,-0.009623605757951736,-0.00393043365329504
1772882857616095000,0.201094970703125,0.0006752737099304795,-0.01036236621439457,-0.005817549303174019
1772882857626028000,0.211028076171875,-0.0009555949363857508,-0.01139744184911251,-0.00449508149176836
1772882857635959800,0.220959716796875,0.0024724260438233614,-0.01317217294126749,-0.004860200919210911
1772882857645892900,0.230892822265625,0.00039515417302027345,-0.007783195003867149,-0.0008069341420195997
1772882857655826000,0.240825927734375,-0.0006173796718940139,-0.0021016071550548077,-0.0006133223068900406
1772882857665758000,0.250758056640625,0.0003598571056500077,0.004168504849076271,0.0031773203518241644
1772882857675691000,0.26069091796875,-0.001474794466048479,0.0014882995747029781,0.0012372075580060482
1772882857685623800,0.270623779296875,0.00029421516228467226,-0.00041018519550561905,-0.00048764998791739345
1772882857695555800,0.280555908203125,0.00019567820709198713,0.002797858789563179,0.0008332778816111386
1772882857705489000,0.290489013671875,-0.001386306481435895,-0.006235483568161726,-0.002991165267303586
1772882857715422000,0.300421875,-0.00040120305493474007,-0.013400984928011894,-0.005181615240871906
1772882857725354000,0.31035400390625,0.0007150760502554476,-0.01395472139120102,-0.005523853003978729
1772882857735287000,0.320287109375,-0.0000018469290807843208,-0.005053638480603695,-0.00015971396351233125
1772882857745219800,0.3302197265625,-0.0005182683235034347,0.010216128081083298,0.0032539258245378733
1772882857755152000,0.34015185546875,0.0016215816140174866,0.011056356132030487,0.007792218588292599
1772882857765085000,0.3500849609375,-0.0011342435609549284,0.015412122011184692,0.006534019019454718
1772882857775018000,0.36001806640625,0.00041385198710486293,0.005096899811178446,0.0013919875491410494
1772882857784950000,0.369949951171875,0.0004201764822937548,-0.0045569590292871,0.0003484172048047185
1772882857794883000,0.379883056640625,0.00022949412232264876,-0.007207336835563183,-0.001970663433894515
1772882857804816100,0.389816162109375,0.0011008826550096273,-0.006238697096705437,-0.0006942393956705928
1772882857814748200,0.399748046875,0.00007822876796126366,-0.0012489981018006802,0.0008775582537055016
1772882857824681000,0.409680908203125,0.0002838146756403148,0.002234534826129675,-0.0012314923806115985
1772882857834614000,0.419614013671875,-0.0002991512883454561,0.008142491802573204,0.0005315202288329601
1772882857844545800,0.4295458984375,-0.0025642041582614183,0.00818782951682806,0.002822305541485548
1772882857854478800,0.439478759765625,0.0005282585043460131,0.008028838783502579,0.0034819706343114376
1772882857864412200,0.449412109375,-0.0009502130560576916,0.008143490180373192,0.0036615116987377405
1772882857874344000,0.459343994140625,0.0003464801120571792,0.012753156013786793,0.004820785950869322
1772882857884277000,0.469277099609375,-0.0016849094536155462,0.01498922985047102,0.004325243644416332
1772882857894209800,0.479209716796875,0.00046426139306277037,0.009243193082511425,0.00306290527805686
1772882857904142800,0.489142822265625,0.0023703784681856632,0.0030799699015915394,0.001818985678255558
1772882857914075000,0.499074951171875,-0.0011404668912291527,0.008945582434535027,0.004214765504002571
1772882857924008000,0.509008056640625,0.001221336773596704,0.011929173953831196,0.0056908405385911465
1772882857933941000,0.51894091796875,0.0000439533032476902,0.011425302363932133,0.007435211446136236
1772882857943873000,0.528873046875,-0.0023384056985378265,0.008936711587011814,0.004192056600004435
1772882857953805800,0.538805908203125,0.0037562381476163864,0.009801172651350498,0.005640283692628145
1772882857963739000,0.54873876953125,-0.0003727771108970046,0.011236085556447506,0.0047425320371985435
1772882857973671000,0.5586708984375,-0.0001312284730374813,0.007353462278842926,0.001837023301050067
1772882857983604000,0.56860400390625,-0.0009559419704601169,0.006244172342121601,0.0015730320010334253
1772882857993537000,0.578537109375,-0.001187636866234243,0.0031663570553064346,0.001540275290608406
1772882858003469000,0.588468994140625,0.0008311662822961807,-0.0019101090729236603,-0.0020055726636201143
1772882858013402000,0.598402099609375,0.0010205170838162303,0.00039245979860424995,0.004191070329397917
1772882858023335000,0.6083349609375,-0.0008048212621361017,0.02106631174683571,0.004892014432698488
1772882858033267000,0.618266845703125,-0.0014309303369373083,0.03811640292406082,0.01566876284778118
1772882858043200000,0.628199951171875,-0.0023743670899420977,0.0453682541847229,0.016962280496954918
1772882858053133000,0.638133056640625,-0.003165325615555048,0.03212488815188408,0.008021516725420952
1772882858063065000,0.648065185546875,-0.002383581828325987,0.0029810843989253044,0.0005392649327404797
1772882858072998100,0.657998046875,-0.002541507361456752,0.012328513897955418,0.001997079234570265
1772882858082931000,0.667930908203125,-0.0009793770732358098,0.014665921218693256,0.006669091526418924
1772882858092863000,0.677863037109375,-0.0018734001787379384,0.007091358304023743,-0.00182266382034868
1772882858102796000,0.687796142578125,-0.0007295855320990086,-0.013340413570404053,0.0026660943403840065
1772882858112729000,0.69772900390625,-0.002855853410437703,0.027815543115139008,0.004810737911611795
1772882858122661000,0.7076611328125,-0.0013343797763809562,0.0397176519036293,0.013778413645923138
1772882858132594200,0.71759423828125,-0.0011825795518234372,0.028978193178772926,0.009093114174902439
1772882858142527000,0.72752685546875,-0.0004307827912271023,0.0125389713793993,0.004891071002930403
1772882858152459300,0.737459228515625,-0.0000369013287127018,0.003762523178011179,0.0029131416231393814
1772882858162392000,0.74739208984375,0.0009160865447483957,-0.003038524417206645,-0.0015707791317254305
1772882858172325000,0.7573251953125,0.000013008597306907177,0.0017498391680419445,-0.00009405631135450676
1772882858182257200,0.767257080078125,0.00006326800212264061,0.004210333805531263,-0.00009645315003581345
1772882858192190200,0.777190185546875,-0.0006339475512504578,-0.0067427149042487144,-0.00319876940920949
1772882858202123300,0.787123291015625,-0.0035150349140167236,-0.0045661479234695435,-0.0029624684248119593
1772882858212055300,0.79705517578125,-0.0011035425122827291,0.006335502490401268,0.004345511551946402
1772882858221988000,0.806988037109375,-0.0031024166382849216,0.019825346767902374,0.004951957613229752
1772882858231921200,0.816921142578125,-0.0004874587757512927,0.019942792132496834,0.0049575502052903175
1772882858241853000,0.82685302734375,-0.000506900018081069,0.01744776964187622,0.006645935121923685
1772882858251786200,0.8367861328125,0.0013892706483602524,-0.0016140728257596493,0.0014716797741129994
1772882858261719300,0.84671923828125,-0.0013982311356812716,-0.010384641587734222,-0.004057790618389845
1772882858271651000,0.856651123046875,0.00008275278378278017,-0.0005192281678318977,-0.0015650719869881868
1772882858281584000,0.866584228515625,-0.00029187218751758337,-0.013441314920783043,-0.006418114062398672
1772882858291517000,0.876516845703125,-0.001677514985203743,-0.013542515225708485,-0.0055696312338113785
1772882858301449000,0.886448974609375,0.0009578836616128683,0.013759713619947433,0.002667447319254279
1772882858311382000,0.896382080078125,0.0008433677721768618,0.019293496385216713,0.007864606566727161
1772882858321315000,0.906315185546875,-0.0023641122970730066,0.010280074551701546,0.0033475894015282393
1772882858331247000,0.9162470703125,0.0003227508277632296,-0.0043675778433680534,0.00010013078281190246
1772882858341180200,0.92618017578125,0.00038039160426706076,-0.0016996366903185844,0.0012012114748358727
1772882858351113000,0.936113037109375,-0.0008944635046645999,0.005477316677570343,0.0030694191809743643
1772882858361045200,0.946045166015625,-0.003260270692408085,0.003491213545203209,0.0010793107794597745
1772882858370978000,0.95597802734375,-0.0004932462470605969,-0.004256987012922764,0.0009187221294268966
1772882858380911000,0.9659111328125,-0.0006917500868439674,-0.00020655477419495583,-0.0012350555043667555
1772882858390843100,0.975843017578125,0.0012488954234868288,0.0007985224947333336,0.006723002530634403
1772882858400776200,0.985776123046875,0.0001518375938758254,0.006847461685538292,0.0009901380399242043
1772882858410709200,0.995709228515625,0.0022402885369956493,0.002833811566233635,0.002206403762102127
1772882858420641300,1.005641357421875,-0.0004039261257275939,-0.0008513368666172028,-0.000014982069842517376
1772882858430574000,1.015573974609375,-0.0008057971717789769,0.002872028388082981,-0.0005393584724515676
1772882858440507100,1.025507080078125,-0.000267062452621758,0.003848007880151272,0.00011690870451275259
1772882858450439200,1.035439208984375,-0.0010186064755544066,-0.0003667110577225685,-0.000023439875803887844
1772882858460372200,1.045372314453125,-0.0007383590564131737,0.00044447463005781174,0.001006001839414239
1772882858470305300,1.05530517578125,0.0013122749514877796,-0.0005414276383817196,0.0010496776085346937
1772882858480237000,1.065237060546875,0.0004567972500808537,0.004802453797310591,0.0021958521101623774
1772882858490170000,1.075170166015625,0.000017375685274600983,-0.0015489188954234123,-0.0013956869952380657
1772882858500103200,1.085103271484375,0.002489319536834955,0.0017178645357489586,-0.0014184967149049044
1772882858510036200,1.0950361328125,0.0014605405740439892,-0.00027205003425478935,-0.00023472162138205022
1772882858519968000,1.104968017578125,0.0001515925396233797,0.001599278301000595,-0.00016435119323432446
1772882858529901000,1.114901123046875,-0.00014028989244252443,-0.0007118131034076214,0.0006694845505990088
1772882858539834000,1.124834228515625,-0.00014336616732180119,0.0021911421790719032,0.0006644623354077339
1772882858549766100,1.13476611328125,-0.00043418328277766705,0.0003061569295823574,-0.0016487593529745936
1772882858559699000,1.144698974609375,-0.001087872893549502,0.0005038762465119362,0.0005997397820465267
1772882858569632000,1.154632080078125,0.001286068931221962,0.0001363600604236126,-0.00009960628085536882
1772882858579564000,1.16456396484375,0.0005753511795774102,0.003457674290984869,0.003961700014770031
1772882858589497000,1.1744970703125,0.0010467306710779667,0.002861392218619585,-0.0014327989192679524
1772882858599430100,1.18443017578125,-0.000006639864295721054,0.0009024869650602341,0.002473785076290369
1772882858609362200,1.194362060546875,0.0007643452263437212,0.001234050840139389,0.0008718937751837075
1772882858619295200,1.204295166015625,0.001615346409380436,0.0015501193702220917,-0.000008518443792127073
1772882858629228000,1.21422802734375,-0.00021664216183125973,0.0012838030233979225,0.0027779471129179
1772882858639160000,1.22416015625,0.0023310305550694466,0.002242040354758501,0.0014222319005057216
1772882858649093000,1.234093017578125,-0.002021107356995344,0.0000553191639482975,0.0014400751097127795
1772882858659026200,1.244026123046875,0.00019619608065113425,-0.000614481046795845,-0.00015680637443438172
1772882858668958200,1.253958251953125,0.0000960611505433917,0.00010244175791740417,0.0006970030372031033
1772882858678891300,1.263891357421875,0.0011605934705585241,0.0005761669017374516,-0.00025815743720158935
1772882858688824000,1.273823974609375,-0.002153444103896618,0.0005884175188839436,0.0014380097854882479
1772882858698756000,1.283756103515625,-0.0002365086693316698,0.0029535209760069847,0.001015661284327507
1772882858708689200,1.293689208984375,-0.0013129583094269037,-0.00039833318442106247,0.0019022275228053331
1772882858718622200,1.303622314453125,-0.0011690150713548064,-0.00018741097301244736,0.0006382913561537862
1772882858728554000,1.313553955078125,0.00031436566496267915,0.0002112644724547863,0.00210063299164176
1772882858738487000,1.323487060546875,0.00021104910410940647,0.00030499091371893883,0.001986599527299404
1772882858748420000,1.333420166015625,0.001756481477059424,0.001633375883102417,0.0006888410425744951
1772882858758352100,1.34335205078125,-0.002906241687014699,0.0019212635233998299,-0.0009354208596050739
1772882858768285000,1.353284912109375,0.0015119423624128103,0.0012245806865394115,-0.00009599252371117473
1772882858778218000,1.363218017578125,-0.0012837471440434456,0.0016382355242967606,0.0004523739335127175
1772882858788150000,1.37314990234375,0.0006763392593711615,-0.00007657380774617195,-0.0005364577518776059
1772882858798083000,1.3830830078125,0.00033253669971600175,0.0019427998922765255,-0.00002445436257403344
1772882858808016100,1.39301611328125,-0.0009034364484250546,0.0009760726243257523,-0.0006124803330749273
1772882858817948200,1.4029482421875,-0.001405476126819849,-0.0009586787782609463,-0.0015924227191135287
1772882858827881200,1.412881103515625,0.00001851597335189581,-0.0004113991744816303,-0.0015956185525283217
1772882858837814000,1.42281396484375,0.0012535445857793093,0.0021346835419535637,-0.0014548071194440126
1772882858847746000,1.43274609375,-0.0006905629998072982,-0.0001551024615764618,0.0006687975837849081
1772882858857679000,1.44267919921875,-0.0008654716657474637,0.000784857664257288,0.00029508600709959865
1772882858867612200,1.452612060546875,0.0013686541933566332,-0.0007424652576446533,0.0012250618310645223
1772882858877544200,1.462544189453125,0.0008296629530377686,0.0006697722710669041,0.0012501627206802368
1772882858887477200,1.472477294921875,0.0015939901350066066,-0.0004916326142847538,-0.00008887462900020182
1772882858897410000,1.48241015625,0.00004773458931595087,0.0013012136332690716,0.0007237910176627338
1772882858907342000,1.492342041015625,0.0031537795439362526,0.0014524809084832668,-0.00029087334405630827
1772882858917275100,1.502275146484375,0.00024013349320739508,0.0024542142637073994,-0.0008527340251021087
1772882858927208200,1.512208251953125,-0.0003918346483260393,-0.00010588252916932106,0.0009238607017323375
1772882858937140200,1.52214013671875,-0.0012408496113494039,-0.0001947535201907158,0.0008265734068118036
1772882858947073300,1.5320732421875,-0.0018059724243357778,0.002801302820444107,0.000988227198831737
1772882858957006300,1.54200634765625,-0.00010942399967461824,-0.0017127268947660923,0.002737561007961631
1772882858966938000,1.551938232421875,-0.0005144907627254725,-0.0007494613528251648,0.0014898701338097453
1772882858976871000,1.561870849609375,0.0004531549639068544,0.000812227837741375,-0.0020658359862864017
1772882858986804000,1.571803955078125,0.0003612759173847735,0.001017291098833084,-0.00018058434943668544
1772882858996736000,1.581736083984375,-0.0005983174778521061,-0.0011416329070925713,0.00016118548228405416
1772882859006669000,1.5916689453125,0.0009343316778540611,-0.001197026576846838,-0.0002920845290645957
1772882859016602000,1.60160205078125,-0.0009324580896645784,0.0002780691720545292,-0.0006294060731306672
1772882859026534100,1.6115341796875,0.00025690975598990917,-0.0007115616463124752,0.0009519789600744843
1772882859036467200,1.62146728515625,-0.001166816451586783,-0.0021294942125678062,0.0009983626659959555
1772882859046400000,1.63139990234375,0.0005133718368597329,0.0001589604653418064,-0.0003601157804951072
1772882859056332000,1.64133203125,0.0019221141701564193,-0.000029655639082193375,-0.0005485712317749858
1772882859066265000,1.65126513671875,0.00032421754440292716,0.0006411946378648281,-0.0019227623706683517
1772882859076198100,1.6611982421875,-0.001199951278977096,-0.0004184930585324764,0.0008149459608830512
1772882859086130200,1.671130126953125,0.0008690585382282734,0.0008643516339361668,-0.0015741758979856968
1772882859096063200,1.681063232421875,-0.00008770870044827461,-0.00024624355137348175,-0.000440373201854527
1772882859105996000,1.69099609375,-0.002111977431923151,-0.0003895214758813381,0.0013820278691127896
1772882859115928000,1.700927978515625,0.00043381162686273456,-0.0028540934436023235,-0.0008202646858990192
1772882859125861000,1.710861083984375,0.0020641987212002277,-0.000877495389431715,-0.002328679198399186
1772882859135794200,1.720794189453125,-0.0012129531241953373,0.0008934736251831055,0.0007243977743200958
1772882859145726200,1.730726318359375,-0.0005508913891389966,0.0004226267337799072,0.00011666445061564445
1772882859155659300,1.7406591796875,-0.001472204690799117,0.0030771754682064056,0.00048150314250960946
1772882859165592300,1.75059228515625,0.0006237030029296875,0.0028305668383836746,-0.0028991135768592358
1772882859175524400,1.7605244140625,0.0011189018841832876,-0.0002417406067252159,0.0009423871524631977
1772882859185457200,1.77045703125,0.0007937299087643623,0.0004919604398310184,-0.0006195568712428212
1772882859195390200,1.78039013671875,-0.0004221199778839946,-0.00043337373062968254,-0.0014858681242913008
1772882859205322200,1.790322265625,0.00043435266707092524,0.0009525353088974953,-0.0007337915012612939
1772882859215255300,1.80025537109375,-0.0007218840764835477,0.0016025211662054062,-0.0002835557679645717
1772882859225188400,1.810188232421875,0.00011781055945903063,0.0004589599557220936,-0.0011269788956269622
1772882859235120400,1.820120361328125,0.0022291187196969986,-0.002259689848870039,0.001797582022845745
1772882859245053200,1.83005322265625,0.001031495281495154,-0.001140895765274763,0.0007384427590295672
1772882859254986200,1.839986328125,0.0005534080555662513,0.002044775988906622,0.0010983801912516356
1772882859264918000,1.84991796875,0.0008016146603040397,0.0016405084170401096,0.0006270005833357573
1772882859274851000,1.85985107421875,-0.000428052619099617,0.0009422102011740208,0.001037335372529924
1772882859284784400,1.869784423828125,-0.00003443751484155655,0.0018652621656656265,0.00020483130356296897
1772882859294716200,1.879716064453125,-0.00004385155625641346,0.00045841652899980545,0.001377988257445395
1772882859304649200,1.889649169921875,0.00007918651681393385,0.0014142254367470741,-0.0003083253395743668
1772882859314582000,1.89958203125,-0.00006986467633396387,-0.0007067788392305374,-0.0014172098599374294
1772882859324514000,1.90951416015625,-0.0022584504913538694,0.00045888638123869896,-0.0026254861149936914
1772882859334447000,1.919447021484375,0.0012904292671009898,0.0000888453796505928,0.0016421626787632704
1772882859344380200,1.929380126953125,0.0010049385018646717,-0.0002877255901694298,0.0006874194368720055
1772882859354312200,1.939312255859375,-0.000679631601087749,-0.0013532317243516445,-0.0004280074208509177
1772882859364245200,1.949245361328125,0.00038483389653265476,-0.0016562994569540024,-0.0011734261643141508
1772882859374178000,1.959177978515625,0.00042872194899246097,-0.000002185814082622528,-0.001217384240590036
1772882859384110300,1.9691103515625,0.002437278162688017,-0.0004762285389006138,-0.0005350824212655425
1772882859394043100,1.979043212890625,0.0008961049607023597,0.0006219004280865192,0.00014979425759520382
1772882859403976200,1.98897607421875,0.0010793304536491632,0.0004884763620793819,0.0013982842210680246
1772882859413908200,1.998908203125,-0.0019566486589610577,-0.0003048516809940338,0.0009707991266623139
1772882859423841300,2.00884130859375,-0.00037819286808371544,-0.00035838130861520767,-0.0022518921177834272
1772882859433774300,2.0187744140625,-0.0013947451952844858,-0.0011767451651394367,0.0021224755328148603
1772882859443706400,2.028706298828125,-0.00038647232577204704,-0.0007663518190383911,0.0022300672717392445
1772882859453639200,2.03863916015625,0.00006709352601319551,-0.00006474321708083153,0.0011274840217083693
1772882859463572200,2.048572265625,0.0003517854493111372,0.0007014484144747257,-0.002699212171137333
1772882859473504300,2.058504150390625,-0.0008186768973246217,0.00019329413771629333,0.0003305451828055084
1772882859483437300,2.068437255859375,0.0015328943263739347,-0.0017931577749550343,0.002481047762557864
1772882859493370400,2.078370361328125,0.00117859139572829,0.0013836491852998734,0.0007060280768200755
1772882859503302100,2.08830224609375,-0.0001583155244588852,-0.0006304997950792313,0.0011888592271134257
1772882859513235200,2.098235107421875,-0.001198251498863101,-0.0008147801272571087,-0.0009957258589565754
1772882859523168000,2.10816796875,-0.0020451366435736418,-0.0012725777924060822,0.0007331982487812638
1772882859533100000,2.11810009765625,0.001428434276022017,0.0008267443627119064,-0.0024468558840453625
1772882859543033000,2.128033203125,0.0016121924854815006,0.00208162609487772,0.00014546523743774742
1772882859552966100,2.137966064453125,0.0010990233859047294,0.00045814458280801773,0.0002498145040590316
1772882859562898200,2.147898193359375,-0.0005079280817881227,-0.00036450568586587906,-0.0019885723013430834
1772882859572831200,2.157831298828125,0.0004955135518684983,-0.0011791158467531204,0.0014842032687738538
1772882859582764000,2.167763916015625,-0.0020358210895210505,0.0015421020798385143,0.0003824535524472594
1772882859592696000,2.177696044921875,0.002509145997464657,-0.0002629002556204796,0.002470172243192792
1772882859602629000,2.187629150390625,-0.0009154126746580005,-0.00028606969863176346,-0.0005096386885270476
1772882859612562200,2.197562255859375,0.0005685989162884653,0.0006400872953236103,0.0010874791769310832
1772882859622494200,2.207494140625,0.00027298799250274897,0.0011578057892620564,0.0018294358160346746
1772882859632427300,2.21742724609375,-0.000026240129955112934,0.00041376426815986633,0.0021497656125575304
1772882859642360300,2.2273603515625,-0.0005431597819551826,0.00023240270093083382,-0.0028125024400651455
1772882859652292400,2.237292236328125,-0.0005064615979790688,-0.0013478239998221397,-0.0009627501131035388
1772882859662225200,2.24722509765625,-0.00018395285587757826,-0.001803490798920393,0.004062102176249027
1772882859672158200,2.257158203125,0.0009723204420879483,0.00014072097837924957,-0.0014362537767738104
1772882859682090200,2.26709033203125,-0.000050067086704075336,-0.0012992499396204948,0.0006274298066273332
1772882859692023300,2.277023193359375,-0.00014156615361571312,0.0018769679591059685,-0.003167991526424885
1772882859701956400,2.286956298828125,-0.0005508939502760768,0.000990401953458786,-0.00019830066594295204
1772882859711888400,2.296888427734375,-0.00016773375682532787,0.0006688213907182217,-0.0006190966814756393
1772882859721821200,2.3068212890625,0.000976892770268023,0.0018358188681304455,0.0025700388941913843
1772882859731754200,2.316754150390625,-0.00027433945797383785,0.0009587248787283897,0.0005407602293416858
1772882859741686000,2.32668603515625,0.0003802655846811831,0.0010596588253974915,0.000024905981263145804
1772882859751619000,2.336619140625,0.00020658201538026333,-0.0022715977393090725,0.0005163822206668556
1772882859761552100,2.34655224609375,0.001553342561237514,-0.00009180046617984772,0.00043941690819337964
1772882859771484200,2.356484130859375,-0.0007865921361371875,-0.0011989814229309559,0.0004758921277243644
1772882859781417200,2.366417236328125,0.0024728504940867424,-0.00011667236685752869,-0.0012399825500324368
1772882859791350000,2.37635009765625,-0.002295001642778516,-0.0021382770501077175,-0.00109806505497545
1772882859801282000,2.386281982421875,-0.0020585127640515566,0.0006822766736149788,-0.0013691748026758432
1772882859811215000,2.396215087890625,-0.0019040650222450495,-0.0002792142331600189,0.0009621893987059593
1772882859821148200,2.406148193359375,0.00045549561036750674,-0.001356462948024273,0.0005075876833871007
1772882859831080200,2.416080078125,0.00018060265574604273,-0.0011327625252306461,-0.0008058641105890274
1772882859841013200,2.42601318359375,-0.0007251384668052197,0.0020150942727923393,-0.0012964182533323765
1772882859850946300,2.4359462890625,-0.0005439755041152239,0.0010429848916828632,0.0003851482761092484
1772882859860878300,2.44587841796875,0.00030690449057146907,0.00027040205895900726,0.00033587979851290584
1772882859870811100,2.45581103515625,0.0014292642008513212,-0.0036764582619071007,0.001257804105989635
1772882859880744200,2.465744140625,0.000036164652556180954,0.0013736942782998085,0.00002396160562057048
1772882859890676200,2.47567626953125,0.0012233125744387507,-0.000467861071228981,0.0010339312721043825
1772882859900609300,2.485609375,-0.0009069499792531133,0.0017590741626918316,-0.000030001523555256426
1772882859910542300,2.495542236328125,-0.0015778212109580636,0.0013192389160394669,-0.00156878842972219
1772882859920474400,2.505474365234375,-0.0017623783787712455,0.0007906015962362289,-0.00038288277573883533
1772882859930407200,2.5154072265625,0.0008636772399768233,-0.002193842548877001,0.0022447132505476475
1772882859940340200,2.52534033203125,-0.0017869670409709215,-0.0006574648432433605,0.0002034003264270723
1772882859950272000,2.53527197265625,0.0035318396985530853,0.00034913234412670135,-0.0017618635902181268
1772882859960205300,2.545205322265625,0.0009949123486876488,0.00043355487287044525,0.0017436553025618196
1772882859970138400,2.555138427734375,0.0015360676916316152,0.00017888424918055534,0.002256709150969982
1772882859980070100,2.565070068359375,0.000827400537673384,0.0018566763028502464,-0.0017359019257128239
1772882859990003200,2.575003173828125,-0.0024868499021977186,0.0003907354548573494,0.0018148813396692276
1772882859999936000,2.58493603515625,-0.00001730059739202261,0.0005281544290482998,0.0006779777468182147
1772882860009868000,2.594867919921875,-0.0003958905581384897,0.002512160688638687,-0.000766848330385983
1772882860019801000,2.604801025390625,-0.00030614202842116356,-0.001894571352750063,-0.0011551372008398175
1772882860029734100,2.614734130859375,-0.0015908402856439352,0.00042755575850605965,0.0004182473639957607
1772882860039666200,2.624666259765625,-0.0007266445318236947,0.0015077339485287666,-0.000037685822462663054
1772882860049599200,2.63459912109375,0.00036083097802475095,0.0006935987621545792,0.00029323919443413615
1772882860059532300,2.6445322265625,-0.001408573123626411,0.00045098504051566124,-0.0008868074510246515
1772882860069464300,2.65446435546875,-0.0013459770707413554,-0.0031113966833800077,-0.002754508052021265
1772882860079397000,2.664397216796875,-0.00012172188144177198,-0.0008389214053750038,0.000023967790184542537
1772882860089330400,2.674330322265625,-0.000013327458873391151,0.00012711528688669205,0.0008741553756408393
1772882860099262500,2.684262451171875,0.0010242401622235775,0.001449640840291977,0.0005316728493198752
1772882860109195500,2.694195556640625,-0.0007316749542951584,0.001241220161318779,-0.00279651558957994
1772882860119128600,2.704128662109375,-0.002148476429283619,-0.003055524080991745,-0.00025772416847757995
1772882860129060600,2.714060546875,-0.00011167023330926895,0.0007213377393782139,0.0010351777309551835
1772882860138993400,2.723993408203125,-0.0010184765560552478,-0.00029412517324090004,-0.000539815635420382
1772882860148926500,2.733926513671875,0.0005255472497083247,0.0007225684821605682,-0.0013087642146274447
1772882860158858500,2.7438583984375,-0.00029204320162534714,-0.0038948203437030315,0.0021991513203829527
1772882860168791600,2.75379150390625,-0.0018192792776972055,0.0013269111514091492,-0.0036358346696943045
1772882860178724600,2.763724609375,0.001612736494280398,-0.0005181268788874149,-0.00048504886217415333
1772882860188656600,2.77365673828125,-0.000011729425750672817,-0.001247640699148178,-0.0006919053266756237
1772882860198589400,2.78358935546875,0.001329172169789672,-0.00019143102690577507,0.0013086613034829497
1772882860208522500,2.7935224609375,-0.00024814787320792675,-0.002260663080960512,0.0011140054557472467
1772882860218454500,2.80345458984375,-0.001495572505518794,0.0017995922826230526,0.000632772222161293
1772882860228387600,2.8133876953125,0.00011512066703289747,0.00169764319434762,-0.0007351949461735785
1772882860238320600,2.823320556640625,-0.0005820950027555227,-0.0012837653048336506,-0.0003471723757684231
1772882860248252400,2.83325244140625,-0.002044371794909239,-0.0013291561044752598,-0.001502236700616777
1772882860258185500,2.843185546875,0.001124257338233292,-0.002049541100859642,8.514762157574296e-7
1772882860268118300,2.8531181640625,0.00026636128313839436,-0.0016940091736614704,-0.001473939628340304
1772882860278050300,2.86305029296875,0.0012565245851874352,0.0009169536642730236,-0.0008875115308910608
1772882860287983400,2.8729833984375,0.0020521203987300396,0.0005170255899429321,-0.00018613628344610333
1772882860297916400,2.88291650390625,0.0015184229705482721,0.0021319659426808357,-0.0009984003845602274
1772882860307848400,2.892848388671875,0.0007329338695853949,-0.0005148821510374546,0.00025428630760870874
1772882860317781500,2.902781494140625,0.00041841453639790416,0.000612966250628233,0.00009715979103930295
1772882860327714600,2.912714599609375,0.0006019787397235632,-0.0014598066918551922,-0.0016284557059407234
1772882860337646600,2.922646484375,0.0013766923220828176,0.00035806698724627495,0.0007667912868782878
1772882860347579400,2.932579345703125,0.0013392752734944224,0.0023470651358366013,0.0023156411480158567
1772882860357512400,2.942512451171875,0.00016828335355967283,0.0003294544294476509,0.0011260071769356728
1772882860367444500,2.952444580078125,0.00029064383124932647,0.00006956420838832855,0.0003219616774003953
1772882860377377500,2.96237744140625,0.00016600784147158265,-0.0019941190257668495,-0.0015928511274978518
1772882860387310600,2.972310546875,-0.0001724540488794446,-0.0012744697742164135,-0.0011831213487312198
1772882860397242600,2.98224267578125,-0.000922932755202055,0.0016014780849218369,0.00008188017818611115
1772882860407175400,2.992175537109375,-0.00013251882046461105,-0.0011884532868862152,-0.0011788364499807358
1772882860417108500,3.0021083984375,-0.0008638228755444288,-0.0012893867678940296,-0.0007370180683210492
1772882860427040500,3.01204052734375,0.0014757965691387653,-0.002409120788797736,-0.00003623472002800554
1772882860436973600,3.0219736328125,-0.0006576617015525699,-0.00013771094381809235,-0.000979792675934732
1772882860446906600,3.03190673828125,-0.0024884077720344067,0.0008226637728512287,-0.0006277486681938171
1772882860456838700,3.041838623046875,0.0014650546945631504,0.0012080231681466103,0.0010604290291666985
1772882860466771700,3.051771728515625,-0.00013121473602950573,0.0009715347550809383,0.002385334577411413
1772882860476704500,3.06170458984375,-0.0007597208023071289,0.0004506204277276993,-0.0016655996441841125
1772882860486636300,3.07163623046875,-0.0013510151766240597,0.0003478466533124447,0.0015485272742807865
1772882860496569300,3.0815693359375,0.00012544123455882072,0.001074889674782753,-0.0016411407850682735
1772882860506502400,3.09150244140625,-0.00024617568124085665,0.001615379936993122,-0.00045506679452955723
1772882860516434400,3.101434326171875,0.0007349328952841461,-0.0006722752004861832,-0.0017746631056070328
1772882860526367500,3.111367431640625,-0.002183286240324378,-0.0011159810237586498,-0.0011132830986753106
1772882860536300500,3.121300537109375,-0.0004357199650257826,-0.0015133246779441833,-0.002501056296750903
1772882860546232600,3.131232666015625,-0.00023858074564486742,0.0005336590111255646,-0.001654437743127346
1772882860556165400,3.141165283203125,0.0009678312344476581,-0.002220848575234413,0.00045398686779662967
1772882860566098400,3.151098388671875,0.0013834253186360002,-0.002114944625645876,-0.00009091949323192239
1772882860576030500,3.161030517578125,-0.000055746990256011486,0.0006496831774711609,-0.000021943618776276708
1772882860585963500,3.170963623046875,0.0032839737832546234,-0.00034014834091067314,-0.002301787259057164
1772882860595896600,3.180896484375,0.0016069812700152397,-0.0007753088138997555,-0.0002351743314648047
1772882860605828600,3.19082861328125,0.0006774747744202614,-0.0017241020686924458,-0.001242226455360651
1772882860615761400,3.200761474609375,0.0009251487790606916,-0.0006082374602556229,0.003447067691013217
1772882860625694500,3.210694580078125,0.0014914274215698242,-0.0014312658458948135,-0.002055187476798892
1772882860635626500,3.22062646484375,0.0024576224386692047,0.0014236429706215858,0.00013765919720754027
1772882860645559600,3.2305595703125,0.0012679772917181253,0.00001209275797009468,-0.0000707297440385446
1772882860655492600,3.24049267578125,-0.0012345951981842518,-0.0012459848076105118,0.0006041153101250529
1772882860665424600,3.250424560546875,-0.0008723532082512975,0.0024610948748886585,-0.0004801239410880953
1772882860675357700,3.260357666015625,-0.0010715577518567443,0.0003816988319158554,0.00014065889990888536
1772882860685290500,3.27029052734375,0.00026950862957164645,0.0021493779495358467,-0.0009274958283640444
1772882860695222300,3.28022216796875,-0.002442388329654932,-0.00008128536865115166,-0.0000372010690625757
1772882860705155600,3.290155517578125,-0.001381331472657621,-0.003100856440141797,-0.0005763061344623566
1772882860715088600,3.300088623046875,-0.00015281536616384983,0.0027399882674217224,-0.00023488891019951552
1772882860725020400,3.3100205078125,-0.0013744819443672895,0.001024614553898573,-0.0017385397804901004
1772882860734953500,3.319953369140625,0.0016159815713763237,0.00041315285488963127,0.0018167803063988686
1772882860744886300,3.32988623046875,0.0006901365704834461,-0.0008978592231869698,0.0028762109577655792
1772882860754818600,3.339818603515625,-0.0002041528932750225,-0.000007564667612314224,-0.0008293112041428685
1772882860764751400,3.34975146484375,-0.000254741869866848,-0.0018162541091442108,-0.00027964773471467197
1772882860774684400,3.359684326171875,-0.0006411665817722678,0.0016083046793937683,0.0010378181468695402
1772882860784616400,3.369616455078125,-0.0010493716690689325,-0.0018643485382199287,-0.0017440952360630035
1772882860794549500,3.379549560546875,-0.002490940736606717,0.000333558302372694,-0.0008596594561822712
1772882860804482600,3.389482666015625,-0.0014434406766667962,0.00031489040702581406,-0.00008550692291464657
1772882860814414600,3.39941455078125,0.0006716417847201228,0.0021114591509103775,0.0009885458275675774
1772882860824347400,3.409347412109375,0.0003099361783824861,0.0004358859732747078,0.0012918321881443262
1772882860834280400,3.419280517578125,0.0010969002032652497,0.0004004659131169319,0.0004867585957981646
1772882860844212500,3.42921240234375,-0.0001314786495640874,0.001005035825073719,-0.0016395229613408446
1772882860854145500,3.4391455078125,-0.002120327204465866,-0.00043014204129576683,-0.0017907905858010054
1772882860864078600,3.44907861328125,-0.00022672745399177074,-0.0010912935249507427,0.0007699837442487478
1772882860874010600,3.4590107421875,-0.0025364868342876434,0.002109825611114502,-0.0006193873705342412
1772882860883943700,3.468943603515625,-0.0003654488828033209,-0.001144359353929758,-0.00006735438364557922
1772882860893876500,3.47887646484375,-0.0016373746329918504,0.0005368944257497787,-0.0008543184958398342
1772882860903808500,3.48880859375,-0.0013108348939567804,0.0015804031863808632,0.0012363152345642447
1772882860913741600,3.498741455078125,0.0016556601040065289,-0.00010591046884655952,0.0019974466413259506
1772882860923674600,3.508674560546875,0.0014597616391256452,0.0036908206529915333,-0.0013136069756001234
1772882860933606400,3.5186064453125,0.0016099639469757676,0.0003296448849141598,-0.0005948197795078158
1772882860943539500,3.52853955078125,0.0014386187540367246,0.0016125012189149857,-0.002599775791168213
1772882860953472300,3.53847216796875,0.0016370242228731513,0.00005401903763413429,0.0033787544816732407
1772882860963404500,3.548404541015625,0.0004135260242037475,-0.002588493749499321,0.0004654077347368002
1772882860973337300,3.55833740234375,0.002753645647317171,0.0014264876954257488,-0.0004517849301919341
1772882860983270400,3.5682705078125,-0.002351159928366542,0.0011066747829318047,0.00010984201799146831
1772882860993202400,3.578202392578125,0.0016169501468539238,-0.0007647285237908363,0.000827297568321228
1772882861003135500,3.588135498046875,0.00243005552329123,-0.0010690456256270409,-0.000361628393875435
1772882861013068500,3.598068603515625,-0.0005228575319051743,-0.00042722374200820923,0.0022306926548480988
1772882861023000600,3.60800048828125,-0.0006503404583781958,0.002268419601023197,-0.0021611242555081844
1772882861032933400,3.617933349609375,-0.00027962843887507915,0.0028306124731898308,0.0004423820646479726
1772882861042866400,3.627866455078125,0.0014473206829279661,0.0006711012683808804,-0.00048347475240007043
1772882861052798500,3.637798583984375,0.0001873791916295886,-0.001416018232703209,0.0006164107471704483
1772882861062731500,3.6477314453125,0.0014865181874483824,-0.0013910513371229172,0.000004538655048236251
1772882861072664600,3.65766455078125,0.00264605856500566,0.00008726958185434341,0.00039895280497148633
1772882861082596600,3.6675966796875,0.00047915021423250437,-0.0006135613657534122,-0.0017485669814050198
1772882861092529000,3.67752880859375,-0.0013925193343311548,-0.0008468544110655785,-0.0016457687597721815
1772882861102460700,3.687460693359375,0.00003383483272045851,0.001869834028184414,-0.0018469570204615593
1772882861112393700,3.697393798828125,-0.0017414283938705921,0.0017167022451758385,-0.0025867833755910397
1772882861122326500,3.707326416015625,-0.00180994370020926,-0.0026188036426901817,-0.00048762367805466056
1772882861132259600,3.717259521484375,0.000060660531744360924,-0.003939997870475054,0.00045007537119090557
1772882861142191600,3.727191650390625,0.0012854263186454773,-0.0011975271627306938,-0.0014790475834161043
1772882861152124700,3.737124755859375,0.0013759738067165017,-0.000563428271561861,0.0007039455813355744
1772882861162056700,3.747056640625,0.0002282754867337644,-0.0012810295447707176,0.0011262566549703479
1772882861171989800,3.75698974609375,0.002420589793473482,0.00144178606569767,0.0005206538480706513
1772882861181922600,3.766922607421875,0.0015759565867483616,0.0005438206717371941,-0.0014930794714018703
1772882861191854600,3.7768544921875,0.0014454616466537118,0.001650364138185978,0.0021631745621562004
1772882861201787600,3.78678759765625,-0.0005357537884265184,0.00031497562304139137,-0.00044330174569040537
1772882861211720700,3.796720703125,-0.0015602718340232968,0.0003570537082850933,0.0003191612777300179
1772882861221652700,3.80665283203125,0.001502911327406764,0.0015252209268510342,0.0014754515141248703
1772882861231585800,3.816585693359375,0.0012842658907175064,-0.0015030591748654842,0.00045785767724737525
1772882861241518800,3.826518798828125,0.0014030149905011058,-0.0008096257224678993,0.0009683567914180458
1772882861251451000,3.836450927734375,-0.00001991202589124441,0.00019944598898291588,0.0005443815025500953
1772882861261383700,3.8463837890625,0.0005177675629965961,0.000779047142714262,0.0003260920930188149
1772882861271316700,3.856316650390625,-0.0005972980288788676,0.000757209025323391,-0.0006654027383774519
1772882861281248800,3.866248779296875,0.00004482315853238106,-0.00024667615070939064,0.0011595945106819272
1772882861291181800,3.876181884765625,-0.00029073504265397787,0.00034268153831362724,0.002274127444252372
1772882861301115000,3.886114990234375,-0.0010488906409591436,-0.0005138684064149857,0.00022468843962997198
1772882861311046700,3.896046630859375,0.0017919031670317054,0.00001982925459742546,-0.0017718833405524492
1772882861320979700,3.905979736328125,-0.0017415005713701248,0.001413585152477026,-0.001371254911646247
1772882861330912500,3.91591259765625,-0.002090907422825694,0.001955804880708456,-0.000675104558467865
1772882861340844500,3.925844482421875,-0.0007133106701076031,0.0008846125565469265,-0.0011171204969286919
1772882861350777600,3.935777587890625,0.0006307867006398737,0.00021828943863511086,0.00007224723231047392
1772882861360710700,3.945710693359375,0.0001031679566949606,0.003536927979439497,0.0011957541573792696
1772882861370642700,3.955642578125,-0.000019869999960064888,-0.00006073620170354843,-0.00004900732892565429
1772882861380575700,3.96557568359375,-0.0017274455167353153,-0.0006812335923314095,-0.0023378238547593355
1772882861390508500,3.975508544921875,-0.0009545960929244757,0.0016042906790971756,0.0019791601225733757
1772882861400440600,3.985440673828125,-0.0016242648707702756,0.00250967126339674,-0.00034526243689469993
1772882861410373600,3.99537353515625,0.0016484936932101846,-0.0016475226730108261,0.001033189706504345
1772882861420305700,4.0053056640625,-0.0009528094669803977,0.0023430301807820797,-0.0010285577736794949
1772882861430238700,4.01523876953125,-0.0008465492865070701,0.0008183708414435387,-0.0012932759709656239
1772882861440171800,4.025171875,-0.0015675571048632264,0.0008057127706706524,0.002367316512390971
1772882861450103800,4.035103759765625,-0.000011738273315131664,0.0001878594048321247,-0.0011693614069372416
1772882861460036900,4.045036865234375,-0.0009669414721429348,0.001642643939703703,-0.002182771684601903
1772882861469969000,4.054968994140625,-0.0015363253187388182,0.0024290760047733784,0.0001333793916273862
1772882861479901700,4.064901611328125,0.0009911141823977232,-0.0004063434898853302,-0.0006684326799586415
1772882861489834800,4.074834716796875,-0.0014472759794443846,0.0016932925209403038,0.0004170718020759523
1772882861499766500,4.0847666015625,0.0005861632525920868,0.0014284970238804817,-0.000070422058342956
1772882861509699600,4.094699462890625,0.0019803280010819435,-0.0005584876053035259,-0.00023314121062867343
1772882861519633000,4.1046328125,-0.000058373319916427135,-0.002795906038954854,-0.0012912435922771692
1772882861529564700,4.114564697265625,0.0010503005469217896,-0.00000651087611913681,0.0011380919022485614
1772882861539497700,4.124497802734375,-0.0010627515148371458,0.001390994992107153,-0.0012068080250173807
1772882861549430500,4.134430419921875,-0.0007231984054669738,0.0015497193671762943,0.0006888300995342433
1772882861559362600,4.144362548828125,0.0027231485582888126,-0.0011521284468472004,-0.00035551213659346104
1772882861569295600,4.154295654296875,-0.0014436331111937761,0.0006372495554387569,-0.00332786631770432
1772882861579228700,4.164228759765625,-0.0001861348282545805,-0.0009175711311399937,-0.0014666651841253042
1772882861589160700,4.17416064453125,0.0022000574972480536,-0.00014898274093866348,-0.0006304326234385371
1772882861599093800,4.18409375,-0.000899213831871748,0.0026633148081600666,-0.0011355227325111628
1772882861609026600,4.194026611328125,0.00027843593852594495,0.00005927635356783867,-0.0017690887907519937
1772882861618958600,4.20395849609375,-0.00006119080353528261,0.000659591518342495,-0.0007969521684572101
1772882861628891600,4.2138916015625,-0.0006486841011792421,0.00022576283663511276,0.0006046694470569491
1772882861638824700,4.22382470703125,-0.002510343212634325,0.0017805523239076138,-0.0007636762456968427
1772882861648756700,4.2337568359375,0.0005592161905951798,-0.0006799423135817051,0.000630488561000675
1772882861658689800,4.243689697265625,-0.001220395788550377,0.0002080518752336502,-0.0017408286221325397
1772882861668622800,4.253622802734375,0.0008004107512533665,0.0016714590601623058,-0.000931760179810226
1772882861678555000,4.263554931640625,-0.0013342720922082663,0.0003746640868484974,0.001001766067929566
1772882861688487700,4.27348779296875,-0.0021481341682374477,0.00269401166588068,0.0003684663388412446
1772882861698420700,4.283420654296875,0.0007597861695103347,-0.002440845360979438,-0.0011334738228470087
1772882861708352800,4.293352783203125,0.0023004249669611454,-0.0009787697345018387,0.001376821775920689
1772882861718285800,4.303285888671875,0.0009924708865582943,-0.00013467995449900627,-0.0011059606913477182
1772882861728219000,4.313218994140625,0.0005788819398730993,-0.000019098632037639618,-0.0016316687688231468
1772882861738150700,4.323150634765625,0.0006150712142698467,-0.0011846036650240421,-0.001505659194663167
1772882861748084700,4.333084716796875,0.00020547705935314298,-0.000437853392213583,-0.0007453267462551594
1772882861758017800,4.343017822265625,0.0011352762812748551,0.0004372689872980118,0.0005408567376434803
1772882861767950800,4.352950927734375,-0.0011451885802671313,0.00004525156691670418,-0.0007371942047029734
1772882861777883000,4.3628828125,-0.00026056799106299877,-0.001200040802359581,-0.003922933712601662
1772882861787816000,4.37281591796875,0.0010821978794410825,-0.00011134054511785507,0.0003708810545504093
1772882861797748700,4.382748779296875,0.001886626472696662,0.000704761128872633,0.00007354162517003715
1772882861807680500,4.392680419921875,-0.0022945364471524954,0.00004696007817983627,0.000004832050763070583
1772882861817613600,4.402613525390625,-0.000494117964990437,-0.0024637700989842415,0.00019066387903876603
1772882861827546600,4.412546630859375,-0.0010643006535246968,-0.002935948548838496,0.0008921405533328652
1772882861837478700,4.422478759765625,0.0006259105284698308,0.0007676929235458374,0.000818406289909035
1772882861847411700,4.43241162109375,-0.0017341827042400837,-0.0013734884560108185,0.00007538439240306616
1772882861857344500,4.442344482421875,0.002068530535325408,0.0012976238504052162,0.0018056808039546013
1772882861867276500,4.452276611328125,0.0002522545983083546,-0.0006984155625104904,0.000792880542576313
1772882861877209600,4.462209716796875,0.00017410865984857082,-0.00038115261122584343,-0.0007477868348360062
1772882861887142700,4.472142578125,0.0007472209399566054,-0.00009486312046647072,-0.00013073244190309197
1772882861897074700,4.48207470703125,0.00023320515174418688,-0.00035303598269820213,0.000750964623875916
1772882861907007700,4.4920078125,-0.00020568387117236853,0.002448875457048416,0.002199724316596985
1772882861916939800,4.501939697265625,0.0006359922117553651,0.0017651962116360664,0.00010138290235772729
1772882861926872800,4.511872802734375,-0.000691327266395092,-0.0008990298956632614,-0.001220343867316842
1772882861936805600,4.5218056640625,-0.0009806983871385455,0.0021975920535624027,-0.0013085156679153442
1772882861946737700,4.531737548828125,-0.00022835528943687677,0.00005774199962615967,-0.0005505799781531096
1772882861956670700,4.541670654296875,0.0004872509744018316,0.0010552764870226383,0.0014756625751033425
1772882861966603800,4.551603759765625,0.0002409085864201188,-0.0008478183299303055,-0.0002154446701752022
1772882861976535800,4.561535888671875,0.00002965843304991722,-0.0003274334594607353,-0.001553348614834249
1772882861986468900,4.57146875,-0.0005288063548505306,-0.0007551372982561588,0.0006312422920018435
1772882861996401700,4.581401611328125,-0.000080621219240129,-0.0007920977659523487,-0.0008600855362601578
1772882862006333700,4.591333740234375,-0.0022084866650402546,-0.0005928934551775455,-0.0016830023378133774
1772882862016266500,4.6012666015625,0.001378013752400875,-0.0014775702729821205,-0.000706358056049794
1772882862026199800,4.61119970703125,-0.0010779533768072724,0.0016409913077950478,-0.004488579463213682
1772882862036131600,4.621131591796875,-0.0007801798637956381,-0.002172736916691065,-0.0003746679867617786
1772882862046064600,4.631064697265625,-0.0012180034536868334,0.0005783084779977798,-0.0004638838581740856
1772882862055997700,4.640997802734375,-0.0012401025742292404,0.002514519728720188,0.0003124723443761468
1772882862065929700,4.6509296875,-0.0004659217083826661,-0.0006075035780668259,-0.0011554621160030365
1772882862075862500,4.660862548828125,0.000050737522542476654,-0.001516253687441349,-0.0002207854122389108
1772882862085795800,4.6707958984375,0.0008299784385599196,0.0007258616387844086,0.0002639099257066846
1772882862095727900,4.680727783203125,-0.0024712462909519672,0.0009264624677598476,-0.0007791295647621155
1772882862105661000,4.690660888671875,0.0006313363555818796,-0.002839513588696718,0.0005441951216198504
1772882862115594000,4.700593994140625,-0.0021363599225878716,-0.0004460611380636692,0.0008913283818401396
1772882862125526000,4.710526123046875,-0.0009089091327041388,0.0006953696720302105,0.0005408564466051757
1772882862135459000,4.720458984375,0.0006970325484871864,0.00019128341227769852,-0.001152238342911005
1772882862145391900,4.730391845703125,-0.001451605698093772,-0.0007562693208456039,0.00011569255730137229
1772882862155324000,4.740323974609375,0.0015743225812911987,0.0008305255323648453,-0.00004175084177404642
1772882862165257000,4.750257080078125,-0.0011674017878249288,-0.0006778892129659653,-0.0005014124326407909
1772882862175190000,4.76018994140625,-0.00041465426329523325,-0.0012672548182308674,-0.00009846102329902351
1772882862185122000,4.7701220703125,-0.0012370382901281118,0.001282988116145134,-0.0018694631289690733
1772882862195055000,4.78005517578125,0.001244525657966733,0.0004774024710059166,-0.0008858744404278696
1772882862204988000,4.78998779296875,-0.0002519044792279601,-0.0003228774294257164,-0.0006379341357387602
1772882862214920000,4.799919921875,0.00016626890283077955,-0.002400006167590618,0.0011533081997185946
1772882862224853000,4.80985302734375,0.002533020218834281,-0.00298350490629673,0.0007759382715448737
1772882862234786000,4.8197861328125,0.0004760228912346065,0.002159101888537407,0.00016102625522762537
1772882862244718000,4.829718017578125,0.0008603170281276107,0.0009947679936885834,-0.0029769763350486755
1772882862254651100,4.839651123046875,-0.00016505387611687183,0.0007066451944410801,0.002615000819787383
1772882862264584200,4.849584228515625,0.00042643421329557896,-0.00030775321647524834,0.0012677075574174523
1772882862274516200,4.85951611328125,0.0003517232253216207,0.000666850246489048,0.0018781342078000307
1772882862284449000,4.869448974609375,0.0004049864364787936,0.0012687244452536106,0.000539895670954138
1772882862294382000,4.879382080078125,0.0012003958690911531,0.000012765172868967056,-0.00022403508774004877
1772882862304313900,4.88931396484375,0.0011143757728859782,0.0005307500250637531,-0.0003225720429327339
1772882862314247000,4.899246826171875,0.000020187697373330593,0.0017911726608872414,0.0019729023333638906
1772882862324180000,4.909179931640625,-0.001052533625625074,-0.0011473586782813072,0.0009558411547914147
1772882862334112000,4.919112060546875,0.0015733742620795965,0.000543616246432066,-0.0004915500758215785
1772882862344044800,4.929044921875,-0.002108712214976549,0.00040593091398477554,-0.001626589335501194
1772882862353977900,4.938977783203125,0.002494976855814457,-0.0010894322767853737,-0.0006186539540067315
1772882862363910000,4.948909912109375,-0.0016875176224857569,-0.002005825750529766,0.0014820476062595844
1772882862373843000,4.958843017578125,0.002677683951333165,-0.0008999789133667946,-0.00020800350466743112
1772882862383776000,4.96877587890625,-0.000009711948223412037,-0.0000783936120569706,-0.0003323731361888349
1772882862393708000,4.9787080078125,0.0022186986170709133,-0.0017111115157604218,0.0010709248017519712
1772882862403641000,4.98864111328125,0.003638163208961487,-0.0012900657020509243,-0.00037304102443158627
1772882862413574000,4.998573974609375,0.00009850168135017157,-0.00033837417140603065,0.0013186244759708643
1772882862423506000,5.008505859375,-0.00006501632742583752,0.0016768397763371468,0.00013538205530494452
1772882862433439000,5.01843896484375,-0.0014462870312854648,-0.0020308704115450382,-0.0003411697398405522
1772882862443372000,5.0283720703125,0.0004440246266312897,0.000059178564697504044,-0.0005627447389997542
1772882862453304000,5.038303955078125,-0.0005245339125394821,0.0000752829946577549,-0.0014893461484462023
1772882862463237000,5.048237060546875,-0.0011445179115980864,0.002504885196685791,0.00047659932170063257
1772882862473170000,5.058169921875,-0.0010234981309622526,-0.0006507653743028641,0.0011764311930164695
1772882862483102200,5.068102294921875,0.0011062318226322532,0.0005258191376924515,-0.0019426631042733788
1772882862493035000,5.078034912109375,0.00046808429760858417,0.002004217356443405,-0.000444369507022202
1772882862502968000,5.087968017578125,0.0002539661363698542,0.0005623823963105679,-0.000472599029308185
1772882862512899800,5.09789990234375,-0.00009166891686618328,-0.0011704168282449245,-0.0016547658015042543
1772882862522833200,5.107833251953125,-0.0011963479919359088,0.0011851494200527668,-0.0007735256804153323
1772882862532766200,5.11776611328125,-0.0020748423412442207,0.002728409133851528,-0.0017381762154400349
1772882862542698000,5.127697998046875,0.0026378873735666275,0.00007483502849936485,-0.0009482826571911573
1772882862552630800,5.137630859375,-0.001827468629926443,-0.0002367938868701458,0.001173288212157786
1772882862562563800,5.147563720703125,-0.000396285904571414,0.0025214417837560177,0.001814044895581901
1772882862572496000,5.157495849609375,-0.00013306806795299053,0.00044767744839191437,-0.0006564648356288671
1772882862582429000,5.167428955078125,-0.0004095041658729315,0.0035819518379867077,-0.001750757684931159
1772882862592362000,5.177362060546875,-0.0027198991738259792,0.00028258468955755234,-0.0008878320222720504
1772882862602294000,5.1872939453125,0.0010146518470719457,0.0007992377504706383,0.00020459661027416587
1772882862612227000,5.19722705078125,-0.0023996317759156227,-0.0016720667481422424,-0.0012438747799023986
1772882862622160000,5.207159912109375,0.0004672610084526241,-0.0016041561029851437,-0.0017195153050124645
1772882862632092000,5.217091796875,0.0016709010815247893,-0.0005144043825566769,0.0017961515113711357
1772882862642025000,5.22702490234375,0.0020139161497354507,-0.0011530304327607155,0.0021916308905929327
1772882862651958000,5.2369580078125,-0.0003943820483982563,-0.0012046708725392818,-0.0017603407613933086
1772882862661890000,5.24689013671875,0.0006889918586239219,0.00002491055056452751,-0.001006399979814887
1772882862671823000,5.256822998046875,-0.0012170156696811318,0.0006587356328964233,-0.0027162337210029364
1772882862681756000,5.266755859375,0.000674894021358341,0.0006677904166281223,-0.0007550819427706301
1772882862691688000,5.27668798828125,0.0012451097136363387,-0.0012665917165577412,-0.0010080887004733086
1772882862701621000,5.28662109375,0.00046267302241176367,-0.0006926804780960083,-0.0008296569576486945
1772882862711554000,5.296553955078125,-0.001503771054558456,0.0016309148631989956,-0.0011969178449362516
1772882862721486000,5.306486083984375,-0.0012433138908818364,-0.000669257715344429,-0.00033911358332261443
1772882862731419100,5.316419189453125,0.0007288534543476999,0.0005135680548846722,-0.00014505209401249886
1772882862741351000,5.326350830078125,-0.0019396338611841202,-0.0002755261957645416,-0.0013722367584705353
1772882862751284000,5.336283935546875,0.0023266850039362907,-0.0013133706524968147,0.0000447012425865978
1772882862761216800,5.346216796875,-0.0003785539884120226,-0.000938930083066225,0.0002542920410633087
1772882862771148800,5.356148681640625,-0.00001662911381572485,-0.0005198759026825428,-0.0018444322049617767
1772882862781081900,5.366081787109375,-0.0015223805094137788,0.001583754550665617,0.00039182405453175306
1772882862791015000,5.376014892578125,-0.0009211868746206164,-0.000033501069992780685,-0.0003707845462486148
1772882862800947000,5.385947021484375,-0.00003941426984965801,-0.00023776572197675705,0.0006702451501041651
1772882862810880000,5.3958798828125,0.000468796759378165,-0.0006053396500647068,-0.001466748770326376
1772882862820813000,5.40581298828125,0.0003737218794412911,0.00014167698100209236,-0.002016425132751465
1772882862830745000,5.4157451171875,-0.0008678205776959658,0.00011729774996638298,-0.0017697825096547604
1772882862840678000,5.425677978515625,0.0010520522482693195,0.00037482520565390587,0.0033360300585627556
1772882862850611000,5.43561083984375,0.001857804600149393,-0.002367945620790124,0.0007705159951001406
1772882862860543000,5.44554296875,-0.0006104130297899246,-0.0005932152271270752,-0.0004207158926874399
1772882862870476000,5.45547607421875,0.0006942142499610782,-0.002626651432365179,0.0017128115287050605
1772882862880409000,5.4654091796875,-0.0016496338648721576,-0.0000702831894159317,0.000032623123843222857
1772882862890341000,5.475341064453125,0.0005933056236244738,-0.0006127697415649891,-0.0017345380038022995
1772882862900274000,5.48527392578125,-0.0007963317912071943,0.0009648865088820457,-0.001884473953396082
1772882862910207000,5.49520703125,-0.0009523419430479407,-0.00022669648751616478,0.00016897937166504562
1772882862920139000,5.505138916015625,-0.0008245102362707257,-0.0014062104746699333,-0.0011088052997365594
1772882862930072000,5.515072021484375,-0.0005629428196698427,-0.0009732409380376339,0.0009330215980298817
1772882862940005000,5.525005126953125,0.0008823546813800931,0.0011245310306549072,-0.001675278414040804
1772882862949937200,5.534937255859375,0.0005606201011687517,0.000498663168400526,0.0005135996034368873
1772882862959870200,5.5448701171875,0.0009859269484877586,-0.0007359785959124565,-0.0017583431908860803
1772882862969803000,5.554802978515625,-0.0007731824880465865,0.0049707102589309216,-0.0008500399999320507
1772882862979734800,5.56473486328125,0.0008492152555845678,0.0014436198398470879,-0.0015283471439033747
1772882862989667800,5.574667724609375,0.00006786087760701776,0.0015716697089374065,-0.0005877696676179767
1772882862999601000,5.584600830078125,0.0009187408722937107,-0.0009141247719526291,-0.0024945931509137154
1772882863009533000,5.594532958984375,0.0009583541541360319,-0.00138128362596035,-0.0017052356852218509
1772882863019466000,5.604466064453125,-0.00015537976287305355,-0.000549578107893467,-0.0007438345346599817
1772882863029399000,5.61439892578125,-0.0001693260855972767,-0.00034105870872735977,-0.0011232232209295034
1772882863039331000,5.6243310546875,-0.0008388448040932417,0.0008552335202693939,0.0015652378788217902
1772882863049263900,5.634263916015625,-0.0010549516882747412,0.0009884708561003208,-0.002835268620401621
1772882863059197000,5.644197021484375,0.001025776145979762,0.00017434265464544296,0.0017317861784249544
1772882863069129000,5.65412890625,-0.0011543163564056158,0.0011302074417471886,-0.0027282109949737787
1772882863079062000,5.66406201171875,-0.0014810862485319376,0.0003107530064880848,-0.0016640117391943932
1772882863088995600,5.67399560546875,0.0006264857947826385,-0.0011903163976967335,-0.00009865168249234557
1772882863098927600,5.683927734375,-0.002733624540269375,0.0014808340929448605,-0.0007649746257811785
1772882863108860700,5.693860595703125,0.0003429297939874232,-0.0002337321639060974,-0.0015628786059096456
1772882863118793700,5.703793701171875,-0.001992396079003811,0.00101395882666111,0.0009721844689920545
1772882863128725800,5.713725830078125,0.001732364995405078,-0.0016357116401195526,0.0011409854050725698
1772882863138658800,5.723658935546875,0.0022708559408783913,-0.0015084128826856613,0.0008203408215194941
1772882863148591900,5.733591796875,0.00029987830203026533,0.0018619615584611893,0.0010650198673829436
1772882863158524000,5.74352392578125,0.00042930792551487684,0.0027242926880717278,-0.0003187585680279881
1772882863168456700,5.753456787109375,0.00036772945895791054,0.0011223177425563335,-0.000045568885980173945
1772882863178389800,5.7633896484375,-0.00041257671546190977,-0.0015783938579261303,0.000028200680390000343
1772882863188321500,5.773321533203125,0.0007561669917777181,-0.001856297254562378,0.0008761772187426686
1772882863198254600,5.783254638671875,-0.0008633012184873223,-0.00003815721720457077,-0.0003672526217997074
1772882863208186600,5.7931865234375,-0.0008761557983234525,-0.0006016758270561695,0.001250741071999073
1772882863218119700,5.80311962890625,-0.00017201597802340984,-0.00034468062222003937,-0.0000656594056636095
1772882863228052700,5.813052734375,0.0021842329297214746,0.0015156273730099201,-0.0019974547903984785
1772882863237984800,5.82298486328125,-0.0014626997290179133,0.0015768799930810928,0.0022889028768986464
1772882863247917600,5.83291748046875,0.0009934034897014499,-0.0017748610116541386,0.0012546933721750975
1772882863257850600,5.8428505859375,0.0013169775484129786,0.00030240463092923164,-0.0005445383139885962
1772882863267782700,5.85278271484375,0.0009201561915688217,-0.0002531707286834717,-0.0006217696936801076
1772882863277715700,5.8627158203125,-0.0006196835311129689,-0.00039218785241246223,-0.00117011449765414
1772882863287648800,5.872648681640625,-0.0005638205911964178,0.000573563389480114,0.0007235690136440098
1772882863297580800,5.882580810546875,0.0013736290857195854,-0.00001046760007739067,0.0004271591897122562
1772882863307513600,5.892513671875,-0.0009864241583272815,-0.0019082590006291866,-0.0029419991187751293
1772882863317446700,5.90244677734375,-0.0015073384856805205,0.0007469127885997295,-0.003998741041868925
1772882863327378700,5.912378662109375,0.0001496622571721673,0.0006451597437262535,-0.0019954766612499952
1772882863337311700,5.922311767578125,0.0017073452472686768,0.0011916402727365494,0.0016874086577445269
1772882863347244800,5.932244873046875,0.001965662930160761,0.0004389602690935135,0.0022096079774200916
1772882863357176800,5.9421767578125,0.0019882998894900084,0.0012253918685019016,0.0013057312462478876
1772882863367110000,5.95210986328125,-0.00010919489432126284,0.001678497064858675,0.0021040672436356544
1772882863377042700,5.962042724609375,0.0003784298896789551,-0.00044697197154164314,0.0010545154800638556
1772882863386974700,5.971974609375,0.0013685851590707898,-0.000703924335539341,0.0010232973145321012
1772882863396907800,5.98190771484375,0.0006756306393072009,0.0002478891983628273,-0.00017725571524351835
1772882863406840800,5.9918408203125,-0.00103005301207304,-0.0009439052082598209,-0.0011513587087392807
1772882863416772600,6.001772705078125,0.000097529380582273,0.000021490734070539474,-0.000661337049677968
1772882863426705700,6.01170556640625,-0.001269201748073101,-0.001967096235603094,0.001698755193501711
1772882863436638700,6.021638671875,-0.0031467301305383444,0.0021152631379663944,0.0005163115565665066
1772882863446570800,6.03157080078125,-0.0009540971368551254,0.0044150701723992825,0.0012350575998425484
1772882863456503600,6.041503662109375,-0.00043398188427090645,0.0070329573936760426,0.0016276075039058924
1772882863466436600,6.0514365234375,-0.000584073830395937,0.005921302828937769,0.0037368563935160637
1772882863476368600,6.06136865234375,0.0010899892076849937,0.002599275205284357,0.0017251047538593411
1772882863486301700,6.0713017578125,-0.0021311056334525347,0.002709010150283575,-0.0008785562822595239
1772882863496234800,6.08123486328125,0.00046494387788698077,-0.002168303355574608,0.0014972498174756765
1772882863506166800,6.091166748046875,0.00014871073653921485,-0.0008877525106072426,-0.0013566389679908752
1772882863516099600,6.101099609375,-0.001463567023165524,0.000325850211083889,-0.00010894803563132882
1772882863526032600,6.11103271484375,-0.0013304451713338494,-0.00047251442447304726,0.0000941125035751611
1772882863535964700,6.120964599609375,-0.00017543218564242125,-0.002860837383195758,-0.0002843226830009371
1772882863545897700,6.130897705078125,-0.000285359681583941,0.00022593187168240547,-0.001273861387744546
1772882863555830800,6.140830810546875,-0.00014740799088031054,-0.0020643868483603,-0.0016767976339906454
1772882863565762800,6.1507626953125,0.0031965782400220633,0.0010533183813095093,-0.0013790512457489967
1772882863575696000,6.16069580078125,0.0022956307511776686,-0.0011120978742837906,-0.0012357730884104967
1772882863585628700,6.170628662109375,0.0015167191158980131,0.00013008154928684235,0.0004888519179075956
1772882863595560700,6.180560791015625,-0.0004377748118713498,-0.00020174821838736534,-0.0013623113045468926
1772882863605493800,6.19049365234375,0.00037440407322719693,-0.0016668960452079773,-0.00005507885362021625
1772882863615426800,6.2004267578125,0.000042307889088988304,-0.0024946064222604036,-0.001061487477272749
1772882863625358800,6.21035888671875,0.0009219020721502602,-0.0022335671819746494,-0.0011057255323976278
1772882863635292000,6.2202919921875,-0.00009515916462987661,-0.00024738162755966187,-0.0012958752922713757
1772882863645224700,6.230224609375,-0.0008912768680602312,-0.0010823882184922695,-0.0011431120801717043
1772882863655156700,6.24015673828125,0.002366567961871624,-0.0030355502385646105,-0.003239818848669529
1772882863665089500,6.250089599609375,-0.00036790804006159306,-0.0021749665029346943,-0.0027436669915914536
1772882863675021600,6.260021484375,-0.0016094736056402326,-0.0006945151835680008,0.002132048364728689
1772882863684954600,6.26995458984375,-0.000614577904343605,0.002167824190109968,0.0009892693487927318
1772882863694887700,6.2798876953125,-0.0004697018302977085,0.0022477186284959316,-0.0004016997409053147
1772882863704819700,6.28981982421875,-0.003678250592201948,0.0016208854503929615,-0.0012341814581304789
1772882863714752800,6.299752685546875,-0.0014499836834147573,0.0007590865716338158,0.0006113892304711044
1772882863724685600,6.309685546875,-0.0028117671608924866,0.0023997328244149685,-0.001706137671135366
1772882863734617600,6.31961767578125,0.002441318240016699,0.0006596231833100319,-0.0011460748501121998
1772882863744550700,6.329550537109375,-0.0003990040859207511,-0.0017579742707312107,-0.0020250368397682905
1772882863754483700,6.339483642578125,0.0009895680705085397,0.0006644371896982193,0.0010146952699869871
1772882863764415700,6.349415771484375,0.0014137924881651998,-0.0005220714956521988,0.0005292660207487643
1772882863774348800,6.359348876953125,-0.0008205996127799153,-0.0014025126583874226,-0.0010353410616517067
1772882863784281900,6.36928173828125,0.0010857854504138231,0.00034500332549214363,0.003444311209022999
1772882863794214000,6.3792138671875,0.0007686029421165586,0.00003607664257287979,-0.000013004639185965061
1772882863804146700,6.389146728515625,-0.00009797071106731892,0.0002105068415403366,0.000447409984190017
1772882863814079700,6.399079833984375,0.003453887067735195,0.000992677640169859,0.00014913591439835727
1772882863824011800,6.40901171875,-0.0004470587009564042,-0.0011853165924549103,0.00018126447685062885
1772882863833944800,6.41894482421875,-0.002166661899536848,-0.0004604039713740349,-0.00016814224363770336
1772882863843878000,6.4288779296875,-0.0011859332444146276,0.0010632784105837345,-0.0005782390362583101
1772882863853809700,6.4388095703125,-0.002439483068883419,0.0009357132948935032,-0.0019042269559577107
1772882863863742500,6.448742431640625,-0.002388196997344494,-0.0007970989681780338,-0.0007010845001786947
1772882863873675500,6.458675537109375,0.0022688726894557476,0.0023787207901477814,-0.0005048095481470227
1772882863883607600,6.468607666015625,-0.0021322891116142273,0.0019158050417900085,0.002286291215568781
1772882863893540600,6.47854052734375,0.0015977341681718826,-0.0009236573241651058,0.00013179381494410336
1772882863903473700,6.4884736328125,-0.0007220548577606678,0.0014156964607536793,-0.0018732938915491104
1772882863913405700,6.49840576171875,-0.0008586749900132418,-0.00012334436178207397,0.0004985173582099378
1772882863923338800,6.5083388671875,0.00005375745240598917,0.00012904731556773186,-0.0008619611617177725
1772882863933271600,6.518271484375,-0.0005531769711524248,-0.0013367566280066967,-0.00044277962297201157
1772882863943203600,6.52820361328125,0.0015363318379968405,-0.0017186813056468964,-0.0016112092416733503
1772882863953136600,6.53813671875,-0.0010011281119659543,-0.0005881697870790958,-0.003621096722781658
1772882863963069700,6.548069580078125,0.0008202199824154377,-0.0018837638199329376,-0.0007914302404969931
1772882863973001700,6.558001708984375,0.00015975598944351077,-0.0008786865510046482,-0.0008108713082037866
1772882863982934800,6.567934814453125,-0.0017926428699865937,0.001868201419711113,-0.002944457344710827
1772882863992867600,6.57786767578125,-0.0005606644554063678,-0.0014652772806584835,0.00011817811173386872
1772882864002799900,6.5877998046875,0.000996702117845416,-0.0012274128384888172,-0.002245753537863493
1772882864012732700,6.597732666015625,-0.00021663412917405367,-0.00037653278559446335,0.0009862587321549654
1772882864022665700,6.607665771484375,-0.0019076818134635687,0.0012308629229664803,0.00045753034646622837
1772882864032597800,6.61759765625,0.0009901036974042654,-0.00027622003108263016,0.0007294390816241503
1772882864042530800,6.62753076171875,-0.0015892265364527702,0.0004732627421617508,-0.000497758446726948
1772882864052462800,6.637462890625,-0.0012470101937651634,-0.0012356876395642757,-0.0007920377538539469
1772882864062396000,6.64739599609375,-0.0013386195059865713,0.00002689845860004425,-0.000174519038409926
1772882864072328700,6.65732861328125,-0.0001066412078216672,-0.00021225307136774063,-0.00009995052823796868
1772882864082260700,6.6672607421875,0.00040477007860317826,-0.001660750713199377,-0.0026984266005456448
1772882864092193300,6.677193359375,0.00032540783286094666,0.00019440753385424614,0.0020766211673617363
1772882864102126300,6.687126220703125,0.002607508562505245,0.0011826828122138977,0.00029574567452073097
1772882864112058400,6.697058349609375,-0.0002391443122178316,-0.00013318471610546112,-0.000052329443860799074
1772882864121991400,6.706991455078125,-0.0012047749478369951,0.0022926791571080685,0.0006106217624619603
1772882864131924500,6.716924560546875,-0.00030382757540792227,0.001688408199697733,0.0012812056811526418
1772882864141856500,6.7268564453125,0.003364123869687319,-0.0002157101407647133,0.0003743352135643363
1772882864151789300,6.736789306640625,-0.0004527184646576643,0.00006365543231368065,-0.0007175608770921826
1772882864161722400,6.746722412109375,-0.0009362311102449894,0.002087404951453209,0.0004780811141245067
1772882864171654400,6.756654296875,-0.0006760403048247099,0.0017044423148036003,0.0020083333365619183
1772882864181587500,6.76658740234375,0.0013611472677439451,0.0013436260633170605,-0.0005451258039101958
1772882864191520500,6.7765205078125,0.0011121416464447975,-0.002432736102491617,0.003250943962484598
1772882864201452500,6.78645263671875,-0.0020471939351409674,-0.001257527619600296,0.0001850473927333951
1772882864211385600,6.796385498046875,-0.0006189406849443913,-0.000782686285674572,-0.0012418742990121245
1772882864221318400,6.806318359375,-0.0012140516191720963,0.002354210242629051,-0.0012686895206570625
1772882864231250400,6.81625048828125,-0.001120840897783637,-0.00022506108507514,0.0009084445191547275
1772882864241183500,6.82618359375,-0.0002468567108735442,0.0017442172393202782,0.002174236113205552
1772882864251116500,6.836116455078125,-0.0022519505582749844,-0.0007772631943225861,-0.0008412611205130816
1772882864261048600,6.846048583984375,0.00003585335798561573,-0.0031706674490123987,0.0006242395029403269
1772882864270981600,6.855981689453125,-0.0012459260178729892,0.00020595453679561615,-0.000034093885915353894
1772882864280914400,6.86591455078125,-0.0015502184396609664,0.0021633771248161793,-0.002169928513467312
1772882864290846500,6.875846435546875,-0.0010370273375883698,0.002763919997960329,-0.0009318248485215008
1772882864300779300,6.885779296875,-0.0001589409075677395,0.000680489931255579,-0.000249689444899559
1772882864310712300,6.89571240234375,-0.0025193006731569767,0.000884487759321928,0.00020437949569895864
1772882864320644400,6.905644287109375,0.0014577886322513223,-0.00008632475510239601,-0.0016842016484588385
1772882864330577400,6.915577392578125,0.0011541882995516062,-0.001616843044757843,-0.00008710403926670551
1772882864340510500,6.925510498046875,-0.00039380788803100586,-0.0016735633835196495,-0.0012153263669461012
1772882864350442500,6.9354423828125,-0.0003216362092643976,-0.002052264753729105,-0.0018654039595276117
1772882864360375300,6.945375244140625,0.0008581585134379566,0.0011519845575094223,-0.0007200909312814474
1772882864370308400,6.955308349609375,0.0008144826861098409,-0.00020889099687337875,-0.0004473832668736577
1772882864380240400,6.965240478515625,0.0002048794412985444,0.0012967810034751892,-0.001582598895765841
1772882864390173400,6.97517333984375,-0.0025653408374637365,-0.000813774298876524,-0.0014899208908900619
1772882864400105500,6.98510546875,-0.0007426126394420862,0.0006094728596508503,-0.00038511957973241806
1772882864410038500,6.99503857421875,-0.00144941546022892,0.0014302590861916542,0.0005408615106716752
1772882864419971600,7.0049716796875,-0.0009517936268821359,-0.0003756340593099594,-0.0003170146665070206
1772882864429903600,7.014903564453125,0.0021041836589574814,-0.002096568699926138,-0.0010525797260925174
1772882864439836400,7.02483642578125,-0.0007240402046591043,-0.0002701333723962307,-0.00098101154435426
1772882864449769500,7.03476953125,0.0002855642233043909,-0.00124325230717659,0.00012020551366731524
1772882864459701500,7.044701416015625,-0.001300649717450142,-0.001234911847859621,-0.0005962654249742627
1772882864469634600,7.054634521484375,-0.0013523150701075792,-0.001265804748982191,-0.0007850835099816322
1772882864479567600,7.064567626953125,0.0005075272056274116,-0.000668646302074194,0.0006948036607354879
1772882864489499600,7.074499755859375,-0.0004986150888726115,0.0018166154623031616,-0.00012278684880584478
1772882864499432400,7.084432373046875,-0.0014433902688324451,-0.0005086837336421013,0.0008034285856410861
1772882864509365500,7.094365478515625,-0.0015597704332321882,0.0005496563389897346,-0.0016682512359693646
1772882864519297300,7.10429736328125,-0.0009455842664465308,-0.00007842527702450752,-0.0010561132803559303
1772882864529230300,7.114230224609375,-0.00157968292478472,-0.0007785703055560589,0.0015543170738965273
1772882864539163400,7.124163330078125,-0.0015624234220013022,0.0007545677945017815,-0.00004757367423735559
1772882864549095400,7.134095458984375,-0.0022540464997291565,-0.0007429276593029499,0.001201981445774436
1772882864559028500,7.144028564453125,-0.00016530556604266167,-0.00248951674439013,0.00021226791432127357
1772882864568961300,7.153961181640625,-0.0003756952937692404,-0.001025044359266758,0.00008949619950726628
1772882864578893300,7.163893310546875,0.0005762514192610979,0.0006015272811055183,-0.0015789384488016367
1772882864588826400,7.173826416015625,-0.0017542808782309294,-0.002285605762153864,-0.0006747953593730927
1772882864598759400,7.183759521484375,0.00018931314116343856,-0.001319789793342352,-0.0005686577060259879
1772882864608691500,7.19369140625,-0.00014837563503533602,0.00017690658569335938,0.0005802300292998552
1772882864618624500,7.20362451171875,-0.0013187171425670385,0.0013530910946428776,-0.001499669160693884
1772882864628557600,7.2135576171875,-0.00037569168489426374,0.000042549800127744675,0.00038771313847973943
1772882864638489600,7.223489501953125,-0.003440349828451872,0.003112643491476774,0.0007703622686676681
1772882864648422400,7.23342236328125,-0.00046826188918203115,-0.002167872153222561,0.000273416459094733
1772882864658354400,7.2433544921875,0.0009932713583111763,-0.0004538050852715969,-0.002309780567884445
1772882864668287500,7.25328759765625,-0.0010360573651269078,-0.0016090841963887215,-0.0029633203521370888
1772882864678220500,7.263220458984375,0.0016105042304843664,0.00032514240592718124,0.003181804670020938
1772882864688152600,7.273152587890625,0.00016121187945827842,-0.00196996983140707,0.0008158523123711348
1772882864698085600,7.283085693359375,-0.00039288029074668884,0.0010130219161510468,-0.0012292199535295367
1772882864708018400,7.293018310546875,0.000996490940451622,0.00039410311728715897,-0.00037248103762976825
1772882864717950500,7.302950439453125,-0.0007438258035108447,0.0005255606956779957,-0.001472939969971776
1772882864727883300,7.31288330078125,0.0010396931320428848,-0.0024435974191874266,0.00160966906696558
1772882864737816300,7.32281640625,0.0015341390389949083,0.0008016312494874001,-0.00032069734879769385
1772882864747748400,7.332748291015625,-0.0004203548887744546,-0.0017222464084625244,0.0037190518341958523
1772882864757681400,7.342681396484375,-0.000477070570923388,0.000464677345007658,-0.0005362852825783193
1772882864767614500,7.352614501953125,0.001894208136945963,0.0025374158285558224,-0.0016702592838555574
1772882864777546500,7.36254638671875,-0.0003360896371304989,-0.0002787979319691658,0.0004297648265492171
1772882864787479300,7.372479248046875,0.0006064030458219349,0.00003705266863107681,-0.0007809082162566483
1772882864797412400,7.382412353515625,-0.00015976838767528534,-0.000060067977756261826,0.0012411626521497965
1772882864807344400,7.392344482421875,-0.0009022577432915568,-0.0007567508146166801,-0.0003271728928666562
1772882864817277400,7.40227734375,-0.0004722332814708352,0.0016318312846124172,-0.0002569303323980421
1772882864827210500,7.41221044921875,-0.0012277720961719751,0.0012475373223423958,-0.0015160728944465518
1772882864837142500,7.422142578125,-0.00016788975335657597,0.0003409897908568382,0.0018782466650009155
1772882864847075600,7.43207568359375,-0.0008845464326441288,0.0025703217834234238,-0.0005524205043911934
1772882864857008400,7.44200830078125,0.0011903002159669995,0.0003209412097930908,-0.0007792597752995789
1772882864866940400,7.4519404296875,0.0015144068747758865,0.0017177686095237732,-0.0018855368252843618
1772882864876873500,7.46187353515625,0.0010532611049711704,0.00020917365327477455,-0.0015719730872660875
1772882864886806500,7.471806640625,-0.0034392252564430237,0.0014379560016095638,-0.0024398970417678356
1772882864896738600,7.481738525390625,0.0003883859608322382,0.0012593120336532593,0.0002970313362311572
1772882864906671600,7.491671630859375,-0.0015410743653774261,0.001567173283547163,-0.0002827388234436512
1772882864916604400,7.5016044921875,0.0009241870138794184,0.0018504192121326923,0.0020956441294401884
1772882864926536400,7.511536376953125,-0.00042177457362413406,0.0017841062508523464,-0.0005374230677261949
1772882864936469500,7.521469482421875,0.0005425171693786979,-0.0010586036369204521,-0.0002035782381426543
1772882864946401300,7.5314013671875,-0.0002479089889675379,-0.0010167923755943775,-0.001334889093413949
1772882864956334300,7.541334228515625,-0.0001369613455608487,0.0018097609281539917,0.0009229570277966559
1772882864966267400,7.551267333984375,-0.0018389876931905746,0.0005042790435254574,-0.0013535131001845002
1772882864976199400,7.561199462890625,0.00044097204227000475,0.0018346216529607773,-0.001493214862421155
1772882864986132500,7.571132568359375,-0.00015744019765406847,0.00041595567017793655,-0.0005786853143945336
1772882864996065300,7.581065185546875,-0.0008302819915115833,0.0013474700972437859,-0.0007399716414511204
1772882865005997300,7.590997314453125,-0.0006470564985647798,-0.0014903941191732883,-0.0007010895060375333
1772882865015930400,7.600930419921875,-0.0015780690591782331,0.00042244652286171913,0.0002734829322434962
1772882865025863400,7.610863525390625,-0.0016720786225050688,-0.001429249532520771,-0.0014495823998004198
1772882865035795500,7.62079541015625,-0.0005487912567332387,0.000739093404263258,0.00032938882941380143
1772882865045728500,7.630728515625,0.0007404449861496687,-0.002983473241329193,-0.001704201102256775
1772882865055661300,7.640661376953125,0.00028818455757573247,-0.001760656014084816,0.001047779223881662
1772882865065593600,7.650593505859375,0.0009353327332064509,0.00008305022493004799,-0.0003860666765831411
1772882865075526400,7.6605263671875,0.0009877011179924011,0.0008699726313352585,-0.0008675794233568013
1772882865085459500,7.67045947265625,0.002631403971463442,-0.0012043635360896587,-0.0008289635879918933
1772882865095390500,7.680390380859375,0.0012681635562330484,-0.002092212438583374,0.00036949862260371447
1772882865105323500,7.690323486328125,0.0011533813085407019,-0.0001481049694120884,-0.00022465258371084929
1772882865115256600,7.700256591796875,-0.000679291202686727,-0.001369913574308157,-0.0014931363984942436
1772882865125188600,7.710188720703125,-0.0024084816686809063,0.0011571599170565605,-0.001997539075091481
1772882865135121700,7.72012158203125,0.0015709009021520615,-0.0012206747196614742,-0.003574238158762455
1772882865145054500,7.730054443359375,-0.0012296793283894658,0.00004619080573320389,0.000012240954674780369
1772882865154986500,7.739986572265625,-0.00023610249627381563,0.0005013174377381802,-0.0001054049062076956
1772882865164919600,7.74991943359375,0.0008091882336884737,-0.00027792342007160187,0.0003502619219943881
1772882865174852600,7.7598525390625,-0.0005429517477750778,-0.0012850207276642323,0.0021181777119636536
1772882865184784600,7.76978466796875,0.0009265805128961802,0.0016340701840817928,-0.001189202070236206
1772882865194717700,7.7797177734375,-0.00035604555159807205,0.0024950350634753704,-0.0006399274570867419
1772882865204649700,7.789649658203125,-0.0002694928552955389,0.0011144522577524185,-0.0006617653416469693
1772882865214582800,7.799582763671875,0.001376346917822957,0.001283557154238224,0.0020718518644571304
1772882865224515600,7.809515625,-0.0001099632354453206,0.0016646552830934525,-0.0007993021281436086
1772882865234447400,7.819447265625,-0.0009509599767625332,-0.0007013003341853619,0.002133727539330721
1772882865244380400,7.82938037109375,0.00021257513435557485,-0.001183865126222372,-0.002379531506448984
1772882865254313500,7.8393134765625,-0.00032023072708398104,0.0019772620871663094,-0.002020946703851223
1772882865264245500,7.84924560546875,-0.0004283550661057234,0.004845486022531986,-0.00006725179264321923
1772882865274178600,7.859178466796875,0.0011714828433468938,0.00151066854596138,-0.00035924100666306913
1772882865284111600,7.869111572265625,-0.0008373395539820194,0.0003987988457083702,-0.001124633476138115
1772882865294043600,7.879043701171875,0.001476287143304944,0.0005264692008495331,-0.0009851339273154736
1772882865303976400,7.8889765625,0.00007173593621701002,-0.000990200787782669,0.0004156888753641397
1772882865313909500,7.898909423828125,0.0001999967498704791,-0.0003693830221891403,-0.0007041196804493666
1772882865323841500,7.908841552734375,-0.0017414476023986936,0.0005669840611517429,0.0006775283254683018
1772882865333774600,7.918774658203125,-0.0005258459132164717,-0.000337046105414629,-0.002492650644853711
1772882865343707600,7.928707763671875,-0.00042251532431691885,-0.0006872517988085747,0.0016751964576542377
1772882865353639700,7.9386396484375,0.001284753205254674,0.00010354025289416313,0.0012150738621130586
1772882865363572500,7.948572509765625,0.00015290977898985147,-0.0008203103207051754,-0.0009066665079444647
1772882865373505500,7.958505615234375,-0.0013588517904281616,0.0037733865901827812,-0.00035387699608691037
1772882865383437600,7.9684375,-0.0013476666063070297,-0.0007457309402525425,0.0011398900533095002
1772882865393370600,7.97837060546875,-0.0009031081572175026,-0.0011511826887726784,0.0009857676923274994
1772882865403301400,7.98830126953125,0.00013792142271995544,-0.000044372864067554474,0.0008600664441473782
1772882865413234400,7.998234375,-0.0021457294933497906,-0.0016618459485471249,-0.0005365443648770452
1772882865423167500,8.00816748046875,-0.0014149581547826529,-0.0011683618649840355,-0.002327520167455077
1772882865433099500,8.018099609375,0.0011891907779499888,-0.00022024428471922874,-0.0005250739632174373
1772882865443032600,8.028032470703126,-0.001190876355394721,-0.00017230724915862083,0.0004906556569039822
1772882865452965400,8.03796533203125,0.0016357796266674995,-0.00006413646042346954,0.0032965412829071283
1772882865462897700,8.047897705078125,-0.0003956796135753393,-0.0003570844419300556,-0.0003208303533028811
1772882865472830500,8.05783056640625,0.0017979585099965334,-0.0002975468523800373,-0.0014041170943528414
1772882865482763500,8.067763427734375,0.0014501496916636825,0.00006837164983153343,-0.0007580342935398221
1772882865492695600,8.077695556640625,-0.0003105092328041792,-0.00008992431685328484,0.0009621259523555636
1772882865502628600,8.087628662109376,0.000974998576566577,0.0006799953989684582,-0.0016206075670197606
1772882865512561700,8.097561767578124,0.001225559040904045,-0.0006406530737876892,-0.00043806363828480244
1772882865522493700,8.10749365234375,-0.0009656898910179734,0.0012043844908475876,-0.001165372901596129
1772882865532426500,8.117426513671875,0.000028888462111353874,0.0005134539678692818,0.001575033413246274
1772882865542359600,8.127359619140625,0.0014286459190770984,-0.0002735103480517864,0.000959310622420162
1772882865552291600,8.13729150390625,0.00033095479011535645,0.0017853397876024246,-0.0007307074265554547
1772882865562224600,8.147224609375,0.0010177840013056993,-0.0008554505184292793,0.00010366091737523675
1772882865572157700,8.15715771484375,-0.001630989252589643,0.000013674609363079071,-0.0023705880157649517
1772882865582089700,8.16708984375,0.0016321820439770818,-0.0007320106960833073,0.00038818042958155274
1772882865592022800,8.177022705078125,0.0004957557539455593,0.00038331327959895134,0.0014599685091525316
1772882865601954600,8.18695458984375,0.0015623517101630569,-0.00019432604312896729,0.001184064894914627
1772882865611887600,8.1968876953125,-0.001806297805160284,0.0035711326636373997,-0.00006071198731660843
1772882865621820700,8.206820556640626,-0.0003082696348428726,0.001930359285324812,-0.0008559318957850337
1772882865631752400,8.21675244140625,0.0008727527456358075,-0.00005218666046857834,0.0005863469559699297
1772882865641685500,8.226685546875,0.0005816692719236016,-0.001223977655172348,-0.0006442997837439179
1772882865651618600,8.23661865234375,0.0012059160508215427,-0.0011883587576448917,0.001642800634726882
1772882865661550600,8.246550537109375,0.0015571869444102049,-0.0005041924305260181,0.0021357517689466476
1772882865671483400,8.2564833984375,-0.00022714945953339338,0.0005089417099952698,0.0020654264371842146
1772882865681416400,8.26641650390625,-0.0015744426054880023,0.0008583483286201954,0.00015061366138979793
1772882865691348500,8.276348388671876,-0.0008050687611103058,0.0026534125208854675,-0.0006812232895754278
1772882865701281500,8.286281494140624,-0.0005382199306041002,-0.0006252052262425423,-0.003395783482119441
1772882865711214600,8.296214599609375,0.00169877870939672,0.0008789063431322575,-0.00014542369171977043
1772882865721146600,8.306146728515625,0.0001741189043968916,0.0007579987868666649,-0.0012711419258266687
1772882865731079700,8.31607958984375,0.0016488202381879091,-0.0007868744432926178,0.0003282087272964418
1772882865741012500,8.326012451171875,0.0015348370652645826,0.00014603091403841972,-0.00007685809396207333
1772882865750945500,8.335945556640626,-0.0003838581033051014,-0.00013470929116010666,-0.0010391727555543184
1772882865760877600,8.345877685546874,0.0006939231534488499,-0.0011930493637919426,0.0008553999941796064
1772882865770810600,8.355810546875,-0.002150700893253088,-0.0006938534788787365,-0.002761733951047063
1772882865780743700,8.36574365234375,-0.0012934295227751136,-0.0010286127217113972,-0.0013862112537026405
1772882865790675700,8.37567578125,0.0010175826027989388,0.0014835861511528492,-0.000962083344347775
1772882865800608500,8.3856083984375,0.0014543409924954176,-0.0034592405427247286,0.002543702023103833
1772882865810541600,8.39554150390625,-0.00027894938830286264,-0.0002277810126543045,-0.0008353746961802244
1772882865820473600,8.4054736328125,-0.00018866825848817825,-0.003330363892018795,0.00017795810708776116
1772882865830406700,8.41540673828125,-0.00042330671567469835,-0.00005131307989358902,-0.001524976920336485
1772882865840339700,8.425339599609375,-0.0016699323896318674,-0.0025818487629294395,0.0005072812782600522
1772882865850271500,8.435271484375,0.0004369782982394099,0.0005464409478008747,-0.0008660374442115426
1772882865860204500,8.44520458984375,0.0004713330417871475,-0.0011835484765470028,-0.0013328896602615714
1772882865870137600,8.4551376953125,0.00046817195834591985,0.002775568515062332,-0.0010641736444085836
1772882865880069400,8.4650693359375,-0.0011819227365776896,-0.0018772399052977562,-0.00022660956892650574
1772882865890002400,8.47500244140625,-0.0019386995118111372,0.0008890535682439804,-0.0015544664347544312
1772882865899935500,8.484935546875,-0.00009179732296615839,0.0002445685677230358,0.0011334619484841824
1772882865909867500,8.494867431640625,0.00085782865062356,-0.0011490201577544212,0.0012091617099940777
1772882865919800600,8.504800537109375,-0.0003882644232362509,-0.00009201187640428543,0.0001026181853376329
1772882865929733600,8.514733642578125,0.0001484075328335166,-0.00067906454205513,0.00001844004145823419
1772882865939665700,8.524665771484376,0.00044508365681394935,0.0007651676423847675,-0.0009698590147309005
1772882865949598500,8.534598388671874,-0.0024002555292099714,0.0006223274394869804,-0.000733837194275111
1772882865959531500,8.544531494140625,0.0007494650781154633,-0.0003201649524271488,-0.001566341263242066
1772882865969463600,8.554463623046875,0.0010124985128641129,-0.0002487804740667343,-0.00006372397183440626
1772882865979396600,8.564396728515625,0.0013206262374296784,0.0012652263976633549,0.0018367076991125941
1772882865989328600,8.57432861328125,0.0008312364807352424,-0.0008892873302102089,-0.001765380147844553
1772882865999261700,8.58426171875,0.0006416193791665137,-0.0009774379432201385,-0.0010117054916918278
1772882866009194500,8.594194580078126,0.0016840581083670259,-0.00045517832040786743,0.0007235947414301336
1772882866019126500,8.60412646484375,0.00039934919914230704,-0.0013382826000452042,-0.0007912112632766366
1772882866029059600,8.6140595703125,0.0000019549624994397163,-0.0012253783643245697,0.00006238438072614372
1772882866038992600,8.62399267578125,-0.0003578381147235632,0.0011032894253730774,-0.0005914216162636876
1772882866048924700,8.633924560546875,-0.00030770921148359776,-0.0005673100240528584,-0.0014167511835694313
1772882866058857700,8.643857666015625,0.0005365128163248301,0.00357550336048007,0.001684766262769699
1772882866068790800,8.653790771484376,0.0011534629156813025,-0.0014328332617878914,0.0006148139946162701
1772882866078722600,8.66372265625,0.0003302798722870648,-0.0015843668952584267,-0.0005665642092935741
1772882866088655400,8.6736552734375,0.001844238257035613,-0.00010815728455781937,-0.00007368859951384366
1772882866098589000,8.6835888671875,0.0013992240419611335,0.0016340827569365501,0.0018405914306640625
1772882866108521000,8.69352099609375,0.0009253151947632432,0.0018389830365777016,-0.0001392652338836342
1772882866118454000,8.7034541015625,0.00019694061484187841,0.0016059563495218754,-0.0030069570057094097
1772882866128387000,8.713386962890626,0.00015392398927360773,-0.0019426285289227962,0.0012543717166408896
1772882866138319000,8.723319091796874,0.0014767161337658763,-0.0006326194852590561,-0.001094802631996572
1772882866148252000,8.733251953125,-0.0014855554327368736,-0.0013479674234986305,-0.00001171629992313683
1772882866158185000,8.74318505859375,0.0006079555605538189,-0.0009271879680454731,-0.0012538146693259478
1772882866168117000,8.753116943359375,-0.0012430001515895128,0.0015731141902506351,-0.00013398591545410454
1772882866178050000,8.763050048828125,-0.0004001096822321415,-0.0004463610239326954,-0.0009704848052933812
1772882866187981800,8.77298193359375,-0.0005206171190366149,-0.0025021058972924948,-0.0018728398717939854
1772882866197915000,8.782914794921876,-0.0022295676171779633,0.0010114023461937904,-0.0006842711009085178
1772882866207848000,8.792847900390624,-0.001451778458431363,-0.0008568535558879375,-0.0010278334375470877
1772882866217780000,8.802780029296875,0.0012473352253437042,0.00009229732677340508,-0.00031943252542987466
1772882866227712800,8.812712646484375,-0.001261254190467298,0.0013995552435517311,-0.0008939228719100356
1772882866237645800,8.822645751953125,0.001092181191779673,-0.0003333636559545994,0.0006933211116120219
1772882866247577900,8.832577880859375,0.00017792900325730443,0.0005111652426421642,0.0016669394681230187
1772882866257511000,8.842510986328126,-0.003343302756547928,0.0019269012846052647,-0.0009059405419975519
1772882866267444000,8.85244384765625,0.00019215850625187159,-0.00019463151693344116,0.0005744850495830178
1772882866277376000,8.8623759765625,-0.00038148637395352125,0.0013252347707748413,-0.0004774635599460453
1772882866287309000,8.87230908203125,-0.0010731704533100128,-0.00031305989250540733,-0.0013433985877782106
1772882866297241900,8.882241943359375,-0.00026596628595143557,0.001184968277812004,-0.000862964428961277
1772882866307174000,8.892173828125,0.0011507007293403149,-0.0015351995825767517,-0.0003821726131718606
1772882866317107000,8.90210693359375,0.0003056796849705279,0.00001129787415266037,-0.0008793848101049662
1772882866327040000,8.9120400390625,-0.0025867712683975697,0.000011920928955078125,-0.0000385219173040241
1772882866336972000,8.921971923828124,0.0002388425637036562,0.000607670284807682,-0.0002928538015112281
1772882866346905000,8.931905029296875,0.0026150867342948914,-0.0004303818568587303,0.0005866768187843263
1772882866356838000,8.941837890625,0.00048029678873717785,0.0003232923336327076,-0.0005472971824929118
1772882866366770000,8.95177001953125,0.001322143361903727,0.00013086525723338127,0.002108489628881216
1772882866376703000,8.961702880859375,-0.0007298222044482827,0.002582571469247341,-0.0020907826256006956
1772882866386636000,8.971635986328126,-0.0007013540016487241,0.00007617147639393806,0.001832620589993894
1772882866396568000,8.981568115234374,0.0008382194209843874,0.0028634355403482914,0.00005895539652556181
1772882866406501000,8.991501220703125,0.00024254166055470705,-0.0011241692118346691,0.0029675597324967384
1772882866416433000,9.001432861328125,0.00021138269221410155,-0.0015018056146800518,-0.0007265110034495592
1772882866426366000,9.011365966796875,-0.00018458906561136246,0.0004532742314040661,0.0001493964227847755
1772882866436298800,9.021298828125,-0.0007385265780612826,0.0005384953692555428,-0.0011904399143531919
1772882866446230800,9.031230712890626,-0.0021156715229153633,0.0005050059407949448,-0.0010533989407122135
1772882866456163800,9.041163818359376,0.0012755978386849165,0.0010679983533918858,-0.00005098507972434163
1772882866466097000,9.051096923828124,0.0013308895286172628,-0.0012336275540292263,0.001304991776123643
1772882866476029000,9.06102880859375,0.000444589473772794,-0.0023569490294903517,-0.00011207620264030993
1772882866485962000,9.0709619140625,-0.0002261964837089181,-0.000015632249414920807,-0.00044126593274995685
1772882866495894800,9.080894775390625,-0.00019636913202703,-0.00033574458211660385,0.0010948453564196825
1772882866505827000,9.0908271484375,0.0014232663670554757,-0.000019816216081380844,-0.0015351858455687761
1772882866515759900,9.100759765625,-0.0014899655943736434,0.0003330525942146778,-0.0004334361292421818
1772882866525693000,9.11069287109375,-0.001506480504758656,0.0016899937763810158,-0.001694517326541245
1772882866535625000,9.120625,0.0012493586400523782,0.0015017082914710045,0.0008376161567866802
1772882866545558000,9.13055810546875,0.00019637687364593148,0.00010704575106501579,-0.0008112479699775577
1772882866555491000,9.140490966796875,0.00007120834197849035,-0.0007568839937448502,-0.000785415293648839
1772882866565423000,9.150423095703125,0.0009320707176811993,-0.0011755600571632385,-0.002957476070150733
1772882866575356000,9.16035595703125,0.0009389949264004827,0.00022819219157099724,0.0012319425586611032
1772882866585288000,9.170287841796876,0.0010122328530997038,-0.00016460241749882698,-0.000936566386371851
1772882866595221000,9.180220947265624,-0.0007302734302356839,-0.0023225618060678244,-0.00041059209615923464
1772882866605154000,9.190154052734375,0.0014784449012950063,-0.002211472485214472,0.0006113187409937382
1772882866615085800,9.2000859375,-0.0011990972561761737,0.0013398528099060059,0.0004715027753263712
1772882866625019000,9.210018798828125,0.0002883127308450639,-0.00024173734709620476,-0.00014521664706990123
1772882866634952200,9.2199521484375,-0.00022887310478836298,-0.0004529259167611599,-0.0018634882289916277
1772882866644884000,9.229884033203126,0.0003834212548099458,0.0028496645390987396,-0.0001862449134932831
1772882866654816800,9.239816650390624,-0.0007582759717479348,0.0036358293145895004,-0.0009164836956188083
1772882866664749800,9.249749755859375,0.0005036290385760367,0.0006143404170870781,-0.00040819874266162515
1772882866674681900,9.259681884765625,0.0006426460458897054,-0.000980626791715622,-0.000005262467311695218
1772882866684615000,9.269614990234375,0.0015469592763110995,0.0006358232349157333,-0.0015900637954473495
1772882866694548000,9.2795478515625,0.00046172115253284574,0.0006086593493819237,-0.0010600948007777333
1772882866704480000,9.28947998046875,0.00006812321953475475,-0.0007190974429249763,-0.000978565658442676
1772882866714412800,9.299412841796874,0.0023368701804429293,-0.001389149110764265,-0.0001963952963706106
1772882866724345900,9.309345947265625,0.0004945011460222304,0.0011602542363107204,0.001031207269988954
1772882866734278000,9.31927783203125,0.0013839970342814922,0.0031312601640820503,-0.0011344753438606858
1772882866744211000,9.3292109375,0.00004656182136386633,0.0004551950842142105,-0.0004958013305440545
1772882866754144000,9.33914404296875,0.0002707999665290117,-0.0006793118081986904,0.0003734544734470546
1772882866764076000,9.349075927734376,-0.00009934755507856607,0.00035609351471066475,0.00023291405523195863
1772882866774009000,9.359009033203124,-0.0012165436055511236,0.00015076389536261559,0.0003397067775949836
1772882866783941000,9.368941162109374,0.00020953902276232839,0.0005241036415100098,0.001222578575834632
1772882866793874000,9.3788740234375,-0.0010980729712173343,0.001290028914809227,0.0010966111440211535
1772882866803807000,9.388806884765625,-0.00039682642091065645,0.00042167212814092636,-0.00018855651433113962
1772882866813739000,9.398739013671875,-0.0010309250792488456,-0.00160312931984663,-0.000019445782527327538
1772882866823672000,9.408672119140626,-0.00018465053290128708,0.038431283086538315,0.02536124549806118
1772882866833605000,9.418605224609376,-0.007008734624832869,0.18831664323806763,0.05755726248025894
1772882866843537000,9.428536865234374,-0.004949192516505718,0.10500065237283707,0.04580746218562126
1772882866853470000,9.438469970703125,0.0004061581566929817,0.03571612387895584,0.015353950671851635
1772882866863402800,9.44840283203125,-0.0038648992776870728,0.0937841534614563,0.03942282497882843
1772882866873334800,9.458334716796875,-0.0046571893617510796,0.142185777425766,0.05779251083731651
1772882866883267800,9.468267822265625,-0.0036240408662706614,0.10264304280281067,0.03947453573346138
1772882866893201000,9.478200927734376,0.0013539398787543178,-0.03138133883476257,-0.0021133844275027514
1772882866903133000,9.4881328125,0.0027848246973007917,0.012720616534352303,-0.010969812050461769
1772882866913066000,9.49806591796875,0.00034643441904336214,0.002047732938081026,-0.004936686716973782
1772882866922998800,9.507998779296875,0.002798516536131501,-0.05576451122760773,-0.023864641785621643
1772882866932931000,9.51793115234375,0.000765725621022284,-0.05637277662754059,-0.023707780987024307
1772882866942864000,9.52786376953125,0.0012963690096512437,-0.04099787026643753,-0.015941310673952103
1772882866952797000,9.537796875,-0.00010312208905816078,-0.055592525750398636,-0.024255167692899704
1772882866962729000,9.54772900390625,0.001973235048353672,-0.0959627628326416,-0.038163986057043076
1772882866972662000,9.557662109375,0.0006863956805318594,-0.13696692883968353,-0.053859591484069824
1772882866982594000,9.567593994140625,0.00518848467618227,-0.18264693021774292,-0.06623512506484985
1772882866992527000,9.577527099609375,-0.000055812415666878223,-0.035623930394649506,-0.011541786603629589
1772882867002460000,9.5874599609375,-0.00422503799200058,0.11001433432102203,0.03336881846189499
