time,seconds_elapsed,z,y,x
1772806377774339800,0.05633984375,-0.0923919677734375,0.98138427734375,0.0442657470703125
1772806377784272000,0.06627197265625,-0.0973968505859375,0.9848175048828125,0.047454833984375
1772806377794203100,0.076203125,-0.10186767578125,0.99652099609375,0.0472412109375
1772806377804135000,0.086135009765625,-0.1006317138671875,1.0043487548828125,0.0365447998046875
1772806377814066000,0.09606591796875,-0.0966644287109375,1.00567626953125,0.020355224609375
1772806377823998000,0.105998046875,-0.091400146484375,1.001312255859375,0.0112457275390625
1772806377833930000,0.115929931640625,-0.0879058837890625,0.9897918701171875,0.01483154296875
1772806377843861000,0.125861083984375,-0.0898895263671875,0.983428955078125,0.03167724609375
1772806377853793000,0.13579296875,-0.0897369384765625,0.9769287109375,0.046905517578125
1772806377863724000,0.14572412109375,-0.0966033935546875,0.9694976806640625,0.0538787841796875
1772806377873656000,0.155656005859375,-0.1100616455078125,0.9715728759765625,0.0467071533203125
1772806377883586800,0.1655869140625,-0.1152191162109375,0.979522705078125,0.0305633544921875
1772806377893518800,0.175518798828125,-0.10479736328125,0.9853515625,0.0226287841796875
1772806377903450000,0.1854501953125,-0.1081085205078125,0.9945220947265625,0.0141754150390625
1772806377913382100,0.195382080078125,-0.1046905517578125,1.0054473876953125,0.01568603515625
1772806377923313000,0.20531298828125,-0.0987396240234375,0.9968719482421875,0.0386505126953125
1772806377933245000,0.215244873046875,-0.10284423828125,1.0088348388671875,0.0274658203125
1772806377943176000,0.225176025390625,-0.1070709228515625,1.01043701171875,0.03167724609375
1772806377953107700,0.235107666015625,-0.108245849609375,0.99945068359375,0.0481414794921875
1772806377963040000,0.2450400390625,-0.1085968017578125,0.9793853759765625,0.0588226318359375
1772806377972971000,0.254970947265625,-0.110076904296875,0.95751953125,0.0726165771484375
1772806377982903000,0.264903076171875,-0.10784912109375,0.9501190185546875,0.0815582275390625
1772806377992833800,0.274833740234375,-0.1061553955078125,0.954742431640625,0.0809478759765625
1772806378002765800,0.284765869140625,-0.1022186279296875,0.9739227294921875,0.0767974853515625
1772806378012697000,0.294697021484375,-0.09942626953125,1.00433349609375,0.0716094970703125
1772806378022629000,0.304629150390625,-0.0977325439453125,1.02984619140625,0.063201904296875
1772806378032559900,0.314559814453125,-0.0969085693359375,1.04278564453125,0.053314208984375
1772806378042492000,0.324491943359375,-0.1115570068359375,1.04156494140625,0.060394287109375
1772806378052423000,0.3344228515625,-0.13922119140625,1.0379791259765625,0.0706329345703125
1772806378062355000,0.34435498046875,-0.1470947265625,1.0211944580078125,0.0843963623046875
1772806378072286000,0.354285888671875,-0.138458251953125,1.0053863525390625,0.1045379638671875
1772806378082218000,0.364218017578125,-0.1240692138671875,0.9915618896484375,0.1201019287109375
1772806378092150000,0.37414990234375,-0.112548828125,0.99005126953125,0.1238861083984375
1772806378102081000,0.3840810546875,-0.1145477294921875,1.00067138671875,0.12890625
1772806378112012800,0.3940126953125,-0.12457275390625,1.01666259765625,0.1269683837890625
1772806378121944000,0.403944091796875,-0.1295013427734375,1.037384033203125,0.1220550537109375
1772806378131876000,0.4138759765625,-0.126953125,1.062347412109375,0.12115478515625
1772806378141806800,0.423806884765625,-0.1130828857421875,1.08514404296875,0.11322021484375
1772806378151739000,0.43373876953125,-0.09442138671875,1.0937347412109375,0.108154296875
1772806378161670000,0.443669921875,-0.088409423828125,1.08380126953125,0.1233673095703125
1772806378171602400,0.4536025390625,-0.1123046875,1.0599365234375,0.15875244140625
1772806378181533400,0.463533447265625,-0.149688720703125,1.0403594970703125,0.1946563720703125
1772806378191465500,0.473465576171875,-0.17510986328125,1.032562255859375,0.2039642333984375
1772806378201396500,0.483396484375,-0.1839447021484375,1.033538818359375,0.1899871826171875
1772806378211328500,0.49332861328125,-0.1789398193359375,1.0208282470703125,0.1813507080078125
1772806378221260500,0.503260498046875,-0.1736602783203125,1.032073974609375,0.1565399169921875
1772806378231191300,0.51319140625,-0.1679229736328125,1.0405426025390625,0.140960693359375
1772806378241123300,0.523123291015625,-0.16058349609375,1.038818359375,0.133758544921875
1772806378251054600,0.5330546875,-0.153076171875,1.03271484375,0.12530517578125
1772806378260986600,0.542986572265625,-0.1479034423828125,0.9922943115234375,0.1318511962890625
1772806378270917400,0.55291748046875,-0.165069580078125,0.981414794921875,0.1337890625
1772806378280849400,0.562849365234375,-0.185943603515625,0.9823455810546875,0.15380859375
1772806378290780700,0.57278076171875,-0.2133636474609375,0.98797607421875,0.1623687744140625
1772806378300712400,0.58271240234375,-0.23760986328125,1.00872802734375,0.1787109375
1772806378310643500,0.5926435546875,-0.26361083984375,1.0362701416015625,0.1895294189453125
1772806378320575500,0.602575439453125,-0.2957916259765625,1.040863037109375,0.2036895751953125
1772806378330506500,0.612506591796875,-0.3106689453125,1.0228424072265625,0.1945953369140625
1772806378340438300,0.622438232421875,-0.308441162109375,0.9941864013671875,0.1826171875
1772806378350369500,0.63236962890625,-0.3077850341796875,0.9622039794921875,0.183746337890625
1772806378360301600,0.642301513671875,-0.3055419921875,0.950164794921875,0.201385498046875
1772806378370233600,0.652233642578125,-0.289154052734375,0.9386138916015625,0.206573486328125
1772806378380164400,0.662164306640625,-0.2879180908203125,0.9219512939453125,0.206878662109375
1772806378390096400,0.672096435546875,-0.28973388671875,0.89178466796875,0.2060699462890625
1772806378400027400,0.68202734375,-0.28411865234375,0.8682098388671875,0.18365478515625
1772806378409959700,0.691959716796875,-0.266082763671875,0.873504638671875,0.1507415771484375
1772806378419890400,0.701890380859375,-0.261077880859375,0.905609130859375,0.1186370849609375
1772806378429822500,0.711822509765625,-0.269378662109375,0.9716796875,0.1118927001953125
1772806378439753500,0.72175341796875,-0.277862548828125,1.037628173828125,0.119842529296875
1772806378449685200,0.731685302734375,-0.3050689697265625,1.0535888671875,0.1033477783203125
1772806378459616500,0.741616455078125,-0.318756103515625,1.0439453125,0.101654052734375
1772806378469548500,0.751548583984375,-0.30499267578125,1.00244140625,0.1068115234375
1772806378479479600,0.7614794921875,-0.306427001953125,0.948516845703125,0.12530517578125
1772806378489411300,0.771411376953125,-0.3119049072265625,0.895416259765625,0.161407470703125
1772806378499343400,0.78134326171875,-0.3188629150390625,0.863250732421875,0.1942901611328125
1772806378509274400,0.7912744140625,-0.32403564453125,0.8471832275390625,0.2103424072265625
1772806378519206400,0.801206298828125,-0.319122314453125,0.8350677490234375,0.2150115966796875
1772806378529137400,0.811137451171875,-0.319305419921875,0.829803466796875,0.218414306640625
1772806378539069400,0.8210693359375,-0.332366943359375,0.8312225341796875,0.2019805908203125
1772806378549000400,0.83100048828125,-0.347320556640625,0.8452911376953125,0.175262451171875
1772806378558932500,0.840932373046875,-0.3477935791015625,0.8529510498046875,0.1469573974609375
1772806378568863500,0.850863525390625,-0.3414459228515625,0.8579864501953125,0.1161651611328125
1772806378578795500,0.86079541015625,-0.325225830078125,0.862823486328125,0.0931243896484375
1772806378588726500,0.8707265625,-0.3072662353515625,0.8672943115234375,0.0806732177734375
1772806378598658600,0.880658447265625,-0.303009033203125,0.8603515625,0.079193115234375
1772806378608589300,0.89058935546875,-0.307708740234375,0.860382080078125,0.084564208984375
1772806378618521300,0.900521240234375,-0.320465087890625,0.8549041748046875,0.0840301513671875
1772806378628453400,0.910453369140625,-0.3347320556640625,0.8516998291015625,0.0868988037109375
1772806378638384400,0.92038427734375,-0.3486480712890625,0.8537139892578125,0.0889434814453125
1772806378648316400,0.93031640625,-0.3617706298828125,0.8465728759765625,0.0792083740234375
1772806378658247400,0.940247314453125,-0.37017822265625,0.8460845947265625,0.0816192626953125
1772806378668179500,0.950179443359375,-0.3820037841796875,0.8404693603515625,0.0848541259765625
1772806378678110500,0.9601103515625,-0.3917236328125,0.8277740478515625,0.0877227783203125
1772806378688042500,0.97004248046875,-0.40496826171875,0.8201446533203125,0.0999298095703125
1772806378697973500,0.979973388671875,-0.4109344482421875,0.8151397705078125,0.11260986328125
1772806378707905500,0.989905517578125,-0.4038238525390625,0.82855224609375,0.122100830078125
1772806378717836300,0.999836181640625,-0.38970947265625,0.8356170654296875,0.1282806396484375
1772806378727768300,1.009768310546875,-0.380401611328125,0.8294677734375,0.131805419921875
1772806378737699600,1.019699462890625,-0.3768768310546875,0.82769775390625,0.1324462890625
1772806378747631600,1.029631591796875,-0.3774566650390625,0.8227081298828125,0.1332244873046875
1772806378757563400,1.0395634765625,-0.3896942138671875,0.8184661865234375,0.134735107421875
1772806378767494400,1.049494384765625,-0.400360107421875,0.8229217529296875,0.1317596435546875
1772806378777426400,1.059426513671875,-0.403228759765625,0.8261566162109375,0.124298095703125
1772806378787357700,1.069357666015625,-0.4083404541015625,0.8328094482421875,0.108917236328125
1772806378797289500,1.07928955078125,-0.4057464599609375,0.8464508056640625,0.0991058349609375
1772806378807220500,1.089220458984375,-0.4044189453125,0.8568878173828125,0.08642578125
1772806378817152500,1.099152587890625,-0.3999481201171875,0.869476318359375,0.093231201171875
1772806378827083300,1.109083251953125,-0.39013671875,0.87286376953125,0.1081695556640625
1772806378837015300,1.119015380859375,-0.3809967041015625,0.8856658935546875,0.125152587890625
1772806378846946600,1.128946533203125,-0.3841094970703125,0.8967742919921875,0.1358489990234375
1772806378856878600,1.138878662109375,-0.40283203125,0.9025421142578125,0.1414337158203125
1772806378866809300,1.148809326171875,-0.423126220703125,0.912384033203125,0.1417388916015625
1772806378876741400,1.158741455078125,-0.4145965576171875,0.9058074951171875,0.1251220703125
1772806378886673400,1.16867333984375,-0.3926544189453125,0.8897247314453125,0.094451904296875
1772806378896604400,1.1786044921875,-0.379241943359375,0.8775177001953125,0.0679931640625
1772806378906536400,1.188536376953125,-0.3802490234375,0.8700408935546875,0.0633544921875
1772806378916467500,1.198467529296875,-0.378753662109375,0.86444091796875,0.078155517578125
1772806378926399500,1.2083994140625,-0.3789520263671875,0.86834716796875,0.093536376953125
1772806378936330500,1.21833056640625,-0.3860626220703125,0.8819732666015625,0.1081695556640625
1772806378946262300,1.22826220703125,-0.396484375,0.8962249755859375,0.1259765625
1772806378956193500,1.238193603515625,-0.401275634765625,0.8987884521484375,0.132476806640625
1772806378966125600,1.24812548828125,-0.4138641357421875,0.884765625,0.1246185302734375
1772806378976056300,1.258056396484375,-0.4210968017578125,0.8602294921875,0.1125946044921875
1772806378985988400,1.26798828125,-0.396484375,0.826385498046875,0.0937347412109375
1772806378995919400,1.27791943359375,-0.346923828125,0.80255126953125,0.077301025390625
1772806379005851400,1.287851318359375,-0.3197021484375,0.7978057861328125,0.07257080078125
1772806379015783400,1.297783447265625,-0.322723388671875,0.79974365234375,0.0797882080078125
1772806379025714400,1.30771435546875,-0.332427978515625,0.81097412109375,0.0863037109375
1772806379035646500,1.317646484375,-0.33721923828125,0.8194580078125,0.0862274169921875
1772806379045577500,1.327577392578125,-0.34893798828125,0.826812744140625,0.09515380859375
1772806379055509500,1.337509521484375,-0.3733367919921875,0.830108642578125,0.10162353515625
1772806379065440500,1.3474404296875,-0.3963470458984375,0.82293701171875,0.0963287353515625
1772806379075372500,1.35737255859375,-0.4056243896484375,0.8218536376953125,0.08953857421875
1772806379085303600,1.367303466796875,-0.406158447265625,0.8304443359375,0.0812225341796875
1772806379095235300,1.3772353515625,-0.3939666748046875,0.84539794921875,0.0608978271484375
1772806379105166300,1.387166259765625,-0.3707122802734375,0.8604278564453125,0.040740966796875
1772806379115098400,1.397098388671875,-0.350311279296875,0.8737335205078125,0.028564453125
1772806379125029600,1.407029541015625,-0.34368896484375,0.8861846923828125,0.027587890625
1772806379134961400,1.41696142578125,-0.35797119140625,0.897979736328125,0.0346832275390625
1772806379144893400,1.4268935546875,-0.3858489990234375,0.9178619384765625,0.0479888916015625
1772806379154824400,1.436824462890625,-0.4156341552734375,0.9378509521484375,0.063201904296875
1772806379164756500,1.446756591796875,-0.4439849853515625,0.9402313232421875,0.084136962890625
1772806379174687700,1.456687744140625,-0.4647369384765625,0.93328857421875,0.1005706787109375
1772806379184619800,1.466619873046875,-0.4766998291015625,0.9251861572265625,0.115478515625
1772806379194550800,1.47655078125,-0.479248046875,0.941375732421875,0.120361328125
1772806379204482800,1.48648291015625,-0.4726104736328125,0.9764251708984375,0.114990234375
1772806379214413600,1.49641357421875,-0.458709716796875,1.0163421630859375,0.14190673828125
1772806379224345600,1.506345703125,-0.447296142578125,1.1049346923828125,0.18670654296875
1772806379234276900,1.51627685546875,-0.4532623291015625,1.215545654296875,0.2155914306640625
1772806379244209000,1.526208984375,-0.4776611328125,1.3069915771484375,0.2515716552734375
1772806379254139600,1.5361396484375,-0.488983154296875,1.4080810546875,0.2880706787109375
1772806379264071700,1.54607177734375,-0.472137451171875,1.520721435546875,0.3036956787109375
1772806379274002700,1.556002685546875,-0.453643798828125,1.5607757568359375,0.3357086181640625
1772806379283934700,1.565934814453125,-0.4404754638671875,1.4626312255859375,0.3509674072265625
1772806379293866800,1.57586669921875,-0.389617919921875,1.20556640625,0.3064117431640625
1772806379303797800,1.5857978515625,-0.3141326904296875,0.8681793212890625,0.289520263671875
1772806379313729800,1.595729736328125,-0.26739501953125,0.6732330322265625,0.2805633544921875
1772806379323660800,1.605660888671875,-0.2347564697265625,0.5839691162109375,0.210723876953125
1772806379333592600,1.615592529296875,-0.1656341552734375,0.559295654296875,0.1709747314453125
1772806379343523800,1.62552392578125,-0.0638580322265625,0.6225433349609375,0.11968994140625
1772806379353455900,1.635455810546875,0.0282135009765625,0.7314605712890625,0.105438232421875
1772806379363386600,1.64538671875,0.058685302734375,0.85211181640625,0.11083984375
1772806379373318700,1.655318603515625,0.06353759765625,0.9607086181640625,0.128753662109375
1772806379383249700,1.665249755859375,0.072357177734375,1.064544677734375,0.1633148193359375
1772806379393181700,1.675181640625,0.08258056640625,1.1363372802734375,0.201080322265625
1772806379403112700,1.68511279296875,0.0952606201171875,1.1348724365234375,0.212249755859375
1772806379413044700,1.695044677734375,0.1197509765625,1.05950927734375,0.236602783203125
1772806379422975700,1.704975830078125,0.10687255859375,0.963043212890625,0.2659759521484375
1772806379432907800,1.71490771484375,0.055267333984375,0.870635986328125,0.2788848876953125
1772806379442839800,1.72483984375,0.0068359375,0.8390045166015625,0.3187408447265625
1772806379452770800,1.734770751953125,-0.06695556640625,0.8755035400390625,0.3380889892578125
1772806379462702800,1.744702880859375,-0.0890350341796875,0.9337310791015625,0.3067474365234375
1772806379472633900,1.7546337890625,-0.0499420166015625,0.98956298828125,0.2546234130859375
1772806379482565600,1.764565673828125,-0.017242431640625,1.0350189208984375,0.2033843994140625
1772806379492496600,1.77449658203125,0.0101318359375,1.0486602783203125,0.1558837890625
1772806379502428700,1.7844287109375,0.05230712890625,1.0325164794921875,0.1323699951171875
1772806379512360000,1.79435986328125,0.091644287109375,0.984832763671875,0.11114501953125
1772806379522291700,1.804291748046875,0.1236724853515625,0.950531005859375,0.11962890625
1772806379532222700,1.81422265625,0.161712646484375,0.929901123046875,0.1058197021484375
1772806379542154800,1.82415478515625,0.1781158447265625,0.9352264404296875,0.050201416015625
1772806379552085800,1.834085693359375,0.1841278076171875,0.96112060546875,-0.009674072265625
1772806379562017800,1.844017822265625,0.1732177734375,0.9806976318359375,-0.05865478515625
1772806379571949800,1.85394970703125,0.14984130859375,0.9916229248046875,-0.076934814453125
1772806379581880800,1.863880859375,0.1257171630859375,0.9865875244140625,-0.0621337890625
1772806379591812900,1.873812744140625,0.1004638671875,0.97857666015625,-0.0149078369140625
1772806379601743600,1.88374365234375,0.0878753662109375,0.974578857421875,0.0414886474609375
1772806379611675600,1.893675537109375,0.07037353515625,0.982452392578125,0.071929931640625
1772806379621607000,1.90360693359375,0.0613555908203125,0.9965057373046875,0.073028564453125
1772806379631538700,1.91353857421875,0.066131591796875,0.9871673583984375,0.063934326171875
1772806379641469700,1.9234697265625,0.0355072021484375,0.9950408935546875,0.0919189453125
1772806379651401700,1.933401611328125,0.0006103515625,0.998138427734375,0.083099365234375
1772806379661332700,1.943332763671875,-0.0160369873046875,0.991851806640625,0.07086181640625
1772806379671264800,1.9532646484375,0.0038604736328125,0.9957275390625,0.0540008544921875
1772806379681195800,1.96319580078125,0.0248565673828125,0.990447998046875,0.025543212890625
1772806379691127800,1.9731279296875,0.0376434326171875,0.987030029296875,0.004364013671875
1772806379701058600,1.98305859375,0.048004150390625,0.9776458740234375,-0.0290985107421875
1772806379710990600,1.992990478515625,0.0553131103515625,0.9793243408203125,-0.05340576171875
1772806379720921900,2.002921875,0.0396270751953125,0.9834442138671875,-0.0646514892578125
1772806379730854000,2.01285400390625,0.0284423828125,0.991790771484375,-0.0839385986328125
1772806379740786000,2.022785888671875,0.02227783203125,0.9971160888671875,-0.0859375
1772806379750716700,2.032716552734375,0.0159912109375,1.004669189453125,-0.0662078857421875
1772806379760648700,2.042648681640625,0.0093536376953125,1.014068603515625,-0.041656494140625
1772806379770579700,2.052579833984375,0.0041351318359375,1.01141357421875,-0.009857177734375
1772806379780511700,2.06251171875,-0.0018768310546875,0.99114990234375,0.0193634033203125
1772806379790442800,2.07244287109375,0.0025482177734375,0.984619140625,0.03009033203125
1772806379800374800,2.082374755859375,-0.0016326904296875,1.0013275146484375,0.03265380859375
1772806379810305800,2.092305908203125,0.0055084228515625,1.0152130126953125,0.0195159912109375
1772806379820237600,2.102237548828125,0.0170440673828125,1.036651611328125,0.0189971923828125
1772806379830168800,2.1121689453125,0.0291748046875,1.0570068359375,0.0165863037109375
1772806379840100900,2.122100830078125,0.032318115234375,1.0761260986328125,0.0184326171875
1772806379850031900,2.132031982421875,0.030303955078125,1.09423828125,0.02838134765625
1772806379859963600,2.141963623046875,0.02972412109375,1.0958099365234375,0.0329742431640625
1772806379869894700,2.151894775390625,0.03033447265625,1.0766143798828125,0.0467681884765625
1772806379879826700,2.16182666015625,0.0236358642578125,1.0552215576171875,0.0614776611328125
1772806379889758700,2.1717587890625,0.02105712890625,1.0438995361328125,0.0775299072265625
1772806379899689700,2.181689697265625,0.0252532958984375,1.0433349609375,0.0755157470703125
1772806379909621800,2.191621826171875,0.01495361328125,1.0606231689453125,0.0632171630859375
1772806379919552800,2.201552734375,-0.02728271484375,1.081268310546875,0.0633544921875
1772806379929484800,2.21148486328125,-0.069488525390625,1.0882568359375,0.0646820068359375
1772806379939415800,2.221415771484375,-0.0858306884765625,1.0980682373046875,0.0584259033203125
1772806379949347800,2.231347900390625,-0.0802459716796875,1.0969390869140625,0.050384521484375
1772806379959278800,2.24127880859375,-0.072998046875,1.0919952392578125,0.021392822265625
1772806379969210600,2.251210693359375,-0.078857421875,1.0851593017578125,-0.0124664306640625
1772806379979141600,2.2611416015625,-0.074554443359375,1.0609283447265625,-0.035400390625
1772806379989073700,2.27107373046875,-0.0510406494140625,1.0503692626953125,-0.0470733642578125
1772806379999005000,2.2810048828125,-0.0388336181640625,1.0553436279296875,-0.0428619384765625
1772806380008936700,2.290936767578125,-0.0373687744140625,1.0689849853515625,-0.02783203125
1772806380018867700,2.30086767578125,-0.0213623046875,1.0666046142578125,-0.0231475830078125
1772806380028799700,2.3107998046875,-0.00909423828125,1.040008544921875,-0.01336669921875
1772806380038731800,2.320731689453125,0.00323486328125,1.0193939208984375,0.0155792236328125
1772806380048662800,2.330662841796875,-0.0048370361328125,1.0309295654296875,0.065216064453125
1772806380058594800,2.3405947265625,-0.0587310791015625,1.0503082275390625,0.1341705322265625
1772806380068525800,2.35052587890625,-0.0673980712890625,1.0490875244140625,0.1943511962890625
1772806380078457900,2.360457763671875,-0.0390625,1.0333251953125,0.23406982421875
1772806380088388600,2.370388671875,-0.02099609375,0.98687744140625,0.242828369140625
1772806380098320600,2.380320556640625,-0.023681640625,0.958038330078125,0.2614288330078125
1772806380108252000,2.390251953125,-0.0382232666015625,0.9693756103515625,0.292633056640625
1772806380118184000,2.400183837890625,-0.06634521484375,1.02886962890625,0.307525634765625
1772806380128114700,2.41011474609375,-0.0946807861328125,1.1230621337890625,0.307769775390625
1772806380138046700,2.420046630859375,-0.1226043701171875,1.1743621826171875,0.308746337890625
1772806380147977700,2.429977783203125,-0.1571807861328125,1.2254791259765625,0.3184967041015625
1772806380157909500,2.439909423828125,-0.1759185791015625,1.2779083251953125,0.3295135498046875
1772806380167840500,2.449840576171875,-0.1806793212890625,1.27978515625,0.333709716796875
1772806380177772500,2.4597724609375,-0.186309814453125,1.2468719482421875,0.32421875
1772806380187704600,2.46970458984375,-0.1694793701171875,1.186370849609375,0.2934417724609375
1772806380197635600,2.479635498046875,-0.1739959716796875,1.134490966796875,0.2312774658203125
1772806380207567600,2.489567626953125,-0.179473876953125,1.1216888427734375,0.1644744873046875
1772806380217498600,2.49949853515625,-0.18731689453125,1.1305999755859375,0.1096954345703125
1772806380227430700,2.5094306640625,-0.18988037109375,1.113861083984375,0.0677337646484375
1772806380237361700,2.519361572265625,-0.190673828125,1.039306640625,0.04315185546875
1772806380247293400,2.52929345703125,-0.210052490234375,1.0067291259765625,0.0989227294921875
1772806380257224400,2.539224365234375,-0.1584625244140625,0.927581787109375,0.149505615234375
1772806380267156500,2.549156494140625,-0.1050872802734375,0.804840087890625,0.1761627197265625
1772806380277087700,2.559087646484375,-0.09564208984375,0.7208404541015625,0.23455810546875
1772806380287019500,2.56901953125,-0.14825439453125,0.6910552978515625,0.2801361083984375
1772806380296950500,2.578950439453125,-0.1464385986328125,0.67108154296875,0.279510498046875
1772806380306882600,2.588882568359375,-0.1331634521484375,0.6656951904296875,0.2624359130859375
1772806380316813600,2.5988134765625,-0.154998779296875,0.66162109375,0.222900390625
1772806380326745600,2.60874560546875,-0.2021331787109375,0.66741943359375,0.156524658203125
1772806380336676600,2.618676513671875,-0.24713134765625,0.68963623046875,0.11407470703125
1772806380346608600,2.628608642578125,-0.2603759765625,0.71282958984375,0.0865020751953125
1772806380356540700,2.638540771484375,-0.2381591796875,0.72674560546875,0.0662689208984375
1772806380366471400,2.648471435546875,-0.2173614501953125,0.7297515869140625,0.0469207763671875
1772806380376403500,2.658403564453125,-0.204071044921875,0.7266845703125,0.047943115234375
1772806380386334700,2.668334716796875,-0.210296630859375,0.7133331298828125,0.0602874755859375
1772806380396266500,2.6782666015625,-0.218536376953125,0.7064208984375,0.09246826171875
1772806380406197500,2.688197509765625,-0.2358551025390625,0.706298828125,0.1203460693359375
1772806380416129500,2.698129638671875,-0.252105712890625,0.7190704345703125,0.14752197265625
1772806380426060800,2.708060791015625,-0.2719879150390625,0.73175048828125,0.1712799072265625
1772806380435992600,2.71799267578125,-0.2974853515625,0.745391845703125,0.17767333984375
1772806380445923600,2.727923583984375,-0.330474853515625,0.7581024169921875,0.1743927001953125
1772806380455855600,2.737855712890625,-0.3612060546875,0.7680511474609375,0.154266357421875
1772806380465786400,2.747786376953125,-0.359375,0.7691650390625,0.1236724853515625
1772806380475718400,2.757718505859375,-0.3547210693359375,0.779632568359375,0.08807373046875
1772806380485649700,2.767649658203125,-0.356414794921875,0.81689453125,0.05950927734375
1772806380495581700,2.777581787109375,-0.3615875244140625,0.8529510498046875,0.0409088134765625
1772806380505512400,2.787512451171875,-0.3589019775390625,0.8877716064453125,0.0456085205078125
1772806380515444500,2.797444580078125,-0.3797760009765625,0.9150848388671875,0.052642822265625
1772806380525376500,2.80737646484375,-0.4215545654296875,0.9467315673828125,0.057220458984375
1772806380535307500,2.8173076171875,-0.455596923828125,0.9680328369140625,0.0513458251953125
1772806380545239800,2.82723974609375,-0.47589111328125,1.0091552734375,0.0303955078125
1772806380555170600,2.837170654296875,-0.4849395751953125,1.055389404296875,-0.0039825439453125
1772806380565102600,2.8471025390625,-0.4670867919921875,1.114532470703125,-0.02960205078125
1772806380575033600,2.85703369140625,-0.4455413818359375,1.1670989990234375,-0.038665771484375
1772806380584965400,2.86696533203125,-0.45611572265625,1.18048095703125,-0.0263519287109375
1772806380594896600,2.876896728515625,-0.4988555908203125,1.170654296875,-0.0052642822265625
1772806380604828700,2.88682861328125,-0.5422821044921875,1.1556243896484375,0.0160369873046875
1772806380614759700,2.896759765625,-0.5457305908203125,1.1084136962890625,0.0466766357421875
1772806380624691500,2.90669140625,-0.5276947021484375,1.040252685546875,0.0851287841796875
1772806380634622500,2.91662255859375,-0.5150146484375,0.9677581787109375,0.0824432373046875
1772806380644554500,2.926554443359375,-0.5047149658203125,0.895599365234375,0.0529937744140625
1772806380654485500,2.936485595703125,-0.500732421875,0.8358306884765625,0.0396575927734375
1772806380664417500,2.94641748046875,-0.5083465576171875,0.78729248046875,0.026275634765625
1772806380674349600,2.956349609375,-0.503448486328125,0.7485809326171875,0.0308380126953125
1772806380684280600,2.966280517578125,-0.490631103515625,0.73651123046875,0.0481719970703125
1772806380694212600,2.976212646484375,-0.4726104736328125,0.7467498779296875,0.0877685546875
1772806380704143600,2.9861435546875,-0.4365234375,0.8035736083984375,0.133026123046875
1772806380714075600,2.99607568359375,-0.3880157470703125,0.8915252685546875,0.1889190673828125
1772806380724006700,3.006006591796875,-0.360198974609375,0.964874267578125,0.2291259765625
1772806380733938700,3.015938720703125,-0.35552978515625,0.9930572509765625,0.2325897216796875
1772806380743869400,3.025869384765625,-0.3617401123046875,0.9769134521484375,0.1984100341796875
1772806380753801500,3.035801513671875,-0.39886474609375,0.9925384521484375,0.17388916015625
1772806380763732700,3.045732666015625,-0.4273834228515625,1.1084136962890625,0.1669464111328125
1772806380773664500,3.05566455078125,-0.3853607177734375,1.3189849853515625,0.1639556884765625
1772806380783595500,3.065595458984375,-0.3567352294921875,1.56488037109375,0.1663055419921875
1772806380793527600,3.075527587890625,-0.3916778564453125,1.7447509765625,0.1921844482421875
1772806380803458800,3.085458740234375,-0.355255126953125,1.622955322265625,0.244110107421875
1772806380813390600,3.095390625,-0.3387908935546875,1.18670654296875,0.36029052734375
1772806380823321600,3.105321533203125,-0.361541748046875,0.7106475830078125,0.4463043212890625
1772806380833253600,3.115253662109375,-0.28240966796875,0.423797607421875,0.3749542236328125
1772806380843185700,3.125185546875,-0.1378936767578125,0.3366241455078125,0.239166259765625
1772806380853116400,3.135116455078125,0.0150146484375,0.4304046630859375,0.175689697265625
1772806380863048400,3.14504833984375,0.133148193359375,0.625244140625,0.171905517578125
1772806380872979700,3.154979736328125,0.229461669921875,0.8274688720703125,0.1487579345703125
1772806380882911700,3.164911865234375,0.2289886474609375,1.049835205078125,0.1769256591796875
1772806380892842500,3.174842529296875,0.1782684326171875,1.2143707275390625,0.17041015625
1772806380902774500,3.1847744140625,0.2060699462890625,1.2216033935546875,0.110992431640625
1772806380912705500,3.19470556640625,0.2242584228515625,1.150299072265625,0.0831756591796875
1772806380922637600,3.204637451171875,0.168487548828125,1.0735321044921875,0.094268798828125
1772806380932568600,3.214568603515625,0.10052490234375,0.9616241455078125,0.11566162109375
1772806380942500600,3.22450048828125,0.0424041748046875,0.88177490234375,0.1839141845703125
1772806380952431600,3.234431640625,0.0113525390625,0.842926025390625,0.24932861328125
1772806380962363400,3.24436328125,-0.0151824951171875,0.83819580078125,0.302886962890625
1772806380972294700,3.254294677734375,-0.0450286865234375,0.8698883056640625,0.3126220703125
1772806380982226700,3.264226806640625,-0.0280914306640625,0.8948974609375,0.287017822265625
1772806380992157400,3.274157470703125,0.0114898681640625,0.9174957275390625,0.2399444580078125
1772806381002089500,3.28408935546875,0.0317230224609375,0.937774658203125,0.191680908203125
1772806381012021500,3.294021484375,0.0556488037109375,0.962646484375,0.1378326416015625
1772806381021952500,3.303952392578125,0.0965423583984375,0.980377197265625,0.09747314453125
1772806381031884500,3.313884521484375,0.1207733154296875,0.97271728515625,0.0662689208984375
1772806381041815600,3.323815673828125,0.162261962890625,0.9586639404296875,0.05426025390625
1772806381051747600,3.33374755859375,0.1790618896484375,0.944671630859375,0.01422119140625
1772806381061678600,3.3436787109375,0.1811981201171875,0.940277099609375,-0.0191497802734375
1772806381071610600,3.353610595703125,0.1685791015625,0.954803466796875,-0.0313568115234375
1772806381081541600,3.363541748046875,0.129638671875,0.9700164794921875,-0.025115966796875
1772806381091473700,3.3734736328125,0.09466552734375,0.9853515625,0.01251220703125
1772806381101404700,3.38340478515625,0.073974609375,0.99346923828125,0.0531005859375
1772806381111336400,3.39333642578125,0.0664825439453125,0.9947967529296875,0.073944091796875
1772806381121267500,3.403267333984375,0.0546112060546875,0.9834136962890625,0.0718231201171875
1772806381131199500,3.413199462890625,0.037109375,0.990875244140625,0.0913543701171875
1772806381141130800,3.423130859375,0.0396881103515625,0.9959716796875,0.084259033203125
1772806381151062500,3.4330625,0.04449462890625,0.98577880859375,0.1054840087890625
1772806381160993500,3.44299365234375,0.034881591796875,0.980712890625,0.10626220703125
1772806381170924800,3.4529248046875,0.025421142578125,0.9584808349609375,0.0885467529296875
1772806381180856800,3.46285693359375,0.00909423828125,0.949188232421875,0.084259033203125
1772806381190787800,3.472787841796875,-0.0058746337890625,0.9622955322265625,0.072601318359375
1772806381200720000,3.482719970703125,0.003173828125,0.9725494384765625,0.053741455078125
1772806381210651000,3.49265087890625,0.0098724365234375,0.9822235107421875,0.040740966796875
1772806381220582700,3.502582763671875,0.013031005859375,0.996002197265625,0.0191497802734375
1772806381230514000,3.512513916015625,0.017822265625,1.0129547119140625,-0.002593994140625
1772806381240446000,3.522446044921875,0.010894775390625,1.034423828125,-0.0195465087890625
1772806381250377000,3.532376953125,-0.004608154296875,1.0459136962890625,-0.0292205810546875
1772806381260308700,3.542308837890625,-0.012939453125,1.0340576171875,-0.0275726318359375
1772806381270239700,3.55223974609375,-0.00531005859375,1.0126190185546875,-0.0055084228515625
1772806381280171800,3.562171875,0.0042572021484375,1.0038299560546875,0.0181732177734375
1772806381290102800,3.572102783203125,0.0098876953125,0.9980316162109375,0.025390625
1772806381300034800,3.582034912109375,0.01824951171875,0.9963531494140625,0.028717041015625
1772806381309965800,3.5919658203125,0.0251312255859375,1.0059356689453125,0.028564453125
1772806381319897900,3.60189794921875,0.0348052978515625,1.0228118896484375,0.0236053466796875
1772806381329828900,3.611828857421875,0.0555877685546875,1.032745361328125,0.0290679931640625
1772806381339761000,3.621760986328125,0.076507568359375,1.0389404296875,0.036834716796875
1772806381349692000,3.63169189453125,0.0808868408203125,1.048797607421875,0.0395660400390625
1772806381359624000,3.6416240234375,0.0623931884765625,1.0791473388671875,0.0513916015625
1772806381369555700,3.6515556640625,0.0422515869140625,1.10101318359375,0.053192138671875
1772806381379486700,3.66148681640625,0.0493621826171875,1.0976409912109375,0.0542144775390625
1772806381389418800,3.671418701171875,0.07318115234375,1.0723724365234375,0.074066162109375
1772806381399350000,3.68135009765625,0.07586669921875,1.04705810546875,0.104400634765625
1772806381409281800,3.69128173828125,0.055633544921875,1.0268096923828125,0.14263916015625
1772806381419212800,3.701212890625,0.0204620361328125,1.017578125,0.1678009033203125
1772806381429144800,3.711144775390625,-0.0130767822265625,1.01873779296875,0.1719512939453125
1772806381439075600,3.72107568359375,-0.0308380126953125,1.0372467041015625,0.1614227294921875
1772806381449007900,3.7310078125,-0.0471954345703125,1.0670928955078125,0.149505615234375
1772806381458939000,3.74093896484375,-0.0433197021484375,1.0897216796875,0.12158203125
1772806381468871000,3.750870849609375,-0.0193939208984375,1.0838165283203125,0.066314697265625
1772806381478801700,3.7608017578125,-0.0017547607421875,1.0820159912109375,0.0224151611328125
1772806381488733700,3.770733642578125,0.0085296630859375,1.0890045166015625,-0.0038604736328125
1772806381498665000,3.7806650390625,0.0157623291015625,1.090362548828125,0.000946044921875
1772806381508597000,3.790596923828125,0.0319671630859375,1.0917205810546875,0.0120086669921875
1772806381518527700,3.80052783203125,0.068511962890625,1.11651611328125,0.0213470458984375
1772806381528459800,3.810459716796875,0.1065826416015625,1.16204833984375,0.0266571044921875
1772806381538391800,3.820391845703125,0.121917724609375,1.21826171875,0.0402984619140625
1772806381548322800,3.83032275390625,0.10467529296875,1.280853271484375,0.0667724609375
1772806381558254600,3.840254638671875,0.0842742919921875,1.2782135009765625,0.112884521484375
1772806381568185900,3.850185791015625,0.0737457275390625,1.1916046142578125,0.1628875732421875
1772806381578118000,3.860117919921875,0.0455169677734375,1.0682373046875,0.192169189453125
1772806381588049000,3.870048828125,0.0028228759765625,0.94366455078125,0.2212371826171875
1772806381597980700,3.879980712890625,-0.04534912109375,0.85150146484375,0.2578125
1772806381607912000,3.889911865234375,-0.0307159423828125,0.806121826171875,0.273101806640625
1772806381617844000,3.899843994140625,-0.0015869140625,0.8060302734375,0.2993316650390625
1772806381627774700,3.909774658203125,-0.021209716796875,0.8199310302734375,0.337066650390625
1772806381637706800,3.919706787109375,-0.051483154296875,0.944427490234375,0.4087982177734375
1772806381647637800,3.9296376953125,-0.127685546875,1.1139678955078125,0.522857666015625
1772806381657569800,3.93956982421875,-0.219940185546875,1.22662353515625,0.5810394287109375
1772806381667500800,3.949500732421875,-0.1661376953125,1.2332916259765625,0.484405517578125
1772806381677432800,3.959432861328125,-0.14764404296875,1.179046630859375,0.4214019775390625
1772806381687363800,3.96936376953125,-0.1123809814453125,1.1739044189453125,0.41162109375
1772806381697296000,3.9792958984375,-0.07965087890625,1.1604461669921875,0.3764190673828125
1772806381707225900,3.989225830078125,-0.0525054931640625,1.099029541015625,0.295196533203125
1772806381717158000,3.999157958984375,-0.0214385986328125,1.0404510498046875,0.1810150146484375
1772806381727089000,4.0090888671875,-0.0315093994140625,1.0194244384765625,0.0926361083984375
1772806381737020700,4.019020751953125,-0.12432861328125,1.02197265625,0.1089935302734375
1772806381746952000,4.028951904296875,-0.142303466796875,1.0125274658203125,0.0767059326171875
1772806381756884000,4.038884033203125,-0.1519012451171875,1.000701904296875,0.0882720947265625
1772806381766814700,4.048814697265625,-0.1598358154296875,0.943878173828125,0.1031036376953125
1772806381776746800,4.058746826171875,-0.1024932861328125,0.8975982666015625,0.1331634521484375
1772806381786677800,4.068677734375,-0.15087890625,0.8386688232421875,0.183685302734375
1772806381796609800,4.07860986328125,-0.1726531982421875,0.795806884765625,0.2305908203125
1772806381806540800,4.088540771484375,-0.1563720703125,0.7707672119140625,0.268798828125
1772806381816472800,4.098472900390625,-0.125518798828125,0.7285919189453125,0.255706787109375
1772806381826403800,4.10840380859375,-0.157989501953125,0.6895904541015625,0.2088470458984375
1772806381836335900,4.1183359375,-0.217803955078125,0.68603515625,0.1691741943359375
1772806381846266600,4.1282666015625,-0.24127197265625,0.7132720947265625,0.1243133544921875
1772806381856199000,4.138198974609375,-0.2308349609375,0.746246337890625,0.0779571533203125
1772806381866131000,4.148130859375,-0.2064208984375,0.768310546875,0.0492706298828125
1772806381876062000,4.15806201171875,-0.1941680908203125,0.773345947265625,0.02777099609375
1772806381885993700,4.16799365234375,-0.1863555908203125,0.7764739990234375,0.04827880859375
1772806381895924700,4.1779248046875,-0.1858978271484375,0.769989013671875,0.09625244140625
1772806381905856800,4.187856689453125,-0.212188720703125,0.752777099609375,0.131103515625
1772806381915788000,4.1977880859375,-0.230621337890625,0.7286529541015625,0.1729583740234375
1772806381925719800,4.2077197265625,-0.255859375,0.7044830322265625,0.1936798095703125
1772806381935650800,4.21765087890625,-0.2644500732421875,0.6917724609375,0.206634521484375
1772806381945582800,4.227582763671875,-0.278411865234375,0.69244384765625,0.20361328125
1772806381955513600,4.237513671875,-0.300323486328125,0.697601318359375,0.18743896484375
1772806381965445600,4.247445556640625,-0.321807861328125,0.7101898193359375,0.1554107666015625
1772806381975377000,4.257376953125,-0.3319549560546875,0.7209320068359375,0.1113128662109375
1772806381985309000,4.267308837890625,-0.33099365234375,0.7333831787109375,0.0750274658203125
1772806381995239700,4.27723974609375,-0.3435821533203125,0.7534637451171875,0.046844482421875
1772806382005171700,4.287171630859375,-0.3623809814453125,0.797760009765625,0.0273895263671875
1772806382015103000,4.29710302734375,-0.3876953125,0.84381103515625,0.0050201416015625
1772806382025035000,4.307034912109375,-0.385772705078125,0.872589111328125,-0.0030364990234375
1772806382034966800,4.316966796875,-0.386322021484375,0.8939971923828125,-0.013885498046875
1772806382044897800,4.326897705078125,-0.395355224609375,0.9308929443359375,-0.0218505859375
1772806382054829800,4.336829833984375,-0.407012939453125,0.963104248046875,-0.0453948974609375
1772806382064760800,4.3467607421875,-0.4139251708984375,0.9875640869140625,-0.0594024658203125
1772806382074692600,4.356692626953125,-0.42266845703125,1.0392303466796875,-0.0525970458984375
1772806382084624600,4.366624755859375,-0.4453582763671875,1.1047515869140625,-0.0158538818359375
1772806382094556000,4.376555908203125,-0.4661712646484375,1.1721038818359375,0.026885986328125
1772806382104488000,4.386488037109375,-0.4756622314453125,1.21246337890625,0.03460693359375
1772806382114418700,4.396418701171875,-0.498748779296875,1.206939697265625,0.027069091796875
1772806382124350700,4.406350830078125,-0.5400238037109375,1.193634033203125,0.0178070068359375
1772806382134282000,4.416281982421875,-0.557281494140625,1.13916015625,0.026336669921875
1772806382144214000,4.426214111328125,-0.5578460693359375,1.06085205078125,0.0560455322265625
1772806382154144800,4.436144775390625,-0.5687103271484375,0.974761962890625,0.0845794677734375
1772806382164076800,4.446076904296875,-0.57470703125,0.90008544921875,0.0847320556640625
1772806382174008800,4.4560087890625,-0.5780487060546875,0.825286865234375,0.077484130859375
1772806382183940900,4.46594091796875,-0.5845489501953125,0.8027496337890625,0.1075592041015625
1772806382193872000,4.475871826171875,-0.556640625,0.8595733642578125,0.17510986328125
1772806382203804000,4.485803955078125,-0.5018463134765625,0.949554443359375,0.2517852783203125
1772806382213735000,4.49573486328125,-0.4353179931640625,1.0099639892578125,0.3121185302734375
1772806382223667000,4.5056669921875,-0.37811279296875,1.0091400146484375,0.3816986083984375
1772806382233598000,4.515597900390625,-0.37353515625,1.0213775634765625,0.454864501953125
1772806382243530000,4.525530029296875,-0.384246826171875,1.158447265625,0.48638916015625
1772806382253461000,4.5354609375,-0.3474273681640625,1.45672607421875,0.455596923828125
1772806382263393000,4.54539306640625,-0.3112335205078125,1.767974853515625,0.3759613037109375
1772806382273325000,4.555324951171875,-0.370086669921875,1.8834381103515625,0.2880096435546875
1772806382283256000,4.565256103515625,-0.34271240234375,1.602447509765625,0.1396942138671875
1772806382293187800,4.575187744140625,-0.0763092041015625,1.08648681640625,0.009307861328125
1772806382303118800,4.585118896484375,0.158905029296875,0.64556884765625,0.062042236328125
1772806382313051000,4.59505078125,0.1729736328125,0.328216552734375,0.1943359375
1772806382322982000,4.60498193359375,0.1233673095703125,0.219268798828125,0.2255401611328125
1772806382332914000,4.614913818359375,0.10626220703125,0.31292724609375,0.194732666015625
1772806382342845000,4.624844970703125,0.1497802734375,0.51220703125,0.1221771240234375
1772806382352777000,4.63477685546875,0.1963348388671875,0.803863525390625,0.0897979736328125
1772806382362708000,4.6447080078125,0.2590484619140625,1.1219482421875,0.0794219970703125
1772806382372640000,4.654639892578125,0.2875213623046875,1.3235015869140625,0.0430755615234375
1772806382382571000,4.664571044921875,0.2312469482421875,1.391265869140625,0.047882080078125
1772806382392503000,4.6745029296875,0.130889892578125,1.324462890625,0.073883056640625
1772806382402433800,4.684433837890625,0.054351806640625,1.1910247802734375,0.1582489013671875
1772806382412365800,4.69436572265625,0.0421905517578125,1.0449676513671875,0.30999755859375
1772806382422297000,4.704297119140625,0.05755615234375,0.9261627197265625,0.3895263671875
1772806382432229000,4.71422900390625,0.017181396484375,0.8190765380859375,0.4146728515625
1772806382442159900,4.724159912109375,-0.031829833984375,0.7929840087890625,0.43292236328125
1772806382452092000,4.734091796875,-0.0135498046875,0.8327178955078125,0.4062957763671875
1772806382462024000,4.74402392578125,-0.0471038818359375,0.89617919921875,0.3592376708984375
1772806382471955000,4.753954833984375,-0.0625,0.9730224609375,0.29840087890625
1772806382481887000,4.763886962890625,-0.0347442626953125,1.0222320556640625,0.24169921875
1772806382491818000,4.77381787109375,-0.0197601318359375,1.0239715576171875,0.2164306640625
1772806382501750000,4.78375,0.00347900390625,0.9941558837890625,0.179534912109375
1772806382511680800,4.7936806640625,0.028594970703125,0.935394287109375,0.1283721923828125
1772806382521612800,4.80361279296875,0.0536956787109375,0.8924407958984375,0.056304931640625
1772806382531544000,4.8135439453125,0.06365966796875,0.889495849609375,-0.009307861328125
1772806382541476000,4.82347607421875,0.056854248046875,0.9149322509765625,-0.052276611328125
1772806382551406800,4.83340673828125,0.024200439453125,0.93463134765625,-0.0800323486328125
1772806382561339000,4.8433388671875,-0.002166748046875,0.963104248046875,-0.052276611328125
1772806382571270000,4.853269775390625,-0.0097808837890625,1.015869140625,0.0048675537109375
1772806382581202000,4.863201904296875,-0.0304107666015625,1.0347442626953125,0.029052734375
1772806382591133000,4.8731328125,-0.0753936767578125,1.0292510986328125,0.056396484375
1772806382601065000,4.88306494140625,-0.0788116455078125,1.016754150390625,0.0533294677734375
1772806382610996000,4.892995849609375,-0.090240478515625,0.979156494140625,0.0806121826171875
1772806382620928000,4.902927978515625,-0.1237335205078125,0.9287261962890625,0.1027069091796875
1772806382630859000,4.91285888671875,-0.139739990234375,0.8974761962890625,0.103515625
1772806382640791000,4.922791015625,-0.1602325439453125,0.898590087890625,0.0734100341796875
1772806382650723000,4.93272314453125,-0.1735992431640625,0.95220947265625,0.037567138671875
1772806382660654000,4.942654052734375,-0.1660003662109375,1.0154571533203125,0.0068817138671875
1772806382670585900,4.9525859375,-0.1519927978515625,1.061981201171875,-0.03460693359375
1772806382680516900,4.962516845703125,-0.1685791015625,1.077392578125,-0.0836944580078125
1772806382690449000,4.972448974609375,-0.1828460693359375,1.0551605224609375,-0.098388671875
1772806382700380000,4.9823798828125,-0.18768310546875,1.018646240234375,-0.086151123046875
1772806382710312000,4.99231201171875,-0.163299560546875,0.971588134765625,-0.0587005615234375
1772806382720243000,5.002242919921875,-0.14276123046875,0.9268798828125,-0.035400390625
1772806382730175000,5.012175048828125,-0.1371307373046875,0.9096832275390625,-0.025970458984375
1772806382740106000,5.02210595703125,-0.138946533203125,0.923919677734375,-0.02239990234375
1772806382750038000,5.0320380859375,-0.1517486572265625,0.9694976806640625,-0.0262298583984375
1772806382759969000,5.041968994140625,-0.1631011962890625,1.01849365234375,-0.03411865234375
1772806382769901000,5.051901123046875,-0.1504974365234375,1.030487060546875,-0.036834716796875
1772806382779831800,5.061831787109375,-0.1245269775390625,1.00665283203125,-0.0342254638671875
1772806382789763800,5.071763916015625,-0.104736328125,0.9859466552734375,-0.01922607421875
1772806382799695000,5.081695068359375,-0.086334228515625,0.972564697265625,0.005889892578125
1772806382809627100,5.091627197265625,-0.1047821044921875,0.9632568359375,0.03863525390625
1772806382819558000,5.101557861328125,-0.148651123046875,0.9590911865234375,0.067230224609375
1772806382829490000,5.111489990234375,-0.166595458984375,0.9691619873046875,0.0800933837890625
1772806382839421000,5.1214208984375,-0.170379638671875,0.98358154296875,0.0735931396484375
1772806382849353000,5.13135302734375,-0.1461334228515625,1.0011749267578125,0.06097412109375
1772806382859285000,5.141284912109375,-0.1131134033203125,1.0150909423828125,0.056427001953125
1772806382869216000,5.151216064453125,-0.0917510986328125,1.0161895751953125,0.057769775390625
1772806382879148000,5.16114794921875,-0.08380126953125,1.0057525634765625,0.0659637451171875
1772806382889078800,5.171078857421875,-0.08148193359375,0.9857330322265625,0.0694427490234375
1772806382899010800,5.1810107421875,-0.0840911865234375,0.9644622802734375,0.0648345947265625
1772806382908942000,5.190942138671875,-0.0991058349609375,0.947235107421875,0.0640716552734375
1772806382918874000,5.2008740234375,-0.134613037109375,0.9417266845703125,0.0677032470703125
1772806382928804900,5.210804931640625,-0.1633148193359375,0.9618682861328125,0.0744476318359375
1772806382938737000,5.22073681640625,-0.1639862060546875,0.994476318359375,0.06158447265625
1772806382948668000,5.23066796875,-0.1466064453125,1.0128173828125,0.0355987548828125
1772806382958600000,5.240599853515625,-0.12060546875,1.01611328125,0.019683837890625
1772806382968531000,5.250531005859375,-0.1092071533203125,1.016632080078125,0.012939453125
1772806382978463000,5.260462890625,-0.0890655517578125,1.0248870849609375,0.0066070556640625
1772806382988394000,5.27039404296875,-0.06182861328125,1.0502471923828125,0.00091552734375
1772806382998326000,5.280325927734375,-0.0696563720703125,1.0811767578125,-0.001983642578125
1772806383008257000,5.290257080078125,-0.1157684326171875,1.093658447265625,-0.0128021240234375
1772806383018189000,5.30018896484375,-0.1584625244140625,1.096282958984375,-0.02862548828125
1772806383028120000,5.3101201171875,-0.2230987548828125,1.0823516845703125,-0.032073974609375
1772806383038051800,5.3200517578125,-0.2181549072265625,1.0690460205078125,-0.02392578125
1772806383047982800,5.32998291015625,-0.1714324951171875,1.089569091796875,0.0253143310546875
1772806383057915000,5.339914794921875,-0.14080810546875,1.12225341796875,0.1141357421875
1772806383067846100,5.34984619140625,-0.1187744140625,1.15380859375,0.1932830810546875
1772806383077778000,5.35977783203125,-0.0948028564453125,1.1817626953125,0.243560791015625
1772806383087710000,5.3697099609375,-0.108612060546875,1.2157440185546875,0.2891845703125
1772806383097641000,5.379640869140625,-0.175262451171875,1.2151947021484375,0.30841064453125
1772806383107573000,5.389572998046875,-0.2594757080078125,1.182586669921875,0.302154541015625
1772806383117504000,5.39950390625,-0.34832763671875,1.1324005126953125,0.2421417236328125
1772806383127436000,5.40943603515625,-0.3376007080078125,1.0774993896484375,0.1949615478515625
1772806383137367000,5.419366943359375,-0.324462890625,1.0458831787109375,0.1668853759765625
1772806383147299000,5.429299072265625,-0.3012542724609375,1.018157958984375,0.144500732421875
1772806383157229800,5.439229736328125,-0.34893798828125,0.996978759765625,0.14410400390625
1772806383167161900,5.449161865234375,-0.387481689453125,1.0011138916015625,0.155181884765625
1772806383177092000,5.459092041015625,-0.3716888427734375,0.9579620361328125,0.19561767578125
1772806383187024000,5.46902392578125,-0.3588104248046875,0.9188232421875,0.22235107421875
1772806383196955000,5.478954833984375,-0.3439788818359375,0.870208740234375,0.236907958984375
1772806383206887000,5.488886962890625,-0.3261871337890625,0.8315887451171875,0.258880615234375
1772806383216818200,5.498818115234375,-0.295166015625,0.810821533203125,0.253570556640625
1772806383226750000,5.50875,-0.2511138916015625,0.7880096435546875,0.2282257080078125
1772806383236681000,5.518680908203125,-0.2333984375,0.792083740234375,0.2054443359375
1772806383246613000,5.528613037109375,-0.2397003173828125,0.83447265625,0.1963958740234375
1772806383256544000,5.5385439453125,-0.262847900390625,0.8740081787109375,0.1870269775390625
1772806383266476000,5.54847607421875,-0.303619384765625,0.9025726318359375,0.183502197265625
1772806383276408000,5.558407958984375,-0.3435516357421875,0.9150238037109375,0.19378662109375
1772806383286339000,5.568339111328125,-0.3638916015625,0.8808746337890625,0.218963623046875
1772806383296271000,5.57827099609375,-0.3705291748046875,0.831298828125,0.2588348388671875
1772806383306201900,5.588201904296875,-0.37847900390625,0.80023193359375,0.2887115478515625
1772806383316134000,5.5981337890625,-0.3697662353515625,0.7615814208984375,0.3111114501953125
1772806383326065200,5.608065185546875,-0.355133056640625,0.737762451171875,0.3259429931640625
1772806383335997200,5.6179970703125,-0.33099365234375,0.748046875,0.3037872314453125
1772806383345928000,5.627927978515625,-0.31597900390625,0.77569580078125,0.2562713623046875
1772806383355860000,5.63785986328125,-0.3140716552734375,0.81353759765625,0.211395263671875
1772806383365791000,5.647791015625,-0.3069305419921875,0.8436126708984375,0.1660919189453125
1772806383375723000,5.657722900390625,-0.29638671875,0.8589630126953125,0.1318511962890625
1772806383385654000,5.667654052734375,-0.303009033203125,0.8625030517578125,0.0998992919921875
1772806383395586000,5.6775859375,-0.3222808837890625,0.8440704345703125,0.097625732421875
1772806383405517000,5.68751708984375,-0.3476104736328125,0.8183135986328125,0.1094512939453125
1772806383415448800,5.69744873046875,-0.3765411376953125,0.8044281005859375,0.11651611328125
1772806383425380000,5.707380126953125,-0.4091644287109375,0.7883453369140625,0.1058197021484375
1772806383435312000,5.71731201171875,-0.4172515869140625,0.799346923828125,0.14495849609375
1772806383445243000,5.727242919921875,-0.420196533203125,0.848052978515625,0.169281005859375
1772806383455175000,5.7371748046875,-0.410980224609375,0.8846435546875,0.168975830078125
1772806383465106000,5.74710595703125,-0.399444580078125,0.9066314697265625,0.164764404296875
1772806383475038000,5.757037841796875,-0.4096527099609375,0.9272613525390625,0.1537322998046875
1772806383484969000,5.766968994140625,-0.433502197265625,0.936187744140625,0.1422576904296875
1772806383494901000,5.77690087890625,-0.43988037109375,0.9359130859375,0.108612060546875
1772806383504832000,5.78683203125,-0.427001953125,0.9195556640625,0.0766754150390625
1772806383514764000,5.796763916015625,-0.408538818359375,0.899658203125,0.082305908203125
1772806383524696000,5.806696044921875,-0.4063873291015625,0.8862152099609375,0.1161956787109375
1772806383534627000,5.816626953125,-0.4028167724609375,0.865325927734375,0.150787353515625
1772806383544559000,5.82655908203125,-0.40771484375,0.849639892578125,0.16943359375
1772806383554490000,5.836489990234375,-0.4083404541015625,0.84454345703125,0.163116455078125
1772806383564422000,5.846421875,-0.421661376953125,0.85992431640625,0.13934326171875
1772806383574353000,5.856352783203125,-0.42919921875,0.88690185546875,0.1107025146484375
1772806383584285000,5.866284912109375,-0.421661376953125,0.9032745361328125,0.1028594970703125
1772806383594216200,5.87621630859375,-0.423919677734375,0.916717529296875,0.101715087890625
1772806383604148000,5.88614794921875,-0.433013916015625,0.9141082763671875,0.10986328125
1772806383614079000,5.896078857421875,-0.4225921630859375,0.8852691650390625,0.1263885498046875
1772806383624011000,5.906010986328125,-0.4045562744140625,0.8508758544921875,0.1369476318359375
1772806383633942000,5.91594189453125,-0.3998870849609375,0.8239593505859375,0.13787841796875
1772806383643874000,5.9258740234375,-0.4051971435546875,0.813018798828125,0.1301422119140625
1772806383653805000,5.93580517578125,-0.4248199462890625,0.8148956298828125,0.122406005859375
1772806383663737000,5.945737060546875,-0.452117919921875,0.8349456787109375,0.1092681884765625
1772806383673667800,5.955667724609375,-0.45758056640625,0.85101318359375,0.0916748046875
1772806383683600000,5.965599853515625,-0.445526123046875,0.872650146484375,0.084747314453125
1772806383693531100,5.97553125,-0.435791015625,0.8969573974609375,0.0850677490234375
1772806383703463200,5.985463134765625,-0.42706298828125,0.909423828125,0.0768585205078125
1772806383713394000,5.995393798828125,-0.4144287109375,0.905487060546875,0.069122314453125
1772806383723326000,6.005325927734375,-0.4097137451171875,0.894805908203125,0.0774383544921875
1772806383733257000,6.015257080078125,-0.39349365234375,0.8770751953125,0.0898895263671875
1772806383743189000,6.02518896484375,-0.3904876708984375,0.8682403564453125,0.0976409912109375
1772806383753121000,6.03512109375,-0.4003448486328125,0.8705291748046875,0.093231201171875
1772806383763052000,6.045052001953125,-0.396392822265625,0.87896728515625,0.0811614990234375
1772806383772984000,6.054984130859375,-0.39068603515625,0.891693115234375,0.083740234375
1772806383782914800,6.064914794921875,-0.4071044921875,0.896575927734375,0.1005859375
1772806383792846800,6.074846923828125,-0.426422119140625,0.8995513916015625,0.1125030517578125
1772806383802778000,6.084778076171875,-0.4409942626953125,0.8970794677734375,0.111572265625
1772806383812710100,6.094710205078125,-0.445404052734375,0.899566650390625,0.1100921630859375
1772806383822641000,6.104640869140625,-0.432525634765625,0.899658203125,0.110626220703125
1772806383832573000,6.114572998046875,-0.4197998046875,0.893890380859375,0.1113433837890625
1772806383842504000,6.12450390625,-0.408294677734375,0.883392333984375,0.113189697265625
1772806383852436000,6.13443603515625,-0.40435791015625,0.8719024658203125,0.1066741943359375
1772806383862367000,6.144366943359375,-0.4028472900390625,0.8744964599609375,0.105499267578125
1772806383872299000,6.154299072265625,-0.407379150390625,0.884246826171875,0.1058197021484375
1772806383882230000,6.16422998046875,-0.4249114990234375,0.895294189453125,0.09844970703125
1772806383892162000,6.174162109375,-0.444976806640625,0.9074554443359375,0.0858001708984375
1772806383902093000,6.184093017578125,-0.4545745849609375,0.912139892578125,0.064453125
1772806383912025000,6.194025146484375,-0.45355224609375,0.9049530029296875,0.0449676513671875
1772806383921956000,6.2039560546875,-0.449859619140625,0.8930206298828125,0.038787841796875
1772806383931888000,6.21388818359375,-0.439239501953125,0.876373291015625,0.02880859375
1772806383941819000,6.22381884765625,-0.43487548828125,0.861480712890625,0.0209197998046875
1772806383951751000,6.2337509765625,-0.4373626708984375,0.8708343505859375,0.014801025390625
1772806383961683000,6.243682861328125,-0.44464111328125,0.919464111328125,-0.04071044921875
1772806383971614000,6.253614013671875,-0.4394989013671875,0.9277191162109375,-0.0347747802734375
1772806383981546000,6.2635458984375,-0.4122772216796875,0.97564697265625,0.026824951171875
1772806383991477000,6.27347705078125,-0.3931121826171875,1.0131072998046875,0.06573486328125
1772806384001409000,6.283408935546875,-0.4202880859375,1.02178955078125,0.117156982421875
1772806384011339800,6.29333984375,-0.4615020751953125,1.0227508544921875,0.1569976806640625
1772806384021272000,6.30327197265625,-0.4943084716796875,1.0322265625,0.1794891357421875
1772806384031203000,6.313203125,-0.504180908203125,1.044189453125,0.1748046875
1772806384041135000,6.323135009765625,-0.5045623779296875,1.038055419921875,0.150238037109375
1772806384051065900,6.33306591796875,-0.5027618408203125,1.0135955810546875,0.124420166015625
1772806384060998000,6.342997802734375,-0.4761199951171875,0.9726104736328125,0.113311767578125
1772806384070929200,6.35292919921875,-0.4452056884765625,0.90301513671875,0.1336517333984375
1772806384080861200,6.362861083984375,-0.422760009765625,0.8484344482421875,0.1577911376953125
1772806384090792000,6.3727919921875,-0.4158172607421875,0.8231658935546875,0.1644134521484375
1772806384100724000,6.382723876953125,-0.42889404296875,0.83868408203125,0.1538543701171875
1772806384110655000,6.392655029296875,-0.4447784423828125,0.884918212890625,0.1397857666015625
1772806384120587000,6.4025869140625,-0.4464569091796875,0.9529571533203125,0.137786865234375
1772806384130518000,6.41251806640625,-0.40692138671875,1.04107666015625,0.134552001953125
1772806384140450000,6.422449951171875,-0.3240814208984375,1.1425933837890625,0.135772705078125
1772806384150381000,6.432381103515625,-0.2529296875,1.19024658203125,0.1619720458984375
1772806384160312800,6.442312744140625,-0.2213134765625,1.1653289794921875,0.207763671875
1772806384170244000,6.452244140625,-0.1925811767578125,1.0904693603515625,0.2375640869140625
1772806384180176100,6.462176025390625,-0.154022216796875,0.9754638671875,0.2412567138671875
1772806384190107100,6.472107177734375,-0.108001708984375,0.84857177734375,0.239959716796875
1772806384200039000,6.482038818359375,-0.0869140625,0.7717132568359375,0.2555389404296875
1772806384209971000,6.491970947265625,-0.0942535400390625,0.7664794921875,0.2541351318359375
1772806384219902000,6.50190185546875,-0.1040496826171875,0.8343658447265625,0.216949462890625
1772806384229834000,6.511833984375,-0.1061553955078125,0.9308013916015625,0.141754150390625
1772806384239765000,6.521764892578125,-0.0800933837890625,0.9622039794921875,0.100494384765625
1772806384249697000,6.531697021484375,-0.0523223876953125,0.97076416015625,0.1168670654296875
1772806384259628000,6.5416279296875,-0.04058837890625,0.9716644287109375,0.158599853515625
1772806384269560000,6.55156005859375,-0.05401611328125,0.9700164794921875,0.2089080810546875
1772806384279491000,6.561490966796875,-0.0878753662109375,0.9580230712890625,0.25177001953125
1772806384289423000,6.571423095703125,-0.116302490234375,0.9409637451171875,0.269622802734375
1772806384299354000,6.58135400390625,-0.1590423583984375,0.9545440673828125,0.236602783203125
1772806384309286000,6.591285888671875,-0.1515350341796875,0.962615966796875,0.16119384765625
1772806384319217000,6.601216796875,-0.13134765625,0.9765777587890625,0.12371826171875
1772806384329149000,6.61114892578125,-0.155517578125,1.0004119873046875,0.1199951171875
1772806384339080200,6.621080078125,-0.1479034423828125,1.0171966552734375,0.1104278564453125
1772806384349012000,6.631011962890625,-0.155670166015625,1.0321044921875,0.093536376953125
1772806384358943000,6.64094287109375,-0.137298583984375,1.02581787109375,0.0670013427734375
1772806384368875000,6.650875,-0.11456298828125,0.991912841796875,0.0480194091796875
1772806384378805800,6.6608056640625,-0.0963134765625,0.9567718505859375,0.0572357177734375
1772806384388737800,6.67073779296875,-0.0818328857421875,0.9435882568359375,0.0640106201171875
1772806384398669000,6.6806689453125,-0.0671234130859375,0.9512481689453125,0.069549560546875
1772806384408601000,6.69060107421875,-0.0573577880859375,0.96795654296875,0.0594329833984375
1772806384418531800,6.70053173828125,-0.059173583984375,0.9804534912109375,0.0581207275390625
1772806384428463900,6.7104638671875,-0.05267333984375,0.9750823974609375,0.0730133056640625
1772806384438395100,6.72039501953125,-0.0553436279296875,0.9584503173828125,0.0987548828125
1772806384448327200,6.7303271484375,-0.0649871826171875,0.9389801025390625,0.1239166259765625
1772806384458259200,6.74025927734375,-0.0799102783203125,0.9240264892578125,0.1419219970703125
1772806384468190000,6.75018994140625,-0.083099365234375,0.917327880859375,0.1564483642578125
1772806384478122000,6.7601220703125,-0.07720947265625,0.9229278564453125,0.154144287109375
1772806384488053000,6.770052978515625,-0.079498291015625,0.93560791015625,0.1616668701171875
1772806384497984800,6.77998486328125,-0.081268310546875,0.9344482421875,0.1530914306640625
1772806384507916000,6.789916015625,-0.079925537109375,0.934173583984375,0.1370849609375
1772806384517848000,6.79984814453125,-0.0785369873046875,0.9419097900390625,0.1161346435546875
1772806384527779000,6.809779052734375,-0.0772247314453125,0.957489013671875,0.1052093505859375
1772806384537710800,6.8197109375,-0.0760650634765625,0.9723358154296875,0.0996246337890625
1772806384547642000,6.82964208984375,-0.0737152099609375,0.9874267578125,0.09356689453125
1772806384557574100,6.83957421875,-0.0692596435546875,0.9926910400390625,0.0867156982421875
1772806384567505000,6.8495048828125,-0.0608367919921875,0.9958038330078125,0.082916259765625
1772806384577437000,6.85943701171875,-0.0532684326171875,0.9933929443359375,0.076995849609375
1772806384587368000,6.869367919921875,-0.062103271484375,0.991546630859375,0.0653839111328125
1772806384597300000,6.879300048828125,-0.080963134765625,1.0053558349609375,0.060333251953125
1772806384607231000,6.88923095703125,-0.0924072265625,1.0103759765625,0.0570220947265625
1772806384617163000,6.8991630859375,-0.0962066650390625,1.0067901611328125,0.047332763671875
1772806384627094000,6.909093994140625,-0.104644775390625,1.0016632080078125,0.05242919921875
1772806384637026000,6.919026123046875,-0.123077392578125,0.996734619140625,0.06549072265625
1772806384646956800,6.928956787109375,-0.1284332275390625,0.9886474609375,0.0749969482421875
1772806384656889000,6.93888916015625,-0.1183624267578125,0.9822235107421875,0.08465576171875
1772806384666820000,6.948820068359375,-0.1087188720703125,0.991546630859375,0.09783935546875
1772806384676752100,6.958752197265625,-0.0964508056640625,1.000213623046875,0.1009521484375
1772806384686683000,6.968682861328125,-0.0954437255859375,1.0028076171875,0.094207763671875
1772806384696615000,6.978614990234375,-0.1002960205078125,1.003082275390625,0.0871734619140625
1772806384706546200,6.988546142578125,-0.1003875732421875,1.0037841796875,0.078887939453125
1772806384716478200,6.998478271484375,-0.093505859375,0.9960174560546875,0.070526123046875
1772806384726409000,7.008408935546875,-0.066436767578125,0.9770355224609375,0.056243896484375
1772806384736341000,7.018341064453125,-0.0279541015625,0.9596099853515625,0.055938720703125
1772806384746272000,7.02827197265625,-0.009552001953125,0.9561767578125,0.06878662109375
1772806384756203800,7.038203857421875,0.0037078857421875,0.9722442626953125,0.086639404296875
1772806384766135800,7.0481357421875,0.0231475830078125,0.982391357421875,0.0950164794921875
1772806384776067000,7.058067138671875,0.0330352783203125,0.97747802734375,0.095184326171875
1772806384785999000,7.0679990234375,0.031097412109375,0.985015869140625,0.089385986328125
1772806384795929900,7.077929931640625,0.02655029296875,0.9979400634765625,0.092926025390625
1772806384805862000,7.08786181640625,0.0147857666015625,1.00653076171875,0.1004180908203125
1772806384815793200,7.097793212890625,-0.0206146240234375,1.007965087890625,0.0998382568359375
1772806384825725200,7.10772509765625,-0.035247802734375,1.001434326171875,0.0985260009765625
1772806384835656000,7.117656005859375,-0.050933837890625,1.0006103515625,0.1010589599609375
1772806384845588000,7.127587890625,-0.0751953125,1.00567626953125,0.1029815673828125
1772806384855519000,7.13751904296875,-0.0689239501953125,1.0297698974609375,0.0966949462890625
1772806384865451000,7.147450927734375,-0.0508880615234375,1.068634033203125,0.095855712890625
1772806384875382000,7.157382080078125,-0.054931640625,1.1090850830078125,0.08734130859375
1772806384885314000,7.16731396484375,-0.0792083740234375,1.1408233642578125,0.0574493408203125
1772806384895245000,7.1772451171875,-0.0978546142578125,1.1651611328125,0.034942626953125
1772806384905176800,7.1871767578125,-0.091552734375,1.169921875,0.0325164794921875
1772806384915107800,7.19710791015625,-0.074493408203125,1.1608428955078125,0.039093017578125
1772806384925040000,7.2070400390625,-0.062774658203125,1.1383819580078125,0.0656890869140625
1772806384934971100,7.21697119140625,-0.0329437255859375,1.1153411865234375,0.1074371337890625
1772806384944903000,7.22690283203125,0.00836181640625,1.1109619140625,0.160736083984375
1772806384954834000,7.236833984375,0.0120849609375,1.1358489990234375,0.2107391357421875
1772806384964766000,7.246765869140625,0.0119171142578125,1.1705780029296875,0.229644775390625
1772806384974697000,7.256697021484375,-0.0120391845703125,1.2126007080078125,0.235137939453125
1772806384984629000,7.26662890625,-0.09674072265625,1.2343902587890625,0.25567626953125
1772806384994560000,7.27656005859375,-0.1837158203125,1.19970703125,0.242523193359375
1772806385004492000,7.286491943359375,-0.2418670654296875,1.1220703125,0.2082672119140625
1772806385014422800,7.2964228515625,-0.2655792236328125,1.04193115234375,0.1954803466796875
1772806385024354800,7.306354736328125,-0.2874603271484375,0.9674224853515625,0.1919403076171875
1772806385034286800,7.316286865234375,-0.296630859375,0.95489501953125,0.1566162109375
1772806385044218000,7.326218017578125,-0.2813873291015625,0.9549560546875,0.1459503173828125
1772806385054150100,7.336150146484375,-0.276763916015625,0.9656524658203125,0.1325531005859375
1772806385064081000,7.346080810546875,-0.246185302734375,0.97882080078125,0.1269073486328125
1772806385074013000,7.356012939453125,-0.2406768798828125,0.9755401611328125,0.1328887939453125
1772806385083944200,7.365944091796875,-0.2299652099609375,0.9708251953125,0.1551055908203125
1772806385093876000,7.3758759765625,-0.1934814453125,0.9649810791015625,0.1689910888671875
1772806385103807000,7.385806884765625,-0.1644287109375,0.89935302734375,0.2117767333984375
1772806385113739000,7.395739013671875,-0.13592529296875,0.875946044921875,0.2641754150390625
1772806385123670000,7.405669921875,-0.134246826171875,0.911529541015625,0.280517578125
1772806385133601800,7.415601806640625,-0.156280517578125,0.932891845703125,0.2702178955078125
1772806385143533000,7.425532958984375,-0.1827545166015625,0.9240264892578125,0.26287841796875
1772806385153465000,7.435465087890625,-0.235260009765625,0.90545654296875,0.2583465576171875
1772806385163395800,7.445395751953125,-0.2810516357421875,0.8617095947265625,0.2237701416015625
1772806385173328000,7.455327880859375,-0.3159332275390625,0.8230438232421875,0.2079315185546875
1772806385183259600,7.465259765625,-0.3382568359375,0.8018341064453125,0.22039794921875
1772806385193191700,7.475191650390625,-0.3456573486328125,0.8022308349609375,0.227386474609375
1772806385203123000,7.485123046875,-0.3502044677734375,0.8122711181640625,0.226898193359375
1772806385213055000,7.495054931640625,-0.3340606689453125,0.8087921142578125,0.2208099365234375
1772806385222985700,7.50498583984375,-0.3014984130859375,0.7969818115234375,0.2164154052734375
1772806385232917800,7.514917724609375,-0.2787628173828125,0.7769927978515625,0.219207763671875
1772806385242848800,7.524848876953125,-0.26580810546875,0.768951416015625,0.214385986328125
1772806385252780800,7.53478076171875,-0.250244140625,0.7629852294921875,0.2073822021484375
1772806385262711800,7.5447119140625,-0.2381134033203125,0.7662811279296875,0.2005615234375
1772806385272643800,7.554643798828125,-0.2436981201171875,0.7696380615234375,0.2015533447265625
1772806385282574800,7.564574951171875,-0.2497100830078125,0.76849365234375,0.20458984375
1772806385292507000,7.5745068359375,-0.268829345703125,0.77911376953125,0.210418701171875
1772806385302438000,7.58443798828125,-0.2949371337890625,0.806121826171875,0.2069244384765625
1772806385312370000,7.594369873046875,-0.320098876953125,0.8268585205078125,0.1947784423828125
1772806385322301000,7.604301025390625,-0.3434295654296875,0.840301513671875,0.196441650390625
1772806385332232700,7.614232666015625,-0.3579254150390625,0.8522796630859375,0.1954345703125
1772806385342163700,7.624163818359375,-0.3729248046875,0.86602783203125,0.1922760009765625
1772806385352095700,7.634095703125,-0.377227783203125,0.8779754638671875,0.1843109130859375
1772806385362027000,7.644027099609375,-0.3798065185546875,0.8847503662109375,0.1624755859375
1772806385371958800,7.653958740234375,-0.3699188232421875,0.891357421875,0.138824462890625
1772806385381890800,7.663890869140625,-0.366302490234375,0.8929443359375,0.130157470703125
1772806385391821800,7.67382177734375,-0.3668365478515625,0.88214111328125,0.125030517578125
1772806385401753900,7.68375390625,-0.3594818115234375,0.86260986328125,0.12066650390625
1772806385411684900,7.693684814453125,-0.3602142333984375,0.8529205322265625,0.1177978515625
1772806385421617000,7.703616943359375,-0.358917236328125,0.8455810546875,0.1158294677734375
1772806385431548000,7.7135478515625,-0.3592987060546875,0.846771240234375,0.116424560546875
1772806385441480000,7.72347998046875,-0.3713836669921875,0.8555450439453125,0.1087646484375
1772806385451410700,7.73341064453125,-0.3956756591796875,0.861175537109375,0.0967559814453125
1772806385461342700,7.7433427734375,-0.4018096923828125,0.8619232177734375,0.088104248046875
1772806385471274000,7.75327392578125,-0.4014739990234375,0.8663177490234375,0.08538818359375
1772806385481206000,7.7632060546875,-0.4120330810546875,0.881561279296875,0.0821380615234375
1772806385491136800,7.77313671875,-0.4167938232421875,0.895294189453125,0.094818115234375
1772806385501068800,7.78306884765625,-0.4074554443359375,0.9027099609375,0.107177734375
1772806385510999800,7.792999755859375,-0.402587890625,0.906524658203125,0.113677978515625
1772806385520931800,7.802931884765625,-0.405487060546875,0.9163665771484375,0.120086669921875
1772806385530862800,7.81286279296875,-0.386810302734375,0.928741455078125,0.1328277587890625
1772806385540795000,7.822794921875,-0.381622314453125,0.9393157958984375,0.1181182861328125
1772806385550726000,7.832725830078125,-0.4002227783203125,0.949951171875,0.093719482421875
1772806385560657700,7.84265771484375,-0.4117431640625,0.9596710205078125,0.095733642578125
1772806385570589000,7.8525888671875,-0.4225006103515625,0.9697723388671875,0.1137237548828125
1772806385580521000,7.86252099609375,-0.4294281005859375,0.973724365234375,0.1211700439453125
1772806385590451700,7.87245166015625,-0.43231201171875,0.9608612060546875,0.13824462890625
1772806385600383700,7.8823837890625,-0.4334716796875,0.95196533203125,0.173248291015625
1772806385610314800,7.892314697265625,-0.4341888427734375,0.9427032470703125,0.1924896240234375
1772806385620246800,7.902246826171875,-0.4349212646484375,0.9301605224609375,0.1950225830078125
1772806385630177800,7.912177734375,-0.439453125,0.93048095703125,0.1855621337890625
1772806385640109800,7.92210986328125,-0.4470672607421875,0.937591552734375,0.172271728515625
1772806385650040800,7.932040771484375,-0.4609832763671875,0.96160888671875,0.171173095703125
1772806385659972900,7.941972900390625,-0.4686431884765625,0.9874267578125,0.17974853515625
1772806385669904000,7.95190380859375,-0.449676513671875,1.007049560546875,0.184478759765625
1772806385679836000,7.9618359375,-0.421630859375,1.002593994140625,0.1828155517578125
1772806385689767000,7.971766845703125,-0.394134521484375,0.9623260498046875,0.1933135986328125
1772806385699699000,7.981698974609375,-0.3619384765625,0.909881591796875,0.205718994140625
1772806385709629700,7.991629638671875,-0.334320068359375,0.87054443359375,0.22564697265625
