time,seconds_elapsed,z,y,x
1772806377783028700,0.06502880859375,0.16068167984485626,-0.05772031843662262,0.03491007164120674
1772806377792960800,0.074960693359375,0.1592150181531906,-0.04716162011027336,0.03521730378270149
1772806377802892000,0.08489208984375,0.157319113612175,-0.0327235609292984,0.03921603783965111
1772806377812824000,0.094823974609375,0.14118178188800812,-0.032048724591732025,0.04523308575153351
1772806377822754800,0.1047548828125,0.12454714626073837,-0.0386325903236866,0.034855812788009644
1772806377832686800,0.114686767578125,0.12404964864253998,-0.040079668164253235,0.014903576113283634
1772806377842618000,0.1246181640625,0.14846816658973694,-0.021415434777736664,0.0037366757169365883
1772806377852550100,0.134550048828125,0.177193745970726,0.00719722593203187,-0.005014272406697273
1772806377862481000,0.14448095703125,0.21250300109386444,0.04202418401837349,-0.010009297169744968
1772806377872413000,0.154412841796875,0.2416732907295227,0.07624650001525879,-0.02441973052918911
1772806377882344000,0.164343994140625,0.2543986737728119,0.07277321070432663,-0.042672768235206604
1772806377892276000,0.17427587890625,0.2537985146045685,0.0645715668797493,-0.04965897276997566
1772806377902207700,0.184207763671875,0.2446335107088089,0.06302240490913391,-0.059360869228839874
1772806377912139000,0.194138916015625,0.2022199183702469,0.10731256753206253,-0.07302647829055786
1772806377922071000,0.204071044921875,0.19274252653121948,0.16027244925498962,-0.09303507208824158
1772806377932002000,0.214001953125,0.21543052792549133,0.1797751784324646,-0.10806293040513992
1772806377941933800,0.223933837890625,0.23637175559997559,0.20523181557655334,-0.09624435752630234
1772806377951864800,0.23386474609375,0.26911836862564087,0.22130034863948822,-0.07393737882375717
1772806377961797000,0.243797119140625,0.2993364632129669,0.2330310344696045,-0.03987262398004532
1772806377971728000,0.253727783203125,0.32935866713523865,0.24373029172420502,0.013015195727348328
1772806377981660000,0.263659912109375,0.34154582023620605,0.2457234114408493,0.08935657143592834
1772806377991591000,0.2735908203125,0.3439977467060089,0.24042661488056183,0.17187009751796722
1772806378001523000,0.28352294921875,0.3502008020877838,0.23200036585330963,0.253420889377594
1772806378011454000,0.293453857421875,0.35077163577079773,0.23787252604961395,0.3145400881767273
1772806378021386000,0.303385986328125,0.33427920937538147,0.2394363433122635,0.33029189705848694
1772806378031318000,0.313318115234375,0.31499189138412476,0.20145995914936066,0.2493179440498352
1772806378041249000,0.3232490234375,0.3028467893600464,0.1854192167520523,0.05771122872829437
1772806378051180800,0.333180908203125,0.2819976806640625,0.19880355894565582,-0.1303793489933014
1772806378061111800,0.34311181640625,0.2599339187145233,0.1991548240184784,-0.23074297606945038
1772806378071044000,0.353044189453125,0.2513388395309448,0.20961466431617737,-0.20899160206317902
1772806378080975000,0.36297509765625,0.2489587813615799,0.20124594867229462,-0.12538433074951172
1772806378090907000,0.372906982421875,0.2519550919532776,0.19778357446193695,-0.037560198456048965
1772806378100838000,0.382837890625,0.2642948627471924,0.1960458606481552,0.009933550842106342
1772806378110770000,0.39277001953125,0.26352018117904663,0.19306465983390808,0.03310181945562363
1772806378120701000,0.402700927734375,0.2594447433948517,0.19214612245559692,0.042286526411771774
1772806378130633000,0.412633056640625,0.24867740273475647,0.1964554637670517,0.051916055381298065
1772806378140564000,0.42256396484375,0.24724994599819183,0.18920554220676422,0.06988786160945892
1772806378150496000,0.43249609375,0.24489529430866241,0.18506310880184174,0.09148623049259186
1772806378160426800,0.4424267578125,0.24932093918323517,0.18605807423591614,0.13983245193958282
1772806378170359300,0.452359375,0.250021368265152,0.19574947655200958,0.19744093716144562
1772806378180291300,0.462291259765625,0.2530435025691986,0.22231025993824005,0.2493254393339157
1772806378190222600,0.47222265625,0.2039158195257187,0.22167469561100006,0.2747342586517334
1772806378200154600,0.482154541015625,0.15737441182136536,0.19972838461399078,0.29890191555023193
1772806378210085400,0.49208544921875,0.14766035974025726,0.1588621437549591,0.31338798999786377
1772806378220017400,0.502017333984375,0.08155538141727448,0.10340368002653122,0.3570236265659332
1772806378229948400,0.511948486328125,0.03628205880522728,0.03077169507741928,0.4161936044692993
1772806378239880400,0.52188037109375,-0.023431340232491493,-0.02001718245446682,0.4946484863758087
1772806378249811500,0.5318115234375,-0.06514546275138855,-0.05101555585861206,0.5718961358070374
1772806378259743500,0.541743408203125,-0.06697744876146317,-0.061562471091747284,0.648059606552124
1772806378269674500,0.551674560546875,-0.0751030370593071,-0.024336669594049454,0.7305670380592346
1772806378279606300,0.561606201171875,-0.086682990193367,-0.025249868631362915,0.801820695400238
1772806378289537500,0.57153759765625,-0.11410535871982574,-0.03867746889591217,0.8570367097854614
1772806378299469600,0.581469482421875,-0.16033810377120972,-0.08814488351345062,0.9016188383102417
1772806378309401600,0.591401611328125,-0.21213263273239136,-0.1267009824514389,0.9504550099372864
1772806378319332400,0.601332275390625,-0.2715144753456116,-0.18995718657970428,1.0170907974243164
1772806378329264400,0.611264404296875,-0.34373757243156433,-0.2700076699256897,1.0875104665756226
1772806378339195400,0.6211953125,-0.4190903902053833,-0.3484705090522766,1.1654938459396362
1772806378349127400,0.63112744140625,-0.4918348789215088,-0.38579511642456055,1.255660057067871
1772806378359058400,0.641058349609375,-0.5577803254127502,-0.40796247124671936,1.3286199569702148
1772806378368990500,0.650990478515625,-0.6052101850509644,-0.3795662522315979,1.3425511121749878
1772806378378921500,0.66092138671875,-0.6187571287155151,-0.2719298005104065,1.2832438945770264
1772806378388853500,0.670853515625,-0.5985814929008484,-0.10897266864776611,1.1328672170639038
1772806378398784500,0.680784423828125,-0.557518482208252,-0.06192127242684364,0.996852695941925
1772806378408716500,0.690716552734375,-0.5366090536117554,-0.06174839660525322,0.92195725440979
1772806378418648600,0.700648681640625,-0.5208410024642944,0.06438770145177841,0.8914411664009094
1772806378428579600,0.71057958984375,-0.4620139002799988,0.21279966831207275,0.8575397729873657
1772806378438511400,0.720511474609375,-0.3975454270839691,0.31046658754348755,0.8158226609230042
1772806378448442400,0.7304423828125,-0.3818484842777252,0.33651167154312134,0.8159372210502625
1772806378458374400,0.74037451171875,-0.38296622037887573,0.27856555581092834,0.8219066858291626
1772806378468305400,0.750305419921875,-0.41251009702682495,0.1896038055419922,0.7975717186927795
1772806378478237400,0.760237548828125,-0.4324561059474945,0.06966381520032883,0.7576402425765991
1772806378488168400,0.77016845703125,-0.4513118267059326,0.004755700938403606,0.6826498508453369
1772806378498100500,0.7801005859375,-0.4612651467323303,-0.019352830946445465,0.604870617389679
1772806378508031500,0.790031494140625,-0.4631739854812622,0.006556469481438398,0.5506236553192139
1772806378517963500,0.799963623046875,-0.4569112956523895,0.08448242396116257,0.5182260274887085
1772806378527894500,0.80989453125,-0.4335847795009613,0.13878071308135986,0.506026566028595
1772806378537826600,0.81982666015625,-0.39798256754875183,0.20137378573417664,0.5060169696807861
1772806378547758300,0.82975830078125,-0.35379481315612793,0.29858431220054626,0.5179269909858704
1772806378557689300,0.839689453125,-0.30900657176971436,0.3703780770301819,0.538139820098877
1772806378567621400,0.849621337890625,-0.272015243768692,0.4424956738948822,0.5375683307647705
1772806378577552600,0.859552734375,-0.2379843145608902,0.5264866948127747,0.5158502459526062
1772806378587484400,0.869484375,-0.21702207624912262,0.5858668684959412,0.48441633582115173
1772806378597415400,0.87941552734375,-0.19873414933681488,0.6403487920761108,0.433667927980423
1772806378607347500,0.889347412109375,-0.1987752467393875,0.675513744354248,0.37677666544914246
1772806378617278500,0.899278564453125,-0.201014444231987,0.700035572052002,0.30918166041374207
1772806378627210500,0.90921044921875,-0.23275873064994812,0.7086125016212463,0.23924040794372559
1772806378637141500,0.9191416015625,-0.269570529460907,0.6803755164146423,0.183881014585495
1772806378647073500,0.929073486328125,-0.2957456409931183,0.6528339385986328,0.137032613158226
1772806378657004300,0.93900439453125,-0.30357828736305237,0.6530352830886841,0.08757318556308746
1772806378666936300,0.948936279296875,-0.29554206132888794,0.6592183113098145,0.06525519490242004
1772806378676868400,0.958868408203125,-0.25967568159103394,0.6588199138641357,0.056111764162778854
1772806378686799600,0.968799560546875,-0.2197135090827942,0.6441344618797302,0.02979370579123497
1772806378696731600,0.978731689453125,-0.1965986043214798,0.6097679138183594,-0.008480444550514221
1772806378706662400,0.988662353515625,-0.18959848582744598,0.5571579933166504,-0.054281219840049744
1772806378716594400,0.998594482421875,-0.16238747537136078,0.5016451478004456,-0.08473054319620132
1772806378726525400,1.008525390625,-0.13174420595169067,0.4627842307090759,-0.10384981334209442
1772806378736457500,1.01845751953125,-0.10624337941408157,0.4482883810997009,-0.14562122523784637
1772806378746388500,1.028388427734375,-0.07975228875875473,0.43629828095436096,-0.19337986409664154
1772806378756320500,1.038320556640625,-0.061602313071489334,0.4412996768951416,-0.23775798082351685
1772806378766251500,1.04825146484375,-0.05660573020577431,0.45218080282211304,-0.2674134075641632
1772806378776183300,1.058183349609375,-0.0570286400616169,0.44231563806533813,-0.27868524193763733
1772806378786114600,1.068114501953125,-0.04624049365520477,0.4176415205001831,-0.26892051100730896
1772806378796046600,1.078046630859375,-0.027785856276750565,0.39256519079208374,-0.24933217465877533
1772806378805977300,1.087977294921875,0.0031134115997701883,0.36885198950767517,-0.218318372964859
1772806378815909400,1.097909423828125,0.0236157588660717,0.33165162801742554,-0.21629676222801208
1772806378825841400,1.10784130859375,0.027654707431793213,0.30039381980895996,-0.2428990751504898
1772806378835772400,1.1177724609375,0.016947468742728233,0.2931359112262726,-0.2745334208011627
1772806378845704400,1.127704345703125,-0.014236516319215298,0.30484962463378906,-0.2729242742061615
1772806378855635500,1.137635498046875,-0.03570292890071869,0.33691489696502686,-0.2596406936645508
1772806378865567500,1.1475673828125,-0.055582672357559204,0.35875630378723145,-0.23037320375442505
1772806378875498500,1.15749853515625,-0.05753849819302559,0.35198789834976196,-0.19564931094646454
1772806378885430300,1.16743017578125,-0.05549311637878418,0.33039477467536926,-0.15208204090595245
1772806378895361500,1.177361572265625,-0.044806648045778275,0.314985990524292,-0.10659952461719513
1772806378905293600,1.18729345703125,-0.028889469802379608,0.31177929043769836,-0.07665707170963287
1772806378915224600,1.197224609375,-0.013913183473050594,0.33286139369010925,-0.06528670340776443
1772806378925156400,1.20715625,-0.009864912368357182,0.3248963952064514,-0.061481576412916183
1772806378935087400,1.21708740234375,-0.024465160444378853,0.30798372626304626,-0.05166276916861534
1772806378945019400,1.227019287109375,-0.05128979682922363,0.3015630841255188,-0.054089341312646866
1772806378954951400,1.236951416015625,-0.0974985733628273,0.3038738965988159,-0.08420410007238388
1772806378964882400,1.24688232421875,-0.15474535524845123,0.28430137038230896,-0.12592901289463043
1772806378974814500,1.256814453125,-0.21557168662548065,0.2356501817703247,-0.16924212872982025
1772806378984745500,1.266745361328125,-0.24168170988559723,0.15990394353866577,-0.2185860425233841
1772806378994677500,1.276677490234375,-0.2222675234079361,0.08977145701646805,-0.2896791100502014
1772806379004608500,1.2866083984375,-0.18279317021369934,0.06847645342350006,-0.342040479183197
1772806379014540500,1.29654052734375,-0.14726606011390686,0.0891345962882042,-0.35812437534332275
1772806379024471600,1.306471435546875,-0.1282963901758194,0.11849666386842728,-0.36721310019493103
1772806379034403600,1.316403564453125,-0.11037332564592361,0.14282411336898804,-0.38282349705696106
1772806379044334300,1.326334228515625,-0.08538369834423065,0.17297139763832092,-0.4095272719860077
1772806379054266400,1.336266357421875,-0.06481344252824783,0.18671411275863647,-0.4384763538837433
1772806379064197600,1.34619775390625,-0.04405698925256729,0.1567447930574417,-0.4596681296825409
1772806379074129400,1.35612939453125,-0.03580544888973236,0.1112377792596817,-0.48117074370384216
1772806379084061400,1.3660615234375,-0.04219595342874527,0.08619729429483414,-0.4944777488708496
1772806379093992400,1.375992431640625,-0.04967570677399635,0.06046157330274582,-0.5129027962684631
1772806379103924500,1.385924560546875,-0.05987827479839325,0.023794107139110565,-0.5326898694038391
1772806379113855500,1.39585546875,-0.06431137770414352,0.0016501890495419502,-0.5565611124038696
1772806379123787500,1.40578759765625,-0.05670571327209473,-0.008018325082957745,-0.5661855340003967
1772806379133718500,1.415718505859375,-0.05015513673424721,-0.0005417671054601669,-0.5590133666992188
1772806379143650600,1.425650634765625,-0.04955170303583145,-0.00029976433143019676,-0.5462710857391357
1772806379153581300,1.435581298828125,-0.04702116921544075,-0.00040549179539084435,-0.5421119928359985
1772806379163513300,1.445513427734375,-0.03667855262756348,0.001959138549864292,-0.5385683178901672
1772806379173444900,1.45544482421875,-0.01829581707715988,0.011449579149484634,-0.5396324992179871
1772806379183377000,1.465376953125,0.008978070691227913,-0.00229026866145432,-0.5369918346405029
1772806379193307600,1.4753076171875,0.028610626235604286,-0.0341014601290226,-0.5228227376937866
1772806379203239700,1.48523974609375,0.04511479288339615,-0.06152551248669624,-0.5232166051864624
1772806379213170700,1.495170654296875,0.07106197625398636,-0.07565811276435852,-0.5235234498977661
1772806379223102700,1.505102783203125,0.08948876708745956,-0.05144345760345459,-0.49756813049316406
1772806379233034800,1.51503466796875,0.09328190237283707,-0.032230082899332047,-0.4078608751296997
1772806379242965800,1.5249658203125,0.10575879365205765,-0.10360141098499298,-0.2730760872364044
1772806379252897800,1.534897705078125,0.09929344058036804,-0.31310003995895386,-0.1408965140581131
1772806379262828800,1.544828857421875,0.07434581965208054,-0.5190943479537964,-0.016972733661532402
1772806379272760600,1.554760498046875,0.06006035953760147,-0.5887323021888733,0.14500685036182404
1772806379282691800,1.56469189453125,-0.02222578413784504,-0.6769571900367737,0.3120195269584656
1772806379292624000,1.574623779296875,-0.21939504146575928,-0.6759728789329529,0.28815385699272156
1772806379302555000,1.584554931640625,-0.3958621919155121,-0.7908197641372681,-0.04436737298965454
1772806379312486700,1.594486572265625,-0.43626153469085693,-0.8951696157455444,-0.33486923575401306
1772806379322417700,1.604417724609375,-0.38697877526283264,-0.8669019341468811,-0.5837153196334839
1772806379332349700,1.614349609375,-0.3042985498905182,-0.7633460164070129,-0.8002148270606995
1772806379342280700,1.62428076171875,-0.21062353253364563,-0.6181591153144836,-0.9891907572746277
1772806379352212700,1.634212646484375,-0.07274527847766876,-0.5166221261024475,-1.147268533706665
1772806379362144800,1.644144775390625,0.09035512059926987,-0.43297502398490906,-1.2538903951644897
1772806379372075800,1.65407568359375,0.27871784567832947,-0.3837667405605316,-1.2929773330688477
1772806379382007800,1.6640078125,0.4997435212135315,-0.26390352845191956,-1.2406206130981445
1772806379391938600,1.6739384765625,0.6580958962440491,-0.24495939910411835,-1.075021505355835
1772806379401870800,1.683870849609375,0.594483494758606,-0.24640730023384094,-0.8867443203926086
1772806379411801900,1.6938017578125,0.4014543890953064,-0.18490958213806152,-0.7697961330413818
1772806379421734000,1.70373388671875,0.17248192429542542,-0.2838027775287628,-0.7324445843696594
1772806379431664600,1.71366455078125,0.0109670739620924,-0.4216514527797699,-0.8052830696105957
1772806379441596700,1.7235966796875,-0.026819299906492233,-0.6147323250770569,-0.9173130393028259
1772806379451528000,1.73352783203125,-0.054572898894548416,-0.910087525844574,-1.0115306377410889
1772806379461459700,1.743459716796875,-0.13373719155788422,-1.1474887132644653,-1.0985418558120728
1772806379471390700,1.753390625,-0.24476464092731476,-1.338443398475647,-1.1645046472549438
1772806379481322800,1.76332275390625,-0.3707178235054016,-1.5693504810333252,-1.1936572790145874
1772806379491253800,1.773253662109375,-0.47631534934043884,-1.7801804542541504,-1.2163617610931396
1772806379501185500,1.783185546875,-0.5415340065956116,-1.8612912893295288,-1.2314300537109375
1772806379511117800,1.793117919921875,-0.5266695618629456,-1.8265889883041382,-1.1901859045028687
1772806379521048800,1.803048828125,-0.41337868571281433,-1.7029913663864136,-1.0888983011245728
1772806379530980900,1.81298095703125,-0.269715279340744,-1.5237253904342651,-0.9406790137290955
1772806379540911600,1.82291162109375,-0.1331208199262619,-1.3463078737258911,-0.7837726473808289
1772806379550843600,1.83284375,-0.005865136161446571,-1.2150102853775024,-0.6497562527656555
1772806379560775000,1.84277490234375,0.12060544639825821,-1.158414363861084,-0.5646798014640808
1772806379570707000,1.85270703125,0.22624798119068146,-1.1703252792358398,-0.5514537692070007
1772806379580637700,1.8626376953125,0.23458848893642426,-1.1992566585540771,-0.5875446200370789
1772806379590569700,1.87256982421875,0.1827649623155594,-1.2147762775421143,-0.6374626159667969
1772806379600500700,1.882500732421875,0.1311868131160736,-1.2110214233398438,-0.6939989924430847
1772806379610432500,1.8924326171875,0.08471306413412094,-1.2783541679382324,-0.7292197942733765
1772806379620363800,1.90236376953125,0.038281407207250595,-1.3181610107421875,-0.7386372685432434
1772806379630295800,1.9122958984375,0.04143325984477997,-1.2652781009674072,-0.7016443610191345
1772806379640226800,1.922226806640625,0.042189646512269974,-1.3811310529708862,-0.6321211457252502
1772806379650158600,1.93215869140625,0.05590013042092323,-1.3362247943878174,-0.5486835241317749
1772806379660090600,1.942090576171875,0.10891373455524445,-1.2534443140029907,-0.4664326608181
1772806379670022000,1.95202197265625,0.16376259922981262,-1.181715965270996,-0.3947552740573883
1772806379679954000,1.961953857421875,0.2101125419139862,-1.1172910928726196,-0.33536168932914734
1772806379689884700,1.971884765625,0.2343110889196396,-1.0894618034362793,-0.29829928278923035
1772806379699816700,1.981816650390625,0.23497232794761658,-1.0777217149734497,-0.3062155544757843
1772806379709747700,1.991747802734375,0.23952527344226837,-1.065684199333191,-0.3547881543636322
1772806379719679700,2.0016796875,0.2475486695766449,-1.0398601293563843,-0.41905200481414795
1772806379729610800,2.01161083984375,0.25305768847465515,-1.0306682586669922,-0.4946277141571045
1772806379739542800,2.021542724609375,0.27078595757484436,-1.0145961046218872,-0.5509330034255981
1772806379749473800,2.031473876953125,0.2819286286830902,-0.9770755767822266,-0.5695405006408691
1772806379759405800,2.04140576171875,0.2793932557106018,-0.9466465711593628,-0.5563157796859741
1772806379769336600,2.051336669921875,0.27946463227272034,-0.949030876159668,-0.5170173645019531
1772806379779268900,2.061268798828125,0.28730177879333496,-0.9571520090103149,-0.5018117427825928
1772806379789200000,2.071199951171875,0.3119349479675293,-0.9476109743118286,-0.5002785921096802
1772806379799131600,2.081131591796875,0.34295475482940674,-0.9380975961685181,-0.5045347213745117
1772806379809063700,2.091063720703125,0.3767228424549103,-0.9197449684143066,-0.4851352274417877
1772806379818994700,2.10099462890625,0.3966062664985657,-0.9139348864555359,-0.42635902762413025
1772806379828926700,2.1109267578125,0.38025686144828796,-0.9147136211395264,-0.3349561393260956
1772806379838857700,2.120857666015625,0.34878283739089966,-0.9256165623664856,-0.24035663902759552
1772806379848789800,2.130789794921875,0.3111979067325592,-0.9484571814537048,-0.1785247027873993
1772806379858720800,2.140720703125,0.2806001305580139,-0.961591899394989,-0.14761772751808167
1772806379868652800,2.15065283203125,0.26200008392333984,-0.9462148547172546,-0.13007575273513794
1772806379878583600,2.16058349609375,0.24800825119018555,-0.9254837036132812,-0.09452148526906967
1772806379888515600,2.170515625,0.2502133548259735,-0.9336715936660767,-0.049061328172683716
1772806379898446800,2.18044677734375,0.24682030081748962,-0.9436661601066589,-0.0007294142851606011
1772806379908379000,2.19037890625,0.22966714203357697,-0.9504973888397217,0.051354292780160904
1772806379918309600,2.2003095703125,0.21702945232391357,-0.9670592546463013,0.11603934317827225
1772806379928241700,2.21024169921875,0.2230559140443802,-1.0139710903167725,0.15688106417655945
1772806379938173000,2.2201728515625,0.2210414707660675,-1.0627844333648682,0.1586669385433197
1772806379948105000,2.23010498046875,0.22355416417121887,-1.1092064380645752,0.13519197702407837
1772806379958036700,2.24003662109375,0.22220295667648315,-1.1159992218017578,0.13152126967906952
1772806379967967700,2.2499677734375,0.22917644679546356,-1.0836210250854492,0.16655835509300232
1772806379977899800,2.259899658203125,0.2346692532300949,-1.0376701354980469,0.23230859637260437
1772806379987830500,2.26983056640625,0.24139080941677094,-0.9475811123847961,0.31568577885627747
1772806379997762600,2.279762451171875,0.2717604339122772,-0.8742098808288574,0.41790032386779785
1772806380007693800,2.28969384765625,0.3102114200592041,-0.8620818257331848,0.5331236124038696
1772806380017625900,2.2996259765625,0.30608904361724854,-0.9161664843559265,0.650427520275116
1772806380027556600,2.309556640625,0.24104562401771545,-0.9312738180160522,0.7846679091453552
1772806380037488600,2.319488525390625,0.11173377186059952,-0.8733262419700623,0.9570769667625427
1772806380047420000,2.329419921875,-0.04363531619310379,-0.772397518157959,1.2093480825424194
1772806380057352000,2.33935205078125,-0.19329030811786652,-0.6481821537017822,1.519372582435608
1772806380067282700,2.34928271484375,-0.35298433899879456,-0.5611463189125061,1.7696396112442017
1772806380077214700,2.359214599609375,-0.4872961938381195,-0.6112646460533142,1.888197422027588
1772806380087145700,2.369145751953125,-0.6050339937210083,-0.7073422074317932,1.8845888376235962
1772806380097077800,2.379077880859375,-0.6906065940856934,-0.875031590461731,1.8258028030395508
1772806380107009500,2.389009521484375,-0.7182102203369141,-0.9524398446083069,1.7688689231872559
1772806380116940800,2.39894091796875,-0.73343425989151,-0.9514000415802002,1.7777414321899414
1772806380126872800,2.408872802734375,-0.7565643787384033,-0.9594494104385376,1.8039599657058716
1772806380136803600,2.418803466796875,-0.7808060050010681,-0.9293181300163269,1.7769588232040405
1772806380146735600,2.428735595703125,-0.7793064117431641,-0.8605273365974426,1.719307780265808
1772806380156667000,2.4386669921875,-0.7184635996818542,-0.8756082653999329,1.6406441926956177
1772806380166599000,2.448598876953125,-0.6558231115341187,-0.9157285094261169,1.556542992591858
1772806380176529700,2.45852978515625,-0.5716896653175354,-0.8193204998970032,1.4444477558135986
1772806380186461700,2.468461669921875,-0.45998018980026245,-0.593161940574646,1.3493311405181885
1772806380196392400,2.478392333984375,-0.3581851124763489,-0.32464393973350525,1.3240725994110107
1772806380206324500,2.488324462890625,-0.310202419757843,-0.07226202636957169,1.3142192363739014
1772806380216255700,2.498255859375,-0.29250240325927734,0.05600595846772194,1.2938483953475952
1772806380226187500,2.5081875,-0.3399013578891754,0.04072980210185051,1.2278501987457275
1772806380236118500,2.518118408203125,-0.3624523878097534,0.047502655535936356,1.193130373954773
1772806380246050600,2.528050537109375,-0.3683300018310547,-0.025604844093322754,1.119850516319275
1772806380255981600,2.537981689453125,-0.3838285505771637,0.013869698159396648,1.021310567855835
1772806380265913600,2.54791357421875,-0.38975435495376587,0.1341303288936615,0.913479208946228
1772806380275845600,2.557845703125,-0.3476646840572357,0.2090560346841812,0.8507170677185059
1772806380285776600,2.567776611328125,-0.3023057281970978,0.3338581621646881,0.7894513010978699
1772806380295708700,2.577708740234375,-0.2758864164352417,0.477646142244339,0.6984209418296814
1772806380305639400,2.587639404296875,-0.27218806743621826,0.6093522310256958,0.5799086689949036
1772806380315571500,2.597571533203125,-0.29996681213378906,0.7025393843650818,0.4910537600517273
1772806380325502700,2.607502685546875,-0.3403659164905548,0.7998046875,0.434483140707016
1772806380335434800,2.617434814453125,-0.3524731993675232,0.8439799547195435,0.38634008169174194
1772806380345365500,2.627365478515625,-0.35091713070869446,0.8713729977607727,0.32013043761253357
1772806380355297500,2.637297607421875,-0.33765411376953125,0.8978216648101807,0.2586257755756378
1772806380365228500,2.647228515625,-0.32332658767700195,0.8855303525924683,0.1897692233324051
1772806380375160600,2.65716064453125,-0.28058046102523804,0.849036455154419,0.1037629023194313
1772806380385091600,2.667091552734375,-0.2097664624452591,0.7944355607032776,-0.0007411325932480395
1772806380395023600,2.677023681640625,-0.12658104300498962,0.7223462462425232,-0.1137150228023529
1772806380404954600,2.68695458984375,-0.06334881484508514,0.6700124740600586,-0.24401789903640747
1772806380414886400,2.696886474609375,-0.03327016159892082,0.6340351700782776,-0.36240389943122864
1772806380424818400,2.706818359375,-0.021851591765880585,0.6065481901168823,-0.4684738516807556
1772806380434749700,2.716749755859375,-0.013796452432870865,0.5743083953857422,-0.5600786805152893
1772806380444681700,2.726681640625,-0.016043895855545998,0.5365748405456543,-0.6299278140068054
1772806380454612500,2.736612548828125,-0.0228700153529644,0.4857846200466156,-0.6888972520828247
1772806380464544500,2.74654443359375,-0.025713738054037094,0.443014532327652,-0.7531409859657288
1772806380474475500,2.7564755859375,-0.03462057560682297,0.431009978055954,-0.786838173866272
1772806380484407600,2.766407470703125,-0.021717557683587074,0.4464975893497467,-0.8007686734199524
1772806380494338600,2.776338623046875,-0.0018825511215254664,0.4685235023498535,-0.819510817527771
1772806380504270600,2.7862705078125,0.010414328426122665,0.48697465658187866,-0.8256102800369263
1772806380514201600,2.79620166015625,0.016198931261897087,0.5414221882820129,-0.7911455035209656
1772806380524133600,2.806133544921875,0.011694993823766708,0.6310370564460754,-0.7368684411048889
1772806380534064600,2.816064697265625,-0.012007701210677624,0.6869260668754578,-0.6553707122802734
1772806380543996700,2.82599658203125,-0.0628245398402214,0.6910994648933411,-0.5165441036224365
1772806380553927700,2.835927734375,-0.13073834776878357,0.6698181629180908,-0.34184420108795166
1772806380563859500,2.845859375,-0.22496578097343445,0.5575315952301025,-0.19518257677555084
1772806380573790500,2.85579052734375,-0.3525669574737549,0.4485480487346649,-0.09781482070684433
1772806380583722500,2.865722412109375,-0.459176242351532,0.33812645077705383,0.001348251709714532
1772806380593654500,2.875654541015625,-0.5294427275657654,0.2646971642971039,0.10615299642086029
1772806380603585500,2.88558544921875,-0.5696995854377747,0.24696584045886993,0.1917690932750702
1772806380613517600,2.895517578125,-0.5673076510429382,0.2962169945240021,0.2762986421585083
1772806380623448600,2.905448486328125,-0.5137786865234375,0.4982300102710724,0.3584699332714081
1772806380633380600,2.915380615234375,-0.442573606967926,0.7381734251976013,0.4490218162536621
1772806380643311600,2.9253115234375,-0.3532724976539612,0.8939704895019531,0.517098069190979
1772806380653243600,2.93524365234375,-0.25445356965065,1.00087308883667,0.5653560757637024
1772806380663174700,2.945174560546875,-0.1667838990688324,1.0123281478881836,0.5859510898590088
1772806380673106700,2.955106689453125,-0.07975360751152039,0.9241357445716858,0.5303124785423279
1772806380683037400,2.965037353515625,-0.0007219014805741608,0.8231313824653625,0.41479039192199707
1772806380692969500,2.974969482421875,0.06582614034414291,0.7637937664985657,0.2819920480251312
1772806380702900700,2.984900634765625,0.07604175806045532,0.753604531288147,0.11831521987915039
1772806380712832800,2.994832763671875,0.06699410825967789,0.7656694650650024,-0.051776718348264694
1772806380722763500,3.004763427734375,0.053871117532253265,0.7369528412818909,-0.19837228953838348
1772806380732695600,3.014695556640625,-0.012235544621944427,0.5756214261054993,-0.2972758710384369
1772806380742626600,3.02462646484375,-0.14259354770183563,0.3174857795238495,-0.3355439007282257
1772806380752558600,3.03455859375,-0.2984052300453186,0.02981107495725155,-0.3303548991680145
1772806380762490600,3.04449072265625,-0.43484213948249817,-0.23397423326969147,-0.36000627279281616
1772806380772421600,3.054421630859375,-0.45247259736061096,-0.4356347322463989,-0.3775046169757843
1772806380782353700,3.064353759765625,-0.34331709146499634,-0.4613105356693268,-0.22545917332172394
1772806380792284400,3.074284423828125,-0.2340504229068756,-0.35826414823532104,0.0036756221670657396
1772806380802216400,3.084216552734375,-0.2316269427537918,-0.0988411083817482,0.01764070615172386
1772806380812147700,3.094147705078125,-0.257194846868515,0.19410787522792816,-0.05125240981578827
1772806380822079700,3.104079833984375,-0.2267160564661026,0.2605774402618408,-0.07979962974786758
1772806380832010500,3.114010498046875,-0.08342175930738449,0.027599653229117393,-0.21612891554832458
1772806380841942500,3.123942626953125,0.14550915360450745,-0.20181623101234436,-0.5396369099617004
1772806380851873500,3.13387353515625,0.3357417583465576,-0.3363674581050873,-0.9200385808944702
1772806380861805600,3.1438056640625,0.43440014123916626,-0.2754971981048584,-1.298750638961792
1772806380871736600,3.153736572265625,0.49337130784988403,-0.11950404942035675,-1.5648972988128662
1772806380881668600,3.163668701171875,0.5857779383659363,-0.0390976220369339,-1.5435490608215332
1772806380891599600,3.173599609375,0.5575888752937317,0.02336878329515457,-1.2917231321334839
1772806380901531400,3.183531494140625,0.3908621668815613,0.0377381332218647,-0.9890381097793579
1772806380911462700,3.193462646484375,0.14901204407215118,-0.16015124320983887,-0.7618170380592346
1772806380921394700,3.203394775390625,-0.08412214368581772,-0.24912212789058685,-0.7654674649238586
1772806380931326700,3.21332666015625,-0.17734846472740173,-0.26251375675201416,-0.9581028819084167
1772806380941257500,3.223257568359375,-0.12884430587291718,-0.2569868862628937,-1.2051494121551514
1772806380951189500,3.233189453125,-0.03144753724336624,-0.32717394828796387,-1.3945399522781372
1772806380961120500,3.24312060546875,0.027069831266999245,-0.42078033089637756,-1.4553470611572266
1772806380971052500,3.253052490234375,0.03762003779411316,-0.5318965315818787,-1.4268524646759033
1772806380980983600,3.262983642578125,0.01407316792756319,-0.6534026861190796,-1.3706350326538086
1772806380990915600,3.27291552734375,-0.018660731613636017,-0.8150591850280762,-1.3174806833267212
1772806381000846600,3.2828466796875,-0.0706256628036499,-1.0020301342010498,-1.2403219938278198
1772806381010778600,3.292778564453125,-0.127629354596138,-1.099854826927185,-1.1514071226119995
1772806381020709600,3.302709716796875,-0.17378832399845123,-1.1336301565170288,-1.0169867277145386
1772806381030641700,3.3126416015625,-0.15662354230880737,-1.1016602516174316,-0.8627622723579407
1772806381040572700,3.32257275390625,-0.06651042401790619,-0.9944219589233398,-0.7431597113609314
1772806381050504700,3.332504638671875,0.052628546953201294,-0.8873595595359802,-0.6685179471969604
1772806381060435500,3.342435546875,0.1842574030160904,-0.7855663299560547,-0.6570144295692444
1772806381070367500,3.352367431640625,0.2784009575843811,-0.6631397604942322,-0.6698460578918457
1772806381080298800,3.362298828125,0.309006005525589,-0.5925902128219604,-0.6789655089378357
1772806381090230500,3.37223046875,0.3099411427974701,-0.6452665328979492,-0.6725562214851379
1772806381100162600,3.38216259765625,0.28334495425224304,-0.6851476430892944,-0.6816077828407288
1772806381110093600,3.392093505859375,0.22077025473117828,-0.68009352684021,-0.7073701024055481
1772806381120025600,3.402025634765625,0.16909588873386383,-0.6467046737670898,-0.7388153672218323
1772806381129956600,3.41195654296875,0.10286279022693634,-0.7439057230949402,-0.7767787575721741
1772806381139888600,3.421888671875,0.03625419735908508,-0.8332648873329163,-0.8289434313774109
1772806381149819600,3.431819580078125,0.021745216101408005,-0.8618406653404236,-0.8547860383987427
1772806381159751700,3.441751708984375,0.03793909773230553,-0.7864018678665161,-0.8514970541000366
1772806381169682400,3.451682373046875,0.09192248433828354,-0.6716606020927429,-0.8154346346855164
1772806381179614000,3.461614013671875,0.1617276668548584,-0.5767418146133423,-0.7410392165184021
1772806381189545000,3.471544921875,0.20562522113323212,-0.5494104027748108,-0.6641770005226135
1772806381199476700,3.481476806640625,0.22884266078472137,-0.5727644562721252,-0.6039338707923889
1772806381209407700,3.49140771484375,0.22909744083881378,-0.5920854806900024,-0.5640986561775208
1772806381219339800,3.50133984375,0.22580045461654663,-0.6048348546028137,-0.545391321182251
1772806381229271000,3.51127099609375,0.22149457037448883,-0.6608000993728638,-0.5401518940925598
1772806381239202800,3.521202880859375,0.23682717978954315,-0.7216503620147705,-0.5384935736656189
1772806381249133800,3.5311337890625,0.25403520464897156,-0.7508639097213745,-0.5237271189689636
1772806381259065900,3.54106591796875,0.25299665331840515,-0.7652513980865479,-0.5065661668777466
1772806381268996600,3.55099658203125,0.25429344177246094,-0.7571677565574646,-0.49477308988571167
1772806381278928600,3.5609287109375,0.2515046000480652,-0.7501276731491089,-0.47885429859161377
1772806381288860700,3.570860595703125,0.25647857785224915,-0.7310147285461426,-0.46066758036613464
1772806381298792000,3.5807919921875,0.2629721462726593,-0.7140655517578125,-0.4416502118110657
1772806381308724000,3.590723876953125,0.26504281163215637,-0.7018640637397766,-0.4283050000667572
1772806381318654700,3.60065478515625,0.25841420888900757,-0.6992675065994263,-0.41296520829200745
1772806381328586800,3.610586669921875,0.2564249038696289,-0.6780888438224792,-0.3803117871284485
1772806381338518000,3.62051806640625,0.24354930222034454,-0.6352803707122803,-0.323074072599411
1772806381348449800,3.63044970703125,0.24489398300647736,-0.645697295665741,-0.244203582406044
1772806381358380800,3.640380859375,0.2698104977607727,-0.7160492539405823,-0.1785643845796585
1772806381368312800,3.650312744140625,0.27514997124671936,-0.7838724255561829,-0.16293227672576904
1772806381378243800,3.660243896484375,0.2624855935573578,-0.8014469146728516,-0.20897166430950165
1772806381388175600,3.670175537109375,0.24265840649604797,-0.7785552740097046,-0.25905102491378784
1772806381398107000,3.68010693359375,0.24102960526943207,-0.760809063911438,-0.2688445448875427
1772806381408039000,3.690038818359375,0.25894203782081604,-0.7507508993148804,-0.23583249747753143
1772806381417970000,3.699969970703125,0.2701376974582672,-0.7791993618011475,-0.17844004929065704
1772806381427901700,3.709901611328125,0.26596319675445557,-0.8471279740333557,-0.13816110789775848
1772806381437833000,3.7198330078125,0.24658577144145966,-0.941466748714447,-0.11827342212200165
1772806381447765000,3.729764892578125,0.23610059916973114,-1.0397591590881348,-0.11282166093587875
1772806381457697000,3.739697021484375,0.21656391024589539,-1.1168638467788696,-0.12736891210079193
1772806381467627800,3.749627685546875,0.1883961409330368,-1.1552718877792358,-0.14100615680217743
1772806381477559800,3.759559814453125,0.17933979630470276,-1.151809811592102,-0.12789489328861237
1772806381487490800,3.76949072265625,0.18261604011058807,-1.1078510284423828,-0.07682481408119202
1772806381497422800,3.7794228515625,0.20209652185440063,-1.0766267776489258,0.030161291360855103
1772806381507353900,3.789353759765625,0.24228237569332123,-1.0062634944915771,0.16545963287353516
1772806381517286000,3.799285888671875,0.27100375294685364,-0.8999459743499756,0.3157402276992798
1772806381527217000,3.809216796875,0.2636520564556122,-0.7856996655464172,0.4770262539386749
1772806381537148700,3.819148681640625,0.21476604044437408,-0.648078978061676,0.6778176426887512
1772806381547079700,3.82907958984375,0.12894415855407715,-0.5317903161048889,0.9355564713478088
1772806381557012000,3.839011962890625,0.004316472914069891,-0.5961101651191711,1.1811785697937012
1772806381566943000,3.84894287109375,-0.16792741417884827,-0.8484634160995483,1.340624451637268
1772806381576874800,3.858874755859375,-0.3794630765914917,-1.0785820484161377,1.3776311874389648
1772806381586805800,3.8688056640625,-0.5572279095649719,-1.148079752922058,1.3455671072006226
1772806381596737800,3.87873779296875,-0.6217387318611145,-1.0897139310836792,1.3546288013458252
1772806381606668800,3.888668701171875,-0.5558215379714966,-0.9946328997612,1.4700510501861572
1772806381616600800,3.898600830078125,-0.4781259298324585,-0.9519932866096497,1.7239421606063843
1772806381626531800,3.90853173828125,-0.4505336880683899,-1.036807656288147,2.091125249862671
1772806381636463900,3.9184638671875,-0.5669668316841125,-0.8722693920135498,2.2164978981018066
1772806381646396000,3.92839599609375,-0.8072497844696045,-0.3260408639907837,1.800429344177246
1772806381656326700,3.93832666015625,-0.897469162940979,-0.8193885087966919,1.6930794715881348
1772806381666258700,3.9482587890625,-0.9453788995742798,-1.383604884147644,1.6512806415557861
1772806381676190000,3.95818994140625,-0.9659209847450256,-1.555460810661316,1.6227720975875854
1772806381686122000,3.9681220703125,-0.9166951179504395,-1.4490535259246826,1.60160493850708
1772806381696052700,3.978052734375,-0.8084288239479065,-1.229052186012268,1.564773440361023
1772806381705984800,3.98798486328125,-0.6859899163246155,-0.971329391002655,1.4865494966506958
1772806381715916000,3.997916015625,-0.559963583946228,-0.6433121562004089,1.3721771240234375
1772806381725847800,4.007847900390625,-0.40100449323654175,-0.42709389328956604,1.3054052591323853
1772806381735778800,4.01777880859375,-0.3006691038608551,-0.3187384009361267,1.2956551313400269
1772806381745710800,4.0277109375,-0.28863292932510376,-0.16870233416557312,1.239479422569275
1772806381755641900,4.037641845703125,-0.300235778093338,-0.16243618726730347,1.2145740985870361
1772806381765573600,4.04757373046875,-0.30971357226371765,-0.017928384244441986,1.1296796798706055
1772806381775505000,4.0575048828125,-0.278535395860672,0.03390418738126755,1.10078763961792
1772806381785437000,4.06743701171875,-0.2667538523674011,-0.01716059446334839,1.0775132179260254
1772806381795367700,4.07736767578125,-0.23691581189632416,-0.03870556503534317,0.9629735350608826
1772806381805299700,4.0872998046875,-0.2244265079498291,0.021854396909475327,0.7889117002487183
1772806381815230700,4.097230712890625,-0.2430228292942047,0.15978483855724335,0.6631950736045837
1772806381825163000,4.1071630859375,-0.2904817759990692,0.20613273978233337,0.6130484938621521
1772806381835095000,4.117094970703125,-0.32020825147628784,0.264663428068161,0.5634763836860657
1772806381845025800,4.12702587890625,-0.3034091293811798,0.3236233592033386,0.4996549189090729
1772806381854957800,4.136957763671875,-0.25596413016319275,0.3986526131629944,0.4233212471008301
1772806381864888800,4.146888916015625,-0.20264925062656403,0.46765679121017456,0.37348097562789917
1772806381874820600,4.156820556640625,-0.1523384004831314,0.5851203203201294,0.33163177967071533
1772806381884752000,4.166751953125,-0.11024110019207001,0.6837376356124878,0.27345922589302063
1772806381894684000,4.176683837890625,-0.08570726215839386,0.7026159763336182,0.1925412267446518
1772806381904615000,4.186614990234375,-0.07042845338582993,0.6744300127029419,0.09297597408294678
1772806381914546700,4.196546630859375,-0.06221126765012741,0.5631346106529236,-0.007831329479813576
1772806381924477700,4.206477783203125,-0.049128878861665726,0.44846516847610474,-0.11545582115650177
1772806381934410000,4.216409912109375,-0.03521173447370529,0.3087882101535797,-0.24990816414356232
1772806381944341000,4.226341064453125,-0.008208786137402058,0.19928300380706787,-0.38259392976760864
1772806381954272800,4.236272705078125,0.032449159771203995,0.11996553093194962,-0.49757859110832214
1772806381964203800,4.246203857421875,0.06569479405879974,0.10798235982656479,-0.5897098183631897
1772806381974135800,4.2561357421875,0.07121419161558151,0.13702359795570374,-0.6770293116569519
1772806381984066800,4.26606689453125,0.09551642835140228,0.20987753570079803,-0.773443877696991
1772806381993998800,4.275998779296875,0.12257494032382965,0.27478381991386414,-0.8376470804214478
1772806382003929900,4.285929931640625,0.16043782234191895,0.35401278734207153,-0.8849265575408936
1772806382013862000,4.29586181640625,0.18690244853496552,0.41561970114707947,-0.9011385440826416
1772806382023794000,4.3057939453125,0.20241065323352814,0.43942150473594666,-0.9085692167282104
1772806382033724700,4.315724609375,0.21238552033901215,0.4508459270000458,-0.8571851253509521
1772806382043656700,4.32565673828125,0.23588338494300842,0.48875319957733154,-0.7598569989204407
1772806382053588000,4.335587890625,0.2236616015434265,0.5235167741775513,-0.6446608901023865
1772806382063519700,4.345519775390625,0.1510627418756485,0.5393553376197815,-0.5714901089668274
1772806382073450800,4.35545068359375,0.023181207478046417,0.4914107024669647,-0.5059332251548767
1772806382083383800,4.3653837890625,-0.1351257711648941,0.36267974972724915,-0.434450626373291
1772806382093314800,4.375314697265625,-0.28428542613983154,0.18065029382705688,-0.3484582304954529
1772806382103246800,4.385246826171875,-0.4290488064289093,0.019837021827697754,-0.21484294533729553
1772806382113177900,4.395177734375,-0.5135085582733154,0.005180847365409136,-0.05292140692472458
1772806382123110000,4.40510986328125,-0.5710576772689819,0.10559002310037613,0.10642367601394653
1772806382133041000,4.415041015625,-0.5650197267532349,0.2483687549829483,0.23475287854671478
1772806382142972700,4.42497265625,-0.4709804654121399,0.4767790734767914,0.3416112959384918
1772806382152903700,4.434903564453125,-0.3378746211528778,0.6855626106262207,0.47000524401664734
1772806382162835700,4.444835693359375,-0.19848310947418213,0.7771613597869873,0.5825631618499756
1772806382172768000,4.45476806640625,-0.05020575225353241,0.802588939666748,0.6091460585594177
1772806382182700000,4.464699951171875,0.08878438174724579,0.8026437759399414,0.5282015204429626
1772806382192631000,4.474631103515625,0.18077343702316284,0.7619884610176086,0.34778061509132385
1772806382202563000,4.48456298828125,0.29489532113075256,0.6774207353591919,0.214630126953125
1772806382212493800,4.494493896484375,0.4586099684238434,0.5727063417434692,0.18475931882858276
1772806382222425900,4.50442578125,0.5618630051612854,0.43492257595062256,0.23232001066207886
1772806382232357000,4.514357177734375,0.5511714816093445,0.3718315064907074,0.3155573904514313
1772806382242289200,4.5242890625,0.4642235040664673,0.2592722773551941,0.47931575775146484
1772806382252220000,4.534219970703125,0.3286835253238678,0.2974684238433838,0.6075733304023743
1772806382262152000,4.54415185546875,0.13273417949676514,0.2567729353904724,0.7356758117675781
1772806382272084000,4.554083984375,-0.2074662744998932,-0.015602665953338146,0.8282344937324524
1772806382282014700,4.5640146484375,-0.5838024020195007,-0.5673788189888,0.6019641160964966
1772806382291947000,4.573947021484375,-0.7807548642158508,-1.1405256986618042,0.06251367926597595
1772806382301878000,4.5838779296875,-0.5986123085021973,-1.0533690452575684,-0.33654049038887024
1772806382311810000,4.59381005859375,-0.2154306024312973,-0.38322553038597107,-0.49970492720603943
1772806382321740800,4.60374072265625,0.15303240716457367,0.07600346952676773,-0.5002857446670532
1772806382331672800,4.6136728515625,0.3919360339641571,0.3555496335029602,-0.5174058675765991
1772806382341604000,4.62360400390625,0.5170927047729492,0.42892616987228394,-0.6316993236541748
1772806382351536000,4.6335361328125,0.6390380263328552,0.5172752141952515,-0.7552750706672668
1772806382361467000,4.643466796875,0.6949606537818909,0.8695223331451416,-0.8050149083137512
1772806382371399000,4.65339892578125,0.6118197441101074,1.0479049682617188,-0.6904712319374084
1772806382381330000,4.663329833984375,0.361204594373703,0.5965865254402161,-0.49446985125541687
1772806382391262000,4.673261962890625,0.03417479991912842,0.06354686617851257,-0.3155408501625061
1772806382401193000,4.68319287109375,-0.23628902435302734,-0.1845531016588211,-0.29753151535987854
1772806382411125000,4.693125,-0.3777551054954529,-0.31093233823776245,-0.47211822867393494
1772806382421056000,4.703055908203125,-0.46113255620002747,-0.5251197218894958,-0.6838998198509216
1772806382430987800,4.71298779296875,-0.5181833505630493,-0.7767943143844604,-0.772036075592041
1772806382440919000,4.7229189453125,-0.5553759932518005,-0.9007307291030884,-0.8158126473426819
1772806382450851000,4.73285107421875,-0.5852121710777283,-0.9950777292251587,-0.8540574908256531
1772806382460783000,4.742783203125,-0.5792403221130371,-1.125585913658142,-0.8287097215652466
1772806382470713900,4.7527138671875,-0.5843402743339539,-1.3719121217727661,-0.8065583109855652
1772806382480646000,4.76264599609375,-0.5708838105201721,-1.566933274269104,-0.7701528668403625
1772806382490577000,4.772576904296875,-0.5181215405464172,-1.607264518737793,-0.6998920440673828
1772806382500509000,4.782509033203125,-0.4354475140571594,-1.5938540697097778,-0.5988947153091431
1772806382510440000,4.79243994140625,-0.3261242210865021,-1.525757074356079,-0.4658746123313904
1772806382520372000,4.8023720703125,-0.20399263501167297,-1.4111303091049194,-0.32239004969596863
1772806382530303000,4.812302978515625,-0.04537396505475044,-1.330330491065979,-0.20291641354560852
1772806382540235000,4.822235107421875,0.15553396940231323,-1.2534486055374146,-0.1423969268798828
1772806382550166000,4.832166015625,0.32869404554367065,-1.1333473920822144,-0.16957926750183105
1772806382560098000,4.84209814453125,0.3772452473640442,-0.9865471124649048,-0.27264276146888733
1772806382570029000,4.852029052734375,0.3186067044734955,-0.9116238951683044,-0.39748454093933105
1772806382579961000,4.861961181640625,0.24813784658908844,-0.9254725575447083,-0.4604730010032654
1772806382589891800,4.871891845703125,0.21795012056827545,-0.9278430342674255,-0.4642067551612854
1772806382599824000,4.881823974609375,0.20924024283885956,-0.9413779377937317,-0.4431108236312866
1772806382609755100,4.891755126953125,0.21100005507469177,-0.9819469451904297,-0.38835224509239197
1772806382619687000,4.90168701171875,0.22897879779338837,-0.8884894251823425,-0.3315747082233429
1772806382629618000,4.911617919921875,0.2863885462284088,-0.8348866701126099,-0.2659091353416443
1772806382639550000,4.921550048828125,0.3470480740070343,-0.8271514773368835,-0.17039310932159424
1772806382649482000,4.93148193359375,0.3910458981990814,-0.8195958137512207,-0.08939945697784424
1772806382659412700,4.941412841796875,0.4431423842906952,-0.8854689598083496,-0.06879274547100067
1772806382669345000,4.951344970703125,0.4304257929325104,-0.844465970993042,-0.08912278711795807
1772806382679276000,4.961276123046875,0.365418404340744,-0.8126794695854187,-0.125712051987648
1772806382689208000,4.9712080078125,0.3217092752456665,-0.8686044812202454,-0.1444162279367447
1772806382699138800,4.981138916015625,0.290224552154541,-0.9034366011619568,-0.16064026951789856
1772806382709070800,4.99107080078125,0.26752322912216187,-0.8973845839500427,-0.1762314885854721
1772806382719002000,5.001002197265625,0.24791954457759857,-0.8746674060821533,-0.20813070237636566
1772806382728934100,5.01093408203125,0.24944207072257996,-0.8486427068710327,-0.2630637288093567
1772806382738865000,5.020864990234375,0.2685835063457489,-0.8243418335914612,-0.3187478482723236
1772806382748797000,5.030796875,0.287180632352829,-0.809708833694458,-0.36699849367141724
1772806382758728000,5.04072802734375,0.30381470918655396,-0.7870765924453735,-0.3858540654182434
1772806382768660000,5.050659912109375,0.3171270489692688,-0.7837926745414734,-0.3829248547554016
1772806382778591000,5.060591064453125,0.33838310837745667,-0.7610092163085938,-0.36391499638557434
1772806382788523000,5.07052294921875,0.3676677644252777,-0.7337847352027893,-0.33155572414398193
1772806382798454000,5.0804541015625,0.3828355669975281,-0.7118892073631287,-0.2952701151371002
1772806382808385800,5.0903857421875,0.37988612055778503,-0.673830509185791,-0.25440868735313416
1772806382818317000,5.100317138671875,0.3715890049934387,-0.6783002018928528,-0.2381988912820816
1772806382828249000,5.1102490234375,0.36180296540260315,-0.7410176396369934,-0.2418367713689804
1772806382838180000,5.12018017578125,0.3492371439933777,-0.8151426315307617,-0.25595688819885254
1772806382848111900,5.13011181640625,0.3476262092590332,-0.8700013756752014,-0.2719252109527588
1772806382858044000,5.1400439453125,0.3509535789489746,-0.9074001908302307,-0.28465455770492554
1772806382867975000,5.149974853515625,0.34653034806251526,-0.935839056968689,-0.30244365334510803
1772806382877907000,5.159906982421875,0.3307337462902069,-0.9584874510765076,-0.3261367082595825
1772806382887838000,5.169837890625,0.3160586655139923,-0.9848501086235046,-0.3390711545944214
1772806382897770000,5.17977001953125,0.30569884181022644,-1.0036920309066772,-0.32030147314071655
1772806382907701000,5.189700927734375,0.309841126203537,-0.999893307685852,-0.2635281980037689
1772806382917633000,5.199633056640625,0.3349490463733673,-0.9810382723808289,-0.18934182822704315
1772806382927564000,5.20956396484375,0.3728410303592682,-0.99006187915802,-0.12870138883590698
1772806382937496000,5.21949609375,0.3998744487762451,-1.0189319849014282,-0.08412942290306091
1772806382947427000,5.229427001953125,0.4206039607524872,-1.0859978199005127,-0.06332960724830627
1772806382957358800,5.23935888671875,0.43927183747291565,-1.1544216871261597,-0.04203477129340172
1772806382967289900,5.249289794921875,0.45710116624832153,-1.173139214515686,-0.0023528726305812597
1772806382977222000,5.259221923828125,0.47036516666412354,-1.1872717142105103,0.0702219307422638
1772806382987153200,5.269153076171875,0.44465261697769165,-1.1665043830871582,0.18964925408363342
1772806382997085000,5.2790849609375,0.3837060034275055,-1.106475591659546,0.35504069924354553
1772806383007016000,5.289015869140625,0.33453047275543213,-1.0526565313339233,0.5222576260566711
1772806383016948000,5.298947998046875,0.32797127962112427,-0.9362878799438477,0.6861746311187744
1772806383026878700,5.308878662109375,0.3426913619041443,-0.7767112851142883,0.8461147546768188
1772806383036810800,5.318810791015625,0.34209880232810974,-0.6611518263816833,0.9802019596099854
1772806383046742000,5.328741943359375,0.3006267249584198,-0.4868500530719757,1.106447458267212
1772806383056674000,5.338674072265625,0.25117284059524536,-0.31898027658462524,1.2315200567245483
1772806383066604800,5.348604736328125,0.1943737417459488,-0.2281763255596161,1.3485488891601562
1772806383076536800,5.358536865234375,0.1268616020679474,-0.18865866959095,1.4861706495285034
1772806383086468900,5.36846875,0.052112795412540436,-0.16130055487155914,1.6578142642974854
1772806383096400100,5.378400146484375,0.019766714423894882,-0.05580257996916771,1.7198361158370972
1772806383106332200,5.388332275390625,0.03220154345035553,0.0438971146941185,1.606275200843811
1772806383116263000,5.398262939453125,0.0560731515288353,-0.3247605860233307,1.6123499870300293
1772806383126195000,5.40819482421875,0.09503865242004395,-0.606605052947998,1.5878262519836426
1772806383136126000,5.4181259765625,0.13744112849235535,-0.6756560206413269,1.4901450872421265
1772806383146057700,5.4280576171875,0.1800125539302826,-0.6897686719894409,1.3840540647506714
1772806383155989000,5.437989013671875,0.20285987854003906,-0.6796627044677734,1.3318829536437988
1772806383165921000,5.447921142578125,0.1674526184797287,-0.5658352375030518,1.310483694076538
1772806383175851000,5.45785107421875,0.1339901089668274,-0.4616628885269165,1.2229164838790894
1772806383185782800,5.46778271484375,0.0739331766963005,-0.4501199424266815,1.107426404953003
1772806383195714000,5.477714111328125,0.014304768294095993,-0.551279604434967,0.9746314287185669
1772806383205646000,5.48764599609375,-0.010465825907886028,-0.5570594668388367,0.8437245488166809
1772806383215576800,5.497576904296875,0.007445426192134619,-0.4936779737472534,0.7263237833976746
1772806383225508900,5.5075087890625,0.050886113196611404,-0.4092472493648529,0.5847554802894592
1772806383235440000,5.517440185546875,0.08828694373369217,-0.3282332122325897,0.4402821362018585
1772806383245372200,5.5273720703125,0.11145404726266861,-0.24611730873584747,0.3210050165653229
1772806383255303000,5.537302978515625,0.10559782385826111,-0.25785186886787415,0.22839388251304626
1772806383265235000,5.54723486328125,0.06925046443939209,-0.371511846780777,0.1725415289402008
1772806383275167000,5.5571669921875,0.0011715737637132406,-0.539605975151062,0.1395847350358963
1772806383285098000,5.567097900390625,-0.07464542984962463,-0.6973116993904114,0.1078406497836113
1772806383295029800,5.57702978515625,-0.14329035580158234,-0.797773540019989,0.08232107013463974
1772806383304961000,5.5869609375,-0.20247378945350647,-0.8371233344078064,0.0679064467549324
1772806383314893000,5.59689306640625,-0.21698395907878876,-0.7873340845108032,0.0647122785449028
1772806383324824000,5.606823974609375,-0.19745099544525146,-0.7041627764701843,0.052536044269800186
1772806383334755800,5.616755859375,-0.14845414459705353,-0.6255519390106201,0.027169467881321907
1772806383344687000,5.62668701171875,-0.09403485059738159,-0.6005539298057556,-0.004904578905552626
1772806383354619100,5.636619140625,-0.042027849704027176,-0.5336512327194214,-0.035079825669527054
1772806383364550000,5.6465498046875,-0.0066373697482049465,-0.4475770592689514,-0.05397362262010574
1772806383374482000,5.65648193359375,0.00006640749052166939,-0.31005072593688965,-0.05936835706233978
1772806383384413000,5.666412841796875,-0.019035914912819862,-0.18474845588207245,-0.09164906293153763
1772806383394345000,5.676344970703125,-0.04113808646798134,-0.09625602513551712,-0.13478778302669525
1772806383404276000,5.68627587890625,-0.03548126667737961,-0.04819449409842491,-0.1873900145292282
1772806383414208000,5.6962080078125,0.08169230818748474,-0.06554412841796875,-0.21070776879787445
1772806383424139000,5.706138916015625,0.16452565789222717,-0.0802338570356369,-0.2093500941991806
1772806383434071000,5.716071044921875,0.18240781128406525,-0.05171719565987587,-0.1756913959980011
1772806383444001800,5.726001708984375,0.17771559953689575,-0.04414503276348114,-0.1413310319185257
1772806383453934000,5.73593408203125,0.1537148654460907,-0.05240347608923912,-0.13890622556209564
1772806383463865000,5.745864990234375,0.13788317143917084,-0.06786712259054184,-0.14209243655204773
1772806383473797000,5.755797119140625,0.1248423159122467,-0.06787265837192535,-0.1290494203567505
1772806383483728000,5.765727783203125,0.09769724309444427,-0.09655116498470306,-0.10958438366651535
1772806383493660000,5.775659912109375,0.053697530180215836,-0.1787097007036209,-0.09408409148454666
1772806383503591200,5.785591064453125,-0.008493940345942974,-0.2845551669597626,-0.08503120392560959
1772806383513523200,5.795523193359375,-0.052431557327508926,-0.288461297750473,-0.06232266500592232
1772806383523455000,5.805455078125,-0.07913720607757568,-0.23122651875019073,-0.06286754459142685
1772806383533386000,5.815385986328125,-0.07877403497695923,-0.15447799861431122,-0.07968680560588837
1772806383543318000,5.825318115234375,-0.05548761785030365,-0.08428613096475601,-0.11613163352012634
1772806383553248800,5.835248779296875,-0.02727011777460575,-0.05770760029554367,-0.12345299869775772
1772806383563180800,5.845180908203125,-0.020326457917690277,-0.031019000336527824,-0.11540412902832031
1772806383573112000,5.855112060546875,-0.03694142773747444,-0.017484165728092194,-0.086440309882164
1772806383583044000,5.865044189453125,-0.08806852996349335,-0.11215367913246155,-0.044042255729436874
1772806383592974800,5.874974853515625,-0.1297023445367813,-0.14396777749061584,-0.0071256160736083984
1772806383602907000,5.884906982421875,-0.15855157375335693,-0.14815932512283325,0.015930967405438423
1772806383612838100,5.894838134765625,-0.1654639095067978,-0.11678362637758255,0.04258238151669502
1772806383622770200,5.904770263671875,-0.15214331448078156,-0.07620850205421448,0.05090875178575516
1772806383632701000,5.914700927734375,-0.12841013073921204,-0.06425273418426514,0.06731399148702621
1772806383642633000,5.924633056640625,-0.10706595331430435,-0.054435793310403824,0.08338084816932678
1772806383652564000,5.93456396484375,-0.1031869649887085,-0.08029671758413315,0.09979213774204254
1772806383662496000,5.94449609375,-0.09668511897325516,-0.08798473328351974,0.08072550594806671
1772806383672427000,5.954427001953125,-0.10134268552064896,-0.10710908472537994,0.04389634728431702
1772806383682359000,5.964359130859375,-0.12029879540205002,-0.1280156970024109,0.007831287570297718
1772806383692290000,5.9742900390625,-0.1428142786026001,-0.11483161151409149,-0.018058398738503456
1772806383702222000,5.98422216796875,-0.17389683425426483,-0.15520325303077698,-0.04715130105614662
1772806383712152800,5.99415283203125,-0.19446250796318054,-0.14934325218200684,-0.06305490434169769
1772806383722085000,6.004085205078125,-0.20730826258659363,-0.10715719312429428,-0.058062806725502014
1772806383732016000,6.01401611328125,-0.2029242068529129,-0.03746695816516876,-0.05588533729314804
1772806383741948000,6.023947998046875,-0.2002549171447754,0.0432870090007782,-0.05412125959992409
1772806383751880000,6.0338798828125,-0.18820253014564514,0.07501289248466492,-0.05811047554016113
1772806383761811000,6.04381103515625,-0.17689181864261627,0.051177870482206345,-0.09653057157993317
1772806383771743000,6.053742919921875,-0.15691065788269043,0.04782148823142052,-0.1654995232820511
1772806383781674000,6.063674072265625,-0.13611216843128204,0.06647000461816788,-0.2174740433692932
1772806383791606000,6.07360595703125,-0.11999344825744629,0.06908569484949112,-0.2423814833164215
1772806383801537000,6.083537109375,-0.11196774244308472,0.06922178715467453,-0.24954964220523834
1772806383811469000,6.093468994140625,-0.10657475143671036,0.06839937716722488,-0.24670980870723724
1772806383821399800,6.10339990234375,-0.104500412940979,0.08606092631816864,-0.24434413015842438
1772806383831332000,6.11333203125,-0.092397540807724,0.15549728274345398,-0.23393189907073975
1772806383841263000,6.12326318359375,-0.08212466537952423,0.17669658362865448,-0.2301773726940155
1772806383851195100,6.133195068359375,-0.07195712625980377,0.1918923705816269,-0.22197440266609192
1772806383861126000,6.1431259765625,-0.06936267763376236,0.19792015850543976,-0.24033424258232117
1772806383871058000,6.153057861328125,-0.07365763932466507,0.20902974903583527,-0.2795003354549408
1772806383880989200,6.1629892578125,-0.08842246979475021,0.20834319293498993,-0.3220725655555725
1772806383890921000,6.1729208984375,-0.10447166115045547,0.21288180351257324,-0.34643325209617615
1772806383900852000,6.18285205078125,-0.12877407670021057,0.23697888851165771,-0.35774821043014526
1772806383910784000,6.192783935546875,-0.15925301611423492,0.28379008173942566,-0.35900649428367615
1772806383920715000,6.202715087890625,-0.18827614188194275,0.33109554648399353,-0.3542996346950531
1772806383930646800,6.212646728515625,-0.20658321678638458,0.3796845078468323,-0.3511250913143158
1772806383940578000,6.222578125,-0.2123953104019165,0.4308401048183441,-0.33470457792282104
1772806383950510000,6.232510009765625,-0.08857189863920212,0.43468090891838074,-0.3270660936832428
1772806383960442000,6.242442138671875,0.0293563399463892,0.3919438123703003,-0.3116021752357483
1772806383970372900,6.252372802734375,0.015090861357748508,0.42825302481651306,-0.3367671072483063
1772806383980305000,6.262304931640625,-0.0007187276496551931,0.44104018807411194,-0.38134071230888367
1772806383990236200,6.272236083984375,-0.0006301176617853343,0.4351869523525238,-0.4118904173374176
1772806384000168200,6.282168212890625,0.02276921458542347,0.42371776700019836,-0.4023299515247345
1772806384010099000,6.292098876953125,0.03589059039950371,0.3914377689361572,-0.36438316106796265
1772806384020031000,6.302031005859375,0.011372197419404984,0.38151270151138306,-0.30983787775039673
1772806384029962000,6.3119619140625,-0.05994344502687454,0.3826850950717926,-0.23891384899616241
1772806384039894000,6.32189404296875,-0.1364709734916687,0.36644086241722107,-0.1300177127122879
1772806384049825000,6.331824951171875,-0.12956805527210236,0.2760014235973358,-0.02331520803272724
1772806384059757000,6.341757080078125,-0.04389122873544693,0.21979300677776337,0.014145880937576294
1772806384069688000,6.35168798828125,0.07687157392501831,0.2795912027359009,0.006659599952399731
1772806384079619800,6.361619873046875,0.20270992815494537,0.3689112365245819,0.014878114685416222
1772806384089550800,6.37155078125,0.29843947291374207,0.40426886081695557,0.06049819663167
1772806384099483100,6.381483154296875,0.35991376638412476,0.3855353891849518,0.10922898352146149
1772806384109414100,6.3914140625,0.3778773248195648,0.36339271068573,0.10924846678972244
1772806384119346000,6.401345947265625,0.3685576021671295,0.3794203996658325,0.0715373083949089
1772806384129277000,6.41127685546875,0.3194895386695862,0.3581114113330841,0.041708897799253464
1772806384139209000,6.421208984375,0.22109770774841309,0.31886225938796997,0.0003790323971770704
1772806384149140000,6.431139892578125,0.09405845403671265,0.27088963985443115,-0.056708820164203644
1772806384159072000,6.441072021484375,-0.026957452297210693,0.18870767951011658,-0.11468850076198578
1772806384169003000,6.4510029296875,-0.12617723643779755,0.10681396722793579,-0.19589805603027344
1772806384178935000,6.46093505859375,-0.17694613337516785,0.07262563705444336,-0.2837893068790436
1772806384188865800,6.47086572265625,-0.14784374833106995,0.15087030827999115,-0.3388868272304535
1772806384198797800,6.4807978515625,-0.05690798535943031,0.329704225063324,-0.34387093782424927
1772806384208729900,6.490729736328125,0.01981717348098755,0.48755282163619995,-0.3192477822303772
1772806384218661000,6.5006611328125,0.14079391956329346,0.5883122086524963,-0.2960132956504822
1772806384228593200,6.51059326171875,0.22760267555713654,0.6241937875747681,-0.2904645502567291
1772806384238524000,6.52052392578125,0.19296374917030334,0.6417203545570374,-0.37417516112327576
1772806384248456000,6.5304560546875,0.11859668791294098,0.6255218386650085,-0.48345959186553955
1772806384258387200,6.54038720703125,0.04388836398720741,0.5789085030555725,-0.5788729786872864
1772806384268319000,6.550319091796875,-0.011210815981030464,0.4786514639854431,-0.6171024441719055
1772806384278250000,6.56025,-0.07209254801273346,0.3546602725982666,-0.6508058309555054
1772806384288182000,6.57018212890625,-0.10505764931440353,0.18912510573863983,-0.6718641519546509
1772806384298113000,6.580113037109375,-0.055056799203157425,-0.030426155775785446,-0.6476123332977295
1772806384308044800,6.590044921875,-0.04432321712374687,-0.18139392137527466,-0.6700090765953064
1772806384317976000,6.59997607421875,-0.07160064578056335,-0.26992058753967285,-0.6817200183868408
1772806384327908000,6.609908203125,-0.1236879751086235,-0.32623031735420227,-0.6709362864494324
1772806384337838800,6.6198388671875,-0.15452204644680023,-0.39381974935531616,-0.6594005227088928
1772806384347771000,6.62977099609375,-0.16589301824569702,-0.5003325939178467,-0.6581664085388184
1772806384357702100,6.6397021484375,-0.1736079305410385,-0.5581631064414978,-0.7046534419059753
1772806384367634200,6.64963427734375,-0.1288604587316513,-0.5806769728660583,-0.7835726141929626
1772806384377565000,6.65956494140625,-0.059474729001522064,-0.5481624007225037,-0.8384308218955994
1772806384387497000,6.6694970703125,-0.001074241241440177,-0.4553086459636688,-0.8436880707740784
1772806384397428000,6.679427978515625,0.028623998165130615,-0.377246618270874,-0.8247854709625244
1772806384407360000,6.689360107421875,0.031927090138196945,-0.3367135524749756,-0.8007446527481079
1772806384417291000,6.699291015625,0.040290482342243195,-0.2764608561992645,-0.7994535565376282
1772806384427223000,6.70922314453125,0.0543377660214901,-0.22749356925487518,-0.8155602216720581
1772806384437154000,6.719154052734375,0.06047981232404709,-0.2298336774110794,-0.8352891802787781
1772806384447086000,6.729086181640625,0.056414488703012466,-0.20077531039714813,-0.8382154703140259
1772806384457017900,6.739017822265625,0.05331723019480705,-0.2566167414188385,-0.8268842697143555
1772806384466948900,6.748948974609375,0.041439495980739594,-0.33015352487564087,-0.816948413848877
1772806384476881200,6.758881103515625,0.03574033081531525,-0.302723228931427,-0.8104529976844788
1772806384486812000,6.76881201171875,0.03762546554207802,-0.3123214840888977,-0.7826348543167114
1772806384496744000,6.778743896484375,0.038450781255960464,-0.3463630676269531,-0.7462332248687744
1772806384506675000,6.788675048828125,0.059964705258607864,-0.3560851514339447,-0.7092095017433167
1772806384516607000,6.79860693359375,0.08861472457647324,-0.3450879156589508,-0.6740278005599976
1772806384526538000,6.8085380859375,0.12265612930059433,-0.3513438403606415,-0.6415920853614807
1772806384536470000,6.818469970703125,0.1475289911031723,-0.3814748525619507,-0.6095952391624451
1772806384546401000,6.828401123046875,0.15972201526165009,-0.40845987200737,-0.5902737379074097
1772806384556333000,6.8383330078125,0.15373283624649048,-0.44998520612716675,-0.5769131779670715
1772806384566263800,6.848263916015625,0.15650039911270142,-0.4589115083217621,-0.5847087502479553
1772806384576195800,6.85819580078125,0.15661171078681946,-0.4387841522693634,-0.5973814129829407
1772806384586127000,6.868127197265625,0.1533825397491455,-0.44414106011390686,-0.5960008502006531
1772806384596059100,6.87805908203125,0.14015009999275208,-0.47966471314430237,-0.5794663429260254
1772806384605990000,6.887989990234375,0.11750230938196182,-0.5255778431892395,-0.5534632802009583
1772806384615922000,6.897921875,0.09751182049512863,-0.5496346950531006,-0.5416976809501648
1772806384625853200,6.907853271484375,0.10172119736671448,-0.5347676873207092,-0.5285505056381226
1772806384635785200,6.91778515625,0.11679548770189285,-0.5280647873878479,-0.4931187927722931
1772806384645716000,6.927716064453125,0.12656556069850922,-0.5536958575248718,-0.44145798683166504
1772806384655648000,6.93764794921875,0.13808771967887878,-0.5735483765602112,-0.3772619664669037
1772806384665579000,6.9475791015625,0.15220008790493011,-0.5990860462188721,-0.32043033838272095
1772806384675510800,6.9575107421875,0.15161605179309845,-0.6744884252548218,-0.2795199155807495
1772806384685442000,6.967442138671875,0.13606028258800507,-0.7551040053367615,-0.23638705909252167
1772806384695374000,6.9773740234375,0.12567473948001862,-0.8051575422286987,-0.19559435546398163
1772806384705305000,6.98730517578125,0.13061077892780304,-0.8337633013725281,-0.1615852266550064
1772806384715236900,6.99723681640625,0.14395269751548767,-0.8262842893600464,-0.13165690004825592
1772806384725167900,7.00716796875,0.15403221547603607,-0.8179163932800293,-0.12712232768535614
1772806384735100000,7.017099853515625,0.17541953921318054,-0.8233271241188049,-0.14876770973205566
1772806384745031000,7.027031005859375,0.2005159705877304,-0.798976719379425,-0.1707606166601181
1772806384754963000,7.036962890625,0.2211165875196457,-0.7914639115333557,-0.20862330496311188
1772806384764895000,7.04689501953125,0.22673062980175018,-0.7947513461112976,-0.244770810008049
1772806384774826000,7.056825927734375,0.2285466343164444,-0.7934525609016418,-0.2607401907444
1772806384784758000,7.066758056640625,0.2233687788248062,-0.8192715048789978,-0.24909736216068268
1772806384794689000,7.07668896484375,0.21124501526355743,-0.8570274114608765,-0.23494265973567963
1772806384804621000,7.08662109375,0.19323310256004333,-0.8592942953109741,-0.20906586945056915
1772806384814552000,7.096552001953125,0.1640334129333496,-0.9118453860282898,-0.17225459218025208
1772806384824484000,7.106484130859375,0.14087772369384766,-0.9981428384780884,-0.14411580562591553
1772806384834414800,7.116414794921875,0.13410130143165588,-1.04783034324646,-0.104911670088768
1772806384844347000,7.126346923828125,0.14502327144145966,-1.0659079551696777,-0.06065439060330391
1772806384854278100,7.136278076171875,0.16301877796649933,-1.0534422397613525,0.004833802115172148
1772806384864210000,7.1462099609375,0.1776607781648636,-1.0261871814727783,0.09731976687908173
1772806384874141000,7.156140869140625,0.19512498378753662,-1.0438772439956665,0.20715491473674774
1772806384884073000,7.166072998046875,0.21033668518066406,-1.078410029411316,0.33223235607147217
1772806384894004200,7.176004150390625,0.22998416423797607,-1.1034514904022217,0.45638227462768555
1772806384903936000,7.18593603515625,0.24859461188316345,-1.1107157468795776,0.5614853501319885
1772806384913867000,7.195866943359375,0.24877837300300598,-1.059287428855896,0.6435852646827698
1772806384923799000,7.205799072265625,0.22867977619171143,-1.0068539381027222,0.7439367175102234
1772806384933729800,7.215729736328125,0.16901564598083496,-0.9995504021644592,0.8289293646812439
1772806384943661800,7.225661865234375,0.11211192607879639,-0.9700922966003418,0.9333784580230713
1772806384953593000,7.235593017578125,0.04259010776877403,-0.8907308578491211,1.0968129634857178
1772806384963525000,7.245525146484375,-0.06077395752072334,-0.7448345422744751,1.313949465751648
1772806384973456000,7.255455810546875,-0.17455299198627472,-0.7513782382011414,1.5713045597076416
1772806384983388000,7.265387939453125,-0.2509366571903229,-0.9167613387107849,1.804753065109253
1772806384993319000,7.27531884765625,-0.31246447563171387,-1.090895414352417,1.9562480449676514
1772806385003251200,7.285251220703125,-0.3511829674243927,-1.1411291360855103,1.974563717842102
1772806385013182000,7.295181884765625,-0.31665533781051636,-0.8801097273826599,1.7254835367202759
1772806385023114000,7.305114013671875,-0.2696141004562378,-0.9561363458633423,1.4146009683609009
1772806385033046000,7.3150458984375,-0.26581430435180664,-1.3163148164749146,1.3108221292495728
1772806385042977000,7.32497705078125,-0.26142680644989014,-1.2168174982070923,1.3116252422332764
1772806385052908800,7.33490869140625,-0.21937575936317444,-0.7999325394630432,1.341080665588379
1772806385062840000,7.344840087890625,-0.15157444775104523,-0.48729458451271057,1.3544948101043701
1772806385072772000,7.354772216796875,-0.08892011642456055,-0.365961492061615,1.3276357650756836
1772806385082702800,7.364702880859375,-0.06149212643504143,-0.311934232711792,1.2296358346939087
1772806385092635000,7.374634765625,-0.05577591806650162,-0.2259058654308319,1.1400915384292603
1772806385102566000,7.38456591796875,-0.09455180913209915,-0.21140611171722412,0.9826211929321289
1772806385112498000,7.394497802734375,-0.07966633141040802,-0.21370014548301697,0.8166535496711731
1772806385122429000,7.404428955078125,-0.058180563151836395,-0.31188511848449707,0.6685711145401001
1772806385132361000,7.41436083984375,-0.07253607362508774,-0.3562872111797333,0.5464459657669067
1772806385142292000,7.4242919921875,-0.10462887585163116,-0.34984737634658813,0.47251829504966736
1772806385152224000,7.43422412109375,-0.1473236083984375,-0.34126877784729004,0.4213528335094452
1772806385162155000,7.444155029296875,-0.17176005244255066,-0.33050861954689026,0.37558820843696594
1772806385172087000,7.454087158203125,-0.188156858086586,-0.38993120193481445,0.3452500104904175
1772806385182018800,7.464018798828125,-0.1749723255634308,-0.43225181102752686,0.32342660427093506
1772806385191950800,7.473950927734375,-0.1444287896156311,-0.4606243371963501,0.3079336881637573
1772806385201881900,7.4838818359375,-0.10850320756435394,-0.4950486123561859,0.28983914852142334
1772806385211814000,7.49381396484375,-0.06909242272377014,-0.49598923325538635,0.276376873254776
1772806385221745000,7.503744873046875,-0.021297497674822807,-0.4644421339035034,0.26810869574546814
1772806385231677000,7.513677001953125,0.025705697014927864,-0.3996173143386841,0.2690695524215698
1772806385241608000,7.52360791015625,0.06761782616376877,-0.29441460967063904,0.25444599986076355
1772806385251539700,7.533539794921875,0.10073503106832504,-0.18627534806728363,0.22496959567070007
1772806385261470700,7.543470703125,0.13022708892822266,-0.09600353986024857,0.17509956657886505
1772806385271402800,7.55340283203125,0.15924489498138428,-0.027460964396595955,0.12331172823905945
1772806385281334000,7.563333984375,0.1903250813484192,0.022046878933906555,0.061098575592041016
1772806385291265800,7.573265869140625,0.20366539061069489,0.03451233357191086,0.0011239225277677178
1772806385301196800,7.58319677734375,0.19672690331935883,0.011325770989060402,-0.05334257706999779
1772806385311128800,7.59312890625,0.18113036453723907,-0.029151082038879395,-0.09976599365472794
1772806385321059800,7.603059814453125,0.16336476802825928,-0.05860310420393944,-0.13933999836444855
1772806385330991900,7.612991943359375,0.15067215263843536,-0.06743334978818893,-0.17637339234352112
1772806385340923000,7.6229228515625,0.14230433106422424,-0.06880099326372147,-0.21078050136566162
1772806385350855000,7.63285498046875,0.1282404363155365,-0.09263042360544205,-0.22532881796360016
1772806385360785700,7.64278564453125,0.10974230617284775,-0.11743178218603134,-0.235885351896286
1772806385370717700,7.6527177734375,0.0932845026254654,-0.13376308977603912,-0.23581399023532867
1772806385380649700,7.662649658203125,0.06408213078975677,-0.16597464680671692,-0.21813039481639862
1772806385390581000,7.6725810546875,0.028936397284269333,-0.16555653512477875,-0.21882601082324982
1772806385400513000,7.682512939453125,0.008010242134332657,-0.14908982813358307,-0.24814249575138092
1772806385410443800,7.69244384765625,-0.003925246652215719,-0.11355873942375183,-0.2842206060886383
1772806385420375800,7.702375732421875,-0.0030254400335252285,-0.05019748583436012,-0.3442179262638092
1772806385430306800,7.712306884765625,0.011624875478446484,-0.004141042474657297,-0.3576730191707611
1772806385440238600,7.722238525390625,0.02358521707355976,0.048497460782527924,-0.3387485146522522
1772806385450169900,7.732169921875,0.02996162325143814,0.11205273121595383,-0.31049424409866333
1772806385460102000,7.742101806640625,0.014346209354698658,0.1420895904302597,-0.26917487382888794
1772806385470033000,7.752032958984375,0.002370240166783333,0.16596056520938873,-0.23832374811172485
1772806385479964700,7.761964599609375,-0.014663572423160076,0.1794160157442093,-0.19969210028648376
1772806385489896000,7.77189599609375,-0.041219014674425125,0.19772684574127197,-0.15077409148216248
1772806385499828000,7.781827880859375,-0.06392409652471542,0.1964779943227768,-0.10876680910587311
1772806385509758700,7.7917587890625,-0.08696549385786057,0.20116116106510162,-0.09603849798440933
1772806385519690800,7.801690673828125,-0.11959093064069748,0.30055829882621765,-0.041440173983573914
1772806385529621800,7.811621826171875,-0.15280959010124207,0.36954671144485474,-0.010197833180427551
1772806385539553800,7.8215537109375,-0.17781616747379303,0.3003038763999939,-0.055643681436777115
1772806385549484800,7.83148486328125,-0.21068596839904785,0.23288144171237946,-0.051203660666942596
1772806385559416800,7.841416748046875,-0.2589636445045471,0.23609186708927155,-0.005892963148653507
1772806385569347800,7.851347900390625,-0.3045481741428375,0.25054511427879333,0.040420472621917725
1772806385579280000,7.86127978515625,-0.3333774507045746,0.26442602276802063,0.09779231250286102
1772806385589210600,7.871210693359375,-0.3407258987426758,0.3114526569843292,0.15988683700561523
1772806385599143000,7.881142822265625,-0.3135184943675995,0.3766091763973236,0.21622630953788757
1772806385609074000,7.891073974609375,-0.26730120182037354,0.43750637769699097,0.24444569647312164
1772806385619006000,7.901005859375,-0.21339046955108643,0.45044708251953125,0.25002357363700867
1772806385628936700,7.910936767578125,-0.16427220404148102,0.4052354097366333,0.23181766271591187
1772806385638868700,7.92086865234375,-0.1476370096206665,0.3559563159942627,0.20565754175186157
1772806385648800000,7.930800048828125,-0.13538220524787903,0.3290855586528778,0.17942912876605988
1772806385658732000,7.94073193359375,-0.12266342341899872,0.29312098026275635,0.13912531733512878
1772806385668662800,7.950662841796875,-0.11921116709709167,0.26253485679626465,0.10565789043903351
1772806385678594800,7.9605947265625,-0.11634904891252518,0.22542345523834229,0.06543788313865662
1772806385688525800,7.97052587890625,-0.10557949542999268,0.14664635062217712,0.0021555775310844183
1772806385698457600,7.98045751953125,-0.08143589645624161,0.13734635710716248,-0.041341133415699005
1772806385708388900,7.990388916015625,-0.03757523372769356,0.22049717605113983,-0.05490434914827347
