time,seconds_elapsed,z,y,x
1772806377779306000,0.061305908203125,0.16365604102611542,-0.05564834922552109,0.03480139002203941
1772806377789238000,0.071238037109375,0.15945357084274292,-0.0502525195479393,0.033848777413368225
1772806377799169000,0.0811689453125,0.15956009924411774,-0.03265807777643204,0.03688877448439598
1772806377809100800,0.091100830078125,0.1462051421403885,-0.027965055778622627,0.044492367655038834
1772806377819032000,0.101031982421875,0.13068769872188568,-0.03002128191292286,0.03937723487615585
1772806377828964000,0.110964111328125,0.11862225085496902,-0.03910559043288231,0.02075827494263649
1772806377838894800,0.120894775390625,0.13507552444934845,-0.02640710584819317,0.008886436000466347
1772806377848827000,0.130826904296875,0.16370584070682526,0.0015784555580466986,-0.0017859158106148243
1772806377858758000,0.1407578125,0.20176774263381958,0.0336863249540329,-0.006572681479156017
1772806377868690000,0.15068994140625,0.23575367033481598,0.07058122754096985,-0.01853613369166851
1772806377878621000,0.160620849609375,0.24890542030334473,0.08394709974527359,-0.035355325788259506
1772806377888553000,0.170552978515625,0.2553074061870575,0.06818677484989166,-0.04848524555563927
1772806377898485000,0.180485107421875,0.24769875407218933,0.06747331470251083,-0.05753067135810852
1772806377908416000,0.190416015625,0.22003276646137238,0.09643945097923279,-0.061949919909238815
1772806377918347800,0.20034765625,0.19262005388736725,0.14776283502578735,-0.0860975980758667
1772806377928279000,0.210279052734375,0.20525142550468445,0.17791487276554108,-0.10644494742155075
1772806377938211000,0.220211181640625,0.22831092774868011,0.19804783165454865,-0.10403558611869812
1772806377948142000,0.23014208984375,0.2567444443702698,0.22220644354820251,-0.08407865464687347
1772806377958073900,0.240073974609375,0.2859705090522766,0.23298585414886475,-0.055507998913526535
1772806377968004900,0.2500048828125,0.3176317512989044,0.24784229695796967,-0.008288023993372917
1772806377977937000,0.25993701171875,0.33707335591316223,0.2516082525253296,0.054782554507255554
1772806377987868000,0.269867919921875,0.3431515097618103,0.2501959800720215,0.13922207057476044
1772806377997800000,0.279800048828125,0.34777048230171204,0.2389393448829651,0.22381311655044556
1772806378007731000,0.28973095703125,0.35089385509490967,0.23961791396141052,0.29763859510421753
1772806378017663000,0.2996630859375,0.33996954560279846,0.2442837804555893,0.3302447497844696
1772806378027595000,0.309594970703125,0.3181641101837158,0.2278965413570404,0.2977190315723419
1772806378037526000,0.319526123046875,0.30484673380851746,0.18963783979415894,0.13528218865394592
1772806378047458000,0.3294580078125,0.2887977063655853,0.2001434713602066,-0.0668884888291359
1772806378057389000,0.33938916015625,0.2663789689540863,0.20503251254558563,-0.20978598296642303
1772806378067321000,0.349321044921875,0.2527922987937927,0.21252478659152985,-0.2285839021205902
1772806378077251800,0.359251953125,0.24954645335674286,0.21112555265426636,-0.16093268990516663
1772806378087184000,0.369183837890625,0.2485397756099701,0.20192113518714905,-0.06846933811903
1772806378097115100,0.379115234375,0.2572232782840729,0.20232194662094116,-0.004262122791260481
1772806378107047000,0.389046875,0.2631826400756836,0.19924865663051605,0.026755714789032936
1772806378116978000,0.39897802734375,0.2603043019771576,0.1973692625761032,0.039321307092905045
1772806378126910000,0.408909912109375,0.25284290313720703,0.19912561774253845,0.05280835181474686
1772806378136841000,0.418841064453125,0.24643774330615997,0.20019567012786865,0.06277123838663101
1772806378146772700,0.428772705078125,0.24583134055137634,0.18914489448070526,0.08015049248933792
1772806378156704000,0.4387041015625,0.24593093991279602,0.18909801542758942,0.11952293664216995
1772806378166636500,0.448636474609375,0.24999572336673737,0.1950371265411377,0.1746618151664734
1772806378176568600,0.458568603515625,0.25358301401138306,0.22070175409317017,0.23347747325897217
1772806378186499300,0.468499267578125,0.22592075169086456,0.23310169577598572,0.26746445894241333
1772806378196431400,0.478431396484375,0.17036160826683044,0.2142110913991928,0.28964725136756897
1772806378206362400,0.4883623046875,0.15045848488807678,0.18580448627471924,0.3056803047657013
1772806378216294400,0.49829443359375,0.10826708376407623,0.12677791714668274,0.33956342935562134
1772806378226225400,0.508225341796875,0.05355723574757576,0.06783630698919296,0.39309775829315186
1772806378236157400,0.518157470703125,-0.0032525185961276293,0.002213619416579604,0.45975401997566223
1772806378246088400,0.52808837890625,-0.05199955031275749,-0.04097539559006691,0.5435133576393127
1772806378256020500,0.5380205078125,-0.062121693044900894,-0.059471581131219864,0.6179806590080261
1772806378265951500,0.547951416015625,-0.07417303323745728,-0.0347321480512619,0.7010611891746521
1772806378275883500,0.557883544921875,-0.08052413910627365,-0.015056447125971317,0.7759167551994324
1772806378285814500,0.567814453125,-0.10618316382169724,-0.03001728653907776,0.8413698077201843
1772806378295746600,0.57774658203125,-0.13874855637550354,-0.060674265027046204,0.8823603987693787
1772806378305678300,0.58767822265625,-0.19543874263763428,-0.10932249575853348,0.9310703873634338
1772806378315609300,0.597609375,-0.24667316675186157,-0.1567520648241043,0.9901976585388184
1772806378325541400,0.607541259765625,-0.31552013754844666,-0.23692946135997772,1.0616315603256226
1772806378335472400,0.617472412109375,-0.3895115554332733,-0.3179721236228943,1.1378909349441528
1772806378345404400,0.627404296875,-0.46778690814971924,-0.36877644062042236,1.2220327854156494
1772806378355335400,0.63733544921875,-0.5346157550811768,-0.3952285349369049,1.3058905601501465
1772806378365267500,0.647267333984375,-0.592133641242981,-0.39341625571250916,1.3434348106384277
1772806378375198500,0.657198486328125,-0.617617666721344,-0.3171433210372925,1.3143479824066162
1772806378385130500,0.667130615234375,-0.6115453839302063,-0.16776929795742035,1.203018069267273
1772806378395061500,0.6770615234375,-0.5732664465904236,-0.058272894471883774,1.0363662242889404
1772806378404993500,0.68699365234375,-0.5411908030509949,-0.06721659004688263,0.9433683753013611
1772806378414925300,0.69692529296875,-0.5306097865104675,0.012911537662148476,0.9048017859458923
1772806378424856300,0.706856201171875,-0.48773157596588135,0.16320942342281342,0.8727881908416748
1772806378434788400,0.716788330078125,-0.4157215654850006,0.28979986906051636,0.8286920785903931
1772806378444719600,0.7267197265625,-0.38914933800697327,0.3423725366592407,0.8102396130561829
1772806378454651400,0.7366513671875,-0.37832146883010864,0.3117499053478241,0.8219060897827148
1772806378464582400,0.74658251953125,-0.40316635370254517,0.23448707163333893,0.8037406802177429
1772806378474514400,0.756514404296875,-0.42533770203590393,0.1157982349395752,0.775564968585968
1772806378484445400,0.766445556640625,-0.4434754550457001,0.02413170225918293,0.714676558971405
1772806378494377500,0.77637744140625,-0.45998650789260864,-0.006160690449178219,0.6317399144172668
1772806378504308500,0.78630859375,-0.465227872133255,-0.00566880451515317,0.5705868005752563
1772806378514240500,0.796240478515625,-0.4618850648403168,0.06187774986028671,0.5276845693588257
1772806378524171300,0.806171142578125,-0.4429318904876709,0.131765216588974,0.5080656409263611
1772806378534103300,0.816103271484375,-0.4117492139339447,0.17559872567653656,0.5059353709220886
1772806378544035300,0.826035400390625,-0.37181857228279114,0.26760879158973694,0.5140808820724487
1772806378553966600,0.835966552734375,-0.32586759328842163,0.34723278880119324,0.5311882495880127
1772806378563898600,0.845898681640625,-0.2854458689689636,0.4175008237361908,0.5418523550033569
1772806378573829400,0.855829345703125,-0.2498907893896103,0.4988175332546234,0.5252062678337097
1772806378583761400,0.865761474609375,-0.22573938965797424,0.5733908414840698,0.49976852536201477
1772806378593692400,0.8756923828125,-0.2040942758321762,0.6256489753723145,0.4577305316925049
1772806378603624400,0.88562451171875,-0.1993304193019867,0.6743770837783813,0.3981516361236572
1772806378613555500,0.895555419921875,-0.20254139602184296,0.6958219408988953,0.3361058533191681
1772806378623487500,0.905487548828125,-0.22207647562026978,0.7117888927459717,0.2679275870323181
1772806378633418500,0.91541845703125,-0.2571322023868561,0.6958621740341187,0.2001354843378067
1772806378643350300,0.925350341796875,-0.28938281536102295,0.66811203956604,0.15351712703704834
1772806378653281500,0.935281494140625,-0.3028948903083801,0.6579736471176147,0.10222943127155304
1772806378663213600,0.945213623046875,-0.30355241894721985,0.6632357835769653,0.06630206108093262
1772806378673145600,0.9551455078125,-0.27168476581573486,0.6657186150550842,0.06144898012280464
1772806378683076400,0.965076416015625,-0.23514141142368317,0.6552957892417908,0.04048537462949753
1772806378693008400,0.97500830078125,-0.20406045019626617,0.6279323697090149,0.006968693342059851
1772806378702939400,0.984939453125,-0.19303549826145172,0.5836431980133057,-0.039016906172037125
1772806378712871400,0.994871337890625,-0.1761542558670044,0.5255988240242004,-0.07341216504573822
1772806378722802400,1.004802490234375,-0.14770157635211945,0.48341459035873413,-0.09621654450893402
1772806378732734500,1.014734375,-0.11456013470888138,0.45794573426246643,-0.12453074008226395
1772806378742665500,1.02466552734375,-0.0877668708562851,0.4431398808956146,-0.17691431939601898
1772806378752597500,1.034597412109375,-0.06725360453128815,0.4438283145427704,-0.22551967203617096
1772806378762528500,1.044528564453125,-0.05824040248990059,0.453086256980896,-0.2575596272945404
1772806378772460500,1.05446044921875,-0.05637592449784279,0.45445936918258667,-0.2751138508319855
1772806378782391600,1.0643916015625,-0.05783373862504959,0.43370696902275085,-0.27475085854530334
1772806378792323300,1.0743232421875,-0.03436250239610672,0.4069845378398895,-0.25601819157600403
1772806378802254300,1.08425439453125,-0.006762565113604069,0.3819439113140106,-0.22854529321193695
1772806378812186400,1.094186279296875,0.017137175425887108,0.35301265120506287,-0.21419191360473633
1772806378822118400,1.104118408203125,0.027451597154140472,0.31302928924560547,-0.22956182062625885
1772806378832049400,1.11404931640625,0.023958595469594002,0.29795846343040466,-0.26202255487442017
1772806378841981400,1.1239814453125,-0.00038456046604551375,0.30515432357788086,-0.2777155041694641
1772806378851912400,1.133912353515625,-0.03177204355597496,0.33209726214408875,-0.2676772475242615
1772806378861844500,1.143844482421875,-0.05074440315365791,0.3583648204803467,-0.23985014855861664
1772806378871775500,1.153775390625,-0.059128567576408386,0.36232760548591614,-0.20857851207256317
1772806378881707500,1.16370751953125,-0.05736022815108299,0.34265854954719543,-0.16822549700737
1772806378891638500,1.173638427734375,-0.05085865408182144,0.3250124454498291,-0.11982253938913345
1772806378901570600,1.183570556640625,-0.03647332265973091,0.31488391757011414,-0.08499398827552795
1772806378911501300,1.193501220703125,-0.019704729318618774,0.3307265341281891,-0.06683016568422318
1772806378921433300,1.203433349609375,-0.010218283161520958,0.3356797397136688,-0.06096455082297325
1772806378931364600,1.213364501953125,-0.018370751291513443,0.3199646770954132,-0.05122137442231178
1772806378941296400,1.22329638671875,-0.04360393434762955,0.3090054988861084,-0.049500174820423126
1772806378951228400,1.233228515625,-0.08202376216650009,0.30974534153938293,-0.07069813460111618
1772806378961159400,1.243159423828125,-0.1332286298274994,0.30124640464782715,-0.10888227820396423
1772806378971091500,1.253091552734375,-0.19430983066558838,0.26298290491104126,-0.15650838613510132
1772806378981022500,1.2630224609375,-0.24205496907234192,0.19227463006973267,-0.194582000374794
1772806378990954500,1.27295458984375,-0.23308172821998596,0.11785872280597687,-0.2659088969230652
1772806379000885500,1.282885498046875,-0.19986385107040405,0.07531579583883286,-0.3283059597015381
1772806379010817500,1.292817626953125,-0.15919631719589233,0.08355188369750977,-0.354043573141098
1772806379020748300,1.302748291015625,-0.13448403775691986,0.11315664649009705,-0.3636375963687897
1772806379030680300,1.312680419921875,-0.12053467333316803,0.13939064741134644,-0.376907080411911
1772806379040611600,1.322611572265625,-0.09633186459541321,0.16932830214500427,-0.39808958768844604
1772806379050543600,1.332543701171875,-0.07604096829891205,0.19022347033023834,-0.4268650412559509
1772806379060474400,1.342474365234375,-0.051776912063360214,0.1788773387670517,-0.4525405764579773
1772806379070406400,1.352406494140625,-0.03892875835299492,0.1327681690454483,-0.4735366702079773
1772806379080338400,1.36233837890625,-0.03959294781088829,0.09834308177232742,-0.4892439842224121
1772806379090269400,1.37226953125,-0.04867352917790413,0.07430752366781235,-0.503065824508667
1772806379100201500,1.382201416015625,-0.05883855000138283,0.043475303798913956,-0.5274249315261841
1772806379110132500,1.392132568359375,-0.06253208965063095,0.014538195915520191,-0.5493110418319702
1772806379120064500,1.402064453125,-0.06129824370145798,-0.0018037590198218822,-0.562255859375
1772806379129995300,1.411995361328125,-0.05192338675260544,-0.0013406352372840047,-0.5624575018882751
1772806379139927300,1.42192724609375,-0.04718828573822975,0.0020130835473537445,-0.5504809617996216
1772806379149858600,1.431858642578125,-0.04651343822479248,0.004140949342399836,-0.5423429012298584
1772806379159790600,1.44179052734375,-0.04111894220113754,0.003296194365248084,-0.540732204914093
1772806379169721900,1.451721923828125,-0.027227360755205154,0.014674017205834389,-0.5392720103263855
1772806379179653600,1.461653564453125,-0.0011864382540807128,0.012577577494084835,-0.5387827754020691
1772806379189584600,1.471584716796875,0.020068516954779625,-0.016687100753188133,-0.5286747813224792
1772806379199516700,1.4815166015625,0.03573775663971901,-0.04556748643517494,-0.5202868580818176
1772806379209448000,1.491447998046875,0.05986786261200905,-0.0658959224820137,-0.5275977849960327
1772806379219379700,1.501379638671875,0.08534898608922958,-0.062372032552957535,-0.5136665105819702
1772806379229311700,1.511311767578125,0.09047982841730118,-0.02840527519583702,-0.4483961760997772
1772806379239242800,1.52124267578125,0.1010320782661438,-0.053826745599508286,-0.325208455324173
1772806379249174800,1.5311748046875,0.10652884095907211,-0.22060774266719818,-0.18995581567287445
1772806379259105800,1.541105712890625,0.08508453518152237,-0.4495333433151245,-0.06476621329784393
1772806379269037800,1.551037841796875,0.06539711356163025,-0.5587248206138611,0.0799049511551857
1772806379278968800,1.56096875,0.018788069486618042,-0.6392326951026917,0.2561076879501343
1772806379288900900,1.57090087890625,-0.13658128678798676,-0.694502592086792,0.34001803398132324
1772806379298831600,1.58083154296875,-0.3463992178440094,-0.7141125202178955,0.08701585978269577
1772806379308763600,1.590763671875,-0.4338214695453644,-0.8825401663780212,-0.23254616558551788
1772806379318695000,1.60069482421875,-0.41420596837997437,-0.8744345307350159,-0.49487951397895813
1772806379328626700,1.610626708984375,-0.33002957701683044,-0.8189284205436707,-0.721762478351593
1772806379338557700,1.6205576171875,-0.24899756908416748,-0.6613947153091431,-0.9205344319343567
1772806379348489700,1.63048974609375,-0.12947596609592438,-0.54707932472229,-1.0950361490249634
1772806379358421800,1.640421875,0.025601767003536224,-0.4564239978790283,-1.221919298171997
1772806379368352800,1.650352783203125,0.20424768328666687,-0.40244412422180176,-1.2857494354248047
1772806379378284800,1.660284912109375,0.41727951169013977,-0.3046243488788605,-1.273399829864502
1772806379388215800,1.6702158203125,0.6163185834884644,-0.23224681615829468,-1.1493386030197144
1772806379398147800,1.68014794921875,0.6397032737731934,-0.24862739443778992,-0.9554716348648071
1772806379408078600,1.69007861328125,0.48544713854789734,-0.19421102106571198,-0.8034128546714783
1772806379418010600,1.7000107421875,0.25840598344802856,-0.2149253487586975,-0.7371224761009216
1772806379427942000,1.70994189453125,0.04969405382871628,-0.3841431438922882,-0.7643485069274902
1772806379437874000,1.7198740234375,-0.02046293020248413,-0.5144420266151428,-0.8736848831176758
1772806379447804700,1.7298046875,-0.04320818930864334,-0.7971693277359009,-0.9787516593933105
1772806379457736700,1.73973681640625,-0.10093113780021667,-1.0635334253311157,-1.0636705160140991
1772806379467667700,1.749667724609375,-0.19908300042152405,-1.265276312828064,-1.1406017541885376
1772806379477599700,1.759599853515625,-0.32342731952667236,-1.4703773260116577,-1.1840739250183105
1772806379487530800,1.76953076171875,-0.4458557665348053,-1.7100660800933838,-1.2109379768371582
1772806379497462800,1.779462890625,-0.5271517038345337,-1.8382762670516968,-1.2314579486846924
1772806379507394800,1.789394775390625,-0.548060417175293,-1.8496698141098022,-1.211233377456665
1772806379517325600,1.79932568359375,-0.46113431453704834,-1.749055027961731,-1.1294136047363281
1772806379527257600,1.809257568359375,-0.32945168018341064,-1.5882807970046997,-0.9995101690292358
1772806379537188900,1.81918896484375,-0.18494002521038055,-1.4059580564498901,-0.8402544856071472
1772806379547121000,1.829120849609375,-0.05389785394072533,-1.2487977743148804,-0.6953569650650024
1772806379557051600,1.8390517578125,0.07072716951370239,-1.164376139640808,-0.5884904265403748
1772806379566983700,1.848983642578125,0.19614927470684052,-1.1570225954055786,-0.5478095412254333
1772806379576914700,1.858914794921875,0.2426411360502243,-1.1917848587036133,-0.5731000304222107
1772806379586846700,1.8688466796875,0.1997879445552826,-1.1970118284225464,-0.616791844367981
1772806379596777700,1.87877783203125,0.14706242084503174,-1.2041765451431274,-0.6747467517852783
1772806379606709800,1.888709716796875,0.10539966076612473,-1.2403414249420166,-0.7188665270805359
1772806379616640800,1.898640869140625,0.05238917097449303,-1.3187576532363892,-0.7407047152519226
1772806379626572800,1.90857275390625,0.030290527269244194,-1.2505240440368652,-0.7274477481842041
1772806379636503800,1.91850390625,0.04693661630153656,-1.347456693649292,-0.6577666997909546
1772806379646435800,1.928435791015625,0.044185571372509,-1.363089680671692,-0.5784175395965576
1772806379656367900,1.938367919921875,0.08705314248800278,-1.2745249271392822,-0.4938957393169403
1772806379666298600,1.948298583984375,0.1418287754058838,-1.204154372215271,-0.4195767641067505
1772806379676230700,1.958230712890625,0.18968923389911652,-1.1315661668777466,-0.3563399910926819
1772806379686161700,1.96816162109375,0.2293088138103485,-1.0885769128799438,-0.3091661036014557
1772806379696093700,1.97809375,0.23636992275714874,-1.078098177909851,-0.29904982447624207
1772806379706024700,1.988024658203125,0.23518215119838715,-1.0690114498138428,-0.3364129066467285
1772806379715956700,1.997956787109375,0.24233168363571167,-1.0447876453399658,-0.3945808708667755
1772806379725887700,2.0078876953125,0.2480074018239975,-1.0302989482879639,-0.46527740359306335
1772806379735819800,2.01781982421875,0.2633884847164154,-1.0195949077606201,-0.531464159488678
1772806379745750800,2.027750732421875,0.276865690946579,-0.9828063249588013,-0.5702869296073914
1772806379755682800,2.037682861328125,0.28063032031059265,-0.951610803604126,-0.562546968460083
1772806379765613800,2.04761376953125,0.275816947221756,-0.9314712285995483,-0.5347369313240051
1772806379775545900,2.0575458984375,0.2828300893306732,-0.952803909778595,-0.5038373470306396
1772806379785476600,2.0674765625,0.29978910088539124,-0.9474014639854431,-0.5004164576530457
1772806379795408600,2.07740869140625,0.33411484956741333,-0.940315306186676,-0.5033712387084961
1772806379805340700,2.087340576171875,0.3612194359302521,-0.922229528427124,-0.49541187286376953
1772806379815272000,2.09727197265625,0.3887605369091034,-0.9099134802818298,-0.45297759771347046
1772806379825203700,2.10720361328125,0.3895229995250702,-0.9092761874198914,-0.37316638231277466
1772806379835134700,2.117134765625,0.36174488067626953,-0.916343629360199,-0.2727462947368622
1772806379845066800,2.127066650390625,0.326069176197052,-0.9352260231971741,-0.19423046708106995
1772806379854997800,2.136997802734375,0.288332998752594,-0.9539549350738525,-0.15939044952392578
1772806379864929800,2.1469296875,0.26768842339515686,-0.9526745080947876,-0.13997574150562286
1772806379874860800,2.15686083984375,0.25409114360809326,-0.9225911498069763,-0.10857973992824554
1772806379884792800,2.166792724609375,0.2502564489841461,-0.9244984984397888,-0.06648075580596924
1772806379894723600,2.1767236328125,0.2491437792778015,-0.9346009492874146,-0.018572086468338966
1772806379904655600,2.186655517578125,0.23211179673671722,-0.9416441917419434,0.027456657961010933
1772806379914587000,2.1965869140625,0.22298301756381989,-0.955482006072998,0.09403675049543381
1772806379924519000,2.206518798828125,0.2207920253276825,-0.986420214176178,0.1465606838464737
1772806379934449700,2.21644970703125,0.2196894884109497,-1.0418001413345337,0.16233138740062714
1772806379944381700,2.226381591796875,0.22327490150928497,-1.0888038873672485,0.14497503638267517
1772806379954313700,2.236313720703125,0.22395293414592743,-1.1145336627960205,0.12579362094402313
1772806379964244700,2.24624462890625,0.2244000881910324,-1.0881092548370361,0.14662565290927887
1772806379974176800,2.2561767578125,0.23138901591300964,-1.0548893213272095,0.20671455562114716
1772806379984107800,2.266107666015625,0.2361118644475937,-0.9761925935745239,0.2799389660358429
1772806379994039800,2.276039794921875,0.2565004825592041,-0.8924135565757751,0.3712973892688751
1772806380003970800,2.285970703125,0.2957373857498169,-0.8525686860084534,0.4908738434314728
1772806380013902600,2.295902587890625,0.31450361013412476,-0.8878995180130005,0.6069794297218323
1772806380023833900,2.305833740234375,0.2741585969924927,-0.9305417537689209,0.7359147667884827
1772806380033766000,2.315765869140625,0.16390079259872437,-0.8959209322929382,0.8844717144966125
1772806380043696600,2.325696533203125,0.013904363848268986,-0.8070781230926514,1.1044981479644775
1772806380053628700,2.335628662109375,-0.136789008975029,-0.6928200125694275,1.4046403169631958
1772806380063559700,2.3455595703125,-0.29359060525894165,-0.5731253027915955,1.6888800859451294
1772806380073491700,2.35549169921875,-0.4329093396663666,-0.5759344100952148,1.86323082447052
1772806380083422700,2.365422607421875,-0.5644268989562988,-0.6507918834686279,1.8942638635635376
1772806380093354800,2.375354736328125,-0.666098415851593,-0.8122715950012207,1.852080225944519
1772806380103286800,2.385286865234375,-0.7137657999992371,-0.9292575716972351,1.785663366317749
1772806380113217800,2.3952177734375,-0.7287803888320923,-0.9502105712890625,1.766860842704773
1772806380123149600,2.405149658203125,-0.7490260601043701,-0.9473657608032227,1.795631766319275
1772806380133080800,2.415080810546875,-0.7710474729537964,-0.9442104697227478,1.7904764413833618
1772806380143012900,2.425012939453125,-0.7893587946891785,-0.8784260749816895,1.7469279766082764
1772806380152943900,2.43494384765625,-0.7479567527770996,-0.8510013818740845,1.6733973026275635
1772806380162875600,2.444875732421875,-0.6802959442138672,-0.9099435210227966,1.590744137763977
1772806380172806400,2.454806396484375,-0.6057013869285583,-0.87031090259552,1.4883067607879639
1772806380182738400,2.464738525390625,-0.5030495524406433,-0.6852617263793945,1.374182105064392
1772806380192669700,2.474669677734375,-0.3913984000682831,-0.41500410437583923,1.3279194831848145
1772806380202601700,2.484601806640625,-0.32047387957572937,-0.15911614894866943,1.314821481704712
1772806380212532500,2.494532470703125,-0.29202839732170105,0.04138339310884476,1.3052690029144287
1772806380222464500,2.504464599609375,-0.32081955671310425,0.05710136890411377,1.2558962106704712
1772806380232395800,2.514395751953125,-0.3611786961555481,0.046479616314172745,1.203415870666504
1772806380242327800,2.524327880859375,-0.36840173602104187,0.010630007833242416,1.1544231176376343
1772806380252258600,2.534258544921875,-0.37934064865112305,-0.028437767177820206,1.0594267845153809
1772806380262190600,2.544190673828125,-0.3916915953159332,0.11212760210037231,0.9561715126037598
1772806380272122600,2.55412255859375,-0.3681154251098633,0.1800920069217682,0.867011547088623
1772806380282053400,2.564053466796875,-0.32110506296157837,0.28521814942359924,0.8187931180000305
1772806380291985400,2.5739853515625,-0.28335022926330566,0.429139107465744,0.7361177206039429
1772806380301916700,2.583916748046875,-0.2735079824924469,0.5705244541168213,0.620374858379364
1772806380311848700,2.5938486328125,-0.2878866493701935,0.6769643425941467,0.523997962474823
1772806380321779500,2.603779541015625,-0.3292359411716461,0.7671864032745361,0.4554647207260132
1772806380331711500,2.61371142578125,-0.3492876887321472,0.8321805596351624,0.4074367582798004
1772806380341642500,2.623642578125,-0.356216698884964,0.869187593460083,0.3445030450820923
1772806380351574800,2.63357470703125,-0.34409505128860474,0.8947198390960693,0.2796921133995056
1772806380361505500,2.643505615234375,-0.32988443970680237,0.9030853509902954,0.21894299983978271
1772806380371437600,2.6534375,-0.29777950048446655,0.8584148287773132,0.13950276374816895
1772806380381368600,2.66336865234375,-0.23954015970230103,0.8296878337860107,0.0371878482401371
1772806380391300600,2.673300537109375,-0.15929831564426422,0.751731812953949,-0.07072610408067703
1772806380401231600,2.683231689453125,-0.08507335186004639,0.6908258199691772,-0.19521848857402802
1772806380411163600,2.69316357421875,-0.04186222702264786,0.6518248915672302,-0.3215745687484741
1772806380421095700,2.703095703125,-0.025302160531282425,0.6172357797622681,-0.4306368827819824
1772806380431026400,2.7130263671875,-0.01629854552447796,0.5930612087249756,-0.5292249917984009
1772806380440958500,2.72295849609375,-0.01255067903548479,0.556647002696991,-0.6070598363876343
1772806380450889500,2.732889404296875,-0.021642711013555527,0.5136873126029968,-0.6644954681396484
1772806380460821500,2.742821533203125,-0.026463564485311508,0.46546223759651184,-0.7350974082946777
1772806380470752500,2.75275244140625,-0.03206365928053856,0.4320478141307831,-0.777213454246521
1772806380480684500,2.7626845703125,-0.02696210891008377,0.4418599605560303,-0.7953269481658936
1772806380490615600,2.772615478515625,-0.010437460616230965,0.4619111716747284,-0.808738648891449
1772806380500547600,2.782547607421875,0.010333597660064697,0.4844827950000763,-0.8305187821388245
1772806380510478600,2.792478515625,0.014752048067748547,0.5166303515434265,-0.8051154017448425
1772806380520410600,2.80241064453125,0.013707290403544903,0.6023154258728027,-0.7554144263267517
1772806380530341600,2.812341552734375,-0.0007089334540069103,0.6775355935096741,-0.6892092823982239
1772806380540273700,2.822273681640625,-0.04164571315050125,0.6971487402915955,-0.5768428444862366
1772806380550204400,2.832204345703125,-0.10554134100675583,0.6938616037368774,-0.408852219581604
1772806380560136400,2.842136474609375,-0.18643885850906372,0.6089733242988586,-0.2427351474761963
1772806380570067700,2.852067626953125,-0.302941232919693,0.49645158648490906,-0.1326427310705185
1772806380579999700,2.861999755859375,-0.4209411144256592,0.37577441334724426,-0.03662938252091408
1772806380589931500,2.871931640625,-0.5075055360794067,0.2895207703113556,0.06814789772033691
1772806380599862500,2.881862548828125,-0.5587223768234253,0.26188620924949646,0.16108208894729614
1772806380609794600,2.891794677734375,-0.5785568356513977,0.2660101056098938,0.2455064356327057
1772806380619725600,2.9017255859375,-0.534451425075531,0.4084756374359131,0.32914140820503235
1772806380629657600,2.91165771484375,-0.47187086939811707,0.6594010591506958,0.41878315806388855
1772806380639588600,2.921588623046875,-0.39014536142349243,0.8461059927940369,0.4948422312736511
1772806380649520600,2.931520751953125,-0.2925516963005066,0.9705342054367065,0.5518101453781128
1772806380659451400,2.941451416015625,-0.20184524357318878,1.026607632637024,0.5834857821464539
1772806380669383400,2.951383544921875,-0.11377529799938202,0.9700289964675903,0.5590068101882935
1772806380679314700,2.961314697265625,-0.029944583773612976,0.860595703125,0.45994681119918823
1772806380689246700,2.971246826171875,0.04448624327778816,0.7858397364616394,0.33324798941612244
1772806380699177500,2.981177490234375,0.07656561583280563,0.7611935138702393,0.18289577960968018
1772806380709109500,2.991109619140625,0.07279644161462784,0.7706993818283081,0.010035323910415173
1772806380719040500,3.00104052734375,0.06431373953819275,0.7656489610671997,-0.14795882999897003
1772806380728972800,3.010972900390625,0.022399315610527992,0.6593219637870789,-0.26825302839279175
1772806380738903600,3.020903564453125,-0.0914100706577301,0.4293401837348938,-0.3297206461429596
1772806380748835600,3.030835693359375,-0.23810523748397827,0.14411669969558716,-0.330662339925766
1772806380758767600,3.040767578125,-0.39298030734062195,-0.1380998194217682,-0.34494301676750183
1772806380768698600,3.05069873046875,-0.46642789244651794,-0.3628016412258148,-0.38232100009918213
1772806380778630400,3.06063037109375,-0.39892688393592834,-0.4697568416595459,-0.30709123611450195
1772806380788561700,3.070561767578125,-0.26136237382888794,-0.40668681263923645,-0.0624639093875885
1772806380798493700,3.08049365234375,-0.22791385650634766,-0.19851921498775482,0.03604695200920105
1772806380808424400,3.090424560546875,-0.25195661187171936,0.1070588082075119,-0.03333958238363266
1772806380818356500,3.1003564453125,-0.24529151618480682,0.251198410987854,-0.05932803824543953
1772806380828287500,3.11028759765625,-0.15044435858726501,0.14445358514785767,-0.13906627893447876
1772806380838219500,3.120219482421875,0.05484061315655708,-0.11136274039745331,-0.4047757089138031
1772806380848150500,3.130150634765625,0.26926103234291077,-0.298126220703125,-0.7792955040931702
1772806380858082600,3.14008251953125,0.40782102942466736,-0.3216573894023895,-1.158057689666748
1772806380868013600,3.150013671875,0.4655618369579315,-0.16979382932186127,-1.4927287101745605
1772806380877945600,3.159945556640625,0.5551633834838867,-0.04062731936573982,-1.5904566049575806
1772806380887876600,3.169876708984375,0.5821720957756042,-0.00618119677528739,-1.3998926877975464
1772806380897808600,3.17980859375,0.46674826741218567,0.06241757050156593,-1.10267174243927
1772806380907739600,3.18973974609375,0.24186402559280396,-0.07755737751722336,-0.8301283717155457
1772806380917671700,3.199671630859375,-0.004673581570386887,-0.22489622235298157,-0.7368993163108826
1772806380927603500,3.209603515625,-0.16788753867149353,-0.25572311878204346,-0.8743234872817993
1772806380937534500,3.219534423828125,-0.15763409435749054,-0.252655953168869,-1.1102659702301025
1772806380947466500,3.229466552734375,-0.06944139301776886,-0.287139356136322,-1.33856999874115
1772806380957397500,3.2393974609375,0.011296596378087997,-0.38133084774017334,-1.4474469423294067
1772806380967329500,3.24932958984375,0.037399038672447205,-0.4804947078227997,-1.439647912979126
1772806380977260500,3.259260498046875,0.027333088219165802,-0.5971565842628479,-1.391842246055603
1772806380987192600,3.269192626953125,-0.00657587731257081,-0.7435401678085327,-1.33893620967865
1772806380997123600,3.27912353515625,-0.04872093349695206,-0.9309108853340149,-1.2715859413146973
1772806381007055600,3.2890556640625,-0.11039388179779053,-1.0662050247192383,-1.1860073804855347
1772806381016986600,3.298986572265625,-0.15958432853221893,-1.1158325672149658,-1.0736427307128906
1772806381026918700,3.308918701171875,-0.17636623978614807,-1.1180517673492432,-0.9158685207366943
1772806381036849400,3.318849365234375,-0.10461775213479996,-1.0304800271987915,-0.7816713452339172
1772806381046781400,3.328781494140625,0.006168147549033165,-0.92971271276474,-0.6890444755554199
1772806381056712700,3.338712646484375,0.13175350427627563,-0.8157781958580017,-0.6562865376472473
1772806381066644700,3.348644775390625,0.2457655519247055,-0.7062841653823853,-0.6660429835319519
1772806381076575500,3.358575439453125,0.30201390385627747,-0.5958670973777771,-0.6816102266311646
1772806381086507500,3.368507568359375,0.31107744574546814,-0.6141489148139954,-0.6748031973838806
1772806381096439600,3.378439453125,0.29801732301712036,-0.6654208898544312,-0.6772029995918274
1772806381106370600,3.38837060546875,0.2473836988210678,-0.6985559463500977,-0.6959074139595032
1772806381116302600,3.398302490234375,0.18446092307567596,-0.630085825920105,-0.7317336201667786
1772806381126233600,3.408233642578125,0.13437165319919586,-0.70338374376297,-0.7630025744438171
1772806381136165600,3.41816552734375,0.05444060638546944,-0.79903644323349,-0.8105083107948303
1772806381146096400,3.428096435546875,0.02184484526515007,-0.858575701713562,-0.8469933271408081
1772806381156028400,3.4380283203125,0.027392474934458733,-0.8172655701637268,-0.8542621731758118
1772806381165959700,3.447959716796875,0.06674893945455551,-0.7103558778762817,-0.8347406983375549
1772806381175891000,3.457890869140625,0.13639485836029053,-0.5976197123527527,-0.7718099355697632
1772806381185821700,3.46782177734375,0.19137422740459442,-0.5459772944450378,-0.6932604908943176
1772806381195753700,3.477753662109375,0.22325864434242249,-0.5582553148269653,-0.6240902543067932
1772806381205685000,3.48768505859375,0.22915835678577423,-0.5796993374824524,-0.5773341655731201
1772806381215617000,3.497616943359375,0.22766458988189697,-0.5933618545532227,-0.549312949180603
1772806381225547800,3.5075478515625,0.2198287695646286,-0.630469024181366,-0.5405609607696533
1772806381235479800,3.517479736328125,0.22941428422927856,-0.6962200999259949,-0.540500283241272
1772806381245410800,3.527410888671875,0.24904923141002655,-0.7348100543022156,-0.5295368432998657
1772806381255342800,3.5373427734375,0.2546951472759247,-0.7560975551605225,-0.5105093121528625
1772806381265273900,3.54727392578125,0.24995630979537964,-0.7598941326141357,-0.5021986961364746
1772806381275206000,3.557205810546875,0.2512202560901642,-0.746342122554779,-0.4865099787712097
1772806381285138000,3.567137939453125,0.2511478066444397,-0.7337461709976196,-0.46830329298973083
1772806381295068700,3.577068603515625,0.2580472528934479,-0.7160813808441162,-0.4472254514694214
1772806381305000700,3.587000732421875,0.2663653790950775,-0.7008481025695801,-0.4348752796649933
1772806381314932000,3.596931884765625,0.2589050531387329,-0.6933622360229492,-0.42018717527389526
1772806381324864000,3.606864013671875,0.25788721442222595,-0.6850952506065369,-0.39515557885169983
1772806381334794800,3.616794677734375,0.24716824293136597,-0.644731879234314,-0.34497177600860596
1772806381344726800,3.626726806640625,0.23918434977531433,-0.6296178698539734,-0.2736792266368866
1772806381354657800,3.63665771484375,0.2621370851993561,-0.6800912022590637,-0.19667844474315643
1772806381364589800,3.64658984375,0.2717103362083435,-0.7543981671333313,-0.1644025295972824
1772806381374520800,3.656520751953125,0.26623356342315674,-0.7950060367584229,-0.18669451773166656
1772806381384452900,3.666452880859375,0.24668247997760773,-0.7830598950386047,-0.24077560007572174
1772806381394384000,3.6763837890625,0.23782001435756683,-0.7591210007667542,-0.267080694437027
1772806381404315600,3.686315673828125,0.2511906921863556,-0.7477538585662842,-0.2503611147403717
1772806381414247000,3.696246826171875,0.2679922878742218,-0.7596808075904846,-0.20250196754932404
1772806381424179000,3.706178955078125,0.2703595757484436,-0.8132519125938416,-0.15145769715309143
1772806381434110000,3.71610986328125,0.25411003828048706,-0.8991814255714417,-0.12154107540845871
1772806381444041700,3.726041748046875,0.2387252300977707,-0.9994832873344421,-0.11297182738780975
1772806381453973800,3.735973876953125,0.22208206355571747,-1.0845390558242798,-0.12139726430177689
1772806381463904800,3.74590478515625,0.19560864567756653,-1.1392308473587036,-0.13678714632987976
1772806381473836800,3.7558369140625,0.1794469952583313,-1.1528414487838745,-0.136526957154274
1772806381483767800,3.765767822265625,0.17777399718761444,-1.1228249073028564,-0.10256871581077576
1772806381493699800,3.775699951171875,0.1938730627298355,-1.0892916917800903,-0.014348046854138374
1772806381503630800,3.785630859375,0.22733142971992493,-1.0317858457565308,0.11422137916088104
1772806381513563000,3.79556298828125,0.2623994052410126,-0.9402313828468323,0.2601514160633087
1772806381523494000,3.805493896484375,0.26928845047950745,-0.8236680626869202,0.4143303334712982
1772806381533426000,3.815426025390625,0.2350172996520996,-0.6959543228149414,0.5969326496124268
1772806381543357000,3.82535693359375,0.1644773632287979,-0.5599426627159119,0.8371239304542542
1772806381553289000,3.8352890625,0.05903482437133789,-0.5413644313812256,1.0948351621627808
1772806381563219700,3.8452197265625,-0.09434754401445389,-0.7422762513160706,1.2947274446487427
1772806381573151700,3.85515185546875,-0.30079418420791626,-0.9964544773101807,1.380328893661499
1772806381583083000,3.8650830078125,-0.5036160349845886,-1.1417077779769897,1.359272837638855
1772806381593014800,3.875014892578125,-0.609703004360199,-1.1143070459365845,1.3426179885864258
1772806381602945800,3.88494580078125,-0.5921506881713867,-1.0221308469772339,1.4154874086380005
1772806381612877800,3.8948779296875,-0.5044503808021545,-0.9482541680335999,1.6081559658050537
1772806381622808800,3.904808837890625,-0.4520191252231598,-0.9884090423583984,1.9508123397827148
1772806381632740900,3.914740966796875,-0.4981219172477722,-1.0481685400009155,2.268372058868408
1772806381642673000,3.9246728515625,-0.7251023054122925,-0.4116668999195099,1.9356437921524048
1772806381652604000,3.93460400390625,-0.881594181060791,-0.5572957396507263,1.7146570682525635
1772806381662536000,3.944535888671875,-0.9250516891479492,-1.2089091539382935,1.6652088165283203
1772806381672466700,3.954466796875,-0.9696627855300903,-1.5265138149261475,1.6303211450576782
1772806381682398700,3.964398681640625,-0.9436298608779907,-1.5087465047836304,1.60843825340271
1772806381692330000,3.974330078125,-0.8546925187110901,-1.311967134475708,1.5787296295166016
1772806381702262000,3.984261962890625,-0.7321338653564453,-1.0711209774017334,1.5218074321746826
1772806381712191700,3.994191650390625,-0.6084385514259338,-0.7601370215415955,1.4204528331756592
1772806381722123000,4.004123046875,-0.4738557040691376,-0.4464121162891388,1.3121647834777832
1772806381732054800,4.0140546875,-0.31912100315093994,-0.3833433985710144,1.3065766096115112
1772806381741986800,4.02398681640625,-0.28681179881095886,-0.19925877451896667,1.2547613382339478
1772806381751917800,4.033917724609375,-0.29835766553878784,-0.15362711250782013,1.2209751605987549
1772806381761849900,4.043849853515625,-0.3059535324573517,-0.11003755778074265,1.1779459714889526
1772806381771780600,4.053780517578125,-0.2957687973976135,0.05467949062585831,1.0987073183059692
1772806381781713000,4.063712890625,-0.2740864157676697,0.0018618159228935838,1.0948121547698975
1772806381791644000,4.073643798828125,-0.24617275595664978,-0.02382597140967846,1.0122411251068115
1772806381801576000,4.083575927734375,-0.22675883769989014,-0.017763284966349602,0.8580707907676697
1772806381811506700,4.093506591796875,-0.2303096354007721,0.11654578894376755,0.6982238292694092
1772806381821438700,4.103438720703125,-0.2715505361557007,0.19572502374649048,0.6252540349960327
1772806381831370000,4.113369873046875,-0.31530097126960754,0.2509174346923828,0.5855225920677185
1772806381841302000,4.123302001953125,-0.31679579615592957,0.3070313036441803,0.525488555431366
1772806381851232800,4.133232666015625,-0.2773250937461853,0.37494832277297974,0.45020151138305664
1772806381861164800,4.143164794921875,-0.22158698737621307,0.44228261709213257,0.3900447189807892
1772806381871095800,4.153095703125,-0.1738405078649521,0.5429112315177917,0.34291473031044006
1772806381881027800,4.16302783203125,-0.12169075012207031,0.67424076795578,0.29930201172828674
1772806381890958800,4.172958740234375,-0.09494089335203171,0.7030079364776611,0.22473324835300446
1772806381900891000,4.182890869140625,-0.07432349771261215,0.7219472527503967,0.12976332008838654
1772806381910822000,4.19282177734375,-0.06640538573265076,0.6017314195632935,0.02918478287756443
1772806381920753700,4.202753662109375,-0.05295829102396965,0.5154535174369812,-0.07616028189659119
1772806381930685000,4.212684814453125,-0.04448277875781059,0.36236435174942017,-0.19507788121700287
1772806381940617000,4.222616943359375,-0.01992710307240486,0.24237988889217377,-0.3330061733722687
1772806381950549000,4.232549072265625,0.018980614840984344,0.15149258077144623,-0.4555600583553314
1772806381960479700,4.242479736328125,0.05505393072962761,0.11121067404747009,-0.5564765334129333
1772806381970411800,4.252411865234375,0.06849916279315948,0.1254924088716507,-0.6429105401039124
1772806381980342800,4.2623427734375,0.08342458307743073,0.1859656125307083,-0.736714243888855
1772806381990274800,4.27227490234375,0.109022356569767,0.24978746473789215,-0.8172434568405151
1772806382000205800,4.282205810546875,0.15009789168834686,0.33128949999809265,-0.8736236095428467
1772806382010137900,4.292137939453125,0.17394889891147614,0.4006541967391968,-0.8936620354652405
1772806382020068900,4.30206884765625,0.20024468004703522,0.44195476174354553,-0.9119467735290527
1772806382030001000,4.3120009765625,0.20642134547233582,0.4506654441356659,-0.8879445195198059
1772806382039931600,4.321931640625,0.22720278799533844,0.4743875563144684,-0.8015009760856628
1772806382049864000,4.331864013671875,0.23177491128444672,0.5164369940757751,-0.6845312118530273
1772806382059795000,4.341794921875,0.18941813707351685,0.5445072650909424,-0.5941344499588013
1772806382069727000,4.35172705078125,0.07713526487350464,0.5228815674781799,-0.5295655727386475
1772806382079657700,4.36165771484375,-0.07819999754428864,0.42335018515586853,-0.46071353554725647
1772806382089589800,4.37158984375,-0.2267623096704483,0.2598033547401428,-0.38651254773139954
1772806382099521800,4.381521728515625,-0.38377562165260315,0.07357089221477509,-0.2722474932670593
1772806382109452800,4.391452880859375,-0.4883451759815216,-0.003969974350184202,-0.11755885183811188
1772806382119384800,4.401384765625,-0.5554677844047546,0.06570550799369812,0.04934544488787651
1772806382129315800,4.41131591796875,-0.579651415348053,0.19090044498443604,0.19159792363643646
1772806382139247900,4.421247802734375,-0.5118025541305542,0.38914909958839417,0.3006961941719055
1772806382149178600,4.4311787109375,-0.3894047439098358,0.6233999133110046,0.4228929281234741
1772806382159111000,4.44111083984375,-0.2521776556968689,0.758828341960907,0.5494180917739868
1772806382169043000,4.45104296875,-0.10767799615859985,0.8034136295318604,0.6101062297821045
1772806382178975000,4.46097509765625,0.04484470188617706,0.8053146004676819,0.5753429532051086
1772806382188907000,4.470906982421875,0.14611034095287323,0.7902610898017883,0.4166896343231201
1772806382198838000,4.480838134765625,0.24581456184387207,0.713413417339325,0.2527236044406891
1772806382208770000,4.49077001953125,0.395182728767395,0.6187053322792053,0.18519409000873566
1772806382218700800,4.50070068359375,0.5362048149108887,0.49558737874031067,0.21483108401298523
1772806382228632800,4.5106328125,0.5643278360366821,0.40229976177215576,0.2761887013912201
1772806382238564000,4.520564208984375,0.5009232759475708,0.28144633769989014,0.4196532070636749
1772806382248496000,4.53049609375,0.38436630368232727,0.2827896177768707,0.5672330856323242
1772806382258427000,4.540427001953125,0.2196657806634903,0.3016309440135956,0.6814458966255188
1772806382268359000,4.55035888671875,-0.06618514657020569,0.12464819103479385,0.8110001683235168
1772806382278290000,4.5602900390625,-0.452898770570755,-0.3278503119945526,0.7356228828430176
1772806382288222000,4.570221923828125,-0.7523105144500732,-0.9415009617805481,0.2731556296348572
1772806382298153000,4.580153076171875,-0.704505980014801,-1.1971627473831177,-0.22499902546405792
1772806382308085000,4.5900849609375,-0.3693000078201294,-0.6512203812599182,-0.46174633502960205
1772806382318016000,4.60001611328125,0.030419956892728806,-0.04651796817779541,-0.5093873739242554
1772806382327947800,4.60994775390625,0.31810393929481506,0.27226826548576355,-0.49697381258010864
1772806382337879000,4.619879150390625,0.4735473096370697,0.4191562533378601,-0.5820404887199402
1772806382347811000,4.62981103515625,0.596253514289856,0.4633178412914276,-0.7100623846054077
1772806382357743000,4.6397431640625,0.6890332698822021,0.7134608626365662,-0.7991887927055359
1772806382367673900,4.649673828125,0.6610005497932434,1.0663070678710938,-0.7518056035041809
1772806382377606000,4.65960595703125,0.47179684042930603,0.8180756568908691,-0.5743671655654907
1772806382387537000,4.669536865234375,0.15557894110679626,0.2413652241230011,-0.37164491415023804
1772806382397469000,4.679468994140625,-0.15458904206752777,-0.11393029987812042,-0.2807999849319458
1772806382407400000,4.68939990234375,-0.33575668931007385,-0.2622920572757721,-0.38969796895980835
1772806382417332000,4.69933203125,-0.432280570268631,-0.41809898614883423,-0.6133694052696228
1772806382427263000,4.709262939453125,-0.5035419464111328,-0.6929816603660583,-0.7527837753295898
1772806382437195000,4.719195068359375,-0.5411404967308044,-0.853499174118042,-0.7971158027648926
1772806382447126000,4.7291259765625,-0.5810162425041199,-0.9585784673690796,-0.8487963080406189
1772806382457058000,4.73905810546875,-0.5808386206626892,-1.0578349828720093,-0.840050458908081
1772806382466989000,4.748989013671875,-0.5796708464622498,-1.2670539617538452,-0.8148548603057861
1772806382476920800,4.7589208984375,-0.5824298858642578,-1.5029717683792114,-0.7859600782394409
1772806382486851800,4.768851806640625,-0.5411117076873779,-1.6004644632339478,-0.7290366291999817
1772806382496784000,4.778783935546875,-0.4709840416908264,-1.5974481105804443,-0.6412095427513123
1772806382506715100,4.788715087890625,-0.36781343817710876,-1.5518183708190918,-0.5133029818534851
1772806382516647000,4.79864697265625,-0.25179681181907654,-1.4534244537353516,-0.3786514401435852
1772806382526578000,4.808577880859375,-0.10891076922416687,-1.3497151136398315,-0.24405500292778015
1772806382536510000,4.818510009765625,0.07433734834194183,-1.276076316833496,-0.1573890894651413
1772806382546442000,4.82844189453125,0.2757444977760315,-1.1848427057266235,-0.15125450491905212
1772806382556373000,4.838373046875,0.36806803941726685,-1.0297447443008423,-0.23146411776542664
1772806382566305000,4.848304931640625,0.3489425480365753,-0.9153566956520081,-0.3552854061126709
1772806382576236000,4.858236083984375,0.2713766396045685,-0.9118972420692444,-0.4456576406955719
1772806382586168000,4.86816796875,0.22640438377857208,-0.9330781698226929,-0.467282235622406
1772806382596098800,4.878098876953125,0.20768901705741882,-0.9139862060546875,-0.4561166763305664
1772806382606030800,4.88803076171875,0.21041609346866608,-0.9792032837867737,-0.41046983003616333
1772806382615962000,4.897962158203125,0.2113894820213318,-0.9235512614250183,-0.3496951460838318
1772806382625894100,4.90789404296875,0.2648311257362366,-0.8436763882637024,-0.2922995090484619
1772806382635825000,4.917824951171875,0.32435277104377747,-0.825777530670166,-0.20357869565486908
1772806382645757000,4.9277568359375,0.3753850758075714,-0.8223452568054199,-0.11494815349578857
1772806382655688000,4.93768798828125,0.4231739044189453,-0.8409037590026855,-0.0651979148387909
1772806382665620000,4.947619873046875,0.4400673806667328,-0.8593413829803467,-0.08258169889450073
1772806382675551000,4.957551025390625,0.39033952355384827,-0.8090121150016785,-0.1124354675412178
1772806382685483000,4.96748291015625,0.33559849858283997,-0.8396416902542114,-0.13696211576461792
1772806382695414000,4.9774140625,0.30139926075935364,-0.892055332660675,-0.1523922085762024
1772806382705345800,4.987345703125,0.2736608386039734,-0.9004696011543274,-0.16725397109985352
1772806382715277000,4.997277099609375,0.25442004203796387,-0.8788540959358215,-0.19443818926811218
1772806382725209000,5.007208984375,0.24646863341331482,-0.8531039953231812,-0.24102140963077545
1772806382735139800,5.017139892578125,0.26028990745544434,-0.8270473480224609,-0.3009502589702606
1772806382745071900,5.02707177734375,0.2789749205112457,-0.8108529448509216,-0.3539271950721741
1772806382755004000,5.03700390625,0.29616615176200867,-0.7877579927444458,-0.38063734769821167
1772806382764935000,5.046934814453125,0.3124500513076782,-0.7806617021560669,-0.3858627378940582
1772806382774867000,5.056866943359375,0.3309054970741272,-0.7676303386688232,-0.37549400329589844
1772806382784798000,5.0667978515625,0.3554774224758148,-0.7346324324607849,-0.3463408946990967
1772806382794730000,5.07672998046875,0.379270076751709,-0.7155280113220215,-0.31057703495025635
1772806382804661000,5.086660888671875,0.3838094472885132,-0.6833865642547607,-0.27114254236221313
1772806382814592800,5.0965927734375,0.3733530640602112,-0.6609193682670593,-0.24123871326446533
1772806382824524000,5.10652392578125,0.36577877402305603,-0.7098786234855652,-0.24135030806064606
1772806382834456000,5.1164560546875,0.3555738031864166,-0.7863593101501465,-0.251573383808136
1772806382844387000,5.126386962890625,0.34678032994270325,-0.8505761027336121,-0.26825836300849915
1772806382854318800,5.13631884765625,0.34814387559890747,-0.8866842985153198,-0.2785349488258362
1772806382864249900,5.146249755859375,0.35264086723327637,-0.9214721322059631,-0.2944404184818268
1772806382874182000,5.156181884765625,0.33679187297821045,-0.9439576864242554,-0.316468209028244
1772806382884113000,5.16611279296875,0.32107841968536377,-0.9720215797424316,-0.33732983469963074
1772806382894045000,5.176044921875,0.3093578517436981,-0.9911169409751892,-0.33253639936447144
1772806382903976000,5.185975830078125,0.30834078788757324,-1.001607894897461,-0.2881327271461487
1772806382913908000,5.195907958984375,0.32380443811416626,-0.982006847858429,-0.217242032289505
1772806382923839000,5.2058388671875,0.35885190963745117,-0.9771886467933655,-0.1498587429523468
1772806382933771000,5.21577099609375,0.39132729172706604,-1.0000468492507935,-0.0973888710141182
1772806382943702000,5.225701904296875,0.41275322437286377,-1.052846908569336,-0.06998573988676071
1772806382953634000,5.235634033203125,0.43211039900779724,-1.1288567781448364,-0.052508480846881866
1772806382963566000,5.245566162109375,0.45142683386802673,-1.1643034219741821,-0.020783841609954834
1772806382973496800,5.255496826171875,0.46802765130996704,-1.1775254011154175,0.037519145756959915
1772806382983428900,5.265428955078125,0.4614456593990326,-1.1761901378631592,0.1390167474746704
1772806382993360100,5.275360107421875,0.40885061025619507,-1.1261330842971802,0.2887899875640869
1772806383003292000,5.2852919921875,0.3487606346607208,-1.0650990009307861,0.4652467966079712
1772806383013223000,5.295222900390625,0.3239799439907074,-0.9871214032173157,0.6196272969245911
1772806383023155000,5.305155029296875,0.3379010856151581,-0.8238001465797424,0.7918195724487305
1772806383033086000,5.3150859375,0.3464093506336212,-0.7015104293823242,0.9294823408126831
1772806383043018000,5.32501806640625,0.3206360638141632,-0.5510168075561523,1.0593479871749878
1772806383052949000,5.334948974609375,0.26981016993522644,-0.37035995721817017,1.1865005493164062
1772806383062881000,5.344881103515625,0.21592962741851807,-0.2502039968967438,1.3057595491409302
1772806383072811800,5.354811767578125,0.15122413635253906,-0.1963157206773758,1.4318262338638306
1772806383082743800,5.364743896484375,0.07908842712640762,-0.16263605654239655,1.591176152229309
1772806383092675000,5.374675048828125,0.023367639631032944,-0.1286165714263916,1.7426661252975464
1772806383102607000,5.384607177734375,0.02455887198448181,0.0771227478981018,1.6191977262496948
1772806383112537900,5.394537841796875,0.04234319552779198,-0.16801190376281738,1.6118625402450562
1772806383122470000,5.404469970703125,0.08586324006319046,-0.5294097661972046,1.6005480289459229
1772806383132401000,5.41440087890625,0.11822464317083359,-0.6547544002532959,1.53529691696167
1772806383142333000,5.4243330078125,0.1628032922744751,-0.683142364025116,1.4174789190292358
1772806383152264000,5.434263916015625,0.19988727569580078,-0.6812419295310974,1.3510847091674805
1772806383162196000,5.444196044921875,0.18835020065307617,-0.6187180876731873,1.3152060508728027
1772806383172128000,5.4541279296875,0.1459023505449295,-0.49340197443962097,1.2632155418395996
1772806383182058000,5.46405810546875,0.10551097989082336,-0.4204087257385254,1.1530553102493286
1772806383191990000,5.473989990234375,0.03051077201962471,-0.5181387662887573,1.025266170501709
1772806383201921000,5.483921142578125,-0.004749481566250324,-0.5617621541023254,0.8914015293121338
1772806383211853000,5.49385302734375,-0.0043891556560993195,-0.5146827697753906,0.7729348540306091
1772806383221783800,5.50378369140625,0.03476224094629288,-0.4376945197582245,0.6388968825340271
1772806383231715800,5.5137158203125,0.07615096122026443,-0.35639381408691406,0.49018141627311707
1772806383241647000,5.523647216796875,0.10223795473575592,-0.2629013955593109,0.3632785975933075
1772806383251579100,5.5335791015625,0.11196275055408478,-0.23362261056900024,0.2605876326560974
1772806383261510000,5.543510009765625,0.08489997684955597,-0.3142586052417755,0.19195719063282013
1772806383271442000,5.55344189453125,0.029077723622322083,-0.46879756450653076,0.14961425960063934
1772806383281373000,5.563373046875,-0.04741571843624115,-0.6404441595077515,0.12108407914638519
1772806383291305000,5.573304931640625,-0.11843210458755493,-0.7609735131263733,0.09202020615339279
1772806383301236000,5.583236083984375,-0.183186337351799,-0.8258627653121948,0.07393680512905121
1772806383311168000,5.59316796875,-0.21849319338798523,-0.811726987361908,0.06563307344913483
1772806383321099000,5.60309912109375,-0.2115282267332077,-0.7271902561187744,0.05921964719891548
1772806383331031000,5.613031005859375,-0.17006467282772064,-0.647796630859375,0.03850904107093811
1772806383340962000,5.622962158203125,-0.11652315407991409,-0.603712797164917,0.005007009021937847
1772806383350894000,5.63289404296875,-0.06034829467535019,-0.5691279172897339,-0.022548452019691467
1772806383360825000,5.6428251953125,-0.016892431303858757,-0.4814220368862152,-0.050212569534778595
1772806383370757000,5.652757080078125,0.0012213257141411304,-0.3569059371948242,-0.05751602351665497
1772806383380688000,5.66268798828125,-0.014332067221403122,-0.22310099005699158,-0.07732674479484558
1772806383390620000,5.672619873046875,-0.03562191128730774,-0.11900122463703156,-0.11833596229553223
1772806383400552000,5.682552001953125,-0.05160913243889809,-0.05065971612930298,-0.16633571684360504
1772806383410483000,5.69248291015625,0.033912960439920425,-0.049671683460474014,-0.20858223736286163
1772806383420415000,5.7024150390625,0.14651992917060852,-0.0735011175274849,-0.20865494012832642
1772806383430346000,5.712345947265625,0.17612390220165253,-0.054606787860393524,-0.192977175116539
1772806383440278000,5.722278076171875,0.17902088165283203,-0.036978255957365036,-0.15269926190376282
1772806383450209000,5.732208984375,0.16246961057186127,-0.04063770920038223,-0.13446353375911713
1772806383460141000,5.74214111328125,0.14319443702697754,-0.05880366265773773,-0.1408441960811615
1772806383470072000,5.752072021484375,0.12876810133457184,-0.06579632312059402,-0.13631576299667358
1772806383480004000,5.762004150390625,0.10924845933914185,-0.07218178361654282,-0.11703287810087204
1772806383489934800,5.771934814453125,0.068870410323143,-0.14617691934108734,-0.10031062364578247
1772806383499867000,5.781866943359375,0.014654843136668205,-0.2404743880033493,-0.08766353875398636
1772806383509798100,5.791798095703125,-0.042327217757701874,-0.29204970598220825,-0.07097484171390533
1772806383519730200,5.801730224609375,-0.0728427842259407,-0.25194862484931946,-0.059782639145851135
1772806383529661000,5.811660888671875,-0.0841716006398201,-0.17650499939918518,-0.07293572276830673
1772806383539593000,5.821593017578125,-0.06682776659727097,-0.10500311106443405,-0.10084618628025055
1772806383549524000,5.83152392578125,-0.03706640750169754,-0.06639846414327621,-0.12498561292886734
1772806383559456000,5.8414560546875,-0.020845893770456314,-0.033421605825424194,-0.12056955695152283
1772806383569387000,5.851386962890625,-0.02798369713127613,-0.019700467586517334,-0.09489082545042038
1772806383579319000,5.861319091796875,-0.07034499943256378,-0.07337354868650436,-0.06284873932600021
1772806383589250000,5.87125,-0.11758921295404434,-0.13239265978336334,-0.01810443587601185
1772806383599181800,5.881181884765625,-0.14979694783687592,-0.14538276195526123,0.009768474847078323
1772806383609113900,5.89111376953125,-0.16533836722373962,-0.12581731379032135,0.03335502743721008
1772806383619045000,5.901045166015625,-0.15719041228294373,-0.08702411502599716,0.049864761531353
1772806383628977200,5.91097705078125,-0.13780634105205536,-0.056473128497600555,0.056830525398254395
1772806383638908000,5.920907958984375,-0.1120370551943779,-0.04580850154161453,0.08077127486467361
1772806383648840000,5.93083984375,-0.10716347396373749,-0.07254237681627274,0.09655716270208359
1772806383658771000,5.94077099609375,-0.09756357222795486,-0.0799209326505661,0.09357842057943344
1772806383668703000,5.950702880859375,-0.09892284870147705,-0.09328946471214294,0.05589469149708748
1772806383678634000,5.960634033203125,-0.11333055049180984,-0.11737962067127228,0.01830390654504299
1772806383688566000,5.97056591796875,-0.12943148612976074,-0.10750249028205872,-0.00708667142316699
1772806383698497000,5.9804970703125,-0.16302379965782166,-0.1420394331216812,-0.03839665651321411
1772806383708429000,5.990428955078125,-0.18906792998313904,-0.15274827182292938,-0.05971259996294975
1772806383718360000,6.000360107421875,-0.20455606281757355,-0.12266919016838074,-0.05915892869234085
1772806383728292000,6.0102919921875,-0.2070426642894745,-0.06258508563041687,-0.056295763701200485
1772806383738223000,6.02022314453125,-0.20097172260284424,0.01799311488866806,-0.05445897951722145
1772806383748155000,6.03015478515625,-0.19102801382541656,0.07292027771472931,-0.05020458251237869
1772806383758086000,6.0400859375,-0.1822478324174881,0.07191440463066101,-0.07745883613824844
1772806383768018000,6.050017822265625,-0.16663213074207306,0.04814009740948677,-0.13493384420871735
1772806383777949200,6.05994921875,-0.1456858366727829,0.06753190606832504,-0.20018209517002106
1772806383787881000,6.069880859375,-0.12637285888195038,0.07521139830350876,-0.23532836139202118
1772806383797812000,6.07981201171875,-0.11408236622810364,0.07649024575948715,-0.25146764516830444
1772806383807744000,6.089743896484375,-0.10884366184473038,0.07539675384759903,-0.2513810992240906
1772806383817674800,6.0996748046875,-0.10821621865034103,0.07901359349489212,-0.24627715349197388
1772806383827607000,6.10960693359375,-0.10022860020399094,0.13086320459842682,-0.23435737192630768
1772806383837538000,6.1195380859375,-0.08830323070287704,0.18043023347854614,-0.2302936613559723
1772806383847470000,6.129469970703125,-0.07674510776996613,0.1947343349456787,-0.2238520085811615
1772806383857402000,6.139402099609375,-0.07296501845121384,0.19860416650772095,-0.23032161593437195
1772806383867332900,6.149332763671875,-0.07077670097351074,0.20934976637363434,-0.26147449016571045
1772806383877265000,6.159264892578125,-0.08335480839014053,0.21133141219615936,-0.3118148744106293
1772806383887196200,6.169196044921875,-0.0969606339931488,0.2149951308965683,-0.3430604338645935
1772806383897128200,6.179128173828125,-0.12119513750076294,0.22963611781597137,-0.35579246282577515
1772806383907059000,6.189058837890625,-0.14920678734779358,0.27073749899864197,-0.3587738573551178
1772806383916991000,6.198990966796875,-0.17714229226112366,0.3241943120956421,-0.3537199795246124
1772806383926922000,6.208921875,-0.20354406535625458,0.36043035984039307,-0.35204485058784485
1772806383936853800,6.218853759765625,-0.2120688408613205,0.41859298944473267,-0.34076184034347534
1772806383946785000,6.228784912109375,-0.1589829921722412,0.4426189661026001,-0.33361124992370605
1772806383956717000,6.238717041015625,0.00529729388654232,0.4121212363243103,-0.31131261587142944
1772806383966648000,6.24864794921875,0.024335432797670364,0.41428080201148987,-0.32418739795684814
1772806383976579800,6.258579833984375,0.0011883024126291275,0.4495684802532196,-0.36284372210502625
1772806383986511000,6.268510986328125,-0.006656571291387081,0.4444826543331146,-0.4059467017650604
1772806383996443100,6.278443115234375,0.009823868982493877,0.438100129365921,-0.41127195954322815
1772806384006374000,6.288373779296875,0.035531096160411835,0.4065861403942108,-0.3809462785720825
1772806384016306000,6.298305908203125,0.02640683948993683,0.3893943727016449,-0.3283264935016632
1772806384026237000,6.30823681640625,-0.03344717249274254,0.3861274719238281,-0.2722770571708679
1772806384036169000,6.3181689453125,-0.11082158982753754,0.3841641843318939,-0.17521336674690247
1772806384046100000,6.328099853515625,-0.1458464115858078,0.31880515813827515,-0.059842828661203384
1772806384056032000,6.338031982421875,-0.0796532854437828,0.2402043491601944,0.010812699794769287
1772806384065963000,6.347962890625,0.031440746039152145,0.24344834685325623,0.014938469044864178
1772806384075895000,6.35789501953125,0.1571693867444992,0.34842321276664734,0.008242483250796795
1772806384085826800,6.367826904296875,0.26469185948371887,0.4008648693561554,0.038363367319107056
1772806384095758000,6.377758056640625,0.3402545154094696,0.39867866039276123,0.09580295532941818
1772806384105690000,6.387690185546875,0.3746843934059143,0.37158074975013733,0.1134333536028862
1772806384115621000,6.39762109375,0.3720545172691345,0.37577441334724426,0.08791680634021759
1772806384125553000,6.407552978515625,0.34030619263648987,0.3787270784378052,0.05038168281316757
1772806384135484000,6.41748388671875,0.2645922303199768,0.337053120136261,0.017598435282707214
1772806384145416000,6.427416015625,0.14007028937339783,0.2962646782398224,-0.03767281025648117
1772806384155347200,6.43734716796875,0.016683371737599373,0.22804595530033112,-0.08860523253679276
1772806384165279000,6.447279052734375,-0.09252647310495377,0.13826999068260193,-0.16574396193027496
1772806384175210000,6.4572099609375,-0.17053020000457764,0.0790301039814949,-0.25330257415771484
1772806384185142000,6.46714208984375,-0.17022418975830078,0.10787426680326462,-0.3271658718585968
1772806384195072800,6.47707275390625,-0.09268466383218765,0.2650902569293976,-0.3462327718734741
1772806384205005000,6.487005126953125,-0.005794239696115255,0.43702447414398193,-0.3275802731513977
1772806384214936000,6.49693603515625,0.0840163379907608,0.5623022317886353,-0.30643048882484436
1772806384224868000,6.5068681640625,0.2113623172044754,0.6196140050888062,-0.28315553069114685
1772806384234798800,6.516798828125,0.21551018953323364,0.6429126262664795,-0.33075207471847534
1772806384244731000,6.52673095703125,0.14841583371162415,0.6431499123573303,-0.4428322911262512
1772806384254662100,6.536662109375,0.06799130141735077,0.6021215319633484,-0.5494474172592163
1772806384264594200,6.54659423828125,0.008325840346515179,0.529970645904541,-0.6088982224464417
1772806384274525000,6.55652490234375,-0.05251993238925934,0.4139806628227234,-0.6363050937652588
1772806384284457000,6.56645703125,-0.10849105566740036,0.26087501645088196,-0.6696425080299377
1772806384294388000,6.576387939453125,-0.07110453397035599,0.05902017652988434,-0.6549853086471558
1772806384304320000,6.586320068359375,-0.04662928730249405,-0.12803013622760773,-0.6606338620185852
1772806384314251000,6.5962509765625,-0.05546112731099129,-0.24083338677883148,-0.6838651299476624
1772806384324183000,6.60618310546875,-0.1068340390920639,-0.29208457469940186,-0.6751419305801392
1772806384334114000,6.616114013671875,-0.14882595837116241,-0.36493828892707825,-0.6652624011039734
1772806384344045800,6.6260458984375,-0.16195428371429443,-0.45424792170524597,-0.6531434655189514
1772806384353977900,6.635977783203125,-0.17637476325035095,-0.5339334607124329,-0.6802405714988708
1772806384363909000,6.6459091796875,-0.15205371379852295,-0.5727497935295105,-0.7564466595649719
1772806384373841200,6.655841064453125,-0.08790668845176697,-0.5643283724784851,-0.8230560421943665
1772806384383772000,6.66577197265625,-0.023856597021222115,-0.48851296305656433,-0.8465152978897095
1772806384393704000,6.675703857421875,0.02123471535742283,-0.3990051746368408,-0.83310866355896
1772806384403635000,6.685635009765625,0.030294256284832954,-0.3498147428035736,-0.8121522665023804
1772806384413567000,6.69556689453125,0.0369364470243454,-0.2944883704185486,-0.7954207062721252
1772806384423498000,6.705498046875,0.04827671870589256,-0.23197491466999054,-0.8090547323226929
1772806384433430000,6.715429931640625,0.061655908823013306,-0.2245393693447113,-0.8289040923118591
1772806384443361000,6.725361083984375,0.05627845227718353,-0.21115031838417053,-0.8404284119606018
1772806384453293000,6.73529296875,0.05263657867908478,-0.21166591346263885,-0.8318354487419128
1772806384463223800,6.745223876953125,0.045464687049388885,-0.3040371239185333,-0.819351077079773
1772806384473156000,6.755156005859375,0.03618863224983215,-0.3151531517505646,-0.8148753643035889
1772806384483087000,6.765087158203125,0.03749491274356842,-0.29537147283554077,-0.7967954277992249
1772806384493019100,6.77501904296875,0.036683447659015656,-0.32817867398262024,-0.7615810036659241
1772806384502950000,6.784949951171875,0.049964096397161484,-0.3481265604496002,-0.7234343886375427
1772806384512882000,6.7948818359375,0.07731395959854126,-0.34477442502975464,-0.6879144906997681
1772806384522813200,6.804813232421875,0.10969667136669159,-0.3392595648765564,-0.6527040004730225
1772806384532745000,6.814744873046875,0.13920822739601135,-0.36341121792793274,-0.6225796937942505
1772806384542676000,6.824676025390625,0.15540237724781036,-0.39442160725593567,-0.596246063709259
1772806384552608000,6.83460791015625,0.15628547966480255,-0.4304656386375427,-0.5836154818534851
1772806384562539000,6.8445390625,0.1561049073934555,-0.4580115079879761,-0.578544557094574
1772806384572470800,6.854470703125,0.15455202758312225,-0.439857542514801,-0.5926724076271057
1772806384582402000,6.864402099609375,0.1536436229944229,-0.43335357308387756,-0.6012732982635498
1772806384592334000,6.874333984375,0.14847388863563538,-0.45837557315826416,-0.5888108015060425
1772806384602264800,6.884264892578125,0.12377866357564926,-0.5051015019416809,-0.5627589821815491
1772806384612196900,6.89419677734375,0.10240387171506882,-0.5424147844314575,-0.5441620945930481
1772806384622129000,6.90412890625,0.09588631242513657,-0.5362328290939331,-0.5338873863220215
1772806384632060200,6.91406005859375,0.10955791920423508,-0.5221809148788452,-0.5109471678733826
1772806384641992200,6.9239921875,0.12464845180511475,-0.5396317839622498,-0.4631500840187073
1772806384651923000,6.9339228515625,0.1337556689977646,-0.5619869232177734,-0.40426838397979736
1772806384661855000,6.94385498046875,0.14679236710071564,-0.5794798731803894,-0.34170299768447876
1772806384671786000,6.953785888671875,0.1553424447774887,-0.6356813907623291,-0.29115381836891174
1772806384681718000,6.963718017578125,0.14252997934818268,-0.7227798104286194,-0.2531169354915619
1772806384691649000,6.97364892578125,0.12776967883110046,-0.782970130443573,-0.20941394567489624
1772806384701581000,6.9835810546875,0.12545086443424225,-0.82070392370224,-0.17569699883460999
1772806384711512000,6.993511962890625,0.13563452661037445,-0.8257229328155518,-0.1418527364730835
1772806384721443800,7.00344384765625,0.14774179458618164,-0.81142258644104,-0.1252782940864563
1772806384731375000,7.013375,0.16977624595165253,-0.8184471726417542,-0.1364782154560089
1772806384741307100,7.02330712890625,0.19235347211360931,-0.8063300848007202,-0.16377295553684235
1772806384751238100,7.033238037109375,0.21305102109909058,-0.7853171825408936,-0.1921076625585556
1772806384761170000,7.043169921875,0.22449170053005219,-0.7866849899291992,-0.23666952550411224
1772806384771101000,7.053100830078125,0.2286856472492218,-0.7848122715950012,-0.2583780288696289
1772806384781033000,7.063032958984375,0.2235308289527893,-0.7993898987770081,-0.2548333406448364
1772806384790964000,7.0729638671875,0.2141738086938858,-0.8434239029884338,-0.2375750094652176
1772806384800896000,7.08289599609375,0.2006279081106186,-0.8517271280288696,-0.221144899725914
1772806384810827000,7.092826904296875,0.1709112972021103,-0.8756241798400879,-0.18612726032733917
1772806384820759000,7.102759033203125,0.14677639305591583,-0.9605771899223328,-0.1545190066099167
1772806384830689800,7.112689697265625,0.13208825886249542,-1.029829740524292,-0.12389398366212845
1772806384840621800,7.122621826171875,0.13979224860668182,-1.0523664951324463,-0.0771147608757019
1772806384850553000,7.132552978515625,0.15487027168273926,-1.0572093725204468,-0.0251583494246006
1772806384860485000,7.142485107421875,0.169233500957489,-1.0234248638153076,0.058043330907821655
1772806384870416000,7.152415771484375,0.1891440898180008,-1.0234498977661133,0.16311275959014893
1772806384880348000,7.162347900390625,0.2045222520828247,-1.0625426769256592,0.2843838036060333
1772806384890279200,7.172279052734375,0.22297316789627075,-1.090664267539978,0.4103425145149231
1772806384900211200,7.182211181640625,0.24347923696041107,-1.112387776374817,0.523618757724762
1772806384910143000,7.19214306640625,0.2516373097896576,-1.0754846334457397,0.6137888431549072
1772806384920074000,7.202073974609375,0.2412206083536148,-1.0184905529022217,0.70316082239151
1772806384930006000,7.212006103515625,0.1943652182817459,-0.9906056523323059,0.7995930910110474
1772806384939936800,7.221936767578125,0.13338735699653625,-0.9807961583137512,0.8915879726409912
1772806384949868800,7.231868896484375,0.07213570922613144,-0.921565055847168,1.0247758626937866
1772806384959800000,7.241800048828125,-0.01871616393327713,-0.7945535778999329,1.2256618738174438
1772806384969732000,7.251732177734375,-0.139611154794693,-0.7099257707595825,1.471997618675232
1772806384979662800,7.261662841796875,-0.2241385579109192,-0.8489521145820618,1.72739839553833
1772806384989595000,7.271594970703125,-0.2897742986679077,-1.0248302221298218,1.9142482280731201
1772806384999526100,7.281526123046875,-0.34353286027908325,-1.142720341682434,1.987795352935791
1772806385009458200,7.291458251953125,-0.3436788022518158,-1.0266566276550293,1.8960548639297485
1772806385019389000,7.301388916015625,-0.2803371250629425,-0.8306572437286377,1.490091323852539
1772806385029321000,7.311321044921875,-0.2690671384334564,-1.2033761739730835,1.3347723484039307
1772806385039252000,7.321251953125,-0.26519012451171875,-1.3138761520385742,1.3014625310897827
1772806385049184000,7.33118408203125,-0.24094922840595245,-0.9534772038459778,1.3313703536987305
1772806385059115000,7.341114990234375,-0.18107497692108154,-0.5736209154129028,1.3573212623596191
1772806385069047000,7.351047119140625,-0.1102101281285286,-0.39177975058555603,1.3439466953277588
1772806385078978000,7.36097802734375,-0.06639020889997482,-0.32749637961387634,1.2701858282089233
1772806385088910000,7.37091015625,-0.059293948113918304,-0.2661304771900177,1.1645106077194214
1772806385098840800,7.3808408203125,-0.0938202366232872,-0.21822340786457062,1.042015552520752
1772806385108773000,7.390773193359375,-0.09001031517982483,-0.19399504363536835,0.8810967206954956
1772806385118704000,7.4007041015625,-0.05916132405400276,-0.2636641263961792,0.720641016960144
1772806385128636000,7.410635986328125,-0.06602083146572113,-0.3474501073360443,0.5845292210578918
1772806385138567000,7.42056689453125,-0.0938631147146225,-0.3434511125087738,0.4945969581604004
1772806385148499000,7.4304990234375,-0.13276630640029907,-0.3413943350315094,0.4391153156757355
1772806385158430200,7.44043017578125,-0.16859008371829987,-0.3220973610877991,0.39132994413375854
1772806385168362000,7.450362060546875,-0.18262706696987152,-0.36078348755836487,0.35871660709381104
1772806385178294000,7.4602939453125,-0.1821005642414093,-0.4137747883796692,0.33250629901885986
1772806385188225800,7.470225830078125,-0.15794409811496735,-0.4435287117958069,0.31174537539482117
1772806385198157800,7.48015771484375,-0.1219480112195015,-0.47987526655197144,0.2983970642089844
1772806385208088800,7.4900888671875,-0.08607576042413712,-0.49570509791374207,0.27860206365585327
1772806385218020900,7.500020751953125,-0.03943289443850517,-0.4768112897872925,0.27138543128967285
1772806385227951900,7.509951904296875,0.006884537637233734,-0.42009955644607544,0.2664865553379059
1772806385237884000,7.5198837890625,0.05281980335712433,-0.33231404423713684,0.26179778575897217
1772806385247815000,7.52981494140625,0.08814024180173874,-0.22253666818141937,0.23909008502960205
1772806385257747000,7.539746826171875,0.11705045402050018,-0.12079699337482452,0.1922951489686966
1772806385267677700,7.549677734375,0.14373080432415009,-0.04578293487429619,0.14246846735477448
1772806385277609700,7.559609619140625,0.17972634732723236,0.013917413540184498,0.08514578640460968
1772806385287541000,7.569541015625,0.20120927691459656,0.03846137225627899,0.023805197328329086
1772806385297472800,7.57947265625,0.20023934543132782,0.02947773039340973,-0.03304450213909149
1772806385307403800,7.58940380859375,0.19015049934387207,-0.006188121158629656,-0.08097340911626816
1772806385317335800,7.599335693359375,0.16867849230766296,-0.04398290440440178,-0.12549027800559998
1772806385327266800,7.609266845703125,0.1528731733560562,-0.061103835701942444,-0.15998007357120514
1772806385337198800,7.61919873046875,0.144075408577919,-0.05603663623332977,-0.1998702436685562
1772806385347129900,7.6291298828125,0.13200516998767853,-0.0785166472196579,-0.2193605899810791
1772806385357062000,7.639061767578125,0.1143667921423912,-0.10257857292890549,-0.23183882236480713
1772806385366992600,7.64899267578125,0.1004837304353714,-0.1162421852350235,-0.24106986820697784
1772806385376924700,7.658924560546875,0.07317700982093811,-0.1529940813779831,-0.2233518660068512
1772806385386856000,7.66885595703125,0.038241129368543625,-0.16110312938690186,-0.21748705208301544
1772806385396788000,7.6787880859375,0.015450594946742058,-0.15323401987552643,-0.23783732950687408
1772806385406718700,7.68871875,-0.006214220076799393,-0.12359624356031418,-0.2724091410636902
1772806385416650800,7.698650634765625,-0.003226952161639929,-0.06910236924886703,-0.3233239948749542
1772806385426581800,7.708581787109375,0.0065135592594742775,-0.03068946860730648,-0.356326699256897
1772806385436513800,7.718513671875,0.017906296998262405,0.039087746292352676,-0.34821948409080505
1772806385446444800,7.72844482421875,0.027458256110548973,0.08908913284540176,-0.3217349052429199
1772806385456376800,7.738376953125,0.01678830198943615,0.1325354129076004,-0.28395554423332214
1772806385466307800,7.748307861328125,0.005005944054573774,0.16535407304763794,-0.2528487741947174
1772806385476240000,7.758239990234375,-0.008885104209184647,0.17835509777069092,-0.21690408885478973
1772806385486171000,7.7681708984375,-0.033190708607435226,0.1948232799768448,-0.17039038240909576
1772806385496103000,7.77810302734375,-0.05825664848089218,0.20113949477672577,-0.12206731736660004
1772806385506034000,7.788033935546875,-0.07716908305883408,0.2019115537405014,-0.09524422883987427
1772806385515966000,7.797966064453125,-0.10397939383983612,0.22047963738441467,-0.09363434463739395
1772806385525896700,7.807896728515625,-0.14267991483211517,0.3824690878391266,0.0022072279825806618
1772806385535828700,7.817828857421875,-0.16803188621997833,0.3373609781265259,-0.04694913327693939
1772806385545760000,7.827760009765625,-0.19858339428901672,0.25619903206825256,-0.057737600058317184
1772806385555691800,7.83769189453125,-0.2402498871088028,0.23477602005004883,-0.02455887198448181
1772806385565623800,7.847623779296875,-0.29047736525535583,0.2520407736301422,0.024141822010278702
1772806385575554800,7.857554931640625,-0.3238816559314728,0.2617517113685608,0.07342042028903961
1772806385585486800,7.86748681640625,-0.34305617213249207,0.2975935935974121,0.13655757904052734
1772806385595417900,7.87741796875,-0.32796749472618103,0.3536110520362854,0.19982044398784637
1772806385605350000,7.887349853515625,-0.2873060703277588,0.42532092332839966,0.23710043728351593
1772806385615281000,7.897281005859375,-0.23628869652748108,0.4574245512485504,0.25329163670539856
1772806385625213000,7.907212890625,-0.17899265885353088,0.43102356791496277,0.2403620034456253
1772806385635143700,7.917143798828125,-0.15356318652629852,0.37387746572494507,0.2147330790758133
1772806385645075700,7.92707568359375,-0.14290229976177216,0.34321168065071106,0.19057953357696533
1772806385655007000,7.937007080078125,-0.1281001716852188,0.3113701343536377,0.15328462421894073
1772806385664939000,7.94693896484375,-0.12111816555261612,0.27886226773262024,0.11584644019603729
1772806385674869800,7.956869873046875,-0.11993385851383209,0.2443101406097412,0.07788334786891937
1772806385684801800,7.9668017578125,-0.1069813072681427,0.18227232992649078,0.02611735463142395
1772806385694732800,7.97673291015625,-0.09524901956319809,0.12105078995227814,-0.033490847796201706
1772806385704664800,7.986664794921875,-0.05699164792895317,0.20086120069026947,-0.04243241250514984
1772806385714595800,7.996595947265625,-0.008492554537951946,0.25722700357437134,-0.07644497603178024
