time,seconds_elapsed,z,y,x
1772806487872367400,0.062367431640625,3.5333138271242377,0.7913048376001417,-0.38991679775752125
1772806487882299400,0.07229931640625,3.98850148088932,0.8265598369851708,-0.5514136930719018
1772806487892230400,0.08223046875,4.047261712893843,0.9146018391840159,-0.5360548689637333
1772806487902162400,0.092162353515625,3.742449329513311,0.9564083060391246,-0.44207083643004297
1772806487912093400,0.102093505859375,3.2999738578051327,1.0486340236634015,-0.16508571358658372
1772806487922024400,0.1120244140625,3.0142367617726324,1.0998637870978563,-0.034099034282937646
1772806487931956500,0.12195654296875,2.9940894612789153,1.2474370787389575,-0.20303791616633532
1772806487941887500,0.131887451171875,3.072934449934959,1.4369548574663698,-0.5878383207581936
1772806487951819500,0.141819580078125,3.3975714777261015,1.6859888011321424,-0.8629360954850912
1772806487961750500,0.15175048828125,3.8835996754348274,1.8846924874864517,-0.6078079265974462
1772806487971681300,0.161681396484375,4.355896869432926,1.8654136403903363,0.3783351541005075
1772806487981613300,0.17161328125,4.979876909282803,1.7702271732643247,1.1295216971281916
1772806487991544600,0.181544677734375,5.808358361980319,1.8185303086623548,1.3980239460475743
1772806488001476600,0.1914765625,6.881534706225991,1.7828385252952574,1.364785254921019
1772806488011407400,0.201407470703125,8.010614139479399,1.9249048170179128,1.0811693888261913
1772806488021338400,0.21133837890625,7.871699005264043,2.10412770396322,0.8949772473901509
1772806488031270400,0.2212705078125,6.387861546722054,2.3240315608650444,0.4981178639531135
1772806488041201400,0.231201416015625,4.464998464664816,2.977603605902195,0.0804408795453608
1772806488051133400,0.241133544921875,2.3048615809708832,3.6296985641241073,0.20305355212688445
1772806488061064400,0.251064453125,0.24066636668443678,3.8893811814457178,0.5240535385899245
1772806488070995500,0.260995361328125,-1.758957883492112,3.845569512248039,1.5341063410550355
1772806488080927500,0.270927490234375,-2.710639014878869,3.194161951768398,3.103054862910509
1772806488090858500,0.2808583984375,-2.2702134614378213,2.561917356920242,4.006348103225231
1772806488100790500,0.29079052734375,-1.3066764725625515,2.1884071387581527,4.119496343499422
1772806488110721300,0.30072119140625,-0.5068097044527531,1.9437436652615665,3.4554075806230307
1772806488120652500,0.310652587890625,-0.24631460170447825,2.0596461726799604,2.6135458373486995
1772806488130584600,0.32058447265625,-0.6292962664365768,2.4130269182659685,1.8679466659992932
1772806488140515300,0.330515380859375,-1.4196628002732992,2.917714077606797,1.0845365271717309
1772806488150447400,0.340447265625,-2.6327760229974984,3.5122099565580487,0.15267857889086006
1772806488160378400,0.35037841796875,-4.089501018208265,3.8080087201386688,-0.6359139310106635
1772806488170309400,0.360309326171875,-4.977437699437141,3.8245147415205833,-1.1411959875047206
1772806488180241400,0.370241455078125,-5.358112256270647,3.695717681215703,-0.6628215194195508
1772806488190172400,0.38017236328125,-5.69000203166902,2.856655213271081,1.486896553851664
1772806488200104400,0.3901044921875,-5.4778883902519935,1.413696585345268,3.0661174633964894
1772806488210035200,0.40003515625,-4.373479287874698,0.8190779567971825,3.6385640076249834
1772806488219966500,0.409966552734375,-2.7524896131366487,1.09813425989151,3.14093129684031
1772806488229898500,0.4198984375,-1.4433254154115915,1.5847288593113422,1.6769497546300292
1772806488239829500,0.42982958984375,-0.6549240441679954,2.187756419764459,0.01404839909672737
1772806488249760500,0.439760498046875,-0.2144488063663244,2.6291820901587606,-1.320045657223463
1772806488259692500,0.449692626953125,-0.19751696078777312,2.9257278727144,-2.1928230555042623
1772806488269623600,0.45962353515625,-0.5402823504656553,2.8700115384504197,-2.6610700973287225
1772806488279555600,0.4695556640625,-0.9486755198299884,2.5832787093788383,-2.7898852778121825
1772806488289486600,0.479486572265625,-1.0801759938746691,2.4242139365822077,-2.526917062948644
1772806488299417900,0.48941796875,-1.407491885486245,2.0243419273257253,-1.7600027163699268
1772806488309350000,0.499349853515625,-1.7015572494029998,1.5967805316329002,-1.088821949405968
1772806488319280600,0.50928076171875,-1.9922025757431983,1.4687749139666557,-0.2693053089305758
1772806488329212700,0.519212646484375,-2.007609403711557,1.2298077524155377,0.9191878518000245
1772806488339143700,0.529143798828125,-1.760422110825777,1.0469242971360684,1.6533587434232233
1772806488349074700,0.53907470703125,-1.444865046069026,1.0974065301388503,1.5408856259316206
1772806488359006700,0.5490068359375,-1.04546649954319,1.3534183499932289,1.2048679569482803
1772806488368937700,0.558937744140625,-0.6537877336144446,1.6143074204951524,0.754182290777564
1772806488378869800,0.568869873046875,-0.3927466874212026,1.741846589693427,0.3408449430093169
1772806488388800500,0.578800537109375,-0.17084698052704334,1.8122779702693224,-0.05875058739334345
1772806488398731800,0.588731689453125,0.05702712460160255,1.8509236350059508,-0.4820701077327132
1772806488408663800,0.598663818359375,0.28197686671614647,1.8561112667769193,-0.8481950379490852
1772806488418594600,0.608594482421875,0.6410282052844762,1.8276894744127987,-1.2500044450089334
1772806488428526600,0.618526611328125,1.0590198085993527,1.8014853580981491,-1.5441285533756017
1772806488438457600,0.62845751953125,1.4654595058083533,1.9253864630550146,-1.3517477864325045
1772806488448388600,0.638388671875,1.8632348350465298,1.8222201030910015,-0.7173851765170693
1772806488458320600,0.648320556640625,2.1433476614564655,1.5582038404792546,-0.23407062168121337
1772806488468251600,0.658251708984375,1.8025328213244676,1.5143424869209527,-0.155200206322968
1772806488478183700,0.66818359375,1.2355518490254878,1.5656962420612572,-0.5710004370734095
1772806488488114700,0.67811474609375,0.3446376132905483,1.459546482372284,-1.0201680998966096
1772806488498045700,0.688045654296875,-0.5752735843479633,1.181762975692749,-1.2812713976711034
1772806488507977700,0.697977783203125,-1.2125035663932562,0.6963409271836281,-1.0342588768303393
1772806488517908500,0.707908447265625,-1.4958406155467032,0.10966390528976917,-0.2720882176473737
1772806488527840500,0.717840576171875,-1.6073913574963807,-0.30965573175847527,0.6910869521781802
1772806488537771800,0.727771728515625,-1.6812334232985973,-0.35122809759676454,1.3949541832134127
1772806488547702800,0.737702880859375,-1.706864708161354,-0.2606453248739242,1.5420771738037466
1772806488557634600,0.747634521484375,-1.9118261397361753,0.05459434449672699,1.377047939644754
1772806488567565600,0.757565673828125,-2.2686598022550344,0.42374212966561314,0.9575544073343276
1772806488577497600,0.76749755859375,-2.6728829924583435,0.6445569639325142,0.5008177705615758
1772806488587428600,0.7774287109375,-2.8914602769315243,0.7555769600063562,0.09478256250023841
1772806488597359600,0.787359619140625,-2.8833278238803146,0.8070406052619218,-0.4133414394214749
1772806488607291600,0.797291748046875,-2.5280045659244057,0.8014724497407675,-0.858361627176404
1772806488617223000,0.807222900390625,-2.0493010120153428,0.8006050192564725,-1.0431038620650768
1772806488627153700,0.817153564453125,-1.7739128760397433,0.7786760960429906,-0.9796686239868402
1772806488637085700,0.827085693359375,-1.7520120098769665,0.6792571059137582,-0.8796049062132835
1772806488647016700,0.8370166015625,-1.6932120303839444,0.6451058299869299,-0.9049883537948131
1772806488656948500,0.846948486328125,-1.6239268972337244,0.6668447835862636,-1.070564115920663
1772806488666879700,0.856879638671875,-1.6409581115335226,0.6078787998765707,-1.4027832694038749
1772806488676810800,0.866810791015625,-1.5449083055764437,0.44498365513682364,-1.7220245756313204
1772806488686742800,0.87674267578125,-1.5507213757693767,0.23227146330475806,-1.7773951651975513
1772806488696673500,0.886673583984375,-1.5899726051837204,-0.014296820899844168,-1.6226438716858624
1772806488706605600,0.89660546875,-1.5511071602165698,-0.28893092363774775,-1.338484692494571
1772806488716536800,0.906536865234375,-1.4377391397118569,-0.5633458306670188,-1.0275839291110633
1772806488726467600,0.916467529296875,-1.0565922891914843,-0.797702283552289,-0.8413903263702988
1772806488736399600,0.926399658203125,-0.7578449049383401,-0.909798384425044,-0.6899412892743945
1772806488746330600,0.93633056640625,-0.6769178493112326,-1.0467173763871191,-0.6046072308599949
1772806488756262700,0.9462626953125,-0.7182792027473449,-1.1567150436758995,-0.9447121691569685
1772806488766193700,0.956193603515625,-0.707756639689207,-1.1259785446286201,-1.4549942258954047
1772806488776124700,0.966124755859375,-0.4390098414242267,-1.1343588349610567,-1.9478058001339433
1772806488786056700,0.976056640625,-0.1804594430029392,-1.134430731153488,-2.3212015981361267
1772806488795987700,0.98598779296875,0.005870353338122368,-1.1063935541927814,-2.4666616239503023
1772806488805919700,0.995919677734375,0.1925859341263771,-1.1577484783768652,-2.247466499839723
1772806488815850800,1.005850830078125,0.30406594892740246,-1.1859995903491973,-1.8071765554770827
1772806488825781500,1.015781494140625,0.29267770895063877,-1.1083347513884305,-1.3601070339769123
1772806488835713500,1.025713623046875,0.21388006656765937,-0.9515157116919756,-0.9303314693659543
1772806488845644800,1.035644775390625,-0.04795183774232864,-0.7764724485188722,-0.6325175665706396
1772806488855576800,1.045576904296875,-0.4099070810586214,-0.6615390783935785,-0.5110384280636906
1772806488865507600,1.055507568359375,-0.6375216584682464,-0.5237853891730309,-0.6286679054051637
1772806488875438600,1.0654384765625,-0.7705407203823328,-0.389519542068243,-0.8183230467766522
1772806488885370600,1.07537060546875,-0.8486293377131223,-0.3051192573726177,-0.8719266266703605
1772806488895301600,1.085301513671875,-0.7863456077575683,-0.391934786516428,-0.823737765301764
1772806488905233700,1.095233642578125,-0.6903279505044222,-0.46705461716949936,-0.6036907005369663
1772806488915164700,1.10516455078125,-0.46441140918433665,-0.5365846649914979,-0.34131022243350745
1772806488925095700,1.115095703125,-0.14524316819310187,-0.5005722713679075,-0.18364479504078626
1772806488935027700,1.12502783203125,0.1284849256157875,-0.503277438673377,-0.10674743332117795
1772806488944958700,1.134958740234375,0.4506774828642606,-0.5094236863434315,-0.03739887954592704
1772806488954890800,1.144890869140625,0.6776929253369569,-0.46891105869114397,0.022887831373512742
1772806488964821500,1.154821533203125,0.8870522996097803,-0.447567826411128,0.182869426754117
1772806488974752800,1.164752685546875,0.9916384632438421,-0.5419236879318953,0.5153191741228104
1772806488984684800,1.174684814453125,1.1070084712207318,-0.7030898169219494,0.9204898743093013
1772806488994615600,1.184615478515625,1.1192705714225768,-0.778188604786992,1.2348910470291972
1772806489004546600,1.194546630859375,0.8405664427667856,-0.9013397681593894,1.5840613353133202
1772806489014478600,1.204478515625,0.5006809924393892,-0.9772083713531493,2.1506714284732937
1772806489024409900,1.214409912109375,0.2010077255129814,-1.0812328094512225,2.5544267089039088
1772806489034341600,1.224341552734375,0.14525427410900593,-1.109376369395852,2.7448794303938744
1772806489044272600,1.234272705078125,0.2543558693408966,-1.1317793398618698,2.816071566209197
1772806489054203600,1.24420361328125,0.3941811041384935,-1.1602572463274001,2.8754516836777326
1772806489064135700,1.2541357421875,0.5370914454698562,-1.206384791252017,2.888521008609235
1772806489074066700,1.264066650390625,0.749644647347927,-1.2276128727197646,2.741381943666935
1772806489083998700,1.273998779296875,0.9465180495351553,-1.1290548833340406,2.474703183847666
1772806489093929700,1.2839296875,0.9918483066022395,-1.0723322946369647,2.0319939033836123
1772806489103860700,1.29386083984375,0.8904740907520056,-0.9514625202000141,1.5251131795212625
1772806489113792800,1.303792724609375,0.8608546130359173,-0.817072169932723,1.0288727998778224
1772806489123723800,1.313723876953125,0.9086299251675605,-0.696760613900423,0.7715867223039269
1772806489133655800,1.32365576171875,0.862589474004507,-0.7211135493904351,0.6274746039673685
1772806489143586600,1.333586669921875,0.6698813748031854,-0.8198474798649549,0.6254945360660552
1772806489153517800,1.343517822265625,0.33630466923117636,-1.014188148704171,0.860532249213755
1772806489163449900,1.353449951171875,0.03131108406484127,-1.273722881987691,1.2297758959725498
1772806489173380600,1.363380615234375,-0.22838497726023196,-1.496668883064389,1.5559654139027
1772806489183312600,1.373312744140625,-0.4072638730734586,-1.679268260705471,1.915275403407216
1772806489193243600,1.38324365234375,-0.6201654499977827,-1.8770698836535213,2.3288936139434573
1772806489203174700,1.393174560546875,-0.7977490453034639,-1.9095394901037215,2.864360088559985
1772806489213106700,1.403106689453125,-0.9231342513382435,-1.7110428706288336,3.4025425441369412
1772806489223037700,1.41303759765625,-0.9942536141782998,-1.2637398326337337,3.667104165671766
1772806489232969700,1.4229697265625,-1.1453525226622818,-0.5467085841208696,3.4108728578478096
1772806489242900700,1.432900634765625,-1.3981430423825978,0.2915337996125221,2.8506606490314006
1772806489252831700,1.442831787109375,-1.6902011581301688,1.0848322952479124,2.091667743101716
1772806489262763800,1.452763671875,-1.8615759619235992,1.6159931816250084,1.319651981730759
1772806489272694500,1.462694580078125,-1.8973183064341543,2.0358131694108246,0.7942661716237663
1772806489282625500,1.47262548828125,-1.6721452769577503,2.3337065671831367,0.5443722501277923
1772806489292557600,1.4825576171875,-1.495150879716873,2.375169042906165,0.5198948114752769
1772806489302488600,1.492488525390625,-1.4241887532651423,2.282181547129154,0.8217050904303789
1772806489312420600,1.502420654296875,-1.3257330552101134,2.0437954003363847,1.541720030929148
1772806489322351400,1.512351318359375,-1.654305084362626,1.630940575388074,2.266073585154116
1772806489332282600,1.52228271484375,-2.241689377743006,1.0713234098553657,2.660333892008662
1772806489342214700,1.532214599609375,-2.307182132872939,0.6319540874689817,2.571435126850009
1772806489352145400,1.5421455078125,-1.4042279152542352,0.649872605997324,1.698542870017886
1772806489362077400,1.552077392578125,-0.005259527963399887,1.0379770205706358,0.41305473143458366
1772806489372008400,1.562008544921875,1.2702660195320843,1.3195634266644716,-0.8824842610418796
1772806489381939700,1.571939697265625,2.4912965912520884,1.7429624419808387,-2.2392922534734008
1772806489391871500,1.58187158203125,3.550218200173974,2.1684061148673295,-3.301138809931278
1772806489401802500,1.591802490234375,4.371944333392381,2.437441082423925,-4.159708526900411
1772806489411734500,1.601734619140625,4.81800058619678,2.6073089887857437,-4.565772084273398
1772806489421665500,1.61166552734375,4.9516135223507876,2.571902744361758,-4.593597372049093
1772806489431596500,1.621596435546875,4.8533840342670675,2.4405863947123287,-4.350521021613479
1772806489441528600,1.631528564453125,4.644048625391721,2.4427204841315744,-4.001097635351122
1772806489451459600,1.64145947265625,4.051746749353408,2.376504675424099,-3.4525320251867173
1772806489461391400,1.651391357421875,3.255843624177575,2.2523177392631766,-2.6860294742792843
1772806489471322600,1.661322509765625,2.545657126992941,2.145026992845535,-2.0576772106945516
1772806489481253600,1.671253662109375,1.868126114219427,2.0409517013430594,-1.5486588902816176
1772806489491185700,1.681185546875,1.1609767927736043,1.8792869751811025,-0.9272916632786392
1772806489501116400,1.691116455078125,0.5989806231498718,1.5508219135344028,-0.2897086300119757
1772806489511048400,1.70104833984375,0.25171616848707196,1.207431085434556,0.2793558705627918
1772806489520979700,1.710979736328125,0.3781646198391914,0.8341413781553506,0.5010454418376088
1772806489530910500,1.720910400390625,0.6141495507091284,0.5035393044799567,0.28005495874285696
1772806489540842500,1.730842529296875,0.8645902924329042,0.40396600057184695,-0.4528752851694822
1772806489550773500,1.7407734375,0.9609908115237951,0.37467034798264504,-1.2934250690624116
1772806489560704500,1.75070458984375,1.0018190809965133,0.327187296795845,-2.100150032503903
1772806489570636500,1.760636474609375,1.108874849614501,0.32383915541172026,-2.64377614043951
1772806489580567600,1.770567626953125,1.1495260089546442,0.2287713462293148,-2.9554215847104786
1772806489590499600,1.78049951171875,1.170917756551504,0.2754477572083473,-3.1306279294908044
1772806489600430600,1.7904306640625,1.2462947768360375,0.20465806471407413,-3.225139858356118
1772806489610361600,1.800361572265625,1.275281801867485,0.013543956705927849,-2.702848799394071
1772806489620293600,1.810293701171875,1.249408524942398,-0.033520576807856556,-2.544258366110921
1772806489630224400,1.820224365234375,1.7445242844700812,-0.042940147060155864,-2.3289219632551075
1772806489640156400,1.830156494140625,1.9730553922027347,-0.004494388809800148,-1.9244766547337173
1772806489650087700,1.840087646484375,1.8302029185384512,0.028246435797214507,-1.8368512705117463
1772806489660018400,1.850018310546875,1.415869837731123,0.22083412348926065,-1.7193512647688387
1772806489669950500,1.859950439453125,0.739312638425827,0.33710254161059855,-1.7147469858437776
1772806489679881500,1.869881591796875,0.02767769599854946,0.40197336544990536,-1.5045494071811436
1772806489689813500,1.8798134765625,-0.35890520809590815,0.1999012255758047,-0.7251800681769848
1772806489699744500,1.88974462890625,-1.3153507774055004,0.03283493263125419,0.3380710943818092
1772806489709675500,1.899675537109375,-2.5440982071131466,0.03787058871090412,0.6348045084640384
1772806489719607600,1.909607666015625,-2.9515111332684754,0.1752747338414192,0.8113245661914348
1772806489729538600,1.91953857421875,-2.8969501065194607,0.11168284389674663,1.0348252785414456
1772806489739470600,1.929470703125,-2.8040046963185072,0.01399871473610401,1.1065373465776442
1772806489749401600,1.939401611328125,-2.4459657496631144,0.09971242011785507,0.9477888001233339
1772806489759332600,1.94933251953125,-2.0946195786446333,0.29876725799739356,0.4289323917850852
1772806489769264400,1.959264404296875,-1.7144319285452365,0.4469242678105831,-0.11747077964842319
1772806489779195600,1.969195556640625,-1.447977625131607,0.5504822574406862,-0.48553573801666494
1772806489789126700,1.979126708984375,-1.3067770103275775,0.5723772783845663,-0.7863280721008777
1772806489799058400,1.989058349609375,-1.3758347644627094,0.35644729354977606,-0.9108134066864848
1772806489808989400,1.998989501953125,-1.4723299760997295,0.023168694141507146,-0.8082540727049112
1772806489818921500,2.00892138671875,-1.4488731126666068,-0.42515375002920625,-0.5622942757874727
1772806489828852700,2.018852783203125,-1.5226754309803248,-0.9010703035682439,-0.3896227101817727
1772806489838783500,2.028783447265625,-1.7123118676513434,-1.1173837347626685,-0.46114890025705096
1772806489848715500,2.038715576171875,-1.8753963974833487,-1.2574983078956603,-0.6907844621002673
1772806489858646500,2.048646484375,-1.9463655381977556,-1.266892743706703,-0.7909408265933394
1772806489868578600,2.05857861328125,-1.7496715842306614,-1.068991752037406,-0.9683514034196734
1772806489878509600,2.068509521484375,-1.571802742242813,-0.7703548424214124,-1.2150173027798532
1772806489888440600,2.078440673828125,-1.3042138818413018,-0.558479685935378,-1.3579758671671152
1772806489898372600,2.08837255859375,-0.96017949514091,-0.32213118245005606,-1.5013640551432967
1772806489908303600,2.0983037109375,-0.7198024667918682,-0.07997486946880816,-1.7153288773849606
1772806489918235600,2.108235595703125,-0.6462976701200008,0.11375906564891337,-1.8789520441383123
1772806489928166700,2.118166748046875,-0.6462877332478761,0.3132446961611509,-1.9531708342984317
1772806489938097400,2.128097412109375,-0.8578758894860744,0.4094721967726946,-1.825456600794196
1772806489948029400,2.138029541015625,-1.2065998953074215,0.34204701227545736,-1.515351079441607
1772806489957960700,2.147960693359375,-1.618771414166689,0.18984744907319545,-1.007993093456328
1772806489967892700,2.157892822265625,-2.0134183822512624,-0.08672434372901916,-0.2522565589740872
1772806489977823500,2.167823486328125,-2.3363953678756952,-0.39535014791786666,0.5327689060956239
1772806489987754500,2.17775439453125,-2.627107329711318,-0.644044338235259,1.2621999097153545
1772806489997686500,2.1876865234375,-2.977065845763683,-0.7353542561888694,1.8445827415466307
1772806490007617500,2.197617431640625,-3.022497225117683,-0.7238970426291227,2.1696754041507837
1772806490017548500,2.207548583984375,-2.7488948035150766,-0.6618003596782684,2.397288520255685
1772806490027480600,2.21748046875,-2.5295968035519123,-0.42385552691221234,2.370075226898491
1772806490037411300,2.227411376953125,-2.667285026320815,-0.023460370564460754,1.7396315439924597
1772806490047343600,2.237343505859375,-2.958974893277883,0.4573819489389658,0.8472893212810159
1772806490057274600,2.247274658203125,-3.188192229709029,0.9420259988129138,0.054604865890741344
1772806490067205400,2.257205322265625,-3.4833436352968214,1.2263865457952021,-0.7702095887318253
1772806490077137400,2.267137451171875,-3.6474060702502724,1.3771230507075787,-1.3194298634126782
1772806490087068700,2.277068603515625,-3.5286668781012294,1.6182213790684938,-1.8149699858322739
1772806490097000700,2.287000732421875,-3.091773590439558,1.8846786050915716,-2.136809784120321
1772806490106931500,2.296931396484375,-2.159747592115402,2.2381641262263057,-2.0968451457396147
1772806490116862500,2.306862548828125,-0.7852151424229145,2.5329098736226556,-1.9062606145635246
1772806490126794500,2.31679443359375,0.684257690680027,2.727055312150717,-1.8196607739970088
1772806490136725800,2.326725830078125,1.7044114697903394,2.7892005104184148,-1.9619757797837256
1772806490146657500,2.336657470703125,1.9329303025633096,2.7173399738222357,-2.214314464083314
1772806490156588500,2.346588623046875,1.416688168376684,2.6102906349450348,-2.5613237749412656
1772806490166519600,2.35651953125,0.4854921911358833,2.478533555790782,-2.7499925356239077
1772806490176451300,2.366451416015625,-0.48432373187839983,2.2940368200957773,-2.6553257084578274
1772806490186382600,2.376382568359375,-0.8527531396448612,2.0194857194662093,-2.2829268125385043
1772806490196313600,2.386313720703125,-0.43598143351376056,1.515576412630081,-1.4373212065607308
1772806490206245600,2.39624560546875,0.3482061194270849,0.9237819015920161,-0.2007499513596296
1772806490216176400,2.40617626953125,1.4237889402925967,0.33076690884828563,1.1897840773239732
1772806490226108700,2.416108642578125,2.491197222530842,-0.1557774216890335,2.5052055818781254
1772806490236039700,2.426039794921875,3.2651889601498842,-0.723523533141613,3.653721829268336
1772806490245970400,2.435970458984375,4.2089264390558006,-0.8513280752778053,4.359002141971886
1772806490255902500,2.44590234375,4.514472397407889,-0.936093101632595,4.44917837972045
1772806490265833700,2.455833740234375,4.550266764366627,-0.8385048340618609,3.8784465304553506
1772806490275765800,2.465765869140625,4.520471930083632,-0.46836336168050763,2.7869115226984023
1772806490285696000,2.475696044921875,3.5424130793809887,-0.2014958012908697,1.3906582395851612
1772806490295627000,2.485626953125,2.4382401238471267,0.18416122013032435,0.22120441810637712
1772806490305559000,2.49555908203125,1.713694261920452,0.3876648541122675,-0.6474266741499305
1772806490315490000,2.505489990234375,1.2203139478832483,0.40192192752361294,-1.1049369256436825
1772806490325422000,2.515422119140625,0.693659140753746,0.22125147211849688,-1.320921855536103
1772806490335353000,2.52535302734375,0.03714168991446495,-0.09472060317993164,-1.3324556414633988
1772806490345284000,2.5352841796875,-0.5904407583415507,-0.4412321936488151,-1.3052341647997499
1772806490355216100,2.545216064453125,-1.067893435406685,-0.7716372834473848,-1.1922092586442827
1772806490365147100,2.555147216796875,-1.4284510868847369,-1.014906526106596,-1.1970464695423841
1772806490375079200,2.5650791015625,-1.3096329842805863,-1.2197633282631635,-1.30073919146806
1772806490385010000,2.575010009765625,-0.8332008824348449,-1.3028817564547062,-1.3414564017817376
1772806490394941200,2.584941162109375,-0.18463468286097048,-1.3951210642129181,-1.3574272933736442
1772806490404873200,2.594873291015625,0.514564556363225,-1.4485469494521617,-1.3232149349093436
1772806490414804000,2.604803955078125,1.309350075685978,-1.3150333820194005,-1.3417816882133482
1772806490424735000,2.61473486328125,1.834873248437047,-1.1966016483843327,-1.305906949494779
1772806490434667000,2.6246669921875,2.1627309918403625,-1.2046738956809042,-1.094075924411416
1772806490444598300,2.634598388671875,2.585597507715225,-1.1179355234265327,-0.885253141233325
1772806490454530000,2.644530029296875,2.7545371933162213,-0.973784826645255,-0.7103831888005137
1772806490464461000,2.6544609375,2.5527181514203545,-0.8011480400919914,-0.5319418076217174
1772806490474392000,2.66439208984375,1.9777970337718724,-0.654186377543211,-0.2856245755687356
1772806490484324000,2.674323974609375,1.2805097656488418,-0.5900602345913648,0.012646423344314098
1772806490494255000,2.684255126953125,0.6598088936001062,-0.579832270565629,0.40356589533835646
1772806490504187100,2.694187255859375,0.14604045605063437,-0.5567202750474214,0.7576873762890696
1772806490514118100,2.7041181640625,-0.27689620245099067,-0.587100215741992,1.0781740064024925
1772806490524049200,2.714049072265625,-0.5677642316311597,-0.7654238157600164,1.2669611327677965
1772806490533981200,2.723981201171875,-0.5604483556598424,-0.8511188164412975,1.2298489612087606
1772806490543912200,2.733912109375,-0.37121407004892826,-0.9292968656212091,0.8585448747888207
1772806490553843000,2.743843017578125,-0.13641688765883445,-0.9580337152838706,0.33910160647332666
1772806490563775000,2.75377490234375,-0.005159574720263481,-0.9447405184686183,-0.16548808384239672
1772806490573706200,2.763706298828125,-0.07411503752470017,-0.9842179578542709,-0.5075131765469908
1772806490583638300,2.77363818359375,-0.27716742060780525,-1.0558867712706326,-0.8042150264471769
1772806490593569000,2.783569091796875,-0.4213946897566318,-1.0896534317940474,-0.8802955188259481
1772806490603500000,2.7935,-0.47121641302406786,-1.1497907973706722,-0.7090522324576973
1772806490613432000,2.80343212890625,-0.41012452320158477,-1.3314344817221164,-0.44886546500623226
1772806490623363000,2.813363037109375,-0.1643085186690092,-1.4566490073651075,-0.12435732429176569
1772806490633295000,2.823295166015625,0.036605098819732666,-1.4842097989857197,0.0674994187772274
1772806490643226000,2.83322607421875,-0.05261924503147602,-1.4627508313715456,0.25970716724097725
1772806490653157000,2.8431572265625,-0.2571317637950182,-1.462580735501647,0.46591626078933474
1772806490663089200,2.853089111328125,-0.2197171021580696,-1.3123761455088854,0.6426563910081983
1772806490673020200,2.863020263671875,-0.24081951141953467,-0.9831780934125185,0.7787456541478633
1772806490682952200,2.8729521484375,-0.35045302157104014,-0.6504477755367756,0.8357184182137251
1772806490692883000,2.882883056640625,-0.4972182847648859,-0.33776889656484127,0.8456707801684736
1772806490702814200,2.892814208984375,-0.7651835772633552,-0.007058101817965507,0.7199041736006736
1772806490712746200,2.902746337890625,-1.212511165177822,0.22621055583059788,0.5626391437023878
1772806490722677000,2.912677001953125,-1.8017758654773235,0.3433054879039526,0.5856684293732046
1772806490732608000,2.92260791015625,-2.425986206951737,0.27783669817149637,0.8832833024650811
1772806490742540000,2.9325400390625,-2.96638546179533,0.0050192894667387,1.3576654860436916
1772806490752471000,2.942470947265625,-3.3510534721791743,-0.5120394217997789,1.9514646149024366
1772806490762403000,2.952403076171875,-3.7314006967544553,-0.9713234049677848,2.5307228849723935
1772806490772334000,2.962333984375,-4.257527680617571,-1.5308593219578266,3.0468764640927315
1772806490782265000,2.97226513671875,-4.567320775020122,-1.8712328480631113,3.3619372697651384
1772806490792196900,2.98219677734375,-4.51299647963643,-1.8949235202521084,3.6015155489519235
1772806490802128100,2.992128173828125,-4.174315728923678,-1.6388094090670347,3.5648216028049586
1772806490812060200,3.00206005859375,-3.6081337980479,-1.0973697052598,3.185964032265544
1772806490821991200,3.0119912109375,-2.869261304605007,-0.30970600064098835,2.364046175867319
1772806490831922200,3.021922119140625,-2.0879180351793765,0.7195686580359936,1.4065753551632165
1772806490841854200,3.031854248046875,-1.1960177110165358,1.7367840456068515,0.5387316138923168
1772806490851785200,3.04178515625,-0.21288754839897153,2.644498609495163,-0.05527589702010154
1772806490861717000,3.051717041015625,0.800052061548829,3.317628756961226,-0.37068975391387937
1772806490871648000,3.06164794921875,1.29515320802927,3.669925360572338,-0.15868950974345206
1772806490881579300,3.071579345703125,1.0925701960235834,3.4606448967546224,0.48396337413340806
1772806490891511300,3.08151123046875,0.632000264698267,2.9347675037384033,1.2409846877291797
1772806490901442000,3.091442138671875,0.13984510854184626,2.3572359113305805,1.6326219526037573
1772806490911373000,3.101373046875,0.02847206124663353,1.6721861934900282,1.5660142219692468
1772806490921305000,3.11130517578125,0.5106459216147661,1.2263099734276532,1.0929983583077787
1772806490931236000,3.121236083984375,1.2429133177042007,0.976453753593564,0.6195666073217988
1772806490941168000,3.131168212890625,2.1867390594154594,0.8554425248593092,-0.05762304466813802
1772806490951099100,3.14109912109375,3.2234476674854755,0.9580027356237173,-0.8492164899513125
1772806490961030000,3.15102978515625,3.9809085415422913,1.0691296992033719,-1.4676327581942081
1772806490970962000,3.1609619140625,4.581773663264513,1.2328852601647375,-1.9781050768077373
1772806490980893200,3.17089306640625,4.759534368702769,1.2928215502113103,-2.25483907443434
1772806490990825200,3.1808251953125,4.474944689139724,1.2949772669404744,-2.015901723499596
1772806491000756000,3.190755859375,4.367819946938753,1.1819535298287869,-1.453693664690852
1772806491010687200,3.200687255859375,4.35678417366147,1.084480413070321,-0.7227309214591979
1772806491020619300,3.210619384765625,4.513271204924584,0.956947673612833,-0.2525429747000337
1772806491030550000,3.220550048828125,4.759550150793791,0.8690197993129491,-0.05864098953902721
1772806491040481000,3.23048095703125,4.853213938397169,0.828459825387597,0.17803017002940177
1772806491050413000,3.2404130859375,4.679440841290354,0.7475953136026858,0.6338263110816479
1772806491060344000,3.250343994140625,4.0529268990486855,0.6952426105529069,1.4769880310386418
1772806491070276000,3.260276123046875,2.821461442553997,0.4770967032343149,2.459515259326994
1772806491080207000,3.27020703125,1.1577543235957621,0.2500333299666643,3.0528368338018654
1772806491090138000,3.28013818359375,0.15324819547235966,0.38375790980160235,2.7819483473330733
1772806491100070000,3.29006982421875,-0.11477379564940929,0.7467144391149282,1.857158145481348
1772806491110001200,3.300001220703125,0.122258598446846,1.0045213256925345,0.6707470517218113
1772806491119933200,3.30993310546875,0.5221119030028581,1.238477965605259,-0.4882046649649739
1772806491129864000,3.319864013671875,0.9567951133996248,1.3418313725739717,-1.3855243838280438
1772806491139795000,3.329794921875,1.3265887952566147,1.336698101338744,-1.9668115293771027
1772806491149727200,3.339727294921875,1.5482839194893836,1.2622142305016517,-2.2976602712899443
1772806491159658200,3.349658203125,1.522445713877678,0.9999567942559718,-2.3951947628468275
1772806491169590000,3.359590087890625,1.4612895266473291,0.6912035642951726,-2.361338085952401
1772806491179521000,3.36952099609375,1.3552771296024322,0.4484884483873844,-2.087644771195948
1772806491189452300,3.379452392578125,1.332076871278882,-0.03281505888700485,-1.533176658989489
1772806491199384000,3.389384033203125,2.191772377407551,-1.0234826312720775,-0.06320172158330678
1772806491209315000,3.399315185546875,0.6095628074407577,-1.3628238917201756,0.9209452168613672
1772806491219246000,3.40924609375,-0.37664544744789596,-1.1201847636580466,0.6121791274189948
1772806491229178000,3.41917822265625,-0.5647124428451061,-0.685275927811861,0.24413112018555402
1772806491239109000,3.429109130859375,-0.8076327259361743,-0.6555600039839744,-0.009772036951780319
1772806491249041200,3.439041259765625,-0.9202350227653979,-0.4755027120411396,-0.1357455642685294
1772806491258972200,3.44897216796875,-1.239199265617132,-0.33055472740232944,-0.30930677219033237
1772806491268903000,3.45890283203125,-1.5452753853231667,-0.108015553560853,-0.43169191962629555
1772806491278835000,3.4688349609375,-1.7701140682786702,-0.057606385794281956,-0.5728080710172653
1772806491288766700,3.4787666015625,-1.9043956974744796,-0.1237181496053934,-0.5701122560620308
1772806491298698800,3.48869873046875,-2.0615455765604973,-0.3076069825351238,-0.38383009825497866
1772806491308629500,3.49862939453125,-2.213167047613859,-0.3797866680830717,-0.12143354579955339
1772806491318560500,3.508560546875,-2.39489198050797,-0.5495084439724683,0.06370996336638927
1772806491328492500,3.518492431640625,-2.4829659852802752,-0.6724748984277248,0.11699147169888019
1772806491338423600,3.528423583984375,-2.4818612389087678,-0.7646347112089396,0.05850245785117149
1772806491348354600,3.5383544921875,-2.30930686994195,-0.7907002958357333,-0.07781915273964404
1772806491358286600,3.54828662109375,-1.9501094009011983,-0.7536386854201554,-0.2872048304975033
1772806491368217300,3.55821728515625,-1.536836058279872,-0.6612561697989702,-0.5771469770044088
1772806491378149600,3.568149658203125,-1.0583154597222804,-0.4552987129241228,-0.949472807687521
1772806491388080600,3.57808056640625,-0.5188754052996635,-0.1913707131177187,-1.379323191100359
1772806491398011400,3.588011474609375,0.022297756525874138,0.010689736318588257,-1.725369502145052
1772806491407943400,3.597943359375,0.4910346276938915,0.220061385551095,-1.8603794456154108
1772806491417874700,3.607874755859375,0.6956301485657691,0.43542847580611704,-1.6716747368365525
1772806491427806700,3.617806640625,0.7683247978985309,0.5015513455331325,-1.4808549355998635
1772806491437737500,3.627737548828125,0.5651835674881934,0.3953922334939241,-1.0865180563777685
1772806491447668500,3.63766845703125,0.3059270666241646,0.20667700332105157,-0.47299102148115635
1772806491457600500,3.6476005859375,-0.09715922850370406,-0.14653437704741953,0.25811931352764367
1772806491467531500,3.657531494140625,-0.6427268258959055,-0.5598042125374079,1.022187623025477
1772806491477463600,3.667463623046875,-1.1056254924297333,-0.9981675727516413,1.7466998749434948
1772806491487394600,3.67739453125,-1.179017476376891,-1.2336235113114118,2.54940741943717
1772806491497325600,3.68732568359375,-0.9693898065567016,-1.1256968050777911,3.061550886133313
1772806491507257300,3.69725732421875,-0.66828738361001,-0.6929407633513212,2.9787866782069203
1772806491517188600,3.707188720703125,-0.654853901541233,-0.05890636247694492,2.1759344645455476
1772806491527120600,3.71712060546875,-0.8730442325234412,0.5543576375693082,1.1758999288782477
1772806491537051400,3.727051513671875,-1.4676333427160977,1.0183967063099146,0.20548779353648422
1772806491546982400,3.736982421875,-1.4871020132958888,1.605482893526554,-0.6227811854541301
1772806491556914700,3.746914794921875,-1.4342320083737372,2.031585907104611,-1.2816796862110496
1772806491566845700,3.756845703125,-1.2968231870681046,2.6592846752166746,-1.9863798609390855
1772806491576776400,3.7667763671875,-0.8085077552050352,3.256254543066025,-2.5623946190431712
1772806491586708500,3.77670849609375,-0.6148275961011648,3.4643758999764915,-2.9819322827562686
1772806491596639700,3.7866396484375,-0.8121738764971494,3.381664299020171,-3.17570362727493
1772806491606571500,3.796571533203125,-1.5556950725287197,3.017391426411271,-3.0489445025384425
1772806491616502500,3.80650244140625,-2.6758231375634667,2.5526146910458802,-2.857052688156068
1772806491626433500,3.81643359375,-3.389777462849021,2.143860287153721,-2.6930335078224537
1772806491636365600,3.826365478515625,-3.600297113072872,1.5971838517367838,-2.405080489306152
1772806491646296600,3.836296630859375,-2.957878914734721,0.43962066679894923,-1.0132105358436703
1772806491656228600,3.846228515625,-1.7572873199313879,-0.33178631502389905,0.9175839237347244
1772806491666159600,3.85615966796875,-0.2900707413226366,-0.9559194996088742,2.448531216236949
1772806491676090400,3.86609033203125,0.9793436298161744,-1.2243909880638122,3.57940308586508
1772806491686022400,3.8760224609375,1.9771780250906943,-1.1544178726494312,4.112672927220165
1772806491695953700,3.88595361328125,2.4951228715419767,-0.5996165829658507,3.9874291754826903
1772806491705884400,3.895884521484375,2.7356606434106827,-0.05940612869262695,3.144443396614492
1772806491715816400,3.90581640625,2.93712312695384,0.43641690232157704,1.969561704868078
1772806491725747700,3.915747802734375,3.006583616670966,0.8427157297551632,0.8277575223371386
1772806491735679700,3.9256796875,2.5780115826308725,0.8310662084937095,0.05993745909035206
1772806491745610500,3.935610595703125,1.8091425948530435,0.695300478219986,-0.17677315570563076
1772806491755541500,3.94554150390625,0.929440658006072,0.5850818616569042,-0.2331979304999113
1772806491765473500,3.9554736328125,0.012713935622572899,0.2902086884886026,-0.28950609317719933
1772806491775404500,3.965404541015625,-0.6355676017910241,-0.005687982508540153,-0.3240475374653935
1772806491785336600,3.975336669921875,-1.0515934579908848,-0.2783756273537874,-0.27066110745370386
1772806491795267600,3.985267578125,-1.170932954120636,-0.5847106902569532,-0.28458529564887286
1772806491805198300,3.9951982421875,-0.9808025964528322,-0.8796230263918637,-0.29432693746238947
1772806491815129600,4.005129638671875,-0.5931091007679701,-1.0705658694863318,-0.36342122421562667
1772806491825061600,4.0150615234375,-0.0852805746614933,-1.1965478723704814,-0.5076151756167412
1772806491834992600,4.02499267578125,0.45832361370325087,-1.2180331434696912,-0.71780340192914
1772806491844923400,4.03492333984375,1.181384205508232,-1.182042961677909,-0.9353905063211917
1772806491854855400,4.04485546875,1.9878683459311723,-1.1383961276531218,-1.1446619100496171
1772806491864786700,4.05478662109375,2.8004478806197644,-1.0423439836084842,-1.3018743329778313
1772806491874718700,4.06471875,3.478231991371512,-0.9589490765631198,-1.3384221486523746
1772806491884649500,4.0746494140625,3.859973300653696,-0.9203115951329469,-1.263235682503879
1772806491894580500,4.08458056640625,3.948040875685215,-0.9128694624334573,-1.161311139294505
1772806491904512800,4.0945126953125,3.891439283019304,-0.8328320491224527,-1.0866682785034179
1772806491914443500,4.104443603515625,3.630594051659107,-0.8302186517536639,-0.867410610550642
1772806491924375600,4.11437548828125,3.213749864813685,-0.9160042533278465,-0.5082543503031134
1772806491934306600,4.124306640625,2.9399159725427624,-0.8976017506748437,-0.11404431233108044
1772806491944237600,4.134237548828125,2.8403619578570125,-0.9387427393585442,0.06816957312375306
1772806491954169600,4.144169677734375,2.691099617150426,-1.0605986022233962,0.36384295675903555
1772806491964100600,4.1541005859375,2.350723168435693,-1.168390868422389,0.8117647111743688
1772806491974031400,4.16403125,1.8076666770815848,-1.2478157027930021,1.2558368044242263
1772806491983963400,4.17396337890625,1.1204045438885688,-1.269182900470495,1.4780501073122023
1772806491993894700,4.183894775390625,0.3039934682130813,-1.157202534931898,1.6428092923581599
1772806492003826700,4.19382666015625,-0.8799322384715079,-1.1628753198713064,1.6156293167486786
1772806492013757400,4.20375732421875,-1.9685890604436396,-1.0631196451336145,1.4146347429782151
1772806492023688400,4.2136884765625,-2.521389531698823,-0.9983160413116217,0.9907438524916767
1772806492033620500,4.223620361328125,-2.743438291674852,-1.0971937641710043,0.6331333603814244
1772806492043551500,4.233551513671875,-2.6827894694447516,-1.1699568025648592,0.3621089725732803
1772806492053483500,4.2434833984375,-2.2765368192404507,-1.3907710523098706,0.2504439565941691
1772806492063414500,4.25341455078125,-1.8073451900422572,-1.5895868207365274,0.2928819993510842
1772806492073345500,4.263345458984375,-1.2559183452278375,-1.7130834365457295,0.2125841815382242
1772806492083277600,4.273277587890625,-0.6399000780373811,-1.6198650546222924,0.01251256783157587
1772806492093208600,4.28320849609375,0.06457856289446354,-1.2541378915518522,-0.2863186953127384
1772806492103139600,4.2931396484375,0.6874100172311067,-0.8140864321202039,-0.6291933905839919
1772806492113071400,4.3030712890625,1.2110866853326558,-0.34845278766453264,-0.8573559572651982
1772806492123002600,4.313002685546875,1.6073264755666254,0.12074117962121962,-1.002593572500348
1772806492132934700,4.3229345703125,1.6230150430858135,0.5458616119027138,-0.9013570115551351
1772806492142865700,4.33286572265625,1.0947867030292748,0.6947025123268366,-0.4996346982568502
1772806492152796400,4.34279638671875,0.19040917460918425,0.5940870058894157,0.18985972403287887
1772806492162728400,4.352728515625,-1.086865846902132,0.16610124730467796,1.342819214567542
1772806492172659700,4.36265966796875,-2.682658536541462,-0.5458633654683828,2.8402611278310417
1772806492182592500,4.372592529296875,-4.116920940053463,-1.2038263389408588,4.147066195209324
1772806492192523500,4.3825234375,-5.4882502097904675,-1.661212964054942,5.025401227617263
1772806492202455600,4.39245556640625,-6.63345309484899,-1.819811288383603,5.338066078063846
1772806492212386600,4.402386474609375,-7.475566767057776,-1.6908008775889873,5.200024219551683
1772806492222317600,4.412317626953125,-7.721578001901507,-1.1524275756150484,4.369525874073803
1772806492232249600,4.42224951171875,-7.043829546985029,-0.382730904841423,3.00247325874269
1772806492242180600,4.4321806640625,-5.79895632738471,0.5923065522134303,1.651287490107119
1772806492252112600,4.442112548828125,-4.191050590625405,1.6366706434726714,0.6532941048786044
1772806492262043400,4.45204345703125,-2.5382009657680986,2.605685771498084,-0.044055707086622715
1772806492271974700,4.461974609375,-0.9454735089182853,3.1396997092187404,-0.7145040681228041
1772806492281906200,4.47190625,0.29417817664146423,3.3913241077691314,-1.13578857550323
1772806492291837000,4.4818369140625,0.766304690247774,3.184844672846794,-0.9644818685099482
1772806492301768200,4.491768310546875,0.6090086806893348,2.56072785487473,-0.6179135794177651
1772806492311700200,4.5017001953125,0.27513971417248245,1.7285113073021172,-0.5916729304850101
1772806492321631200,4.51163134765625,0.36633272774815556,1.1684890680998563,-0.842108119250834
1772806492331563000,4.52156298828125,1.0054197358369827,0.8448270228207111,-1.4374828268632291
1772806492341494000,4.531493896484375,1.8546417787462472,0.55023266659379,-1.8173434369653463
1772806492351425300,4.54142529296875,2.8361767811268566,0.48897184994518755,-2.132387876024842
1772806492361357000,4.551357177734375,3.721236445614695,0.47995618431866166,-2.405231295953691
1772806492371288000,4.5612880859375,4.528673356717825,0.508175147587061,-2.4618334731414913
1772806492381220000,4.57122021484375,5.214882765987515,0.5151362187713384,-2.3834236610323187
1772806492391151000,4.581151123046875,5.994250935947894,0.33742812030315394,-2.2519582583010194
1772806492401082000,4.59108203125,6.653853493320941,0.4559954630166292,-1.7700874725326894
1772806492411014100,4.60101416015625,6.74652826988697,0.6110200205117464,-1.2746516872704028
1772806492420945200,4.610945068359375,6.414461968877911,0.5834545527160168,-0.696950875775516
1772806492430876000,4.6208759765625,5.435425797575712,0.6449462555110455,0.19313509244173763
1772806492440808000,4.630807861328125,4.190755407071113,0.8171089948117732,0.7351549342244863
1772806492450739200,4.6407392578125,2.8903444246441126,1.053450484034419,0.7359267953798174
1772806492460671200,4.650671142578125,1.5114040953814982,1.2392635630249977,0.49336803907752036
1772806492470602000,4.66060205078125,0.18882278220057486,1.403997029107809,0.12392039417922496
1772806492480533200,4.670533203125,-0.8847510369300842,1.5022913991212843,-0.26529344294071194
1772806492490465300,4.68046533203125,-1.3986708656489848,1.4566589442372322,-0.6755071057304739
1772806492500396000,4.69039599609375,-1.2552116582632065,1.3198778994411229,-0.9652782795846462
1772806492510328000,4.700328125,-0.6750093853414059,1.229902444961667,-1.1867843109861016
1772806492520259000,4.710259033203125,0.05238602079749107,1.1195768608927725,-1.4416294251486659
1772806492530190000,4.720190185546875,0.7838327481538057,0.9213882844537497,-1.4116756009116769
1772806492540122000,4.7301220703125,1.5018810647547245,0.6533323910623788,-1.21104167714715
1772806492550053000,4.74005322265625,2.1190596078962085,0.39292964277267456,-0.9912231604412197
1772806492559985200,4.749985107421875,2.4388000958174465,0.1132177983790636,-0.6894611045420169
1772806492569916000,4.759916015625,2.605589909908175,-0.2019318546205759,-0.4344154993712902
1772806492579847200,4.76984716796875,2.683798354226351,-0.42793432065844533,-0.13287965344339608
1772806492589779200,4.779779296875,2.7328070075452326,-0.5908996080249548,0.070808689455688
1772806492599710000,4.7897099609375,2.8740777649760245,-0.6781675571113824,-0.0373790058016777
1772806492609641000,4.799640869140625,2.8080378973573445,-0.6350871247977018,-0.08736819459050893
1772806492619573000,4.809572998046875,2.846839629438519,-0.6388835944712161,-0.09294190306961536
1772806492629504300,4.819504150390625,4.404056212446093,-1.362176241466403,1.0738847847759723
1772806492639436000,4.82943603515625,2.157431131866574,-1.4977642770856618,2.31461228287369
1772806492649367000,4.839366943359375,-0.26224340772032734,-1.0472674114853142,1.0532456091120839
1772806492659298300,4.84929833984375,-1.1244985352039336,-0.4019271882206201,0.44168753620088097
1772806492669230000,4.85922998046875,-2.075947026878595,-0.8166741105258465,0.5065776492625474
1772806492679161000,4.8691611328125,-2.553254742515087,-0.9110048376053571,0.902769216440618
1772806492689093000,4.879093017578125,-3.3775527720481153,-0.5478320351928472,1.0593193760678172
1772806492699024100,4.889024169921875,-4.090440929406881,-0.315213950407505,0.8885179882481694
1772806492708955100,4.898955078125,-4.331227707600593,-0.10759645136594771,0.5197849213600159
1772806492718887200,4.90888720703125,-4.2452930529445405,0.10231880322396755,0.1848217298656702
1772806492728818200,4.918818115234375,-4.083779717952012,0.2762193261027336,-0.13118424770236015
1772806492738749000,4.9287490234375,-3.763002288198471,0.5321545735895633,-0.5041422388091683
1772806492748681000,4.938680908203125,-3.273762727227807,0.8091431304991245,-0.9117363667502999
1772806492758612200,4.9486123046875,-2.3864871402561665,1.058719364348054,-1.1283707004621624
1772806492768544300,4.958544189453125,-1.1010896025657653,1.166904429256916,-1.0968372058182954
1772806492778475000,4.96847509765625,-0.041858781564235684,1.3563263463944195,-1.0718296058118342
1772806492788406000,4.978406005859375,0.5144482365071773,1.420224525809288,-1.0535831705033778
1772806492798338000,4.988338134765625,0.7185124269813299,1.354943367603421,-1.0181044453650712
1772806492808269000,4.99826904296875,0.5526712919175625,1.189101648017764,-0.9176979055032134
1772806492818201000,5.008201171875,-0.276280116379261,0.9372516240179538,-0.917316212709248
1772806492828132000,5.018132080078125,-1.1685393369823693,0.48630876821577546,-0.4749351412862539
1772806492838063000,5.02806298828125,-1.730652410984039,-0.1288946754604578,0.47403059366196393
1772806492847995100,5.0379951171875,-2.2992367268264293,-0.4289987350195646,1.5894117564305663
1772806492857926100,5.047926025390625,-2.4583961921691895,-0.4277706545293331,2.607018773667514
1772806492867857000,5.05785693359375,-2.0692098275780677,0.05572890148460865,3.247408388787508
1772806492877789000,5.067788818359375,-1.7090613414227962,0.43489188471138474,3.2260642797246573
1772806492887720200,5.07772021484375,-1.6198147857397793,0.9979624055683612,2.5298221367403864
1772806492897652200,5.08765234375,-1.259874973899126,1.7470710463434456,1.7231524106174707
1772806492907583000,5.0975830078125,-1.2693383832931517,2.15178815754354,0.6749670075044035
1772806492917514000,5.107513916015625,-1.4051841930657625,2.602550396081805,-0.5215551459029316
1772806492927446000,5.117446044921875,-1.67608086284101,2.9837253036528826,-1.7051459215447307
1772806492937377000,5.127376953125,-2.1445938621252774,3.117430594265461,-2.9016178060695528
1772806492947309000,5.13730908203125,-2.5171903264433144,2.8011826246351004,-3.6817975846737623
1772806492957240000,5.147239990234375,-2.1820453486412763,2.3629320771455764,-3.853794319757819
1772806492967171000,5.157171142578125,-1.5349585739701985,1.8691326609134673,-3.3603953010201453
1772806492977103000,5.16710302734375,-0.955832405847311,1.250219841325283,-2.5760610330849882
1772806492987034000,5.1770341796875,-0.5843804353892803,0.6440379084944725,-1.3426058640778065
1772806492996966100,5.186966064453125,-0.349714770424366,0.009091653472185135,-0.0005991349369287491
1772806493006897000,5.19689697265625,-0.06340016676485538,-0.6314689343005419,1.2555673398330807
1772806493016828200,5.206828125,0.30874680022001266,-1.1028373230159283,2.4438936195641756
1772806493026760200,5.21676025390625,0.8127478769928217,-1.3277940793931484,3.3280133728533983
1772806493036691200,5.226691162109375,1.809244301661849,-1.4068623554110526,3.66384165674448
1772806493046622000,5.2366220703125,2.912104421031475,-1.186770574721694,3.7033486144855616
1772806493056554000,5.246553955078125,3.6745489287197586,-0.7749106060296297,3.2694425259411335
1772806493066485200,5.2564853515625,4.050692271864414,-0.36316578814983363,2.562363931643963
1772806493076417300,5.266417236328125,3.6448867809057233,0.11288754351139067,1.8175071030944585
1772806493086348000,5.27634814453125,2.6590245629757643,0.5697790785849094,0.8580033152580261
1772806493096279000,5.286279052734375,1.5779484053909778,0.9535825810939073,0.009779927997291087
1772806493106211000,5.296211181640625,0.6579606353849172,1.1510656396120786,-0.6936401437923312
1772806493116142000,5.30614208984375,-0.06649053399562835,1.2178349905490875,-1.268701838955283
1772806493126073000,5.316072998046875,-0.5288169535994529,1.0970388658702372,-1.7755320016741751
1772806493136005000,5.326005126953125,-0.7117816574215888,0.9191057264745235,-2.1184756705284116
1772806493145936100,5.33593603515625,-0.7474065130323171,0.6857973213374614,-2.2262810884699222
1772806493155868200,5.3458681640625,-0.6265846693903208,0.3089578126221895,-1.9527540701910853
1772806493165799200,5.355799072265625,-0.37208033148944375,-0.11982114216685294,-1.4023925165206192
1772806493175730000,5.36572998046875,-0.054041386789083476,-0.5024333890646696,-0.8714575478538871
1772806493185662000,5.375661865234375,0.3593745791733265,-0.7893886287152767,-0.5911655654847622
1772806493195593200,5.38559326171875,0.8243845387727021,-0.9806535433709621,-0.521969425792247
1772806493205525200,5.395525146484375,1.2874410262167453,-1.1623738000899553,-0.5928790914043783
1772806493215456000,5.4054560546875,1.6562661553025244,-1.3737790009766817,-0.6536357579231262
1772806493225387000,5.415386962890625,2.082102042376995,-1.4654443082392214,-0.6660334672033786
1772806493235319000,5.425319091796875,2.496879944342375,-1.5412906996011733,-0.5441947016038
1772806493245250000,5.43525,2.7233406755417584,-1.6117483836621045,-0.4177490267306566
1772806493255182000,5.44518212890625,2.708311448714137,-1.647574314802885,-0.22563480176925657
1772806493265113000,5.455113037109375,2.5879256584018466,-1.6235206545203924,-0.04281199063584208
1772806493275044000,5.465044189453125,2.356822654354572,-1.5772797123491764,0.019648703321814537
1772806493284976000,5.47497607421875,2.055373025405407,-1.5939660587340592,0.09765548758804797
1772806493294907400,5.484907470703125,1.8474094894051551,-1.5791647954434156,0.22446108181476593
1772806493304838400,5.49483837890625,1.6703642387598752,-1.6284154408246279,0.30899799850210546
1772806493314770200,5.504770263671875,1.404636496055126,-1.7291770777344702,0.40677170564234255
1772806493324701200,5.514701171875,1.272564359602332,-1.865252020087838,0.7882683925136923
1772806493334633500,5.524633544921875,1.0697399400562047,-1.9381454068630932,1.3310671097144484
1772806493344564500,5.534564453125,0.5831868416905402,-2.0971569881677627,1.9100816341564057
1772806493354495200,5.5444951171875,-0.029420740273594856,-2.2063369093328715,2.3967978141292927
1772806493364427300,5.55442724609375,-0.7387105808794499,-2.2271517338246105,2.6267095625653862
1772806493374358500,5.564358642578125,-1.2979402083992957,-2.164503846731782,2.663927532586455
1772806493384290600,5.57429052734375,-1.8301538186997175,-1.9439958864569662,2.3453869219742716
1772806493394221300,5.58422119140625,-2.000408678552508,-1.4348025017380714,1.7809115027554332
1772806493404152300,5.59415234375,-1.8473112897276878,-0.7701742251574992,0.8189902785137295
1772806493414084400,5.60408447265625,-1.8330103771746158,-0.17310206597745417,-0.32072014660835263
1772806493424015400,5.614015380859375,-1.9026725269436835,0.40393092925846574,-1.2432878501050173
1772806493433946400,5.6239462890625,-2.0109014309942723,0.743296155104041,-1.9286954414725304
1772806493443878400,5.63387841796875,-1.8991092815041541,0.9122633132338523,-2.3788370638944207
1772806493453809200,5.64380908203125,-1.624777961105108,1.0853203710258006,-2.5748656858205794
1772806493463741200,5.6537412109375,-1.3061188386797904,1.16837041015625,-2.681177358072996
1772806493473672400,5.66367236328125,-1.1703367417931556,1.0710603750050067,-2.6175796229094264
1772806493483603200,5.673603271484375,-1.1511690999865531,0.8605687818318605,-2.0407368895485996
1772806493493535200,5.68353515625,-1.1727648457229136,0.37597207823097706,-1.2403256392985582
1772806493503466200,5.69346630859375,-1.3157587736845016,-0.2192155823767185,-0.19535145331695675
1772806493513398500,5.7033984375,-1.6732114448845385,-0.8900999967426061,0.9389552130654454
1772806493523329300,5.713329345703125,-2.424949849641323,-1.5578881986588238,1.8288398134917019
1772806493533260300,5.72326025390625,-3.207185683992505,-1.9959505300998686,2.25106700854972
1772806493543192300,5.7331923828125,-3.818799578744173,-2.01795485663712,2.4268974765777585
1772806493553123300,5.743123291015625,-4.229152650004625,-1.7116139485150574,2.5802950173929333
1772806493563054300,5.753054443359375,-4.431789438024163,-1.1676099471777677,2.4101379188261927
1772806493572986400,5.762986328125,-4.321333505573868,-0.30865035410821434,1.8879117417939006
1772806493582917400,5.77291748046875,-3.7873201523751017,0.7535504226148128,1.3003224273607135
1772806493592849200,5.78284912109375,-2.7632629360854626,1.8143986156851053,0.9442024660691618
1772806493602780400,5.792780517578125,-1.519520766341686,2.730873993656039,0.6491688416421413
1772806493612711400,5.80271142578125,-0.4200923749864101,3.4965690275728702,0.4349862849965691
1772806493622643200,5.812643310546875,0.2411222937583923,3.6298078697174785,0.45988311810493465
1772806493632574200,5.82257421875,0.4547048386842012,3.195004832333326,0.8318914072714746
1772806493642506200,5.83250634765625,0.19700082795917986,2.5746938363850114,1.1084709449887276
1772806493652437500,5.8424375,-0.17000819161534308,1.9921037915438413,0.632430034417659
1772806493662368300,5.8523681640625,-0.14276830251216888,1.554229091629386,-0.058175125592947005
1772806493672300300,5.86230029296875,0.1710275977909565,1.1151140362650156,-0.6124458155311644
1772806493682231600,5.8722314453125,0.9874696531265973,0.7365250535339116,-1.0519406639933586
1772806493692162300,5.882162353515625,2.3501655345529318,0.6192956814259291,-1.272147010973096
1772806493702094300,5.89209423828125,3.5882881108492612,0.6811538794457912,-1.4886542111739516
1772806493712025300,5.902025390625,4.405249806144833,0.8145528805881738,-1.5994811688937245
1772806493721957400,5.911957275390625,4.653933475068211,0.750084792330861,-1.360328713903576
1772806493731888400,5.921888427734375,4.540372562339901,0.6957499755531549,-0.8188194519914687
1772806493741819400,5.9318193359375,4.258627750813961,0.6769213564425707,-0.24462767153084278
1772806493751751400,5.94175146484375,4.025912050873041,0.6106412503272295,0.20265651563331483
1772806493761682200,5.95168212890625,3.8808091679334638,0.6596183394640683,0.3794141815088689
1772806493771614200,5.9616142578125,3.6538533466935155,0.8225771970897913,0.5378273585289717
1772806493781545500,5.97154541015625,3.16676190366745,0.9554799391478299,0.46325624779984353
1772806493791476200,5.981476318359375,2.3760797280102968,1.1010691442996263,0.41030382529124615
1772806493801408300,5.991408203125,1.6195312926232814,1.1671347308814526,0.35370194036439057
1772806493811339300,6.00133935546875,0.9636346040308474,1.1324649840384722,0.17947832301110028
1772806493821270300,6.011270263671875,0.425909536832571,0.9631938745260238,-0.06551847409307957
1772806493831202300,6.021202392578125,0.3183031485944986,0.8125485550284385,-0.4787396481357515
1772806493841133300,6.03113330078125,0.5576999337345362,0.575870965719223,-0.7736281650036573
1772806493851065300,6.0410654296875,1.0061527262866496,0.27851474356353284,-0.8313426873475313
1772806493860996400,6.050996337890625,1.5284037454992532,-0.03030979806780815,-0.8185951417163014
1772806493870927400,6.06092724609375,1.9654899253845213,-0.3216974672079086,-0.7166464869789779
1772806493880859400,6.070859375,2.288860294240713,-0.603260492426157,-0.5718972397826612
1772806493890790100,6.0807900390625,2.572520583999157,-0.7965256409883499,-0.4832388592511415
1772806493900722200,6.09072216796875,2.8228742319613693,-0.9009311873584985,-0.40757966102436183
1772806493910653400,6.1006533203125,2.8666251108825205,-1.0099544566571712,-0.3773739078529179
1772806493920584400,6.11058447265625,2.794381712448597,-1.1226894399553538,-0.338319516184926
1772806493930516200,6.12051611328125,2.6882313682377337,-1.155460659700632,-0.30531054216101766
1772806493940447200,6.130447265625,2.3516338535398242,-1.1292004292845725,-0.15548808335363865
1772806493950378500,6.14037841796875,1.8216870191276073,-1.1028466753661632,0.15831629251688717
1772806493960310300,6.150310302734375,1.451416951930523,-0.9598971710681915,0.291333454734832
1772806493970241300,6.1602412109375,1.1679027926445007,-0.792791715157032,0.2380767885826528
1772806493980173300,6.17017333984375,0.7714239329576492,-0.6115151105523109,0.13576397670805454
1772806493990104300,6.180104248046875,0.3410708607196808,-0.4341875358343124,-0.03440495842695236
1772806494000035300,6.190035400390625,0.015233224967122077,-0.22770576282441615,-0.16167320172935723
1772806494009967400,6.19996728515625,-0.26634792042970656,-0.04461012609899044,-0.19651742835640906
1772806494019898400,6.2098984375,-0.6023311026215553,0.12298515915572643,-0.26769465886354443
1772806494029830400,6.219830322265625,-1.138503679680824,0.21985563384592532,-0.22514380338191986
1772806494039761400,6.229761474609375,-1.8643764062970876,0.22130174100100994,-0.11731821943521499
1772806494049692400,6.2396923828125,-2.6958593788981435,0.11318097350001334,0.12233926246762275
1772806494059624400,6.24962451171875,-3.7295594528019427,-0.10611819550693034,0.5209755924493074
1772806494069555200,6.25955517578125,-4.446687147426605,-0.3111667208433151,1.0252300594612955
1772806494079486500,6.269486572265625,-4.625842522093653,-0.33563422262370585,1.3725707942306995
1772806494089418500,6.27941845703125,-4.190304740694165,-0.09811784440279006,1.1966557166591285
1772806494099349200,6.289349365234375,-3.1622453030258417,0.27855390653014184,0.5140399479672313
1772806494109281300,6.29928125,-2.0231372277110813,0.7137614330619573,-0.12448796493411063
1772806494119212300,6.30921240234375,-1.1106570568561553,1.1019149474740029,-0.5015437467485666
1772806494129143300,6.319143310546875,-0.4604711471259594,1.332451549810171,-0.9181143773496151
1772806494139075300,6.329075439453125,-0.13293898241519927,1.4553683199048042,-1.2352180870264768
1772806494149006300,6.33900634765625,-0.0755471161544323,1.51182962731719,-1.5654381756469606
1772806494158938400,6.3489384765625,-0.397912107360363,1.3854232615411282,-1.8056977150961755
1772806494168869400,6.358869384765625,-0.798709414768219,1.0552695161551235,-1.8155743814662098
1772806494178800400,6.36880029296875,-1.0408902776688336,0.6614958237737417,-1.3278230132266877
1772806494188732400,6.378732421875,-1.1523118402808903,0.22587504026591776,-0.43585722261220217
1772806494198663200,6.3886630859375,-1.1546966895908117,-0.18768237999379633,0.9743100195631385
1772806494208594400,6.398594482421875,-1.162490119946003,-0.6511439411073923,2.4418153519853947
1772806494218526500,6.4085263671875,-1.4216969364494085,-0.8547305771976709,3.557336800007522
1772806494228457500,6.41845751953125,-1.899225016838312,-0.6258610312908888,4.074054150490462
1772806494238389200,6.42838916015625,-2.373136075773835,-0.08623685247302054,3.820384509848058
1772806494248320300,6.4383203125,-2.462639821088314,0.812534526503086,2.682128959709406
1772806494258251500,6.44825146484375,-2.075311651584506,1.8649702805370092,1.1729542308151721
1772806494268183300,6.458183349609375,-1.4008669143885373,2.769824194297194,-0.39939562391638755
1772806494278114300,6.4681142578125,-0.6401683735847473,3.3731302794307467,-1.7090853068202734
1772806494288045800,6.4780458984375,-0.0631815555781126,3.4192046328634023,-2.455392041917145
1772806494297977000,6.48797705078125,0.4424234492599964,3.2304210136294365,-3.0890193232953544
1772806494307908000,6.497908203125,0.5256745639204978,2.908370495200157,-3.650015960487723
1772806494317840000,6.50783984375,0.3669014675468206,2.3738760804861783,-3.9358427806302902
1772806494327771000,6.51777099609375,0.3268956203728914,1.8417916495233773,-3.8515716752722855
1772806494337702100,6.5277021484375,0.5557482151448726,1.270551850736141,-3.3041330233111976
1772806494347634200,6.53763427734375,0.8568909701019525,0.6760206082105636,-2.4194267023056746
1772806494357565000,6.54756494140625,1.268202072739601,0.1339174720585346,-1.2009352936744688
1772806494367497000,6.5574970703125,1.9805016165554523,-0.30700141785740853,0.45668724467307326
1772806494377428000,6.567427978515625,2.9337726474821566,-0.759083506822586,2.5321289523780344
1772806494387359000,6.57735888671875,3.853955063277483,-1.2946791607767343,4.625328727352619
1772806494397291000,6.587291015625,4.111438124728203,-1.7864841883212328,6.062441844120621
1772806494407222000,6.597221923828125,3.504243799984455,-1.9859002607285976,6.262536546441912
1772806494417154000,6.607154052734375,1.8965163424015044,-1.5775187818020582,5.38947594730556
1772806494427084800,6.617084716796875,-0.038619361251592633,-0.9008271424621344,3.956912456665933
1772806494437016000,6.62701611328125,-1.7238199346154928,-0.2845721439063549,2.4645336720108983
1772806494446948000,6.636947998046875,-2.529000591224432,0.396640187728405,1.054296871730685
1772806494456878800,6.64687890625,-2.861676548564434,0.9123919080495834,-0.20340514204353094
1772806494466810000,6.65681005859375,-2.9139433268964288,1.1622031196981668,-1.2212032979384064
1772806494476742100,6.6667421875,-2.4617151074588297,1.272161624020338,-1.97679457873106
1772806494486673000,6.6766728515625,-1.5881354528844356,1.1622750158905983,-2.571538587224483
1772806494496605000,6.68660498046875,-0.707383714723587,0.9272019391685724,-2.758749842575192
1772806494506536000,6.696535888671875,0.3866647371590137,0.5138122766911983,-2.502115799169242
1772806494516467000,6.706467041015625,1.5659890875279903,0.07158464226424693,-2.148836322000623
1772806494526399000,6.71639892578125,2.442622868975997,-0.3024053222388029,-1.8598729573979973
1772806494536330000,6.726330078125,2.9566508342444897,-0.6384656613200903,-1.6176090923890472
1772806494546262000,6.736261962890625,3.2730244760811327,-0.9485738130211829,-1.513211729325354
1772806494556192800,6.74619287109375,3.357428852429986,-1.2071534375369548,-1.4923840453520416
1772806494566124000,6.7561240234375,3.2216601995468137,-1.4119558791577815,-1.5595371349096296
1772806494576056000,6.76605615234375,2.9096605350106954,-1.6071663165688514,-1.4866153988227246
1772806494585986800,6.77598681640625,2.554538937106728,-1.7498983787238598,-1.30114952583462
1772806494595917800,6.785917724609375,2.149486894863844,-1.833015637871623,-1.0416109931588173
1772806494605849900,6.795849853515625,1.7679729645967484,-1.8997692067176102,-0.7219356794282794
1772806494615781000,6.805781005859375,1.5131325266093014,-1.8892910673230885,-0.3354939373701811
1772806494625713000,6.815712890625,1.3911252725750207,-1.7736328900545835,0.0817896638058126
1772806494635644000,6.825643798828125,1.4177958373576403,-1.7048288184195757,0.4869818451717496
1772806494645575200,6.8355751953125,1.34407242949903,-1.6870020698279142,1.0459528217554093
1772806494655507000,6.8455068359375,1.3591764751285313,-1.6597317855864762,1.6281179191827773
1772806494665438000,6.85543798828125,1.3884031541347504,-1.6307745711714028,2.0432909579455854
1772806494675369000,6.865368896484375,1.1393664339900016,-1.6576497186154127,2.1677371295645833
1772806494685301000,6.875301025390625,0.7745663226366043,-1.6645464923918247,1.9360455119743942
1772806494695232000,6.88523193359375,0.3290186038762331,-1.6605927863299845,1.67723704713881
1772806494705164000,6.8951640625,-0.22229776630103587,-1.6149615004897118,1.5114739457473159
1772806494715095000,6.905094970703125,-0.4590151030987501,-1.4827075777292251,1.1891045706272125
1772806494725025800,6.91502587890625,-0.43216158296465873,-1.2493757917165755,0.7517904272049665
1772806494734957800,6.924957763671875,-0.25858313164710994,-1.018175757035613,0.3094309830918908
1772806494744889000,6.93488916015625,0.012422259199619293,-0.7673281880766153,-0.035523733323812486
1772806494754821000,6.944821044921875,0.2600216400176287,-0.5406728110879659,-0.3617278643012047
1772806494764752000,6.954751953125,0.34450083516836166,-0.39582185708284373,-0.5302008091732859
1772806494774683000,6.964682861328125,0.3116986357629299,-0.20475158821642397,-0.5591340581908821
1772806494784615000,6.974614990234375,0.15360183121562004,-0.03241992208957672,-0.4959229842573404
1772806494794546000,6.9845458984375,-0.28034137446880336,0.13933189832270146,-0.5139774041250348
1772806494804477000,6.994476806640625,-0.6485720447927713,0.44786359448730945,-0.6434378967747092
1772806494814409000,7.004408935546875,-1.2144056006222963,0.7286100426256656,-0.696488226699829
1772806494824340000,7.014340087890625,-2.072082752665877,0.8974456833302974,-0.5347863833978772
1772806494834272000,7.02427197265625,-3.0464252131938934,0.8012070768028497,-0.07670037784278393
1772806494844203000,7.034203125,-4.118916497784853,0.4908493342548608,0.5949325168028473
1772806494854133800,7.0441337890625,-5.120357977640628,0.07927870389819144,1.4103328080005944
1772806494864065800,7.054065673828125,-5.810599418905377,-0.27185236306488514,2.1898595295235515
1772806494873997000,7.0639970703125,-6.172648770245909,-0.3032435266286135,2.774966233360767
1772806494883929000,7.07392919921875,-6.090732119059562,0.057369069907069206,2.942657964727282
1772806494893859800,7.08385986328125,-5.5784021898806095,0.677823273718357,2.508951490408182
1772806494903790800,7.093790771484375,-4.912646955096721,1.4357155249297617,1.6868253980867565
1772806494913723000,7.103722900390625,-3.926421749073267,2.229418509712815,0.9867832782976329
1772806494923654100,7.113654052734375,-2.839368855166435,3.0038299340486523,0.6392356227792799
1772806494933585000,7.1235849609375,-1.7592273480832576,3.503087615686655,0.25878698365613817
1772806494943517000,7.133516845703125,-0.9828121827095746,3.77581676158607,-0.1769642943635583
1772806494953448000,7.143447998046875,-0.6322878494679928,3.6090444831520316,-0.5108398367516697
1772806494963380000,7.1533798828125,-0.5531371558636426,2.969610269060731,-0.3664144146822393
1772806494973311000,7.16331103515625,-0.6417413219898939,2.144424935299158,0.1585048008263111
1772806494983242000,7.173241943359375,-0.5095990429103374,1.3463847980946302,0.335350437246263
1772806494993174000,7.183174072265625,-0.11336275980770587,0.6688607995837926,0.3671672788761556
1772806495003105000,7.19310498046875,0.6490197885602712,0.3547814061641693,0.14128025591149926
1772806495013037000,7.203037109375,1.827362726676464,0.3288654591411352,-0.30639599931016565
1772806495022968000,7.212968017578125,3.3358360293030738,0.5070867678284645,-1.0566478187710047
1772806495032898800,7.22289892578125,4.907850368469953,0.7267863343298435,-1.6588186162643133
1772806495042830800,7.232830810546875,6.1619046733915805,0.9424065225630998,-2.147830067567527
1772806495052762000,7.24276220703125,6.734363200318813,1.1183967111974953,-2.4052862410113214
1772806495062692900,7.25269287109375,6.790612910807132,1.2007809798955917,-2.4078557992383836
1772806495072625000,7.262625,6.23607757858336,1.2432137619554995,-2.1780380126960575
1772806495082556000,7.272555908203125,5.25814206199944,1.2646253832966088,-1.420669931489229
1772806495092488000,7.282488037109375,4.240325201404095,1.2462117747277022,-0.43940307852551336
1772806495102419000,7.2924189453125,3.011301877364516,0.9824480255722999,0.5089160290822387
1772806495112350000,7.302349853515625,1.9145844985336065,0.8930611846357583,1.5484852872803807
1772806495122282000,7.312281982421875,1.009986605361104,0.39244565864801406,3.0784596430972218
1772806495132213000,7.322212890625,0.019029694640636443,-0.17841712352037428,5.181157606518268
1772806495142145000,7.33214501953125,-0.23120880250930784,-0.10747603985667228,6.071681966152787
1772806495152076000,7.342075927734375,-0.26901100215911866,0.37090894962251186,4.644944697448611
1772806495162006800,7.3520068359375,-0.04638298099040985,1.2343477339327336,1.9399051100119946
1772806495171938800,7.361938720703125,0.5207435372591018,2.0373878713816405,-0.8011956786260008
1772806495181870000,7.3718701171875,1.139229655867815,2.48454302533865,-3.010998510503769
1772806495191801000,7.381801025390625,1.8432406792879104,2.1896312737256287,-3.8675153865963217
1772806495201732900,7.39173291015625,2.527975924351811,1.702269197064638,-3.7630233309864995
1772806495211664000,7.401663818359375,3.0590222444385287,1.1221148549377917,-2.8955080910176036
1772806495221596000,7.411595947265625,3.644667585197091,0.37959085325002667,-1.8727697022415697
1772806495231527000,7.42152685546875,3.8909704964637752,-0.4479384132891893,-0.8159189082443714
1772806495241458000,7.4314580078125,3.925008375144005,-1.265024027225375,0.2854007036849856
1772806495251390000,7.441389892578125,3.7663323094040155,-1.7978665830790996,1.3893633774690328
1772806495261321000,7.451321044921875,3.4287107123553753,-2.15272046995759,2.193317561022937
1772806495271252000,7.461251953125,2.7754765209704635,-2.257410678488016,2.3670282604180275
1772806495281184000,7.47118408203125,2.005101220282912,-1.9918553697407244,1.9608993827238679
1772806495291115000,7.481114990234375,1.223934476467967,-1.3958183988273143,1.3727531650602818
1772806495301046800,7.491046875,0.2554793204128742,-0.7593254988849163,0.8040838012829422
1772806495310978000,7.50097802734375,-0.6521873126804828,-0.010611410385370255,0.32876448298469185
1772806495320909000,7.510908935546875,-1.5419278284609317,0.6245113702476024,0.06394406438320875
1772806495330841000,7.520841064453125,-2.281580074104667,0.9347340882390737,-0.014129647639393806
1772806495340771800,7.530771728515625,-2.4952953054994342,1.1644897693306206,-0.017735270915925503
1772806495350703900,7.540703857421875,-2.3367472500532864,1.304334877872467,0.03022635756805539
1772806495360635100,7.55063525390625,-2.202692999872565,1.2564531827569008,-0.021321897231042383
1772806495370566000,7.56056591796875,-2.028296217909455,1.1215753412336111,-0.021661650579422712
1772806495380498000,7.570497802734375,-1.737586594161391,0.9456599714010954,-0.10242504007741808
1772806495390429000,7.580428955078125,-1.4276537990272045,0.7927829473286867,-0.1759665154978633
1772806495400360000,7.59035986328125,-1.0081354245364664,0.5527057787090539,-0.33757585821077224
1772806495410292000,7.6002919921875,-0.5381225420832634,0.3161789960473776,-0.44737157318666576
1772806495420223000,7.610222900390625,-0.14875263761878013,0.05418810178339481,-0.5114718510448932
1772806495430155000,7.620155029296875,0.29419045160114765,-0.13671733191013336,-0.46218993374258277
1772806495440085800,7.630085693359375,0.6785942580908536,-0.3642237727701664,-0.3424462407261133
1772806495450017000,7.64001708984375,0.9439934994935989,-0.6465577823609113,-0.2431689971551299
1772806495459949000,7.649948974609375,1.0926415076941252,-0.7684931402027606,-0.1800556845076382
1772806495469879800,7.6598798828125,1.106681138962507,-0.7955114955097436,-0.17098332025781274
1772806495479811800,7.669811767578125,1.102781793436408,-0.6581517740428448,-0.2250868124976754
1772806495489743000,7.6797431640625,0.8699544498145579,-0.3484679852336645,-0.17982362931743262
1772806495499674000,7.689674072265625,0.4783464110344648,0.012021861705183982,-0.12692191408276557
1772806495509606000,7.69960595703125,0.03157002726197242,0.24974457615315912,-0.0593733954668045
1772806495519537000,7.709536865234375,-0.24114859724342821,0.38657998148500916,-0.039716947229951616
1772806495529468200,7.71946826171875,-0.37458734587430953,0.42926761508882044,0.03492605969160795
1772806495539400000,7.72939990234375,-0.503040707308054,0.3192062349140644,0.07842413289546966
1772806495549331000,7.7393310546875,-0.6385328813374043,0.24756430950462815,0.2625501355819404
1772806495559263000,7.749262939453125,-0.8251590302765369,0.22284254070222376,0.4800526304304599
1772806495569194000,7.759194091796875,-1.0396890851855278,0.3183130854666233,0.663458209887892
1772806495579125000,7.769125,-1.1396066724866627,0.5018775087475776,0.7128827505312859
1772806495589057000,7.77905712890625,-1.0323901603490113,0.7111445285618305,0.6484867045968771
1772806495598988000,7.788988037109375,-0.7265250530451536,0.8929688301771879,0.5955702301844954
1772806495608918800,7.798918701171875,-0.34391163710355754,1.041236314627528,0.539121928384155
1772806495618851000,7.80885107421875,0.010738251635432242,1.173489652866125,0.46132907912954685
1772806495628782000,7.818781982421875,0.27996552689373494,1.3341542620748281,0.5261890893138945
1772806495638714000,7.828714111328125,0.22956045078039167,1.5553940437555311,0.48452305384278294
1772806495648644900,7.838644775390625,0.09297054464221,1.8514654867976903,0.2305745962589979
1772806495658576100,7.848576171875,-0.0893891790241003,2.132608240777254,-0.2667997558504343
1772806495668508200,7.858508056640625,-0.3610258535116911,2.1488567802667617,-0.8525549867242574
1772806495678439000,7.86843896484375,-0.5010924958497286,1.9851246001809835,-1.321828741247952
1772806495688371000,7.878370849609375,-0.3876461494117975,1.7337907090097664,-1.6323840521946549
1772806495698302000,7.888302001953125,0.05907762739062309,1.3709516685962677,-1.5749892633244393
1772806495708233000,7.89823291015625,0.7127110472261905,1.0229431175678967,-1.111697359689325
1772806495718165000,7.9081650390625,1.2729624190092086,0.8245821071714162,-0.4000783454835415
1772806495728096000,7.918095947265625,1.6295114193677902,0.6663730744212866,0.5078970612980425
1772806495738026800,7.92802685546875,1.821211802831292,0.5386316606491803,1.3533118208788335
1772806495747958800,7.937958740234375,1.7417893065482377,0.43620998157262797,1.9598367219284176
1772806495757890000,7.94789013671875,1.3637217173427343,0.4246276803284883,2.1738260940894483
1772806495767822000,7.957822021484375,1.0369465084791183,0.5490314741104841,1.836307372893393
1772806495777752800,7.9677529296875,0.9508727376133203,0.5607412011265754,1.2549943622507154
1772806495787683800,7.977683837890625,1.0090981320887804,0.5813257239937782,0.6362137907400727
1772806495797616000,7.9876162109375,1.155475272747874,0.5217436542123556,0.1218386194691062
1772806495807545900,7.9975458984375,1.4278741637796162,0.4213298078268766,-0.2567781280517578
1772806495817476900,8.007476806640625,1.6218535980910063,0.4136369152367115,-0.38373964349254963
1772806495827409200,8.0174091796875,1.73296361053586,0.38298926351666446,-0.3963049644246697
1772806495837340000,8.02733984375,1.6307067666321993,0.34730654023885726,-0.2703805369466543
1772806495847271000,8.03727099609375,1.495419759786129,0.45497371875345705,-0.029071050053089856
1772806495857203000,8.047202880859375,1.1636895588636398,0.46639936813116073,0.2639893746048212
1772806495867134000,8.057134033203125,0.6315291400551796,0.42751521846354007,0.3888375511534512
1772806495877066000,8.06706591796875,0.12409867335557936,0.4472369870215654,0.47439548145160076
1772806495886997000,8.0769970703125,-0.19745500146746633,0.40996962490081784,0.6541653347551822
1772806495896928000,8.086927978515625,-0.3579004149675369,0.3740332191228866,0.8572977973371744
1772806495906859800,8.09685986328125,-0.22152327479720113,0.28653964458703995,0.9164607649236917
1772806495916791000,8.106791015625,0.1996434514224529,0.23808920967280864,0.8837301694497466
1772806495926722000,8.11672216796875,0.829733498585224,0.10807459027171135,0.7141741055160761
1772806495936653800,8.12665380859375,1.4009464093655346,0.008694178587198257,0.41032296838313337
1772806495946584800,8.136584716796875,1.8448884464949369,-0.04954875154495239,0.07843830755129456
1772806495956516900,8.146516845703125,2.029379921492934,-0.16594108830690382,-0.0937900443315506
1772806495966448000,8.1564482421875,2.0185206738263366,-0.29100831443369385,-0.11234539945870638
1772806495976379000,8.16637890625,1.8758149151563643,-0.41180327006876466,0.05356047140434384
1772806495986311000,8.176310791015625,1.521057474389672,-0.49557402468919753,0.19750293226242063
1772806495996242000,8.186241943359375,1.0116285273492336,-0.5675152253061533,0.2748655734062195
1772806496006173000,8.1961728515625,0.5392752192497253,-0.47147886335253714,0.3717268418766558
1772806496016105000,8.20610498046875,0.11264145979583262,-0.37941432763934135,0.3611407120630145
1772806496026036000,8.216035888671875,-0.12890811946392058,-0.24791560716032982,0.2421240181468427
1772806496035968000,8.225968017578126,-0.2115945859789848,-0.04336334090828895,0.09760244222655892
1772806496045899000,8.23589892578125,-0.12426175496280192,0.18284078518152236,-0.11671776932403445
1772806496055830000,8.245830078125,0.08541384565234184,0.3860866450101137,-0.2831213605761528
1772806496065762000,8.255761962890626,0.33754619372487066,0.5182803620159626,-0.2427497488297522
1772806496075692800,8.26569287109375,0.5804202995866536,0.6175473764538765,-0.0817100226983428
1772806496085624800,8.275624755859376,0.8220978891402483,0.6807856306552886,0.09586772738844156
1772806496095556000,8.28555615234375,0.9517126955687999,0.7218243280082941,0.2571132052250206
1772806496105486800,8.29548681640625,0.8947498683750629,0.7566729385495186,0.4045166201919317
1772806496115419000,8.3054189453125,0.6790285578548908,0.7792939356803894,0.4905351537391543
1772806496125350000,8.315349853515626,0.37673020312190053,0.7349146957278251,0.5130069516576826
1772806496135281000,8.325281005859376,0.24105565826296804,0.6657692633092404,0.4830784079924226
1772806496145213000,8.335212890625,0.17496669080555438,0.578092148900032,0.3802193604119122
1772806496155144000,8.34514404296875,0.03511164539158344,0.5216238272249698,0.2837090973362326
1772806496165076000,8.355075927734376,-0.002756605231761932,0.49181671798229215,0.24924188732802866
1772806496175007000,8.365007080078126,-0.031392332607507706,0.47311961629688737,0.38532369781360026
1772806496184938000,8.37493798828125,-0.11336509789526462,0.4053998327672481,0.6245701146975159
1772806496194870000,8.3848701171875,-0.11898995203971863,0.37647652062177656,0.9399344333611428
1772806496204801000,8.394801025390626,0.06649053399562835,0.44107261917293067,1.047260397222638
1772806496214732000,8.40473193359375,0.4639800320297479,0.4727537055939436,0.9709558868296444
1772806496224664000,8.4146640625,0.8869412404507399,0.5335346297711133,0.8084813055895268
1772806496234595000,8.424594970703126,1.2033441083818672,0.6140349844187498,0.56754459753111
1772806496244526800,8.43452685546875,1.2618787149369717,0.6316390301704407,0.23660540085583923
1772806496254457900,8.444457763671876,1.2103390818357467,0.6334089624524116,-0.04425999748706817
1772806496264389000,8.45438916015625,1.150371227607131,0.638645109540224,-0.22354250566512346
1772806496274321200,8.464321044921874,1.1709148339420556,0.591246229505539,-0.38108927511423824
1772806496284252200,8.474252197265624,1.3925643654674291,0.4907207394391298,-0.23506065563187
1772806496294184200,8.48418408203125,1.2731284232258795,0.25640228047668934,-0.04247574441879987
1772806496304115000,8.494114990234374,1.1785516124308109,0.18480536325275898,0.1479139948375523
1772806496314046200,8.504046142578124,0.9123714497834443,0.15006664282679558,0.36026845927312967
1772806496323978200,8.513978271484374,0.7151970188230276,0.1506499956727028,0.49575814908444876
1772806496333909200,8.5239091796875,0.62725745408535,0.15992752710580824,0.67268883343935
1772806496343840000,8.533840087890624,0.5888888527244329,0.26070143897533415,0.834589268053323
1772806496353772300,8.543772216796874,0.5351525863617659,0.3634907823204994,0.8002033065877855
1772806496363703300,8.553703369140624,0.4238309769928455,0.40497722344100473,0.6917813641831279
1772806496373635000,8.563635009765624,0.4218897797971964,0.40566052953004833,0.5962726793654263
1772806496383566000,8.573566162109374,0.4360749570161104,0.47836277764737606,0.5483885000318288
1772806496393497300,8.583497314453124,0.49277591840326784,0.43688802696466444,0.5097935425691307
1772806496403429400,8.593429443359375,0.4371019619762897,0.4197890081256628,0.5347704551763832
