time,seconds_elapsed,z,y,x
1772806487864920300,0.05492041015625,-0.6543121337890625,-0.0935821533203125,0.0717620849609375
1772806487874851600,0.0648515625,-0.594207763671875,-0.079925537109375,0.0421600341796875
1772806487884783600,0.07478369140625,-0.5693817138671875,-0.065216064453125,0.035247802734375
1772806487894714400,0.08471435546875,-0.584808349609375,-0.05133056640625,0.03857421875
1772806487904645400,0.094645263671875,-0.62744140625,-0.03460693359375,0.0575103759765625
1772806487914577400,0.104577392578125,-0.6708984375,-0.01605224609375,0.0815277099609375
1772806487924508400,0.11450830078125,-0.68499755859375,0.0009307861328125,0.0770111083984375
1772806487934440400,0.1244404296875,-0.683319091796875,0.0289459228515625,0.0418243408203125
1772806487944371500,0.134371337890625,-0.665863037109375,0.0590362548828125,0.0043182373046875
1772806487954302200,0.14430224609375,-0.6205902099609375,0.090423583984375,-0.0044097900390625
1772806487964234200,0.154234130859375,-0.572418212890625,0.105072021484375,0.0702056884765625
1772806487974165500,0.16416552734375,-0.51971435546875,0.09686279296875,0.177825927734375
1772806487984097500,0.17409765625,-0.4409027099609375,0.09771728515625,0.236419677734375
1772806487994028300,0.1840283203125,-0.349334716796875,0.102447509765625,0.2659149169921875
1772806488003959300,0.193959228515625,-0.220062255859375,0.1143798828125,0.260284423828125
1772806488013891600,0.2038916015625,-0.1573333740234375,0.1535491943359375,0.250030517578125
1772806488023822300,0.213822265625,-0.247894287109375,0.1931610107421875,0.23223876953125
1772806488033753300,0.22375341796875,-0.431671142578125,0.2692718505859375,0.1876220703125
1772806488043685400,0.233685302734375,-0.63916015625,0.3801422119140625,0.1697998046875
1772806488053616600,0.24361669921875,-0.8556060791015625,0.4585113525390625,0.195770263671875
1772806488063548400,0.25354833984375,-1.0648651123046875,0.5030975341796875,0.2476806640625
1772806488073479400,0.2634794921875,-1.227447509765625,0.4918670654296875,0.3992462158203125
1772806488083410400,0.273410400390625,-1.2418365478515625,0.4343414306640625,0.537017822265625
1772806488093342200,0.28334228515625,-1.155731201171875,0.401947021484375,0.6011962890625
1772806488103273500,0.2932734375,-1.05181884765625,0.38238525390625,0.5852813720703125
1772806488113205500,0.30320556640625,-0.9888916015625,0.3922271728515625,0.5203857421875
1772806488123136500,0.313136474609375,-0.9865570068359375,0.4363861083984375,0.457122802734375
1772806488133067300,0.3230673828125,-1.0415802001953125,0.50830078125,0.3984375
1772806488142999300,0.332999267578125,-1.129180908203125,0.5923614501953125,0.3183441162109375
1772806488152930600,0.3429306640625,-1.2653350830078125,0.6758575439453125,0.2325592041015625
1772806488162862600,0.352862548828125,-1.38037109375,0.715972900390625,0.1617279052734375
1772806488172793300,0.36279345703125,-1.4298553466796875,0.7422943115234375,0.1405487060546875
1772806488182724400,0.372724365234375,-1.4561767578125,0.725921630859375,0.28289794921875
1772806488192656600,0.38265673828125,-1.4637908935546875,0.612457275390625,0.493560791015625
1772806488202587400,0.39258740234375,-1.3895416259765625,0.5109100341796875,0.6024932861328125
1772806488212519400,0.40251953125,-1.2359161376953125,0.5158843994140625,0.6042938232421875
1772806488222450400,0.412450439453125,-1.072235107421875,0.570892333984375,0.50469970703125
1772806488232381400,0.42238134765625,-0.960662841796875,0.63934326171875,0.33160400390625
1772806488242313500,0.4323134765625,-0.89208984375,0.709136962890625,0.181243896484375
1772806488252244500,0.442244384765625,-0.8583831787109375,0.7591705322265625,0.0671539306640625
1772806488262176500,0.452176513671875,-0.8669891357421875,0.7908172607421875,0.003387451171875
1772806488272107300,0.462107177734375,-0.9048614501953125,0.7816619873046875,-0.0248565673828125
1772806488282038800,0.472038818359375,-0.9188079833984375,0.7725830078125,-0.02081298828125
1772806488291970800,0.481970703125,-0.9306793212890625,0.7627716064453125,0.0407867431640625
1772806488301901600,0.491901611328125,-0.9574127197265625,0.720001220703125,0.1212615966796875
1772806488311833600,0.50183349609375,-0.9783782958984375,0.705474853515625,0.19677734375
1772806488321764600,0.5117646484375,-0.992828369140625,0.694427490234375,0.30975341796875
1772806488331695600,0.521695556640625,-0.9714508056640625,0.673370361328125,0.4320526123046875
1772806488341627600,0.531627685546875,-0.9357452392578125,0.6669158935546875,0.46710205078125
1772806488351558700,0.54155859375,-0.8942413330078125,0.6859130859375,0.45037841796875
1772806488361490700,0.55149072265625,-0.8476715087890625,0.7174835205078125,0.419464111328125
1772806488371421700,0.561421630859375,-0.8079376220703125,0.738037109375,0.3807830810546875
1772806488381352700,0.571352783203125,-0.7828521728515625,0.7506256103515625,0.3468475341796875
1772806488391284700,0.58128466796875,-0.7534027099609375,0.760284423828125,0.306549072265625
1772806488401215500,0.591215576171875,-0.7280120849609375,0.7666778564453125,0.270965576171875
1772806488411147500,0.6011474609375,-0.6938629150390625,0.767059326171875,0.2327728271484375
1772806488421078800,0.611078857421875,-0.6495361328125,0.7689361572265625,0.1971435546875
1772806488431009800,0.621009765625,-0.6017913818359375,0.7773590087890625,0.1880645751953125
1772806488440941600,0.630941650390625,-0.5562896728515625,0.7910308837890625,0.2397613525390625
1772806488450872600,0.64087255859375,-0.5104827880859375,0.7713470458984375,0.3009796142578125
1772806488460803800,0.650803955078125,-0.5054931640625,0.764251708984375,0.334747314453125
1772806488470736000,0.66073583984375,-0.5480804443359375,0.775482177734375,0.3116912841796875
1772806488480666600,0.67066650390625,-0.61151123046875,0.7862548828125,0.2658843994140625
1772806488490598700,0.6805986328125,-0.7021026611328125,0.7741241455078125,0.226409912109375
1772806488500529700,0.69052978515625,-0.7743682861328125,0.7443695068359375,0.2242889404296875
1772806488510460700,0.700460693359375,-0.8134613037109375,0.69305419921875,0.279571533203125
1772806488520392700,0.710392822265625,-0.8200531005859375,0.6475067138671875,0.37445068359375
1772806488530323700,0.72032373046875,-0.8246307373046875,0.6321258544921875,0.465301513671875
1772806488540255700,0.730255859375,-0.817352294921875,0.646148681640625,0.5028228759765625
1772806488550186800,0.740186767578125,-0.8236236572265625,0.673309326171875,0.4976654052734375
1772806488560117800,0.75011767578125,-0.8433837890625,0.721588134765625,0.4590301513671875
1772806488570049800,0.7600498046875,-0.8813018798828125,0.7612457275390625,0.408966064453125
1772806488579980500,0.76998046875,-0.906707763671875,0.7813720703125,0.36407470703125
1772806488589912600,0.77991259765625,-0.9152679443359375,0.7941741943359375,0.3211517333984375
1772806488599843800,0.78984375,-0.89056396484375,0.7962799072265625,0.2699127197265625
1772806488609774600,0.799774658203125,-0.8409423828125,0.7982177734375,0.243499755859375
1772806488619706600,0.80970654296875,-0.7946929931640625,0.79779052734375,0.2415313720703125
1772806488629637600,0.8196376953125,-0.7805633544921875,0.7918243408203125,0.2586517333984375
1772806488639569700,0.829569580078125,-0.776458740234375,0.7845306396484375,0.2638397216796875
1772806488649500700,0.839500732421875,-0.76507568359375,0.7865447998046875,0.2575531005859375
1772806488659431700,0.849431640625,-0.761871337890625,0.785064697265625,0.2316436767578125
1772806488669363700,0.85936376953125,-0.75830078125,0.773651123046875,0.197723388671875
1772806488679294500,0.86929443359375,-0.751129150390625,0.753143310546875,0.17694091796875
1772806488689226800,0.879226806640625,-0.7568359375,0.730712890625,0.186859130859375
1772806488699157800,0.88915771484375,-0.75787353515625,0.70111083984375,0.2076873779296875
1772806488709088500,0.899088623046875,-0.7532501220703125,0.6706695556640625,0.2437591552734375
1772806488719020500,0.9090205078125,-0.732086181640625,0.6406707763671875,0.26837158203125
1772806488728951800,0.918951904296875,-0.6930694580078125,0.62158203125,0.2847747802734375
1772806488738883800,0.9288837890625,-0.67864990234375,0.6082916259765625,0.3004913330078125
1772806488748814600,0.938814697265625,-0.678375244140625,0.590606689453125,0.2885894775390625
1772806488758745600,0.94874560546875,-0.689971923828125,0.5843505859375,0.2404022216796875
1772806488768677600,0.958677734375,-0.676513671875,0.5851898193359375,0.1898651123046875
1772806488778608600,0.968608642578125,-0.64898681640625,0.578582763671875,0.142242431640625
1772806488788539600,0.97853955078125,-0.6301116943359375,0.580963134765625,0.1172027587890625
1772806488798471700,0.9884716796875,-0.613494873046875,0.5773162841796875,0.117645263671875
1772806488808402700,0.998402587890625,-0.5974884033203125,0.5695037841796875,0.1581268310546875
1772806488818334500,1.00833447265625,-0.59423828125,0.5702667236328125,0.2021026611328125
1772806488828265700,1.018265625,-0.599609375,0.582489013671875,0.250885009765625
1772806488838196700,1.02819677734375,-0.615631103515625,0.5995635986328125,0.2896270751953125
1772806488848128500,1.03812841796875,-0.648956298828125,0.6139678955078125,0.313507080078125
1772806488858059500,1.0480595703125,-0.6809844970703125,0.6259002685546875,0.315521240234375
1772806488867991800,1.05799169921875,-0.6974639892578125,0.6398162841796875,0.2978515625
1772806488877922800,1.0679228515625,-0.7082977294921875,0.6523590087890625,0.2866973876953125
1772806488887853600,1.077853515625,-0.7088775634765625,0.650909423828125,0.2870635986328125
1772806488897785600,1.08778564453125,-0.700225830078125,0.6419219970703125,0.3015289306640625
1772806488907716900,1.097716796875,-0.685821533203125,0.6321563720703125,0.3274383544921875
1772806488917648600,1.107648681640625,-0.65557861328125,0.6303253173828125,0.3514862060546875
1772806488927579600,1.11757958984375,-0.6280364990234375,0.63287353515625,0.358306884765625
1772806488937510700,1.1275107421875,-0.5989837646484375,0.6296234130859375,0.367279052734375
1772806488947442700,1.137442626953125,-0.5707244873046875,0.632476806640625,0.3695068359375
1772806488957373700,1.147373779296875,-0.550811767578125,0.6373748779296875,0.376922607421875
1772806488967305700,1.1573056640625,-0.5346527099609375,0.63421630859375,0.4013519287109375
1772806488977236700,1.16723681640625,-0.52587890625,0.61962890625,0.4384002685546875
1772806488987167500,1.17716748046875,-0.5155487060546875,0.60687255859375,0.4751129150390625
1772806488997099500,1.187099609375,-0.530181884765625,0.5998687744140625,0.5014495849609375
1772806489007030800,1.19703076171875,-0.563873291015625,0.590423583984375,0.5488128662109375
1772806489016962800,1.206962890625,-0.59906005859375,0.5836181640625,0.5993804931640625
1772806489026893600,1.2168935546875,-0.619415283203125,0.575897216796875,0.624786376953125
1772806489036824600,1.226824462890625,-0.6144561767578125,0.5749969482421875,0.635589599609375
1772806489046756900,1.2367568359375,-0.6027679443359375,0.5734710693359375,0.639495849609375
1772806489056687600,1.2466875,-0.5874481201171875,0.5692596435546875,0.642974853515625
1772806489066619600,1.25661962890625,-0.570892333984375,0.56475830078125,0.63519287109375
1772806489076550700,1.266550537109375,-0.5471343994140625,0.5702667236328125,0.6131134033203125
1772806489086481700,1.276481689453125,-0.535247802734375,0.579742431640625,0.574462890625
1772806489096413700,1.28641357421875,-0.53668212890625,0.58966064453125,0.524444580078125
1772806489106344700,1.2963447265625,-0.547393798828125,0.6037139892578125,0.469512939453125
1772806489116275700,1.306275634765625,-0.5410308837890625,0.6203460693359375,0.426910400390625
1772806489126207500,1.31620751953125,-0.5391082763671875,0.629058837890625,0.4066162109375
1772806489136138800,1.326138671875,-0.5492401123046875,0.6238555908203125,0.39630126953125
1772806489146070800,1.33607080078125,-0.5753021240234375,0.61199951171875,0.40411376953125
1772806489156001500,1.34600146484375,-0.6082611083984375,0.5892791748046875,0.4405975341796875
1772806489165933600,1.35593359375,-0.634124755859375,0.5648956298828125,0.4736328125
1772806489175864600,1.365864501953125,-0.6545867919921875,0.5478973388671875,0.5086669921875
1772806489185795800,1.3757958984375,-0.67236328125,0.5279693603515625,0.5469207763671875
1772806489195727600,1.3857275390625,-0.69122314453125,0.5184173583984375,0.5946502685546875
1772806489205658600,1.39565869140625,-0.70513916015625,0.527496337890625,0.6503753662109375
1772806489215590000,1.40558984375,-0.7119140625,0.5628509521484375,0.6925048828125
1772806489225521700,1.415521728515625,-0.720794677734375,0.6255950927734375,0.692474365234375
1772806489235452700,1.42545263671875,-0.73712158203125,0.7106475830078125,0.6436309814453125
1772806489245384700,1.435384765625,-0.766754150390625,0.799285888671875,0.57550048828125
1772806489255315700,1.445315673828125,-0.7882537841796875,0.8681488037109375,0.4918212890625
1772806489265246700,1.455246826171875,-0.800384521484375,0.9141693115234375,0.4269561767578125
1772806489275178500,1.465178466796875,-0.7900543212890625,0.9522247314453125,0.3890380859375
1772806489285109500,1.475109619140625,-0.7640533447265625,0.9691009521484375,0.3771514892578125
1772806489295041500,1.48504150390625,-0.7559051513671875,0.9637603759765625,0.39031982421875
1772806489304972500,1.49497265625,-0.744903564453125,0.94586181640625,0.443267822265625
1772806489314903600,1.504903564453125,-0.75531005859375,0.9139556884765625,0.5243072509765625
1772806489324835600,1.514835693359375,-0.81134033203125,0.8599700927734375,0.5790252685546875
1772806489334766600,1.5247666015625,-0.859619140625,0.8011322021484375,0.599090576171875
1772806489344698400,1.534698486328125,-0.8232269287109375,0.77008056640625,0.5535888671875
1772806489354629600,1.544629638671875,-0.702484130859375,0.7874603271484375,0.438507080078125
1772806489364560600,1.554560546875,-0.572906494140625,0.812835693359375,0.314117431640625
1772806489374492700,1.56449267578125,-0.4546661376953125,0.834259033203125,0.1835784912109375
1772806489384423400,1.57442333984375,-0.3416900634765625,0.8733978271484375,0.06005859375
1772806489394355500,1.58435546875,-0.2537994384765625,0.90057373046875,-0.029937744140625
1772806489404286700,1.59428662109375,-0.19012451171875,0.917694091796875,-0.099609375
1772806489414217500,1.604217529296875,-0.1654052734375,0.9226837158203125,-0.1161346435546875
1772806489424149500,1.6141494140625,-0.1671600341796875,0.9080963134765625,-0.10491943359375
1772806489434080500,1.62408056640625,-0.1803741455078125,0.9028778076171875,-0.0728607177734375
1772806489444011500,1.634011474609375,-0.2171630859375,0.9048614501953125,-0.0280303955078125
1772806489453943600,1.643943603515625,-0.2891845703125,0.8956451416015625,0.0408172607421875
1772806489463874600,1.65387451171875,-0.3635101318359375,0.88726806640625,0.1205902099609375
1772806489473806600,1.663806640625,-0.4257354736328125,0.8794097900390625,0.1757354736328125
1772806489483737300,1.6737373046875,-0.4945220947265625,0.871734619140625,0.2374114990234375
1772806489493668600,1.683668701171875,-0.5535125732421875,0.848602294921875,0.3035125732421875
1772806489503600600,1.6936005859375,-0.6009979248046875,0.816070556640625,0.3720550537109375
1772806489513531400,1.703531494140625,-0.608062744140625,0.7816009521484375,0.4112548828125
1772806489523463400,1.71346337890625,-0.585052490234375,0.74591064453125,0.415679931640625
1772806489533394700,1.723394775390625,-0.5569305419921875,0.725128173828125,0.36077880859375
1772806489543325700,1.73332568359375,-0.535980224609375,0.725006103515625,0.2771759033203125
1772806489553257500,1.743257568359375,-0.531158447265625,0.72088623046875,0.1895751953125
1772806489563188500,1.7531884765625,-0.520599365234375,0.7221221923828125,0.1167449951171875
1772806489573120500,1.76312060546875,-0.5094146728515625,0.7186279296875,0.0759429931640625
1772806489583051500,1.773051513671875,-0.506866455078125,0.7144927978515625,0.052490234375
1772806489592982500,1.782982421875,-0.49786376953125,0.7232513427734375,0.0351715087890625
1772806489602914600,1.79291455078125,-0.4887237548828125,0.705078125,0.0572509765625
1772806489612845600,1.802845458984375,-0.492340087890625,0.69573974609375,0.1068267822265625
1772806489622777300,1.81277734375,-0.4634246826171875,0.6938018798828125,0.109466552734375
1772806489632708600,1.82270849609375,-0.4124603271484375,0.7001953125,0.1580963134765625
1772806489642639600,1.8326396484375,-0.407623291015625,0.7042388916015625,0.1780242919921875
1772806489652571400,1.8425712890625,-0.4282073974609375,0.7210845947265625,0.19207763671875
1772806489662502400,1.85250244140625,-0.47918701171875,0.7453155517578125,0.197662353515625
1772806489672434700,1.8624345703125,-0.5453643798828125,0.761627197265625,0.200775146484375
1772806489682365700,1.87236572265625,-0.59503173828125,0.7659759521484375,0.2467803955078125
1772806489692296400,1.88229638671875,-0.6370697021484375,0.7482452392578125,0.34832763671875
1772806489702228500,1.892228515625,-0.7621002197265625,0.7502288818359375,0.417449951171875
1772806489712159700,1.90215966796875,-0.843048095703125,0.7661590576171875,0.4257965087890625
1772806489722090500,1.912090576171875,-0.84375,0.7778778076171875,0.4481201171875
1772806489732022500,1.9220224609375,-0.8358154296875,0.76800537109375,0.4636688232421875
1772806489741953500,1.93195361328125,-0.8072967529296875,0.7683868408203125,0.461334228515625
1772806489751885600,1.941885498046875,-0.766021728515625,0.7873077392578125,0.428558349609375
1772806489761816600,1.951816650390625,-0.7285003662109375,0.804840087890625,0.3699798583984375
1772806489771747600,1.96174755859375,-0.689727783203125,0.820556640625,0.32684326171875
1772806489781679600,1.9716796875,-0.667205810546875,0.8275604248046875,0.292755126953125
1772806489791610400,1.9816103515625,-0.6603851318359375,0.8219757080078125,0.27099609375
1772806489801542400,1.99154248046875,-0.6726226806640625,0.788787841796875,0.268829345703125
1772806489811473700,2.0014736328125,-0.6727294921875,0.755035400390625,0.2920989990234375
1772806489821404400,2.011404296875,-0.6722259521484375,0.70159912109375,0.3138427734375
1772806489831336400,2.02133642578125,-0.68536376953125,0.6690673828125,0.32183837890625
1772806489841267700,2.031267822265625,-0.7047882080078125,0.650115966796875,0.30029296875
1772806489851199700,2.04119970703125,-0.7191314697265625,0.6436614990234375,0.282867431640625
1772806489861130500,2.051130615234375,-0.713226318359375,0.650146484375,0.2724456787109375
1772806489871061500,2.0610615234375,-0.6925201416015625,0.67852783203125,0.246856689453125
1772806489880993500,2.07099365234375,-0.6738128662109375,0.7030029296875,0.2283172607421875
1772806489890924500,2.080924560546875,-0.6438140869140625,0.723236083984375,0.2165069580078125
1772806489900855600,2.09085546875,-0.6122283935546875,0.74652099609375,0.197509765625
1772806489910787600,2.10078759765625,-0.5989227294921875,0.769622802734375,0.1793975830078125
1772806489920718300,2.11071826171875,-0.594146728515625,0.7880401611328125,0.167633056640625
1772806489930650400,2.120650390625,-0.6023406982421875,0.805633544921875,0.16961669921875
1772806489940581600,2.13058154296875,-0.63232421875,0.8068695068359375,0.1933441162109375
1772806489950512600,2.1405126953125,-0.669219970703125,0.79632568359375,0.23333740234375
1772806489960444400,2.1504443359375,-0.7111663818359375,0.7769927978515625,0.2978973388671875
1772806489970375400,2.16037548828125,-0.7462615966796875,0.74554443359375,0.3777008056640625
1772806489980307500,2.170307373046875,-0.775115966796875,0.7184295654296875,0.4522705078125
1772806489990238500,2.180238525390625,-0.8085479736328125,0.6999359130859375,0.5218048095703125
1772806490000169500,2.19016943359375,-0.834991455078125,0.697601318359375,0.5670928955078125
1772806490010101500,2.2001015625,-0.81915283203125,0.69952392578125,0.5941314697265625
1772806490020032800,2.21003271484375,-0.7912445068359375,0.71221923828125,0.614227294921875
1772806490029964500,2.219964599609375,-0.7862396240234375,0.743682861328125,0.5830535888671875
1772806490039895600,2.2298955078125,-0.8152618408203125,0.7845306396484375,0.503448486328125
1772806490049826600,2.23982666015625,-0.841400146484375,0.833953857421875,0.421844482421875
1772806490059758600,2.249758544921875,-0.8707122802734375,0.86968994140625,0.342559814453125
1772806490069689600,2.259689697265625,-0.904083251953125,0.886016845703125,0.27239990234375
1772806490079620600,2.26962060546875,-0.90911865234375,0.8991241455078125,0.2259979248046875
1772806490089552600,2.279552734375,-0.8928375244140625,0.9158935546875,0.1850128173828125
1772806490099483400,2.2894833984375,-0.832611083984375,0.9420318603515625,0.1723175048828125
1772806490109415400,2.29941552734375,-0.720245361328125,0.96539306640625,0.1940765380859375
1772806490119346700,2.3093466796875,-0.5789642333984375,0.98004150390625,0.21575927734375
1772806490129277400,2.31927734375,-0.452056884765625,0.9861907958984375,0.2189178466796875
1772806490139209500,2.32920947265625,-0.391998291015625,0.976776123046875,0.2029571533203125
1772806490149140500,2.339140380859375,-0.4112091064453125,0.96087646484375,0.17633056640625
1772806490159072500,2.349072509765625,-0.49359130859375,0.9433441162109375,0.1498565673828125
1772806490169003500,2.35900341796875,-0.59820556640625,0.9231719970703125,0.149017333984375
1772806490178934500,2.3689345703125,-0.6802215576171875,0.89703369140625,0.173004150390625
1772806490188866600,2.378866455078125,-0.68060302734375,0.8509521484375,0.2321624755859375
1772806490198797600,2.388797607421875,-0.62493896484375,0.78594970703125,0.3412017822265625
1772806490208729600,2.3987294921875,-0.5382232666015625,0.7176361083984375,0.4696044921875
1772806490218660600,2.40866064453125,-0.4334869384765625,0.659271240234375,0.60870361328125
1772806490228591400,2.41859130859375,-0.351593017578125,0.5944366455078125,0.7291412353515625
1772806490238523400,2.4285234375,-0.27294921875,0.55120849609375,0.8253631591796875
1772806490248454700,2.43845458984375,-0.2018890380859375,0.5426483154296875,0.86505126953125
1772806490258386700,2.44838671875,-0.2081298828125,0.530120849609375,0.837432861328125
1772806490268317400,2.4583173828125,-0.1928558349609375,0.561004638671875,0.75341796875
1772806490278248200,2.468248291015625,-0.247894287109375,0.5882720947265625,0.618743896484375
1772806490288180200,2.47818017578125,-0.36480712890625,0.624542236328125,0.484100341796875
1772806490298111200,2.488111328125,-0.4602508544921875,0.657440185546875,0.378570556640625
1772806490308042000,2.4980419921875,-0.516204833984375,0.6718597412109375,0.3060455322265625
1772806490317974000,2.50797412109375,-0.5670928955078125,0.667510986328125,0.2704315185546875
1772806490327905300,2.5179052734375,-0.6253662109375,0.6439056396484375,0.2540130615234375
1772806490337837000,2.527837158203125,-0.6948394775390625,0.6145172119140625,0.2514495849609375
1772806490347768000,2.53776806640625,-0.7478790283203125,0.57977294921875,0.2523193359375
1772806490357699000,2.547698974609375,-0.79669189453125,0.55352783203125,0.2566375732421875
1772806490367631000,2.557631103515625,-0.81402587890625,0.5293426513671875,0.2446746826171875
1772806490377562000,2.56756201171875,-0.7845001220703125,0.513275146484375,0.236236572265625
1772806490387494100,2.577494140625,-0.72686767578125,0.502044677734375,0.2307586669921875
1772806490397425200,2.587425048828125,-0.6644439697265625,0.4875640869140625,0.2301025390625
1772806490407356000,2.59735595703125,-0.589569091796875,0.48980712890625,0.2309722900390625
1772806490417288200,2.6072880859375,-0.5222015380859375,0.50164794921875,0.2273101806640625
1772806490427219200,2.61721923828125,-0.4865875244140625,0.50408935546875,0.2401123046875
1772806490437150000,2.62714990234375,-0.44952392578125,0.5038604736328125,0.2610626220703125
1772806490447082000,2.63708203125,-0.416412353515625,0.5173187255859375,0.2802581787109375
1772806490457013200,2.64701318359375,-0.416961669921875,0.5348052978515625,0.293792724609375
1772806490466945300,2.6569453125,-0.457733154296875,0.5543212890625,0.3138885498046875
1772806490476876000,2.6668759765625,-0.52410888671875,0.5684051513671875,0.3396148681640625
1772806490486807000,2.67680712890625,-0.5913238525390625,0.574127197265625,0.37506103515625
1772806490496739000,2.686739013671875,-0.645050048828125,0.5788726806640625,0.4119720458984375
1772806490506670000,2.696670166015625,-0.6927337646484375,0.5826873779296875,0.4477691650390625
1772806490516602000,2.70660205078125,-0.7285003662109375,0.5712890625,0.4729156494140625
1772806490526533000,2.716533203125,-0.743499755859375,0.5576171875,0.4832763671875
1772806490536464000,2.7264638671875,-0.729095458984375,0.551788330078125,0.459136962890625
1772806490546396000,2.73639599609375,-0.708770751953125,0.5467681884765625,0.4115753173828125
1772806490556327200,2.7463271484375,-0.684173583984375,0.54730224609375,0.3543548583984375
1772806490566259200,2.75625927734375,-0.6811981201171875,0.5497283935546875,0.3120880126953125
1772806490576190000,2.76618994140625,-0.695343017578125,0.5436248779296875,0.2763824462890625
1772806490586121000,2.776120849609375,-0.715423583984375,0.54010009765625,0.2564239501953125
1772806490596053200,2.78605322265625,-0.7216796875,0.5375823974609375,0.259552001953125
1772806490605984000,2.79598388671875,-0.724334716796875,0.526153564453125,0.2829132080078125
1772806490615915000,2.8059150390625,-0.7061309814453125,0.508453369140625,0.3170623779296875
1772806490625847000,2.815846923828125,-0.678955078125,0.50164794921875,0.3428802490234375
1772806490635778300,2.8257783203125,-0.6705780029296875,0.5029754638671875,0.362457275390625
1772806490645710000,2.8357099609375,-0.688934326171875,0.503997802734375,0.383148193359375
1772806490655641000,2.84564111328125,-0.6965484619140625,0.510345458984375,0.40618896484375
1772806490665572000,2.855572021484375,-0.68939208984375,0.5384979248046875,0.4223785400390625
1772806490675504000,2.865504150390625,-0.695770263671875,0.57611083984375,0.435028076171875
1772806490685435100,2.87543505859375,-0.7057952880859375,0.6090240478515625,0.4397125244140625
1772806490695367200,2.8853671875,-0.7228851318359375,0.6456146240234375,0.4349517822265625
1772806490705298200,2.895298095703125,-0.7563629150390625,0.678436279296875,0.4180755615234375
1772806490715229000,2.90522900390625,-0.8062286376953125,0.6984710693359375,0.4091033935546875
1772806490725161000,2.915160888671875,-0.86834716796875,0.7050628662109375,0.4235687255859375
1772806490735092200,2.92509228515625,-0.9280853271484375,0.6912078857421875,0.464111328125
1772806490745024300,2.935024169921875,-0.9727325439453125,0.6509246826171875,0.514617919921875
1772806490754955000,2.944955078125,-1.01068115234375,0.60009765625,0.575531005859375
1772806490764886000,2.954885986328125,-1.05645751953125,0.55194091796875,0.6264190673828125
1772806490774818300,2.964818359375,-1.1086883544921875,0.5005645751953125,0.6664276123046875
1772806490784749000,2.9747490234375,-1.1209869384765625,0.4835357666015625,0.68572998046875
1772806490794680000,2.98468017578125,-1.105865478515625,0.493927001953125,0.6977996826171875
1772806490804612000,2.994612060546875,-1.061981201171875,0.532318115234375,0.6710968017578125
1772806490814543000,3.004543212890625,-1.001495361328125,0.596435546875,0.6068267822265625
1772806490824475100,3.01447509765625,-0.92669677734375,0.6855621337890625,0.511138916015625
1772806490834406100,3.02440625,-0.8490753173828125,0.78839111328125,0.4123077392578125
1772806490844337000,3.0343369140625,-0.7566070556640625,0.881866455078125,0.340484619140625
1772806490854269000,3.04426904296875,-0.6555328369140625,0.9601593017578125,0.2907562255859375
1772806490864200200,3.0542001953125,-0.5736083984375,1.01123046875,0.284393310546875
1772806490874132200,3.06413232421875,-0.564971923828125,1.0193328857421875,0.32720947265625
1772806490884063000,3.07406298828125,-0.6066131591796875,0.9716949462890625,0.4043121337890625
1772806490893994000,3.083993896484375,-0.659271240234375,0.9180908203125,0.4631195068359375
1772806490903926000,3.093926025390625,-0.7010955810546875,0.84490966796875,0.4808807373046875
1772806490913857000,3.10385693359375,-0.6856842041015625,0.7771453857421875,0.45068359375
1772806490923789000,3.1137890625,-0.6249542236328125,0.7386016845703125,0.403564453125
1772806490933720000,3.123719970703125,-0.5479888916015625,0.70635986328125,0.35076904296875
1772806490943651000,3.133651123046875,-0.44757080078125,0.6999664306640625,0.271148681640625
1772806490953583000,3.1435830078125,-0.36236572265625,0.7042083740234375,0.2006683349609375
1772806490963514000,3.15351416015625,-0.2991790771484375,0.7129364013671875,0.1373748779296875
1772806490973445000,3.163445068359375,-0.259857177734375,0.7208251953125,0.092681884765625
1772806490983377000,3.173376953125,-0.2762451171875,0.720977783203125,0.0827484130859375
1772806490993308200,3.18330810546875,-0.30377197265625,0.71337890625,0.1217803955078125
1772806491003240200,3.193240234375,-0.311737060546875,0.6994781494140625,0.1845550537109375
1772806491013171200,3.203171142578125,-0.3088226318359375,0.685943603515625,0.24652099609375
1772806491023102000,3.21310205078125,-0.287261962890625,0.673675537109375,0.2753143310546875
1772806491033034000,3.223033935546875,-0.26788330078125,0.666656494140625,0.2936553955078125
1772806491042965200,3.23296533203125,-0.267852783203125,0.6651763916015625,0.3274383544921875
1772806491052897000,3.24289697265625,-0.30230712890625,0.660736083984375,0.39752197265625
1772806491062828000,3.252828125,-0.3875885009765625,0.655914306640625,0.4993743896484375
1772806491072759000,3.262759033203125,-0.541412353515625,0.62982177734375,0.5932159423828125
1772806491082691000,3.272691162109375,-0.682861328125,0.6294097900390625,0.618560791015625
1772806491092622000,3.2826220703125,-0.738800048828125,0.6606903076171875,0.556304931640625
1772806491102554000,3.29255419921875,-0.7358551025390625,0.694000244140625,0.447845458984375
1772806491112485000,3.302485107421875,-0.6947784423828125,0.7203216552734375,0.329193115234375
1772806491122416000,3.312416015625,-0.6542816162109375,0.7404022216796875,0.2210540771484375
1772806491132348200,3.32234814453125,-0.609405517578125,0.745086669921875,0.14398193359375
1772806491142279200,3.332279052734375,-0.576873779296875,0.743988037109375,0.0967864990234375
1772806491152210000,3.3422099609375,-0.566680908203125,0.7297821044921875,0.072235107421875
1772806491162142000,3.352141845703125,-0.572296142578125,0.7004241943359375,0.0664825439453125
1772806491172073200,3.3620732421875,-0.5775146484375,0.6778564453125,0.07769775390625
1772806491182005200,3.372005126953125,-0.5897979736328125,0.650238037109375,0.1161956787109375
1772806491191936000,3.38193603515625,-0.53436279296875,0.571807861328125,0.2056121826171875
1772806491201867000,3.391866943359375,-0.54156494140625,0.511932373046875,0.360260009765625
1772806491211799000,3.401799072265625,-0.7248077392578125,0.5042877197265625,0.36724853515625
1772806491221730000,3.41172998046875,-0.7518310546875,0.567230224609375,0.3209686279296875
1772806491231662000,3.421662109375,-0.777740478515625,0.585906982421875,0.2836151123046875
1772806491241593000,3.431593017578125,-0.787261962890625,0.6031951904296875,0.2631683349609375
1772806491251524000,3.441524169921875,-0.8065032958984375,0.62152099609375,0.246826171875
1772806491261456100,3.4514560546875,-0.83673095703125,0.6462249755859375,0.229583740234375
1772806491271387100,3.46138720703125,-0.862701416015625,0.662567138671875,0.21795654296875
1772806491281319700,3.471319580078125,-0.8769073486328125,0.66546630859375,0.2081146240234375
1772806491291250400,3.48125048828125,-0.8892059326171875,0.6505126953125,0.2208251953125
1772806491301181400,3.491181396484375,-0.905059814453125,0.6379241943359375,0.2481231689453125
1772806491311113500,3.501113525390625,-0.9215087890625,0.6286468505859375,0.2715301513671875
1772806491321044500,3.51104443359375,-0.93572998046875,0.6102142333984375,0.2861175537109375
1772806491330975500,3.5209755859375,-0.9398040771484375,0.6009063720703125,0.2874755859375
1772806491340907500,3.530907470703125,-0.93304443359375,0.59014892578125,0.279510498046875
1772806491350838800,3.5408388671875,-0.9067840576171875,0.5899505615234375,0.2655487060546875
1772806491360770600,3.5507705078125,-0.8681488037109375,0.5918731689453125,0.242828369140625
1772806491370701600,3.56070166015625,-0.826263427734375,0.603118896484375,0.2117919921875
1772806491380632600,3.570632568359375,-0.7744903564453125,0.6244964599609375,0.1728668212890625
1772806491390564400,3.580564453125,-0.723480224609375,0.6452178955078125,0.1352691650390625
1772806491400495600,3.59049560546875,-0.6688690185546875,0.6598052978515625,0.1100006103515625
1772806491410426600,3.600426513671875,-0.638336181640625,0.6824493408203125,0.1186065673828125
1772806491420358700,3.610358642578125,-0.6237640380859375,0.6961212158203125,0.141326904296875
1772806491430289400,3.620289306640625,-0.6299591064453125,0.6934814453125,0.168792724609375
1772806491440221400,3.630221435546875,-0.6568756103515625,0.6791229248046875,0.221710205078125
1772806491450152700,3.640152587890625,-0.68450927734375,0.65264892578125,0.2899017333984375
1772806491460083500,3.65008349609375,-0.734375,0.61444091796875,0.3686981201171875
1772806491470015500,3.660015380859375,-0.788482666015625,0.5717926025390625,0.4407501220703125
1772806491479946500,3.669946533203125,-0.8159942626953125,0.5365447998046875,0.5189666748046875
1772806491489878500,3.67987841796875,-0.8054351806640625,0.5301971435546875,0.5899200439453125
1772806491499809500,3.6898095703125,-0.77484130859375,0.56341552734375,0.6139068603515625
1772806491509740500,3.699740478515625,-0.75634765625,0.6185302734375,0.561431884765625
1772806491519672600,3.709672607421875,-0.761749267578125,0.6911773681640625,0.4638519287109375
1772806491529603600,3.719603515625,-0.80853271484375,0.7417755126953125,0.3654022216796875
1772806491539535600,3.72953564453125,-0.84503173828125,0.7970428466796875,0.27398681640625
1772806491549466600,3.739466552734375,-0.8289337158203125,0.84820556640625,0.208251953125
1772806491559397400,3.7493974609375,-0.82904052734375,0.8954315185546875,0.1448974609375
1772806491569329400,3.759329345703125,-0.788482666015625,0.9649200439453125,0.08392333984375
1772806491579260700,3.7692607421875,-0.747314453125,1.0053253173828125,0.04010009765625
1772806491589192700,3.779192626953125,-0.745941162109375,1.0107269287109375,0.008941650390625
1772806491599123500,3.78912353515625,-0.7883148193359375,0.9875946044921875,0.0098114013671875
1772806491609054500,3.799054443359375,-0.8918914794921875,0.942840576171875,0.0294647216796875
1772806491618986500,3.808986572265625,-0.9926300048828125,0.8956298828125,0.0512542724609375
1772806491628917500,3.81891748046875,-1.042877197265625,0.8490447998046875,0.068450927734375
1772806491638848500,3.8288486328125,-1.031005859375,0.750946044921875,0.14593505859375
1772806491648780500,3.838780517578125,-0.936676025390625,0.6361541748046875,0.3395843505859375
1772806491658711600,3.848711669921875,-0.8062591552734375,0.556671142578125,0.5199127197265625
1772806491668643600,3.8586435546875,-0.6688079833984375,0.50018310546875,0.6584014892578125
1772806491678574600,3.86857470703125,-0.5637054443359375,0.478271484375,0.7429351806640625
1772806491688505600,3.878505615234375,-0.4893798828125,0.5046844482421875,0.7650299072265625
1772806491698437400,3.888437255859375,-0.4652862548828125,0.558349609375,0.7119140625
1772806491708368600,3.89836865234375,-0.4466094970703125,0.603546142578125,0.6001129150390625
1772806491718300700,3.90830078125,-0.4348907470703125,0.646209716796875,0.47991943359375
1772806491728231400,3.9182314453125,-0.451690673828125,0.6697845458984375,0.3721923828125
1772806491738162400,3.928162353515625,-0.520721435546875,0.651885986328125,0.3237457275390625
1772806491748094500,3.938094482421875,-0.6065216064453125,0.6450347900390625,0.3068695068359375
1772806491758025700,3.948025634765625,-0.7015228271484375,0.624114990234375,0.300506591796875
1772806491767956500,3.95795654296875,-0.786041259765625,0.592559814453125,0.2883148193359375
1772806491777888500,3.967888427734375,-0.8406982421875,0.562896728515625,0.2861175537109375
1772806491787819500,3.977819580078125,-0.8741912841796875,0.5321502685546875,0.28411865234375
1772806491797751600,3.98775146484375,-0.871826171875,0.4970703125,0.27789306640625
1772806491807681500,3.997681640625,-0.8520965576171875,0.471771240234375,0.272613525390625
1772806491817612500,4.007612548828125,-0.80999755859375,0.44793701171875,0.25762939453125
1772806491827543600,4.01754345703125,-0.7645416259765625,0.4326934814453125,0.238800048828125
1772806491837475600,4.0274755859375,-0.7085113525390625,0.4268341064453125,0.2152557373046875
1772806491847406600,4.037406494140625,-0.6357879638671875,0.422698974609375,0.19012451171875
1772806491857338400,4.04733837890625,-0.558868408203125,0.4214630126953125,0.170501708984375
1772806491867269600,4.05726953125,-0.4828948974609375,0.4251556396484375,0.1559295654296875
1772806491877200600,4.06720068359375,-0.4289703369140625,0.4289398193359375,0.1540985107421875
1772806491887132700,4.077132568359375,-0.40472412109375,0.4277496337890625,0.1615142822265625
1772806491897063400,4.0870634765625,-0.4040069580078125,0.429168701171875,0.16448974609375
1772806491906995500,4.096995361328125,-0.4168853759765625,0.439605712890625,0.172576904296875
1772806491916926700,4.1069267578125,-0.4517669677734375,0.434234619140625,0.19964599609375
1772806491926857500,4.116857421875,-0.490814208984375,0.4316864013671875,0.2400054931640625
1772806491936789500,4.12678955078125,-0.50732421875,0.4363250732421875,0.272491455078125
1772806491946720500,4.136720458984375,-0.5142669677734375,0.4326934814453125,0.2935943603515625
1772806491956652500,4.146652587890625,-0.5316314697265625,0.4245452880859375,0.3349456787109375
1772806491966583600,4.15658349609375,-0.566558837890625,0.4220123291015625,0.388031005859375
1772806491976514600,4.1665146484375,-0.6234130859375,0.4210205078125,0.4300994873046875
1772806491986446600,4.176446533203125,-0.68780517578125,0.43377685546875,0.452789306640625
1772806491996377300,4.18637744140625,-0.7774810791015625,0.451385498046875,0.47027587890625
1772806492006308600,4.19630859375,-0.89703369140625,0.45684814453125,0.4619140625
1772806492016240600,4.20624072265625,-0.9836883544921875,0.47784423828125,0.4341583251953125
1772806492026171400,4.21617138671875,-1.0189971923828125,0.480133056640625,0.39141845703125
1772806492036103400,4.226103515625,-1.0306396484375,0.473907470703125,0.359344482421875
1772806492046034700,4.23603466796875,-1.0077362060546875,0.465240478515625,0.3343658447265625
1772806492055965700,4.245965576171875,-0.9605560302734375,0.441864013671875,0.33154296875
1772806492065897500,4.2558974609375,-0.910003662109375,0.4253387451171875,0.3304901123046875
1772806492075828500,4.265828369140625,-0.8515625,0.41839599609375,0.3165130615234375
1772806492085760500,4.275760498046875,-0.7840728759765625,0.44158935546875,0.2939453125
1772806492095691500,4.28569140625,-0.7119293212890625,0.4832611083984375,0.2593994140625
1772806492105622500,4.29562255859375,-0.6521453857421875,0.531524658203125,0.230438232421875
1772806492115554600,4.305554443359375,-0.5983428955078125,0.5800933837890625,0.211151123046875
1772806492125485600,4.315485595703125,-0.5658721923828125,0.6348724365234375,0.2059173583984375
1772806492135416600,4.32541650390625,-0.5789031982421875,0.6740264892578125,0.228118896484375
1772806492145348600,4.3353486328125,-0.6414031982421875,0.6888580322265625,0.281585693359375
1772806492155279600,4.345279541015625,-0.7370147705078125,0.67755126953125,0.36773681640625
1772806492165211400,4.35521142578125,-0.87384033203125,0.6308135986328125,0.50103759765625
1772806492175142400,4.365142333984375,-1.0237579345703125,0.5697021484375,0.65423583984375
1772806492185074700,4.37507470703125,-1.1563262939453125,0.5197296142578125,0.7693023681640625
1772806492195005700,4.385005615234375,-1.28265380859375,0.491851806640625,0.835296630859375
1772806492204937500,4.3949375,-1.380523681640625,0.49591064453125,0.8436279296875
1772806492214868500,4.404868408203125,-1.4509735107421875,0.5277252197265625,0.80267333984375
1772806492224799700,4.4147998046875,-1.437255859375,0.5956878662109375,0.687957763671875
1772806492234731500,4.4247314453125,-1.3444061279296875,0.6806793212890625,0.5401763916015625
1772806492244662500,4.43466259765625,-1.2076263427734375,0.780181884765625,0.4151611328125
1772806492254594600,4.444594482421875,-1.041168212890625,0.8824615478515625,0.3281707763671875
1772806492264525600,4.454525634765625,-0.88031005859375,0.9584197998046875,0.2656707763671875
1772806492274456600,4.46445654296875,-0.7276611328125,0.995208740234375,0.2048187255859375
1772806492284388000,4.47438818359375,-0.63287353515625,0.9998779296875,0.1906890869140625
1772806492294319000,4.484319091796875,-0.61334228515625,0.958251953125,0.2269134521484375
1772806492304250000,4.49425,-0.6478118896484375,0.876007080078125,0.2534637451171875
1772806492314182100,4.50418212890625,-0.6741485595703125,0.79302978515625,0.248382568359375
1772806492324113200,4.514113037109375,-0.64752197265625,0.73944091796875,0.21246337890625
1772806492334045200,4.524045166015625,-0.5761566162109375,0.7019805908203125,0.154815673828125
1772806492343976000,4.533975830078125,-0.4915008544921875,0.6697845458984375,0.1279754638671875
1772806492353907200,4.5439072265625,-0.3952484130859375,0.6625213623046875,0.09033203125
1772806492363839200,4.553839111328125,-0.3187255859375,0.6552276611328125,0.070709228515625
1772806492373770000,4.56377001953125,-0.2417755126953125,0.6550445556640625,0.07177734375
1772806492383702000,4.573701904296875,-0.178192138671875,0.6438446044921875,0.0774078369140625
1772806492393633000,4.583633056640625,-0.094696044921875,0.629302978515625,0.1060638427734375
1772806492403564000,4.59356396484375,-0.047760009765625,0.6508636474609375,0.1604461669921875
1772806492413496000,4.60349609375,-0.0511627197265625,0.6624908447265625,0.211700439453125
1772806492423427000,4.613427001953125,-0.1008758544921875,0.6658172607421875,0.2856292724609375
1772806492433358000,4.623358154296875,-0.210845947265625,0.6856689453125,0.3788604736328125
1772806492443290000,4.6332900390625,-0.3268585205078125,0.716033935546875,0.412384033203125
1772806492453221000,4.64322119140625,-0.454345703125,0.747955322265625,0.4082794189453125
1772806492463153200,4.653153076171875,-0.581024169921875,0.774566650390625,0.381011962890625
1772806492473084000,4.663083984375,-0.7031707763671875,0.7981414794921875,0.3462982177734375
1772806492483015200,4.67301513671875,-0.78399658203125,0.8101654052734375,0.30712890625
1772806492492947200,4.682947265625,-0.8091583251953125,0.8048095703125,0.26983642578125
1772806492502878200,4.692878173828125,-0.768310546875,0.7963714599609375,0.2432098388671875
1772806492512810000,4.70281005859375,-0.70062255859375,0.7893218994140625,0.2149505615234375
1772806492522741000,4.712740966796875,-0.62567138671875,0.77874755859375,0.1931304931640625
1772806492532672300,4.72267236328125,-0.55072021484375,0.756103515625,0.2024688720703125
1772806492542604000,4.73260400390625,-0.4781341552734375,0.7317962646484375,0.219390869140625
1772806492552535000,4.74253515625,-0.424346923828125,0.706878662109375,0.2446136474609375
1772806492562467000,4.752467041015625,-0.3986663818359375,0.6776885986328125,0.2734222412109375
1772806492572398000,4.762398193359375,-0.38275146484375,0.6497955322265625,0.3005828857421875
1772806492582329000,4.7723291015625,-0.373626708984375,0.633087158203125,0.332916259765625
1772806492592261000,4.78226123046875,-0.3614044189453125,0.6208953857421875,0.342681884765625
1772806492602192100,4.792192138671875,-0.347137451171875,0.619476318359375,0.3314361572265625
1772806492612123100,4.802123046875,-0.35479736328125,0.6317901611328125,0.3279876708984375
1772806492622055200,4.81205517578125,-0.2937164306640625,0.6187591552734375,0.34417724609375
1772806492631986200,4.821986083984375,-0.184539794921875,0.56103515625,0.5095672607421875
1772806492641918200,4.831918212890625,-0.5246734619140625,0.5855255126953125,0.5165863037109375
1772806492651849000,4.841848876953125,-0.6511688232421875,0.66705322265625,0.3734283447265625
1772806492661780200,4.8517802734375,-0.7463531494140625,0.70526123046875,0.3412933349609375
1772806492671712300,4.861712158203125,-0.8048248291015625,0.6643829345703125,0.3618011474609375
1772806492681643000,4.87164306640625,-0.8541717529296875,0.691192626953125,0.397369384765625
1772806492691575000,4.881574951171875,-0.9330902099609375,0.7313079833984375,0.398590087890625
1772806492701506000,4.891506103515625,-0.98052978515625,0.7571258544921875,0.373992919921875
1772806492711437000,4.90143701171875,-0.9849395751953125,0.7814483642578125,0.3365020751953125
1772806492721369000,4.911369140625,-0.9684600830078125,0.8031005859375,0.3075714111328125
1772806492731300000,4.921300048828125,-0.945281982421875,0.8227996826171875,0.2775115966796875
1772806492741231000,4.931231201171875,-0.90753173828125,0.8490447998046875,0.2365875244140625
1772806492751163000,4.941162841796875,-0.8479156494140625,0.876739501953125,0.20263671875
1772806492761094100,4.95109423828125,-0.740234375,0.8926849365234375,0.1921844482421875
1772806492771026200,4.961026123046875,-0.6129150390625,0.9040985107421875,0.198944091796875
1772806492780957000,4.97095703125,-0.5238189697265625,0.9208526611328125,0.2017669677734375
1772806492790888200,4.98088818359375,-0.484619140625,0.9207305908203125,0.2042388916015625
1772806492800820200,4.9908203125,-0.4711151123046875,0.9113006591796875,0.2129058837890625
1772806492810751200,5.000751220703125,-0.509918212890625,0.8920745849609375,0.221435546875
1772806492820683000,5.01068310546875,-0.603515625,0.8645172119140625,0.2302703857421875
1772806492830614000,5.020614013671875,-0.67620849609375,0.80987548828125,0.2983245849609375
1772806492840545300,5.030545166015625,-0.7298431396484375,0.7589569091796875,0.40264892578125
1772806492850477000,5.04047705078125,-0.777008056640625,0.7421722412109375,0.5122528076171875
1772806492860408000,5.050407958984375,-0.769805908203125,0.7628173828125,0.6016082763671875
1772806492870339000,5.060339111328125,-0.7191619873046875,0.8172760009765625,0.6424102783203125
1772806492880271000,5.07027099609375,-0.7031097412109375,0.8509368896484375,0.6136322021484375
1772806492890202000,5.0802021484375,-0.67938232421875,0.923858642578125,0.5359649658203125
1772806492900134100,5.090134033203125,-0.6528472900390625,0.9845428466796875,0.4571533203125
1772806492910065200,5.100065185546875,-0.6599273681640625,1.0221405029296875,0.3485870361328125
1772806492919996000,5.109995849609375,-0.6770782470703125,1.063873291015625,0.2350616455078125
1772806492929928200,5.11992822265625,-0.71307373046875,1.09320068359375,0.120574951171875
1772806492939859200,5.129859130859375,-0.765533447265625,1.0860748291015625,0.0118408203125
1772806492949791200,5.139791259765625,-0.7854461669921875,1.03973388671875,-0.0421295166015625
1772806492959722000,5.149721923828125,-0.736602783203125,0.9921722412109375,-0.032928466796875
1772806492969653200,5.1596533203125,-0.6808624267578125,0.929901123046875,0.0253753662109375
1772806492979585300,5.169585205078125,-0.6367950439453125,0.8639068603515625,0.115386962890625
1772806492989516000,5.17951611328125,-0.61785888671875,0.7978363037109375,0.2424774169921875
1772806492999448000,5.189447998046875,-0.60302734375,0.7258758544921875,0.3685455322265625
1772806493009379000,5.199379150390625,-0.581634521484375,0.65997314453125,0.487548828125
1772806493019310000,5.20931005859375,-0.5521697998046875,0.6165008544921875,0.5968475341796875
1772806493029242000,5.2192421875,-0.4953765869140625,0.5896453857421875,0.661956787109375
1772806493039173000,5.229173095703125,-0.3908233642578125,0.585601806640625,0.68109130859375
1772806493049104000,5.239103759765625,-0.2961273193359375,0.612548828125,0.6676025390625
1772806493059036000,5.249035888671875,-0.23846435546875,0.6519317626953125,0.6030731201171875
1772806493068967200,5.25896728515625,-0.2263031005859375,0.6955718994140625,0.5270538330078125
1772806493078899200,5.268899169921875,-0.297760009765625,0.7463836669921875,0.437255859375
1772806493088830000,5.278829833984375,-0.40472412109375,0.7949066162109375,0.334136962890625
1772806493098761000,5.288760986328125,-0.5093536376953125,0.8303985595703125,0.2512664794921875
1772806493108693200,5.298693359375,-0.5937652587890625,0.8468017578125,0.1806182861328125
1772806493118624000,5.3086240234375,-0.6584930419921875,0.8492431640625,0.1215362548828125
1772806493128555000,5.318554931640625,-0.6936187744140625,0.8324737548828125,0.070953369140625
1772806493138487000,5.328487060546875,-0.70703125,0.8153839111328125,0.0410003662109375
1772806493148418300,5.338418212890625,-0.708282470703125,0.7843017578125,0.0394287109375
1772806493158350000,5.34835009765625,-0.6923980712890625,0.74346923828125,0.075714111328125
1772806493168281000,5.358281005859375,-0.6677703857421875,0.69696044921875,0.1305694580078125
1772806493178212000,5.368212158203125,-0.6343841552734375,0.6605987548828125,0.17041015625
1772806493188144000,5.37814404296875,-0.59552001953125,0.632110595703125,0.1889190673828125
1772806493198075100,5.3880751953125,-0.551025390625,0.6118011474609375,0.1840057373046875
1772806493208007200,5.398007080078125,-0.5115509033203125,0.5875701904296875,0.1746978759765625
1772806493217938200,5.407938232421875,-0.479339599609375,0.5657501220703125,0.1662445068359375
1772806493227869000,5.417868896484375,-0.4353790283203125,0.5580291748046875,0.16790771484375
1772806493237801000,5.427801025390625,-0.402069091796875,0.5473480224609375,0.1767120361328125
1772806493247732200,5.437732177734375,-0.391448974609375,0.541168212890625,0.1898040771484375
1772806493257664300,5.447664306640625,-0.4000091552734375,0.53814697265625,0.207916259765625
1772806493267595000,5.457594970703125,-0.4141845703125,0.5445404052734375,0.2191925048828125
1772806493277526000,5.467526123046875,-0.4445037841796875,0.5464019775390625,0.2239837646484375
1772806493287458300,5.477458251953125,-0.472259521484375,0.5438995361328125,0.2307586669921875
1772806493297389300,5.487389404296875,-0.4900360107421875,0.5467681884765625,0.2442474365234375
1772806493307320300,5.4973203125,-0.5113067626953125,0.5384368896484375,0.2487640380859375
1772806493317252400,5.50725244140625,-0.5356597900390625,0.5268707275390625,0.269287109375
1772806493327183400,5.517183349609375,-0.5447845458984375,0.516265869140625,0.316619873046875
1772806493337115400,5.527115478515625,-0.576019287109375,0.5084228515625,0.3766937255859375
1772806493347046400,5.53704638671875,-0.6293182373046875,0.49114990234375,0.435760498046875
1772806493356977200,5.54697705078125,-0.6950531005859375,0.4880828857421875,0.47930908203125
1772806493366909200,5.5569091796875,-0.7604217529296875,0.4874114990234375,0.4982757568359375
1772806493376840400,5.56684033203125,-0.8128662109375,0.5027923583984375,0.4919586181640625
1772806493386772500,5.5767724609375,-0.85546875,0.535003662109375,0.45068359375
1772806493396703200,5.586703125,-0.8543243408203125,0.599578857421875,0.3816070556640625
1772806493406634200,5.59663427734375,-0.838134765625,0.66534423828125,0.2719879150390625
1772806493416566300,5.606566162109375,-0.8388824462890625,0.7295684814453125,0.1644134521484375
1772806493426497300,5.616497314453125,-0.84674072265625,0.7812957763671875,0.0799560546875
1772806493436428300,5.62642822265625,-0.851287841796875,0.8076171875,0.01788330078125
1772806493446360300,5.6363603515625,-0.8312225341796875,0.8249053955078125,-0.0182952880859375
1772806493456291300,5.646291259765625,-0.799224853515625,0.8420257568359375,-0.03436279296875
1772806493466223400,5.656223388671875,-0.7729339599609375,0.842437744140625,-0.044403076171875
1772806493476154400,5.666154296875,-0.7656707763671875,0.8292236328125,-0.021270751953125
1772806493486085400,5.67608544921875,-0.7655792236328125,0.79931640625,0.0482177734375
1772806493496017400,5.686017333984375,-0.7717132568359375,0.742401123046875,0.13739013671875
1772806493505948400,5.695948486328125,-0.7897796630859375,0.6838226318359375,0.249237060546875
1772806493515880400,5.70588037109375,-0.84027099609375,0.612640380859375,0.3564605712890625
1772806493525811500,5.7158115234375,-0.920013427734375,0.555877685546875,0.4288177490234375
1772806493535742200,5.7257421875,-0.99127197265625,0.5281982421875,0.4537353515625
1772806493545674200,5.73567431640625,-1.0430908203125,0.54449462890625,0.4710540771484375
1772806493555605500,5.74560546875,-1.0751800537109375,0.587646484375,0.473602294921875
1772806493565536300,5.755536376953125,-1.08514404296875,0.6554412841796875,0.4385528564453125
1772806493575468300,5.76546826171875,-1.059173583984375,0.753204345703125,0.377044677734375
1772806493585399300,5.7753994140625,-0.9883270263671875,0.86090087890625,0.32537841796875
1772806493595331300,5.785331298828125,-0.874755859375,0.9600067138671875,0.2955322265625
1772806493605262300,5.795262451171875,-0.7529754638671875,1.04571533203125,0.2695770263671875
1772806493615193300,5.805193359375,-0.660491943359375,1.1013641357421875,0.2580413818359375
1772806493625125400,5.81512548828125,-0.611083984375,1.0848388671875,0.2780609130859375
1772806493635056400,5.825056396484375,-0.611541748046875,1.026885986328125,0.3232879638671875
1772806493644988400,5.834988525390625,-0.6526947021484375,0.9606475830078125,0.3259429931640625
1772806493654919400,5.84491943359375,-0.6807098388671875,0.902923583984375,0.2585906982421875
1772806493664850200,5.85485009765625,-0.6704254150390625,0.8560638427734375,0.192352294921875
1772806493674782200,5.8647822265625,-0.6326751708984375,0.80462646484375,0.1351318359375
1772806493684713500,5.87471337890625,-0.531494140625,0.76812744140625,0.096160888671875
1772806493694644500,5.88464453125,-0.3971405029296875,0.75750732421875,0.072418212890625
1772806493704576300,5.894576171875,-0.29315185546875,0.7638397216796875,0.0483551025390625
1772806493714507300,5.90450732421875,-0.235687255859375,0.76531982421875,0.04486083984375
1772806493724439300,5.914439208984375,-0.2320404052734375,0.751983642578125,0.0826873779296875
1772806493734370300,5.924370361328125,-0.256561279296875,0.7463531494140625,0.1416168212890625
1772806493744301300,5.93430126953125,-0.28582763671875,0.7398681640625,0.1990966796875
1772806493754233300,5.9442333984375,-0.307861328125,0.734039306640625,0.235687255859375
1772806493764164400,5.954164306640625,-0.32012939453125,0.7464752197265625,0.2570343017578125
1772806493774096100,5.96409619140625,-0.3480224609375,0.7637786865234375,0.268402099609375
1772806493784027400,5.97402734375,-0.406707763671875,0.7800445556640625,0.26513671875
1772806493793958400,5.98395849609375,-0.486175537109375,0.7973175048828125,0.2657470703125
1772806493803890200,5.99389013671875,-0.551666259765625,0.803802490234375,0.2592926025390625
1772806493813821400,6.003821533203125,-0.6138763427734375,0.7974395751953125,0.242340087890625
1772806493823752400,6.01375244140625,-0.6511077880859375,0.781463623046875,0.2135009765625
1772806493833684500,6.0236845703125,-0.64422607421875,0.7660980224609375,0.171417236328125
1772806493843615200,6.033615234375,-0.611175537109375,0.73956298828125,0.1550140380859375
1772806493853547300,6.04354736328125,-0.5592041015625,0.708099365234375,0.15283203125
1772806493863478500,6.053478515625,-0.5077362060546875,0.6784210205078125,0.15802001953125
1772806493873409300,6.0634091796875,-0.4677581787109375,0.6473541259765625,0.17010498046875
1772806493883341300,6.07334130859375,-0.4373779296875,0.622711181640625,0.183135986328125
1772806493893272300,6.083272216796875,-0.40594482421875,0.6074676513671875,0.191864013671875
1772806493903204400,6.093204345703125,-0.3873291015625,0.5982666015625,0.1959686279296875
1772806493913135400,6.10313525390625,-0.3870849609375,0.5890350341796875,0.2013092041015625
1772806493923066400,6.11306640625,-0.3930816650390625,0.582305908203125,0.204437255859375
1772806493932998400,6.122998291015625,-0.404449462890625,0.585479736328125,0.2126617431640625
1772806493942929200,6.13292919921875,-0.4478912353515625,0.58984375,0.237335205078125
1772806493952860400,6.1428603515625,-0.4914093017578125,0.599578857421875,0.2684173583984375
1772806493962792400,6.15279248046875,-0.5193328857421875,0.62176513671875,0.2739105224609375
1772806493972723200,6.16272314453125,-0.54541015625,0.6425933837890625,0.269287109375
1772806493982655200,6.1726552734375,-0.5858154296875,0.665618896484375,0.2579193115234375
1772806493992586500,6.18258642578125,-0.6198577880859375,0.688018798828125,0.2418212890625
1772806494002517200,6.192517333984375,-0.64556884765625,0.712890625,0.2360687255859375
1772806494012449300,6.20244921875,-0.6672821044921875,0.7368011474609375,0.231414794921875
1772806494022380300,6.21238037109375,-0.7034912109375,0.7548828125,0.2284698486328125
1772806494032312300,6.222312255859375,-0.758819580078125,0.76806640625,0.237548828125
1772806494042243300,6.232243408203125,-0.83111572265625,0.7667083740234375,0.252899169921875
1772806494052174300,6.24217431640625,-0.9192962646484375,0.7577972412109375,0.283935546875
1772806494062106400,6.2521064453125,-1.016510009765625,0.73626708984375,0.329315185546875
1772806494072037000,6.262037109375,-1.0657806396484375,0.722503662109375,0.37884521484375
1772806494081968400,6.271968505859375,-1.0625,0.729949951171875,0.396820068359375
1772806494091900400,6.281900390625,-0.99456787109375,0.7603759765625,0.355133056640625
1772806494101831400,6.29183154296875,-0.880615234375,0.7994232177734375,0.2823638916015625
1772806494111763200,6.30176318359375,-0.7743682861328125,0.840667724609375,0.230010986328125
1772806494121694200,6.311694091796875,-0.6926422119140625,0.872711181640625,0.1948089599609375
1772806494131625500,6.32162548828125,-0.6409912109375,0.8900299072265625,0.157623291015625
1772806494141557500,6.3315576171875,-0.6178741455078125,0.8967132568359375,0.12738037109375
1772806494151488300,6.34148828125,-0.6261444091796875,0.897613525390625,0.0972137451171875
1772806494161420300,6.351420166015625,-0.6685791015625,0.87506103515625,0.07879638671875
1772806494171351600,6.3613515625,-0.7043609619140625,0.8373870849609375,0.0953216552734375
1772806494181282300,6.3712822265625,-0.7254180908203125,0.7945098876953125,0.1607666015625
1772806494191214300,6.38121435546875,-0.7320556640625,0.7509307861328125,0.269927978515625
1772806494201145300,6.391145263671875,-0.7308197021484375,0.7059783935546875,0.422393798828125
1772806494211076400,6.401076416015625,-0.7393951416015625,0.664520263671875,0.5640411376953125
1772806494221008400,6.41100830078125,-0.7742919921875,0.660675048828125,0.6586456298828125
1772806494230939400,6.420939453125,-0.8256988525390625,0.6962738037109375,0.690826416015625
1772806494240871400,6.430871337890625,-0.86248779296875,0.7619171142578125,0.63232421875
1772806494250802200,6.44080224609375,-0.85198974609375,0.8623199462890625,0.5004425048828125
1772806494260733400,6.4507333984375,-0.801788330078125,0.9620361328125,0.34765625
1772806494270665500,6.46066552734375,-0.72784423828125,1.0428314208984375,0.195556640625
1772806494280596200,6.47059619140625,-0.6603851318359375,1.0787811279296875,0.0910491943359375
1772806494290528000,6.480528076171875,-0.6058807373046875,1.065185546875,0.0278167724609375
1772806494300459000,6.490458984375,-0.5703887939453125,1.03936767578125,-0.031707763671875
1772806494310390000,6.50039013671875,-0.580352783203125,0.992584228515625,-0.08026123046875
1772806494320322000,6.510322021484375,-0.5982818603515625,0.9324798583984375,-0.095550537109375
1772806494330252800,6.520252685546875,-0.599853515625,0.8739166259765625,-0.0723876953125
1772806494340184000,6.53018408203125,-0.5776824951171875,0.809112548828125,-0.0059356689453125
1772806494350116000,6.5401162109375,-0.5552215576171875,0.7436676025390625,0.0902557373046875
1772806494360046800,6.550046875,-0.50909423828125,0.6850433349609375,0.2250518798828125
1772806494369979000,6.559978759765625,-0.43731689453125,0.6356048583984375,0.4076080322265625
1772806494379910000,6.569909912109375,-0.34063720703125,0.5796966552734375,0.6230010986328125
1772806494389841200,6.579841064453125,-0.2709808349609375,0.5219573974609375,0.8221435546875
1772806494399773000,6.58977294921875,-0.2758026123046875,0.4768524169921875,0.9210357666015625
1772806494409704000,6.599703857421875,-0.3766937255859375,0.4832916259765625,0.8984222412109375
1772806494419636000,6.609635986328125,-0.5569305419921875,0.5443878173828125,0.77734375
1772806494429567000,6.61956689453125,-0.747100830078125,0.6190032958984375,0.6266021728515625
1772806494439498000,6.629498046875,-0.8836212158203125,0.6876678466796875,0.471435546875
1772806494449430000,6.639429931640625,-0.9384765625,0.7603302001953125,0.3318023681640625
1772806494459361000,6.649361083984375,-0.961944580078125,0.8003692626953125,0.20672607421875
1772806494469292000,6.6592919921875,-0.9533538818359375,0.821044921875,0.1136474609375
1772806494479224000,6.66922412109375,-0.888458251953125,0.8203125,0.040008544921875
1772806494489155000,6.679155029296875,-0.80279541015625,0.800048828125,-0.006866455078125
1772806494499086800,6.6890869140625,-0.715057373046875,0.76171875,-0.006988525390625
1772806494509017900,6.699017822265625,-0.601165771484375,0.7088165283203125,0.0279693603515625
1772806494518949000,6.70894921875,-0.496002197265625,0.659637451171875,0.0617523193359375
1772806494528881200,6.718881103515625,-0.4263916015625,0.6179962158203125,0.0894927978515625
1772806494538812000,6.72881201171875,-0.3889617919921875,0.5808258056640625,0.1078033447265625
1772806494548744000,6.738743896484375,-0.3679962158203125,0.54736328125,0.1122894287109375
1772806494558675000,6.748675048828125,-0.371429443359375,0.521636962890625,0.1047515869140625
1772806494568606000,6.75860595703125,-0.3950958251953125,0.5004730224609375,0.09814453125
1772806494578538000,6.7685380859375,-0.431365966796875,0.4825592041015625,0.106048583984375
1772806494588469000,6.778468994140625,-0.4698638916015625,0.4696197509765625,0.1256561279296875
1772806494598400000,6.78839990234375,-0.513458251953125,0.46282958984375,0.152557373046875
1772806494608332000,6.79833203125,-0.5492095947265625,0.4549102783203125,0.1873321533203125
1772806494618263000,6.808262939453125,-0.571624755859375,0.4602508544921875,0.22979736328125
1772806494628195000,6.818195068359375,-0.5786895751953125,0.469573974609375,0.2743072509765625
1772806494638125800,6.828125732421875,-0.5766754150390625,0.472015380859375,0.321502685546875
1772806494648057000,6.83805712890625,-0.5879058837890625,0.4712982177734375,0.38543701171875
1772806494657989000,6.847989013671875,-0.5795440673828125,0.475494384765625,0.4407196044921875
1772806494667920000,6.857919921875,-0.5880889892578125,0.4753875732421875,0.474578857421875
1772806494677851000,6.867850830078125,-0.6174163818359375,0.474395751953125,0.470123291015625
1772806494687783000,6.877782958984375,-0.65655517578125,0.475555419921875,0.44140625
1772806494697714000,6.8877138671875,-0.7069854736328125,0.4803314208984375,0.419158935546875
1772806494707646000,6.89764599609375,-0.7539520263671875,0.48834228515625,0.3980560302734375
1772806494717577000,6.907576904296875,-0.7638397216796875,0.509033203125,0.35791015625
1772806494727508000,6.917508056640625,-0.7533721923828125,0.5332489013671875,0.3118438720703125
1772806494737439700,6.927439697265625,-0.7294769287109375,0.558807373046875,0.270751953125
1772806494747371000,6.93737109375,-0.701934814453125,0.585968017578125,0.2359161376953125
1772806494757303000,6.947302978515625,-0.677825927734375,0.60675048828125,0.2076416015625
1772806494767233800,6.95723388671875,-0.6752471923828125,0.624755859375,0.198333740234375
1772806494777165000,6.9671650390625,-0.675750732421875,0.648040771484375,0.1995697021484375
1772806494787097000,6.97709716796875,-0.7016143798828125,0.6657562255859375,0.2075347900390625
1772806494797028000,6.987028076171875,-0.74127197265625,0.6943359375,0.1989288330078125
1772806494806958800,6.996958740234375,-0.7752227783203125,0.7308502197265625,0.18817138671875
1772806494816891000,7.006890869140625,-0.842193603515625,0.7626495361328125,0.1883392333984375
1772806494826822100,7.016822265625,-0.928497314453125,0.776580810546875,0.215179443359375
1772806494836754000,7.02675390625,-1.0254364013671875,0.76409912109375,0.270050048828125
1772806494846685000,7.036684814453125,-1.13165283203125,0.7325897216796875,0.3414154052734375
1772806494856616000,7.046615966796875,-1.2198944091796875,0.696380615234375,0.4226226806640625
1772806494866548000,7.0565478515625,-1.2733306884765625,0.6731414794921875,0.4918060302734375
1772806494876479000,7.06647900390625,-1.294708251953125,0.6900177001953125,0.5367431640625
1772806494886411000,7.076410888671875,-1.26629638671875,0.7372589111328125,0.529205322265625
1772806494896342000,7.086342041015625,-1.209320068359375,0.8079681396484375,0.463592529296875
1772806494906272800,7.096272705078125,-1.1324615478515625,0.8833465576171875,0.3762969970703125
1772806494916205000,7.106205078125,-1.026824951171875,0.9630889892578125,0.323028564453125
1772806494926136000,7.116135986328125,-0.9195709228515625,1.0285491943359375,0.2928619384765625
1772806494936066800,7.12606689453125,-0.82012939453125,1.0664520263671875,0.25244140625
1772806494945998800,7.135998779296875,-0.763153076171875,1.07537841796875,0.2120819091796875
1772806494955930000,7.14593017578125,-0.7415618896484375,1.0341033935546875,0.193359375
1772806494965862100,7.155862060546875,-0.7484893798828125,0.951995849609375,0.2339630126953125
1772806494975793000,7.16579296875,-0.7576751708984375,0.8628387451171875,0.277679443359375
1772806494985724000,7.175723876953125,-0.7415618896484375,0.7772216796875,0.2865447998046875
1772806494995656000,7.185656005859375,-0.695892333984375,0.7123260498046875,0.2806549072265625
1772806495005587000,7.1955869140625,-0.6121978759765625,0.68310546875,0.245086669921875
1772806495015519000,7.20551904296875,-0.48553466796875,0.68023681640625,0.18231201171875
1772806495025450000,7.215449951171875,-0.339630126953125,0.692596435546875,0.09991455078125
1772806495035381000,7.225381103515625,-0.19134521484375,0.70635986328125,0.0377960205078125
1772806495045312800,7.235312744140625,-0.0957794189453125,0.722442626953125,-0.0095977783203125
1772806495055244000,7.245244140625,-0.063720703125,0.7332763671875,-0.0292816162109375
1772806495065175000,7.255175048828125,-0.0783233642578125,0.7384033203125,-0.023834228515625
1772806495075106800,7.26510693359375,-0.1602630615234375,0.7420806884765625,0.015380859375
1772806495085037800,7.275037841796875,-0.2566680908203125,0.74786376953125,0.109771728515625
1772806495094970000,7.28497021484375,-0.36834716796875,0.7373046875,0.2100372314453125
1772806495104901000,7.294901123046875,-0.4868316650390625,0.71575927734375,0.310516357421875
1772806495114832000,7.304831787109375,-0.5907440185546875,0.714019775390625,0.4302825927734375
1772806495124764000,7.314763916015625,-0.673187255859375,0.634765625,0.621826171875
1772806495134695200,7.324695068359375,-0.7584228515625,0.620880126953125,0.8144989013671875
1772806495144627000,7.334626953125,-0.7557373046875,0.635955810546875,0.821441650390625
1772806495154558000,7.344557861328125,-0.7593231201171875,0.7131805419921875,0.6064300537109375
1772806495164489000,7.354489013671875,-0.714019775390625,0.7982025146484375,0.3210601806640625
1772806495174421000,7.3644208984375,-0.6558380126953125,0.8765716552734375,0.0532073974609375
1772806495184352000,7.37435205078125,-0.58929443359375,0.8902587890625,-0.1285400390625
1772806495194283000,7.384282958984375,-0.515289306640625,0.8472137451171875,-0.1729278564453125
1772806495204215000,7.394215087890625,-0.4551544189453125,0.794647216796875,-0.13360595703125
1772806495214145800,7.404145751953125,-0.3990631103515625,0.7276458740234375,-0.0301513671875
1772806495224077800,7.414077880859375,-0.3476104736328125,0.6512908935546875,0.071533203125
1772806495234009000,7.424009033203125,-0.3336029052734375,0.5624542236328125,0.1812744140625
1772806495243939800,7.43393994140625,-0.334014892578125,0.49285888671875,0.295806884765625
1772806495253871900,7.443871826171875,-0.3535308837890625,0.4482421875,0.4008636474609375
1772806495263803000,7.453802978515625,-0.3951873779296875,0.4272308349609375,0.4629669189453125
1772806495273734000,7.46373388671875,-0.4650726318359375,0.4327545166015625,0.4522552490234375
1772806495283666000,7.473666015625,-0.5369873046875,0.483612060546875,0.398895263671875
1772806495293597000,7.483596923828125,-0.618011474609375,0.5529022216796875,0.336212158203125
1772806495303529000,7.493529052734375,-0.712921142578125,0.6279296875,0.280914306640625
1772806495313460000,7.5034599609375,-0.79693603515625,0.708953857421875,0.2353668212890625
1772806495323391000,7.513390869140625,-0.8853912353515625,0.7648162841796875,0.2204437255859375
1772806495333323000,7.523322998046875,-0.9392852783203125,0.7919921875,0.21466064453125
1772806495343253800,7.533253662109375,-0.941314697265625,0.812957763671875,0.2215423583984375
1772806495353185800,7.543185791015625,-0.92437744140625,0.8207550048828125,0.2235260009765625
1772806495363117000,7.553116943359375,-0.910675048828125,0.809539794921875,0.222503662109375
1772806495373048000,7.563048095703125,-0.8909454345703125,0.7909393310546875,0.2224273681640625
1772806495382979800,7.572979736328125,-0.8591766357421875,0.7733154296875,0.215545654296875
1772806495392910800,7.582910888671875,-0.8288421630859375,0.751739501953125,0.205963134765625
1772806495402842000,7.592842041015625,-0.782745361328125,0.7229766845703125,0.191497802734375
1772806495412774000,7.60277392578125,-0.7423858642578125,0.6951751708984375,0.18292236328125
1772806495422705000,7.612704833984375,-0.7041015625,0.6680450439453125,0.1790313720703125
1772806495432637000,7.622636962890625,-0.6617889404296875,0.646484375,0.1891021728515625
1772806495442568000,7.63256787109375,-0.627349853515625,0.61614990234375,0.2021026611328125
1772806495452499000,7.6424990234375,-0.606292724609375,0.5915069580078125,0.212005615234375
1772806495462431000,7.652430908203125,-0.598968505859375,0.5817413330078125,0.2169952392578125
1772806495472362000,7.662362060546875,-0.5982818603515625,0.583770751953125,0.2149658203125
1772806495482294000,7.6722939453125,-0.605621337890625,0.6049346923828125,0.2130126953125
1772806495492225000,7.68222509765625,-0.635955810546875,0.6401519775390625,0.2186431884765625
1772806495502156000,7.692156005859375,-0.6811065673828125,0.67425537109375,0.2290496826171875
1772806495512088000,7.702088134765625,-0.7214508056640625,0.6921844482421875,0.23089599609375
1772806495522018800,7.712018798828125,-0.741912841796875,0.703887939453125,0.238189697265625
1772806495531950000,7.7219501953125,-0.7548370361328125,0.7011566162109375,0.24169921875
1772806495541882000,7.731882080078125,-0.768157958984375,0.6892852783203125,0.2516632080078125
1772806495551812900,7.741812744140625,-0.78375244140625,0.6842498779296875,0.2739715576171875
1772806495561745000,7.751744873046875,-0.8047332763671875,0.6839599609375,0.29559326171875
1772806495571676000,7.761676025390625,-0.8243255615234375,0.697723388671875,0.3131866455078125
1772806495581607000,7.77160693359375,-0.8286285400390625,0.7162933349609375,0.313201904296875
1772806495591539000,7.7815390625,-0.809814453125,0.73602294921875,0.30694580078125
1772806495601470000,7.791469970703125,-0.7757415771484375,0.7509002685546875,0.30413818359375
1772806495611401000,7.80140087890625,-0.7369537353515625,0.764251708984375,0.2961273193359375
1772806495621333000,7.8113330078125,-0.702850341796875,0.776885986328125,0.2950439453125
1772806495631264000,7.821263916015625,-0.68682861328125,0.7953643798828125,0.302703857421875
1772806495641196000,7.831196044921875,-0.699432373046875,0.8198089599609375,0.29168701171875
1772806495651126800,7.841126708984375,-0.712646484375,0.8516998291015625,0.25823974609375
1772806495661058000,7.85105810546875,-0.7351226806640625,0.8724365234375,0.20458984375
1772806495670990000,7.860989990234375,-0.760528564453125,0.86285400390625,0.149505615234375
1772806495680921000,7.870921142578125,-0.7669525146484375,0.84326171875,0.1080169677734375
1772806495690852900,7.880852783203125,-0.7454071044921875,0.8106842041015625,0.0853729248046875
1772806495700783900,7.890783935546875,-0.6903228759765625,0.771240234375,0.1043701171875
1772806495710715100,7.900715087890625,-0.6272125244140625,0.740875244140625,0.15869140625
1772806495720647000,7.91064697265625,-0.5789794921875,0.724151611328125,0.232757568359375
1772806495730578000,7.920577880859375,-0.549407958984375,0.70831298828125,0.3226318359375
1772806495740509000,7.930509033203125,-0.5385589599609375,0.698486328125,0.396331787109375
1772806495750441000,7.94044091796875,-0.560516357421875,0.6890869140625,0.4447784423828125
1772806495760372000,7.9503720703125,-0.6009674072265625,0.6970977783203125,0.4442596435546875
1772806495770304000,7.960303955078125,-0.625152587890625,0.7055816650390625,0.39776611328125
1772806495780235000,7.970235107421875,-0.6270751953125,0.705291748046875,0.33782958984375
1772806495790166000,7.980166015625,-0.6189422607421875,0.7054901123046875,0.2770843505859375
1772806495800098000,7.99009814453125,-0.5989990234375,0.6951751708984375,0.2285614013671875
1772806495810029000,8.000029052734375,-0.573516845703125,0.6880035400390625,0.19854736328125
1772806495819959800,8.009959716796875,-0.5547332763671875,0.688934326171875,0.1885528564453125
1772806495829891000,8.01989111328125,-0.5518035888671875,0.6837005615234375,0.1913299560546875
1772806495839823000,8.029822998046875,-0.5643310546875,0.6887664794921875,0.208404541015625
1772806495849753900,8.03975390625,-0.57867431640625,0.700714111328125,0.234527587890625
1772806495859686000,8.049685791015625,-0.6237030029296875,0.6991424560546875,0.2617950439453125
1772806495869617000,8.059616943359375,-0.6752166748046875,0.7010345458984375,0.2679595947265625
1772806495879548200,8.069548095703125,-0.720977783203125,0.7012176513671875,0.283477783203125
1772806495889480000,8.07947998046875,-0.7453155517578125,0.697845458984375,0.304412841796875
1772806495899411000,8.089410888671875,-0.7530364990234375,0.6919097900390625,0.3211669921875
1772806495909342000,8.099342041015625,-0.727874755859375,0.6835784912109375,0.3249969482421875
1772806495919273700,8.109273681640625,-0.67620849609375,0.6754913330078125,0.317138671875
1772806495929205000,8.119205078125,-0.6127166748046875,0.6583404541015625,0.294677734375
1772806495939137000,8.129136962890625,-0.5593719482421875,0.6522674560546875,0.2606964111328125
1772806495949068000,8.139068115234375,-0.5233154296875,0.6421356201171875,0.2312469482421875
1772806495958999000,8.1489990234375,-0.5136871337890625,0.631591796875,0.219207763671875
1772806495968931000,8.15893115234375,-0.5177001953125,0.6185302734375,0.2241973876953125
1772806495978862000,8.168862060546875,-0.538787841796875,0.6112518310546875,0.24267578125
1772806495988793900,8.1787939453125,-0.580108642578125,0.6018524169921875,0.2523193359375
1772806495998724900,8.188724853515625,-0.632354736328125,0.604278564453125,0.2630615234375
1772806496008656100,8.19865625,-0.67620849609375,0.617523193359375,0.2693023681640625
1772806496018588200,8.208588134765625,-0.713043212890625,0.62750244140625,0.2646636962890625
1772806496028519000,8.218518798828125,-0.7293243408203125,0.6449737548828125,0.2533111572265625
1772806496038450000,8.228449951171875,-0.7313079833984375,0.667266845703125,0.235626220703125
1772806496048382000,8.2383818359375,-0.7168121337890625,0.68994140625,0.2147979736328125
1772806496058313000,8.24831298828125,-0.6929779052734375,0.708740234375,0.2058868408203125
1772806496068245000,8.258244873046875,-0.6657257080078125,0.7188568115234375,0.2151641845703125
1772806496078176000,8.268176025390625,-0.6422576904296875,0.729827880859375,0.2352294921875
1772806496088106800,8.278106689453125,-0.618408203125,0.734130859375,0.251861572265625
1772806496098038800,8.288038818359375,-0.6119537353515625,0.7399749755859375,0.268585205078125
1772806496107970000,8.297969970703125,-0.62225341796875,0.7437896728515625,0.28338623046875
1772806496117900800,8.30790087890625,-0.64947509765625,0.744171142578125,0.2880096435546875
1772806496127832800,8.317832763671875,-0.67486572265625,0.7407073974609375,0.289306640625
1772806496137764000,8.32776416015625,-0.681365966796875,0.7329254150390625,0.2830352783203125
1772806496147696000,8.337696044921875,-0.6910400390625,0.7265777587890625,0.27117919921875
1772806496157627000,8.347626953125,-0.7034149169921875,0.7225799560546875,0.2603607177734375
1772806496167558000,8.357557861328125,-0.7033538818359375,0.721588134765625,0.2628021240234375
1772806496177491000,8.367490966796876,-0.7099761962890625,0.7183380126953125,0.2811737060546875
1772806496187422000,8.377421875,-0.7154693603515625,0.7108917236328125,0.3075714111328125
1772806496197353000,8.38735302734375,-0.7116546630859375,0.712371826171875,0.3365020751953125
1772806496207285000,8.397284912109376,-0.68304443359375,0.7171783447265625,0.3378448486328125
1772806496217216000,8.407216064453126,-0.6404571533203125,0.7190704345703125,0.329437255859375
1772806496227148000,8.41714794921875,-0.6004180908203125,0.726226806640625,0.3090667724609375
1772806496237078800,8.427078857421876,-0.57781982421875,0.7322540283203125,0.2833251953125
1772806496247010000,8.437010009765626,-0.57794189453125,0.7324066162109375,0.249176025390625
1772806496256942000,8.446942138671876,-0.5836181640625,0.7344818115234375,0.2260284423828125
1772806496266872800,8.456872802734376,-0.5920867919921875,0.7324371337890625,0.208892822265625
1772806496276804000,8.46680419921875,-0.5722198486328125,0.725128173828125,0.200469970703125
1772806496286736100,8.476736083984376,-0.566192626953125,0.71142578125,0.223785400390625
1772806496296667100,8.486667236328126,-0.57598876953125,0.691009521484375,0.239532470703125
1772806496306599200,8.49659912109375,-0.5913848876953125,0.68896484375,0.262542724609375
1772806496316530200,8.5065302734375,-0.6177825927734375,0.6868438720703125,0.281585693359375
1772806496326461200,8.516461181640626,-0.6320648193359375,0.6880950927734375,0.29327392578125
1772806496336393200,8.526393310546876,-0.6372833251953125,0.692626953125,0.3151092529296875
1772806496346324200,8.53632421875,-0.6410064697265625,0.7057037353515625,0.324432373046875
1772806496356255000,8.5462548828125,-0.647369384765625,0.715667724609375,0.317138671875
1772806496366187000,8.55618701171875,-0.6558380126953125,0.7167816162109375,0.304718017578125
1772806496376118300,8.5661181640625,-0.6530303955078125,0.7212982177734375,0.2986907958984375
1772806496386050300,8.57605029296875,-0.6485443115234375,0.7257843017578125,0.29296875
1772806496395981000,8.58598095703125,-0.644622802734375,0.720458984375,0.2920074462890625
1772806496405912000,8.595912109375,-0.6555633544921875,0.7239837646484375,0.2924652099609375
