time,seconds_elapsed,z,y,x
1772806487864920300,0.05492041015625,0.22423815727233887,-0.3384512960910797,-0.5487528443336487
1772806487874851600,0.0648515625,0.20337256789207458,-0.212943434715271,-0.6782661080360413
1772806487884783600,0.07478369140625,0.1580522209405899,-0.11317475885152817,-0.8254646062850952
1772806487894714400,0.08471435546875,0.11176061630249023,-0.09420612454414368,-0.9399169087409973
1772806487904645400,0.094645263671875,0.0711844339966774,-0.11829548329114914,-1.0053246021270752
1772806487914577400,0.104577392578125,0.036204077303409576,-0.21180759370326996,-1.0164787769317627
1772806487924508400,0.11450830078125,-0.01709216833114624,-0.2732299268245697,-0.9851898550987244
1772806487934440400,0.1244404296875,-0.09630230069160461,-0.24314899742603302,-0.8950290679931641
1772806487944371500,0.134371337890625,-0.18532751500606537,-0.1021343544125557,-0.7500356435775757
1772806487954302200,0.14430224609375,-0.21712619066238403,0.15088218450546265,-0.574492871761322
1772806487964234200,0.154234130859375,-0.111526258289814,0.4639812409877777,-0.3759195804595947
1772806487974165500,0.16416552734375,0.08876822143793106,0.8436782360076904,-0.20549376308918
1772806487984097500,0.17409765625,0.26850149035453796,1.3057219982147217,-0.20308254659175873
1772806487994028300,0.1840283203125,0.35135456919670105,1.6297887563705444,-0.5189968347549438
1772806488003959300,0.193959228515625,0.31193098425865173,1.6133065223693848,-1.2202646732330322
1772806488013891600,0.2038916015625,0.18363960087299347,1.2825549840927124,-2.0794906616210938
1772806488023822300,0.213822265625,-0.04005234315991402,0.7954710125923157,-2.8208980560302734
1772806488033753300,0.22375341796875,-0.31559231877326965,0.3228645920753479,-3.311168670654297
1772806488043685400,0.233685302734375,-0.5407431125640869,-0.034558508545160294,-3.490993022918701
1772806488053616600,0.24361669921875,-0.6700779795646667,-0.2257191389799118,-3.3304178714752197
1772806488063548400,0.25354833984375,-0.6296346783638,-0.10350508987903595,-2.856806755065918
1772806488073479400,0.2634794921875,-0.3537634015083313,0.24821965396404266,-2.263547658920288
1772806488083410400,0.273410400390625,0.09065240621566772,0.7461003065109253,-1.7970582246780396
1772806488093342200,0.28334228515625,0.5382173657417297,1.2463444471359253,-1.596616506576538
1772806488103273500,0.2932734375,0.8518208861351013,1.6579759120941162,-1.6764588356018066
1772806488113205500,0.30320556640625,0.9719216823577881,1.8706743717193604,-1.9970126152038574
1772806488123136500,0.313136474609375,0.9121263027191162,1.746461033821106,-2.461151361465454
1772806488133067300,0.3230673828125,0.7328832745552063,1.3303965330123901,-2.9712111949920654
1772806488142999300,0.332999267578125,0.45156344771385193,0.7605711221694946,-3.3167290687561035
1772806488152930600,0.3429306640625,0.14662539958953857,0.23971699178218842,-3.4174036979675293
1772806488162862600,0.352862548828125,-0.1267606019973755,-0.15268221497535706,-3.293048620223999
1772806488172793300,0.36279345703125,-0.24361158907413483,-0.35537806153297424,-3.0105955600738525
1772806488182724400,0.372724365234375,0.002787530655041337,-0.4593164622783661,-2.6045985221862793
1772806488192656600,0.38265673828125,0.5364117622375488,-0.5716403126716614,-2.1460273265838623
1772806488202587400,0.39258740234375,1.177403211593628,-0.6391871571540833,-1.851729154586792
1772806488212519400,0.40251953125,1.7252628803253174,-0.7119204998016357,-1.7965173721313477
1772806488222450400,0.412450439453125,2.052760601043701,-0.8145821690559387,-1.8885620832443237
1772806488232381400,0.42238134765625,2.1485626697540283,-0.8828453421592712,-2.0494818687438965
1772806488242313500,0.4323134765625,2.0534656047821045,-0.8989545702934265,-2.2170522212982178
1772806488252244500,0.442244384765625,1.840796947479248,-0.8653712868690491,-2.304290294647217
1772806488262176500,0.452176513671875,1.5840593576431274,-0.7356263399124146,-2.2722368240356445
1772806488272107300,0.462107177734375,1.3174690008163452,-0.5556840300559998,-2.1605684757232666
1772806488282038800,0.472038818359375,1.0976077318191528,-0.4107166826725006,-2.0114006996154785
1772806488291970800,0.481970703125,0.9820603728294373,-0.24046453833580017,-1.8286241292953491
1772806488301901600,0.491901611328125,0.9523546695709229,-0.09628499299287796,-1.5964473485946655
1772806488311833600,0.50183349609375,1.0052415132522583,0.061407167464494705,-1.3231159448623657
1772806488321764600,0.5117646484375,1.1877461671829224,0.21732619404792786,-1.096704125404358
1772806488331695600,0.521695556640625,1.4330155849456787,0.27057743072509766,-0.9383687973022461
1772806488341627600,0.531627685546875,1.6145083904266357,0.22247861325740814,-0.862908661365509
1772806488351558700,0.54155859375,1.7037240266799927,0.0993897020816803,-0.8713351488113403
1772806488361490700,0.55149072265625,1.7055625915527344,-0.0986541360616684,-0.9381014108657837
1772806488371421700,0.561421630859375,1.6610183715820312,-0.32335489988327026,-1.0336254835128784
1772806488381352700,0.571352783203125,1.5928001403808594,-0.5232126116752625,-1.108422875404358
1772806488391284700,0.58128466796875,1.5145272016525269,-0.6686987280845642,-1.1527268886566162
1772806488401215500,0.591215576171875,1.4178712368011475,-0.7273449897766113,-1.1470415592193604
1772806488411147500,0.6011474609375,1.3148654699325562,-0.7102562785148621,-1.1240864992141724
1772806488421078800,0.611078857421875,1.2000384330749512,-0.6491806507110596,-1.1119872331619263
1772806488431009800,0.621009765625,1.0984597206115723,-0.6097182035446167,-1.1554696559906006
1772806488440941600,0.630941650390625,1.0846980810165405,-0.7150893807411194,-1.3201558589935303
1772806488450872600,0.64087255859375,1.1590524911880493,-0.9054358601570129,-1.5660138130187988
1772806488460803800,0.650803955078125,1.233222484588623,-1.0541465282440186,-1.796952247619629
1772806488470736000,0.66073583984375,1.2587497234344482,-1.1020570993423462,-1.9529889822006226
1772806488480666600,0.67066650390625,1.1981971263885498,-0.9846473336219788,-1.9576215744018555
1772806488490598700,0.6805986328125,1.0386652946472168,-0.7340121865272522,-1.8148335218429565
1772806488500529700,0.69052978515625,0.8559753894805908,-0.5151041150093079,-1.63370680809021
1772806488510460700,0.700460693359375,0.734909176826477,-0.4409227967262268,-1.5425931215286255
1772806488520392700,0.710392822265625,0.7165133953094482,-0.6343002319335938,-1.5725595951080322
1772806488530323700,0.72032373046875,0.7738120555877686,-1.039157748222351,-1.6784857511520386
1772806488540255700,0.730255859375,0.8748321533203125,-1.4923241138458252,-1.8475749492645264
1772806488550186800,0.740186767578125,0.9570929408073425,-1.8128111362457275,-1.9693365097045898
1772806488560117800,0.75011767578125,1.0320090055465698,-1.8983420133590698,-1.9454580545425415
1772806488570049800,0.7600498046875,1.1142383813858032,-1.7409366369247437,-1.7575629949569702
1772806488579980500,0.76998046875,1.200689673423767,-1.4477708339691162,-1.4712146520614624
1772806488589912600,0.77991259765625,1.2479325532913208,-1.0888570547103882,-1.1638823747634888
1772806488599843800,0.78984375,1.2520122528076172,-0.791398286819458,-0.9332033395767212
1772806488609774600,0.799774658203125,1.233203649520874,-0.6952770352363586,-0.8351521492004395
1772806488619706600,0.80970654296875,1.2299484014511108,-0.774967610836029,-0.8363422751426697
1772806488629637600,0.8196376953125,1.2446118593215942,-0.9378646612167358,-0.8635368943214417
1772806488639569700,0.829569580078125,1.2763700485229492,-1.113520622253418,-0.8901586532592773
1772806488649500700,0.839500732421875,1.2887917757034302,-1.2268325090408325,-0.8791289329528809
1772806488659431700,0.849431640625,1.2698804140090942,-1.2871237993240356,-0.8089162707328796
1772806488669363700,0.85936376953125,1.2240972518920898,-1.2544429302215576,-0.7299061417579651
1772806488679294500,0.86929443359375,1.1770572662353516,-1.2043999433517456,-0.6257584095001221
1772806488689226800,0.879226806640625,1.1444932222366333,-1.1990216970443726,-0.5019046664237976
1772806488699157800,0.88915771484375,1.1422138214111328,-1.2219221591949463,-0.39267030358314514
1772806488709088500,0.899088623046875,1.168573021888733,-1.280576229095459,-0.30871790647506714
1772806488719020500,0.9090205078125,1.2053924798965454,-1.3671704530715942,-0.2976921498775482
1772806488728951800,0.918951904296875,1.2545973062515259,-1.4640370607376099,-0.3411802351474762
1772806488738883800,0.9288837890625,1.3131911754608154,-1.567421555519104,-0.38953524827957153
1772806488748814600,0.938814697265625,1.3517017364501953,-1.5819448232650757,-0.3877170979976654
1772806488758745600,0.94874560546875,1.3191821575164795,-1.4861072301864624,-0.334099680185318
1772806488768677600,0.958677734375,1.2431670427322388,-1.3393127918243408,-0.2798295319080353
1772806488778608600,0.968608642578125,1.1267181634902954,-1.201392650604248,-0.23008273541927338
1772806488788539600,0.97853955078125,0.9877637624740601,-1.0704549551010132,-0.21099533140659332
1772806488798471700,0.9884716796875,0.8852107524871826,-0.9724876284599304,-0.21676427125930786
1772806488808402700,0.998402587890625,0.8349542617797852,-0.8784695267677307,-0.2520921528339386
1772806488818334500,1.00833447265625,0.8285211324691772,-0.8011041283607483,-0.2998908460140228
1772806488828265700,1.018265625,0.8624125123023987,-0.7412940859794617,-0.36929893493652344
1772806488838196700,1.02819677734375,0.9038193225860596,-0.7201911807060242,-0.43442389369010925
1772806488848128500,1.03812841796875,0.9319835901260376,-0.7264927625656128,-0.47409379482269287
1772806488858059500,1.0480595703125,0.9253336787223816,-0.7250610589981079,-0.4869363605976105
1772806488867991800,1.05799169921875,0.8707732558250427,-0.697646975517273,-0.46284887194633484
1772806488877922800,1.0679228515625,0.7808622717857361,-0.6367295980453491,-0.4218748211860657
1772806488887853600,1.077853515625,0.6972329020500183,-0.5967800617218018,-0.3608732521533966
1772806488897785600,1.08778564453125,0.6286423802375793,-0.5851960778236389,-0.2968018352985382
1772806488907716900,1.097716796875,0.6024019718170166,-0.655498206615448,-0.25290149450302124
1772806488917648600,1.107648681640625,0.5817209482192993,-0.7354636192321777,-0.24376659095287323
1772806488927579600,1.11757958984375,0.5621978044509888,-0.7957586646080017,-0.24111407995224
1772806488937510700,1.1275107421875,0.5429524779319763,-0.8440755605697632,-0.25113236904144287
1772806488947442700,1.137442626953125,0.511816143989563,-0.8491054773330688,-0.26168593764305115
1772806488957373700,1.147373779296875,0.4679704010486603,-0.8247849941253662,-0.27405524253845215
1772806488967305700,1.1573056640625,0.4378684163093567,-0.7759809494018555,-0.2929149568080902
1772806488977236700,1.16723681640625,0.42312464118003845,-0.760695219039917,-0.33446985483169556
1772806488987167500,1.17716748046875,0.4051855802536011,-0.7926179766654968,-0.4001457989215851
1772806488997099500,1.187099609375,0.39428552985191345,-0.8152580261230469,-0.43673816323280334
1772806489007030800,1.19703076171875,0.4206082224845886,-0.875087320804596,-0.45148730278015137
1772806489016962800,1.206962890625,0.46462759375572205,-0.9182427525520325,-0.43091464042663574
1772806489026893600,1.2168935546875,0.5060245990753174,-0.9431433081626892,-0.4031040370464325
1772806489036824600,1.226824462890625,0.5376397371292114,-0.929638683795929,-0.3826459050178528
1772806489046756900,1.2367568359375,0.5753791332244873,-0.9029034972190857,-0.38002535700798035
1772806489056687600,1.2466875,0.6233338713645935,-0.8858160972595215,-0.3879551887512207
1772806489066619600,1.25661962890625,0.6761321425437927,-0.8980011343955994,-0.42899662256240845
1772806489076550700,1.266550537109375,0.7235686182975769,-0.9419912099838257,-0.49920448660850525
1772806489086481700,1.276481689453125,0.7472726106643677,-1.0052860975265503,-0.5786535143852234
1772806489096413700,1.28641357421875,0.7435588240623474,-1.0616542100906372,-0.6371695399284363
1772806489106344700,1.2963447265625,0.7134877443313599,-1.1023672819137573,-0.6744873523712158
1772806489116275700,1.306275634765625,0.681936502456665,-1.112839698791504,-0.7091755867004395
1772806489126207500,1.31620751953125,0.6574484705924988,-1.075788974761963,-0.7307506203651428
1772806489136138800,1.326138671875,0.6413038372993469,-1.0027281045913696,-0.7272179126739502
1772806489146070800,1.33607080078125,0.6454530358314514,-0.9030134677886963,-0.6941478848457336
1772806489156001500,1.34600146484375,0.6650411486625671,-0.8193667531013489,-0.6562566757202148
1772806489165933600,1.35593359375,0.6775726079940796,-0.7883883714675903,-0.6336211562156677
1772806489175864600,1.365864501953125,0.6777209639549255,-0.8055737614631653,-0.6358880400657654
1772806489185795800,1.3757958984375,0.6772511601448059,-0.8658232092857361,-0.6567472219467163
1772806489195727600,1.3857275390625,0.7044159770011902,-0.976328432559967,-0.7120440602302551
1772806489205658600,1.39565869140625,0.7738956809043884,-1.149829387664795,-0.8103359937667847
1772806489215590000,1.40558984375,0.8834996819496155,-1.386465311050415,-0.932243287563324
1772806489225521700,1.415521728515625,1.0054445266723633,-1.5911729335784912,-1.0297861099243164
1772806489235452700,1.42545263671875,1.110432744026184,-1.6638938188552856,-1.043637752532959
1772806489245384700,1.435384765625,1.1594500541687012,-1.5539624691009521,-0.9473593831062317
1772806489255315700,1.445315673828125,1.1467480659484863,-1.3150696754455566,-0.7694335579872131
1772806489265246700,1.455246826171875,1.0822274684906006,-1.0442384481430054,-0.5583239793777466
1772806489275178500,1.465178466796875,0.9955064058303833,-0.8462252616882324,-0.3892119228839874
1772806489285109500,1.475109619140625,0.8932801485061646,-0.7622281312942505,-0.2713702619075775
1772806489295041500,1.48504150390625,0.7992372512817383,-0.8028642535209656,-0.22755007445812225
1772806489304972500,1.49497265625,0.7745825052261353,-1.0015621185302734,-0.3040613532066345
1772806489314903600,1.504903564453125,0.8472666144371033,-1.291806697845459,-0.3699873685836792
1772806489324835600,1.514835693359375,1.0427862405776978,-1.5121159553527832,-0.2561734616756439
1772806489334766600,1.5247666015625,1.3371747732162476,-1.5127460956573486,0.04634006693959236
1772806489344698400,1.534698486328125,1.6140005588531494,-1.3618998527526855,0.3657684028148651
1772806489354629600,1.544629638671875,1.7928131818771362,-1.1710643768310547,0.5796955823898315
1772806489364560600,1.554560546875,1.8977816104888916,-1.057273030281067,0.6641926169395447
1772806489374492700,1.56449267578125,1.8841217756271362,-1.0580542087554932,0.6239016652107239
1772806489384423400,1.57442333984375,1.790140151977539,-1.1065175533294678,0.4633879065513611
1772806489394355500,1.58435546875,1.6115977764129639,-1.1705272197723389,0.23415444791316986
1772806489404286700,1.59428662109375,1.3945629596710205,-1.177462100982666,-0.013991182669997215
1772806489414217500,1.604217529296875,1.1884617805480957,-1.1277648210525513,-0.24889983236789703
1772806489424149500,1.6141494140625,1.0185483694076538,-1.0376168489456177,-0.45946747064590454
1772806489434080500,1.62408056640625,0.8905496001243591,-0.895859956741333,-0.6458133459091187
1772806489444011500,1.634011474609375,0.7964422702789307,-0.6817308664321899,-0.7638452053070068
1772806489453943600,1.643943603515625,0.7515709400177002,-0.4585942029953003,-0.8266161680221558
1772806489463874600,1.65387451171875,0.7070649862289429,-0.2889503240585327,-0.8549745678901672
1772806489473806600,1.663806640625,0.649511456489563,-0.16676528751850128,-0.8627454042434692
1772806489483737300,1.6737373046875,0.591386079788208,-0.14201892912387848,-0.857909619808197
1772806489493668600,1.683668701171875,0.566360592842102,-0.2653813362121582,-0.8142095804214478
1772806489503600600,1.6936005859375,0.6066385507583618,-0.468106746673584,-0.7729678750038147
1772806489513531400,1.703531494140625,0.6947793364524841,-0.755920946598053,-0.7773940563201904
1772806489523463400,1.71346337890625,0.7938198447227478,-0.9925007224082947,-0.8008599281311035
1772806489533394700,1.723394775390625,0.8579786419868469,-1.1203389167785645,-0.8213518857955933
1772806489543325700,1.73332568359375,0.8605437874794006,-1.1173076629638672,-0.81120365858078
1772806489553257500,1.743257568359375,0.8069982528686523,-1.02654230594635,-0.7710301280021667
1772806489563188500,1.7531884765625,0.7261702418327332,-0.8916441798210144,-0.7341882586479187
1772806489573120500,1.76312060546875,0.647359311580658,-0.7336175441741943,-0.6971998810768127
1772806489583051500,1.773051513671875,0.5604393482208252,-0.5747439861297607,-0.6699330806732178
1772806489592982500,1.782982421875,0.4839155375957489,-0.49141553044319153,-0.6146519780158997
1772806489602914600,1.79291455078125,0.49216148257255554,-0.4076157212257385,-0.5784114003181458
1772806489612845600,1.802845458984375,0.4866151809692383,-0.30351167917251587,-0.5298545360565186
1772806489622777300,1.81277734375,0.5147067308425903,-0.29555627703666687,-0.607079267501831
1772806489632708600,1.82270849609375,0.5652519464492798,-0.33550822734832764,-0.7789613008499146
1772806489642639600,1.8326396484375,0.5854142308235168,-0.42169079184532166,-0.9875392913818359
1772806489652571400,1.8425712890625,0.5717447400093079,-0.5224165916442871,-1.1981422901153564
1772806489662502400,1.85250244140625,0.49953871965408325,-0.6049602031707764,-1.3593202829360962
1772806489672434700,1.8624345703125,0.3810504078865051,-0.6871653199195862,-1.4880138635635376
1772806489682365700,1.87236572265625,0.2571851909160614,-0.93336021900177,-1.6996874809265137
1772806489692296400,1.88229638671875,0.22790266573429108,-1.1898854970932007,-1.7554277181625366
1772806489702228500,1.892228515625,0.2369086891412735,-1.177093505859375,-1.5873202085494995
1772806489712159700,1.90215966796875,0.31624212861061096,-1.0271878242492676,-1.342695713043213
1772806489722090500,1.912090576171875,0.4309796094894409,-0.9024688601493835,-1.1193788051605225
1772806489732022500,1.9220224609375,0.5615432262420654,-0.8249660730361938,-0.9184744358062744
1772806489741953500,1.93195361328125,0.6886205077171326,-0.7899806499481201,-0.780868411064148
1772806489751885600,1.941885498046875,0.7502936720848083,-0.7440198063850403,-0.6750069260597229
1772806489761816600,1.951816650390625,0.7546253204345703,-0.7304241061210632,-0.6310778260231018
1772806489771747600,1.96174755859375,0.7285532355308533,-0.755980372428894,-0.6373676657676697
1772806489781679600,1.9716796875,0.6944642663002014,-0.816434919834137,-0.662144124507904
1772806489791610400,1.9816103515625,0.6768826246261597,-0.8455349802970886,-0.6550974249839783
1772806489801542400,1.99154248046875,0.672899603843689,-0.8634833693504333,-0.6267544627189636
1772806489811473700,2.0014736328125,0.6804432272911072,-0.9120104312896729,-0.6209442615509033
1772806489821404400,2.011404296875,0.6858228445053101,-0.9857317805290222,-0.6136053800582886
1772806489831336400,2.02133642578125,0.672001838684082,-1.0498065948486328,-0.5731706023216248
1772806489841267700,2.031267822265625,0.6417731046676636,-1.0681172609329224,-0.4941282272338867
1772806489851199700,2.04119970703125,0.6351972222328186,-1.0409785509109497,-0.3899347186088562
1772806489861130500,2.051130615234375,0.6327987909317017,-0.9931374788284302,-0.29418474435806274
1772806489871061500,2.0610615234375,0.6329023838043213,-0.9094420671463013,-0.2107154279947281
1772806489880993500,2.07099365234375,0.6479225754737854,-0.8288175463676453,-0.16286082565784454
1772806489890924500,2.080924560546875,0.6584868431091309,-0.7570759654045105,-0.16023947298526764
1772806489900855600,2.09085546875,0.6447731256484985,-0.6796677112579346,-0.1897776573896408
1772806489910787600,2.10078759765625,0.6064358353614807,-0.5971278548240662,-0.23515765368938446
1772806489920718300,2.11071826171875,0.5300108790397644,-0.5344679355621338,-0.2975302040576935
1772806489930650400,2.120650390625,0.4387557804584503,-0.5009626746177673,-0.3638154864311218
1772806489940581600,2.13058154296875,0.3493904769420624,-0.5083870887756348,-0.4183479845523834
1772806489950512600,2.1405126953125,0.26994651556015015,-0.5271279811859131,-0.44926169514656067
1772806489960444400,2.1504443359375,0.2218991070985794,-0.579352855682373,-0.458128958940506
1772806489970375400,2.16037548828125,0.21467821300029755,-0.6630746126174927,-0.44917380809783936
1772806489980307500,2.170307373046875,0.27763694524765015,-0.7025320529937744,-0.413632333278656
1772806489990238500,2.180238525390625,0.37280765175819397,-0.7256330847740173,-0.3224744498729706
1772806490000169500,2.19016943359375,0.5042559504508972,-0.7154808640480042,-0.24479882419109344
1772806490010101500,2.2001015625,0.6912649869918823,-0.716773271560669,-0.224766805768013
1772806490020032800,2.21003271484375,0.8967958092689514,-0.7571305632591248,-0.2472878247499466
1772806490029964500,2.219964599609375,1.0649983882904053,-0.7694173455238342,-0.25072410702705383
1772806490039895600,2.2298955078125,1.1471108198165894,-0.7920606136322021,-0.21645960211753845
1772806490049826600,2.23982666015625,1.1452583074569702,-0.8257812857627869,-0.15673421323299408
1772806490059758600,2.249758544921875,1.0642085075378418,-0.862007737159729,-0.02581881359219551
1772806490069689600,2.259689697265625,0.9949268698692322,-0.8253277540206909,0.17523440718650818
1772806490079620600,2.26962060546875,0.9333252906799316,-0.7308981418609619,0.4590882360935211
1772806490089552600,2.279552734375,0.8771403431892395,-0.5583551526069641,0.7748597860336304
1772806490099483400,2.2894833984375,0.8443238139152527,-0.3638128340244293,1.049546241760254
1772806490109415400,2.29941552734375,0.8376400470733643,-0.19371141493320465,1.1937882900238037
1772806490119346700,2.3093466796875,0.8124092817306519,-0.042576223611831665,1.1380070447921753
1772806490129277400,2.31927734375,0.733649730682373,0.08360381424427032,0.956680417060852
1772806490139209500,2.32920947265625,0.6177106499671936,0.23164761066436768,0.7420696020126343
1772806490149140500,2.339140380859375,0.4621942639350891,0.3835769593715668,0.6030802726745605
1772806490159072500,2.349072509765625,0.2824189066886902,0.4571446478366852,0.6059666275978088
1772806490169003500,2.35900341796875,0.08325600624084473,0.4386628270149231,0.7622047066688538
1772806490178934500,2.3689345703125,-0.13676929473876953,0.33519503474235535,1.0040758848190308
1772806490188866600,2.378866455078125,-0.3338392376899719,0.16880765557289124,1.2214555740356445
1772806490198797600,2.388797607421875,-0.47444960474967957,0.0019742012955248356,1.385024905204773
1772806490208729600,2.3987294921875,-0.5264739394187927,-0.1657325029373169,1.4147801399230957
1772806490218660600,2.40866064453125,-0.4929761588573456,-0.29806044697761536,1.3535380363464355
1772806490228591400,2.41859130859375,-0.34852176904678345,-0.3082957863807678,1.2315495014190674
1772806490238523400,2.4285234375,-0.13663135468959808,-0.3394438326358795,0.969541072845459
1772806490248454700,2.43845458984375,0.07397729158401489,-0.33260485529899597,0.694872260093689
1772806490258386700,2.44838671875,0.29112905263900757,-0.3484349548816681,0.36320245265960693
1772806490268317400,2.4583173828125,0.4432714283466339,-0.39951783418655396,0.01531690452247858
1772806490278248200,2.468248291015625,0.46562787890434265,-0.40564364194869995,-0.21586091816425323
1772806490288180200,2.47818017578125,0.37241804599761963,-0.44562700390815735,-0.34152618050575256
1772806490298111200,2.488111328125,0.23905092477798462,-0.5232674479484558,-0.4418857991695404
1772806490308042000,2.4980419921875,0.08931709825992584,-0.6213908195495605,-0.5208700895309448
1772806490317974000,2.50797412109375,-0.05314364656805992,-0.6964454054832458,-0.5599644780158997
1772806490327905300,2.5179052734375,-0.18308380246162415,-0.6684268116950989,-0.5121338367462158
1772806490337837000,2.527837158203125,-0.2822255790233612,-0.558285653591156,-0.3782791197299957
1772806490347768000,2.53776806640625,-0.35297855734825134,-0.3993537724018097,-0.171978160738945
1772806490357699000,2.547698974609375,-0.4035285711288452,-0.21294422447681427,0.11033795773983002
1772806490367631000,2.557631103515625,-0.44018110632896423,-0.025260083377361298,0.39285221695899963
1772806490377562000,2.56756201171875,-0.47308313846588135,0.12580905854701996,0.6252194046974182
1772806490387494100,2.577494140625,-0.4997009038925171,0.22247780859470367,0.7769596576690674
1772806490397425200,2.587425048828125,-0.5140071511268616,0.25914207100868225,0.8443954586982727
1772806490407356000,2.59735595703125,-0.524666428565979,0.2806766629219055,0.8157033324241638
1772806490417288200,2.6072880859375,-0.5466212630271912,0.32481831312179565,0.7550098896026611
1772806490427219200,2.61721923828125,-0.5430273413658142,0.33109724521636963,0.6246699690818787
1772806490437150000,2.62714990234375,-0.5107410550117493,0.2529779374599457,0.42167985439300537
1772806490447082000,2.63708203125,-0.47701555490493774,0.15574511885643005,0.18119296431541443
1772806490457013200,2.64701318359375,-0.4548764228820801,0.11086979508399963,-0.03313877806067467
1772806490466945300,2.6569453125,-0.44890108704566956,0.13485582172870636,-0.15667882561683655
1772806490476876000,2.6668759765625,-0.45168542861938477,0.19589920341968536,-0.19621211290359497
1772806490486807000,2.67680712890625,-0.44659507274627686,0.26938965916633606,-0.18370752036571503
1772806490496739000,2.686739013671875,-0.44448158144950867,0.314224511384964,-0.13928864896297455
1772806490506670000,2.696670166015625,-0.43279510736465454,0.32626280188560486,-0.07942584902048111
1772806490516602000,2.70660205078125,-0.3888457417488098,0.3003765940666199,-0.017178719863295555
1772806490526533000,2.716533203125,-0.34127238392829895,0.23692625761032104,0.019690880551934242
1772806490536464000,2.7264638671875,-0.30797645449638367,0.1806800365447998,0.020955348387360573
1772806490546396000,2.73639599609375,-0.3159438371658325,0.16625608503818512,0.008657137863337994
1772806490556327200,2.7463271484375,-0.351660817861557,0.16581080853939056,-0.020659206435084343
1772806490566259200,2.75625927734375,-0.40946874022483826,0.1951921284198761,-0.03855564817786217
1772806490576190000,2.76618994140625,-0.47960227727890015,0.263006329536438,-0.01519812736660242
1772806490586121000,2.776120849609375,-0.549762487411499,0.3688161075115204,0.04461221024394035
1772806490596053200,2.78605322265625,-0.6031415462493896,0.5068456530570984,0.13564997911453247
1772806490605984000,2.79598388671875,-0.6341447234153748,0.613349437713623,0.22495108842849731
1772806490615915000,2.8059150390625,-0.6257554888725281,0.6807956099510193,0.2543465197086334
1772806490625847000,2.815846923828125,-0.6311516165733337,0.7250365614891052,0.23434725403785706
1772806490635778300,2.8257783203125,-0.6431491374969482,0.774745523929596,0.2148481160402298
1772806490645710000,2.8357099609375,-0.6533548831939697,0.829143226146698,0.2070852816104889
1772806490655641000,2.84564111328125,-0.6333053112030029,0.8445221781730652,0.17087320983409882
1772806490665572000,2.855572021484375,-0.5927221775054932,0.8229119777679443,0.10369496792554855
1772806490675504000,2.865504150390625,-0.536247730255127,0.7452195882797241,0.022420354187488556
1772806490685435100,2.87543505859375,-0.4646025598049164,0.6435821652412415,-0.06924218684434891
1772806490695367200,2.8853671875,-0.41560038924217224,0.5440252423286438,-0.15182681381702423
1772806490705298200,2.895298095703125,-0.39815324544906616,0.4384458065032959,-0.21625959873199463
1772806490715229000,2.90522900390625,-0.41358253359794617,0.3413735628128052,-0.23269103467464447
1772806490725161000,2.915160888671875,-0.4523158073425293,0.2560836970806122,-0.18498876690864563
1772806490735092200,2.92509228515625,-0.46788036823272705,0.18173864483833313,-0.11391991376876831
1772806490745024300,2.935024169921875,-0.45806238055229187,0.0776447281241417,-0.058090999722480774
1772806490754955000,2.944955078125,-0.43603163957595825,-0.07195089012384415,-0.02287149429321289
1772806490764886000,2.954885986328125,-0.38646647334098816,-0.21847347915172577,0.03964488208293915
1772806490774818300,2.964818359375,-0.33156514167785645,-0.3659822344779968,0.12559840083122253
1772806490784749000,2.9747490234375,-0.2440912276506424,-0.5074318051338196,0.21945379674434662
1772806490794680000,2.98468017578125,-0.1278144270181656,-0.6084164381027222,0.30144453048706055
1772806490804612000,2.994612060546875,0.007988151162862778,-0.611407995223999,0.3921821713447571
1772806490814543000,3.004543212890625,0.11114490032196045,-0.5087316632270813,0.5047409534454346
1772806490824475100,3.01447509765625,0.14973489940166473,-0.3092060387134552,0.6330962181091309
1772806490834406100,3.02440625,0.12815584242343903,-0.10113167762756348,0.720876157283783
1772806490844337000,3.0343369140625,0.055933307856321335,0.028736572712659836,0.7442640662193298
1772806490854269000,3.04426904296875,-0.06841661036014557,0.10263503342866898,0.6222872734069824
1772806490864200200,3.0542001953125,-0.23685622215270996,0.07641594111919403,0.43138548731803894
1772806490874132200,3.06413232421875,-0.3427237868309021,-0.01332725677639246,0.3020469546318054
1772806490884063000,3.07406298828125,-0.3046349883079529,-0.08282537758350372,0.2880019545555115
1772806490893994000,3.083993896484375,-0.1436873972415924,-0.08188900351524353,0.4541642963886261
1772806490903926000,3.093926025390625,0.03226393088698387,0.04255012422800064,0.7013211250305176
1772806490913857000,3.10385693359375,0.12273284047842026,0.17577075958251953,0.9322227835655212
1772806490923789000,3.1137890625,0.18180601298809052,0.23057302832603455,1.0973265171051025
1772806490933720000,3.123719970703125,0.1884428858757019,0.17094378173351288,1.150120735168457
1772806490943651000,3.133651123046875,0.15477865934371948,0.006083192303776741,1.0871281623840332
1772806490953583000,3.1435830078125,0.06595052033662796,-0.19631944596767426,0.9551610946655273
1772806490963514000,3.15351416015625,-0.07545480877161026,-0.344933420419693,0.7652984857559204
1772806490973445000,3.163445068359375,-0.2437942922115326,-0.4228284955024719,0.5988793969154358
1772806490983377000,3.173376953125,-0.4002501964569092,-0.4397051930427551,0.5116292238235474
1772806490993308200,3.18330810546875,-0.48959872126579285,-0.41643503308296204,0.4756046235561371
1772806491003240200,3.193240234375,-0.4725204110145569,-0.32901063561439514,0.4506995379924774
1772806491013171200,3.203171142578125,-0.4030715525150299,-0.19382458925247192,0.40139535069465637
1772806491023102000,3.21310205078125,-0.3285784125328064,0.012508867308497429,0.26188620924949646
1772806491033034000,3.223033935546875,-0.293000191450119,0.24883298575878143,0.042332809418439865
1772806491042965200,3.23296533203125,-0.2724275290966034,0.47541046142578125,-0.25003567337989807
1772806491052897000,3.24289697265625,-0.20180661976337433,0.6198962926864624,-0.5362655520439148
1772806491062828000,3.252828125,0.010509366169571877,0.6451209187507629,-0.7236578464508057
1772806491072759000,3.262759033203125,0.2981257140636444,0.5318213105201721,-0.7252485156059265
1772806491082691000,3.272691162109375,0.5605466961860657,0.33039548993110657,-0.6352592706680298
1772806491092622000,3.2826220703125,0.6956315040588379,0.11963265389204025,-0.5251300930976868
1772806491102554000,3.29255419921875,0.7122536301612854,-0.10492908209562302,-0.44879138469696045
1772806491112485000,3.302485107421875,0.6277190446853638,-0.3281792104244232,-0.3978632092475891
1772806491122416000,3.312416015625,0.48832494020462036,-0.452371209859848,-0.3972088694572449
1772806491132348200,3.32234814453125,0.34934839606285095,-0.5248528718948364,-0.40719226002693176
1772806491142279200,3.332279052734375,0.2011703997850418,-0.5305578708648682,-0.4166334271430969
1772806491152210000,3.3422099609375,0.08018511533737183,-0.43072929978370667,-0.41655460000038147
1772806491162142000,3.352141845703125,-0.02460387907922268,-0.33966195583343506,-0.41990113258361816
1772806491172073200,3.3620732421875,-0.10081130266189575,-0.2637634575366974,-0.42921048402786255
1772806491182005200,3.372005126953125,-0.13552027940750122,-0.29215994477272034,-0.5204682350158691
1772806491191936000,3.38193603515625,-0.08158674091100693,-0.8568055033683777,-0.9871448874473572
1772806491201867000,3.391866943359375,0.03954208269715309,-1.2271583080291748,-1.1031183004379272
1772806491211799000,3.401799072265625,0.16302087903022766,-1.2221981287002563,-1.0480289459228516
1772806491221730000,3.41172998046875,0.257926881313324,-1.034757137298584,-0.9332592487335205
1772806491231662000,3.421662109375,0.3264460265636444,-0.8524224758148193,-0.8411381244659424
1772806491241593000,3.431593017578125,0.3697551488876343,-0.7344662547111511,-0.7790566086769104
1772806491251524000,3.441524169921875,0.40698668360710144,-0.6060920357704163,-0.7078261375427246
1772806491261456100,3.4514560546875,0.4435095191001892,-0.470492422580719,-0.6111917495727539
1772806491271387100,3.46138720703125,0.4678492248058319,-0.3508911728858948,-0.5066506862640381
1772806491281319700,3.471319580078125,0.4802859127521515,-0.28002259135246277,-0.43777787685394287
1772806491291250400,3.48125048828125,0.48889032006263733,-0.2843973636627197,-0.38458335399627686
1772806491301181400,3.491181396484375,0.5008966326713562,-0.30186131596565247,-0.33910590410232544
1772806491311113500,3.501113525390625,0.5379081964492798,-0.3134322166442871,-0.2641451060771942
1772806491321044500,3.51104443359375,0.5774832963943481,-0.30495378375053406,-0.17590124905109406
1772806491330975500,3.5209755859375,0.617680549621582,-0.29047897458076477,-0.06878598779439926
1772806491340907500,3.530907470703125,0.6586596369743347,-0.26530569791793823,0.04025128111243248
1772806491350838800,3.5408388671875,0.700254499912262,-0.24446088075637817,0.13713735342025757
1772806491360770600,3.5507705078125,0.7204518914222717,-0.23390276730060577,0.21838027238845825
1772806491370701600,3.56070166015625,0.7265833020210266,-0.21933075785636902,0.27757808566093445
1772806491380632600,3.570632568359375,0.7058258056640625,-0.2179267406463623,0.3068627417087555
1772806491390564400,3.580564453125,0.6528342366218567,-0.20521919429302216,0.294723242521286
1772806491400495600,3.59049560546875,0.5936726927757263,-0.1579291820526123,0.2166694551706314
1772806491410426600,3.600426513671875,0.537732720375061,-0.1405472606420517,0.10958641767501831
1772806491420358700,3.610358642578125,0.458764910697937,-0.17331133782863617,-0.03207910805940628
1772806491430289400,3.620289306640625,0.38402116298675537,-0.2333829253911972,-0.1737041473388672
1772806491440221400,3.630221435546875,0.3286500573158264,-0.3203686773777008,-0.3131240904331207
1772806491450152700,3.640152587890625,0.31105321645736694,-0.3942255973815918,-0.4126235246658325
1772806491460083500,3.65008349609375,0.3208605647087097,-0.4409438371658325,-0.4506393373012543
1772806491470015500,3.660015380859375,0.3521181046962738,-0.4891819357872009,-0.44408848881721497
1772806491479946500,3.669946533203125,0.4356297552585602,-0.6162099242210388,-0.4599494934082031
1772806491489878500,3.67987841796875,0.5781882405281067,-0.8296388387680054,-0.5230573415756226
1772806491499809500,3.6898095703125,0.7717183232307434,-1.0259393453598022,-0.630244791507721
1772806491509740500,3.699740478515625,0.9287603497505188,-1.109926700592041,-0.7083345055580139
1772806491519672600,3.709672607421875,1.0372064113616943,-0.9914341568946838,-0.7153815031051636
1772806491529603600,3.719603515625,1.0929937362670898,-0.6993319988250732,-0.5774409770965576
1772806491539535600,3.72953564453125,1.134137749671936,-0.41180965304374695,-0.4458792209625244
1772806491549466600,3.739466552734375,1.1523239612579346,-0.1655074656009674,-0.3102601170539856
1772806491559397400,3.7493974609375,1.1198080778121948,-0.026629479601979256,-0.21638795733451843
1772806491569329400,3.759329345703125,1.0245939493179321,-0.03236326575279236,-0.23573821783065796
1772806491579260700,3.7692607421875,0.8609315156936646,-0.10456236451864243,-0.3226829767227173
1772806491589192700,3.779192626953125,0.6787063479423523,-0.20879928767681122,-0.413260817527771
1772806491599123500,3.78912353515625,0.5118520855903625,-0.23637178540229797,-0.3843942880630493
1772806491609054500,3.799054443359375,0.37478238344192505,-0.14032408595085144,-0.14744378626346588
1772806491618986500,3.808986572265625,0.21610033512115479,0.05938822403550148,0.2620089650154114
1772806491628917500,3.81891748046875,0.006110623013228178,0.34766876697540283,0.7766425013542175
1772806491638848500,3.8288486328125,-0.14771755039691925,0.5842480063438416,1.225582480430603
1772806491648780500,3.838780517578125,-0.21164940297603607,0.6432405114173889,1.5181528329849243
1772806491658711600,3.848711669921875,-0.18800878524780273,0.47090280055999756,1.579817771911621
1772806491668643600,3.8586435546875,-0.0737953931093216,0.13945668935775757,1.4734433889389038
1772806491678574600,3.86857470703125,0.09817663580179214,-0.18814167380332947,1.2525267601013184
1772806491688505600,3.878505615234375,0.290726900100708,-0.435377836227417,1.010117769241333
1772806491698437400,3.888437255859375,0.4628653824329376,-0.5922731757164001,0.7759010791778564
1772806491708368600,3.89836865234375,0.5886872410774231,-0.654232919216156,0.5211023092269897
1772806491718300700,3.90830078125,0.6105837225914001,-0.6911020278930664,0.23883362114429474
1772806491728231400,3.9182314453125,0.5532666444778442,-0.7014132142066956,-0.011540808714926243
1772806491738162400,3.928162353515625,0.46359536051750183,-0.7328095436096191,-0.18282440304756165
1772806491748094500,3.938094482421875,0.36921826004981995,-0.7580219507217407,-0.2517523467540741
1772806491758025700,3.948025634765625,0.2680615484714508,-0.7553896307945251,-0.21641193330287933
1772806491767956500,3.95795654296875,0.19079764187335968,-0.757864773273468,-0.109816774725914
1772806491777888500,3.967888427734375,0.13528113067150116,-0.741576611995697,0.051419779658317566
1772806491787819500,3.977819580078125,0.08323176950216293,-0.7004230618476868,0.24357643723487854
1772806491797751600,3.98775146484375,0.04410194605588913,-0.6166775822639465,0.43109947443008423
1772806491807681500,3.997681640625,0.02400493435561657,-0.5206741094589233,0.6052667498588562
1772806491817612500,4.007612548828125,0.007764446083456278,-0.40320178866386414,0.7690785527229309
1772806491827543600,4.01754345703125,-0.0017337178578600287,-0.2873454988002777,0.9116687178611755
1772806491837475600,4.0274755859375,-0.016062056645751,-0.18645110726356506,1.0013253688812256
1772806491847406600,4.037406494140625,-0.051662128418684006,-0.1181974783539772,1.0185421705245972
1772806491857338400,4.04733837890625,-0.10500577837228775,-0.11326290667057037,0.9360347986221313
1772806491867269600,4.05726953125,-0.17014536261558533,-0.17029769718647003,0.7643927335739136
1772806491877200600,4.06720068359375,-0.23714837431907654,-0.23986372351646423,0.5475949048995972
1772806491887132700,4.077132568359375,-0.3092997968196869,-0.26142868399620056,0.3360520303249359
1772806491897063400,4.0870634765625,-0.3831007778644562,-0.22534629702568054,0.14999082684516907
1772806491906995500,4.096995361328125,-0.44702863693237305,-0.09598618745803833,0.00899589154869318
1772806491916926700,4.1069267578125,-0.49022990465164185,0.10903114825487137,-0.07324465364217758
1772806491926857500,4.116857421875,-0.518017053604126,0.33476945757865906,-0.13478657603263855
1772806491936789500,4.12678955078125,-0.5610111355781555,0.5790995955467224,-0.21813632547855377
1772806491946720500,4.136720458984375,-0.5884382128715515,0.7823091745376587,-0.35491788387298584
1772806491956652500,4.146652587890625,-0.5683952569961548,0.904156506061554,-0.5263804197311401
1772806491966583600,4.15658349609375,-0.4823514521121979,0.9551951885223389,-0.6962051391601562
1772806491976514600,4.1665146484375,-0.37674301862716675,0.8889197707176208,-0.8464969396591187
1772806491986446600,4.176446533203125,-0.25166311860084534,0.7514625787734985,-0.9605973958969116
1772806491996377300,4.18637744140625,-0.13893364369869232,0.5986061692237854,-0.9780051708221436
1772806492006308600,4.19630859375,-0.08511222898960114,0.397312194108963,-0.8686352372169495
1772806492016240600,4.20624072265625,-0.08861269056797028,0.23339997231960297,-0.6951492428779602
1772806492026171400,4.21617138671875,-0.14111638069152832,0.15908126533031464,-0.49537965655326843
1772806492036103400,4.226103515625,-0.23255868256092072,0.1360640972852707,-0.28553375601768494
1772806492046034700,4.23603466796875,-0.31921181082725525,0.14828960597515106,-0.138358935713768
1772806492055965700,4.245965576171875,-0.3692363500595093,0.15191389620304108,-0.03536012023687363
1772806492065897500,4.2558974609375,-0.38734930753707886,0.16959649324417114,0.03044578991830349
1772806492075828500,4.265828369140625,-0.37093812227249146,0.24267150461673737,0.0722009614109993
1772806492085760500,4.275760498046875,-0.35145923495292664,0.34362635016441345,0.07612007111310959
1772806492095691500,4.28569140625,-0.3467920422554016,0.4335234761238098,0.03146258369088173
1772806492105622500,4.29562255859375,-0.354349821805954,0.5092150568962097,-0.07743699848651886
1772806492115554600,4.305554443359375,-0.398578017950058,0.5586206912994385,-0.2605719268321991
1772806492125485600,4.315485595703125,-0.47736284136772156,0.6074305772781372,-0.5032378435134888
1772806492135416600,4.32541650390625,-0.5867202281951904,0.6643367409706116,-0.7594541907310486
1772806492145348600,4.3353486328125,-0.6980275511741638,0.7118525505065918,-1.0034644603729248
1772806492155279600,4.345279541015625,-0.775864839553833,0.7082658410072327,-1.2070043087005615
1772806492165211400,4.35521142578125,-0.7686527371406555,0.6417163610458374,-1.3296265602111816
1772806492175142400,4.365142333984375,-0.6350051760673523,0.4196681082248688,-1.3764582872390747
1772806492185074700,4.37507470703125,-0.4437023401260376,0.07241640985012054,-1.350589632987976
1772806492195005700,4.385005615234375,-0.21383319795131683,-0.34937503933906555,-1.2344419956207275
1772806492204937500,4.3949375,0.024232368916273117,-0.731778621673584,-0.9887925386428833
1772806492214868500,4.404868408203125,0.23900379240512848,-0.9089754819869995,-0.6237413287162781
1772806492224799700,4.4147998046875,0.36998337507247925,-0.8682757019996643,-0.206239715218544
1772806492234731500,4.4247314453125,0.3822411000728607,-0.6065370440483093,0.2053515613079071
1772806492244662500,4.43466259765625,0.32694002985954285,-0.21761754155158997,0.5548174381256104
1772806492254594600,4.444594482421875,0.2648119628429413,0.1821567565202713,0.8299546837806702
1772806492264525600,4.454525634765625,0.19096197187900543,0.5614106059074402,0.9481756091117859
1772806492274456600,4.46445654296875,0.061594653874635696,0.7797578573226929,0.8756058216094971
1772806492284388000,4.47438818359375,-0.07414852827787399,0.7515667080879211,0.7129257917404175
1772806492294319000,4.484319091796875,-0.11185356229543686,0.5601695775985718,0.6149861812591553
1772806492304250000,4.49425,-0.036856550723314285,0.4223232865333557,0.7072213292121887
1772806492314182100,4.50418212890625,0.042561307549476624,0.41684889793395996,0.8969593048095703
1772806492324113200,4.514113037109375,0.019214173778891563,0.4343535900115967,1.061879277229309
1772806492334045200,4.524045166015625,-0.07399725914001465,0.3851785659790039,1.1479406356811523
1772806492343976000,4.533975830078125,-0.19769443571567535,0.26146382093429565,1.1253626346588135
1772806492353907200,4.5439072265625,-0.30785635113716125,0.14732713997364044,1.0484697818756104
1772806492363839200,4.553839111328125,-0.42577314376831055,0.13839222490787506,0.9782296419143677
1772806492373770000,4.56377001953125,-0.5328609943389893,0.30405762791633606,0.8885743618011475
1772806492383702000,4.573701904296875,-0.6104247570037842,0.4982127249240875,0.724768340587616
1772806492393633000,4.583633056640625,-0.6678435802459717,0.6693783402442932,0.4214356541633606
1772806492403564000,4.59356396484375,-0.7167115211486816,0.7781493067741394,0.053406234830617905
1772806492413496000,4.60349609375,-0.6954326033592224,0.8701061010360718,-0.3557828664779663
1772806492423427000,4.613427001953125,-0.580550491809845,0.9481276869773865,-0.7296081185340881
1772806492433358000,4.623358154296875,-0.4052092730998993,0.9767313599586487,-1.0224725008010864
1772806492443290000,4.6332900390625,-0.2522365152835846,0.9663833975791931,-1.2226982116699219
1772806492453221000,4.64322119140625,-0.14657293260097504,0.8990213871002197,-1.2960222959518433
1772806492463153200,4.653153076171875,-0.11426585167646408,0.7891414761543274,-1.228215217590332
1772806492473084000,4.663083984375,-0.14953729510307312,0.6410531997680664,-1.0419583320617676
1772806492483015200,4.67301513671875,-0.24223820865154266,0.43008026480674744,-0.7581881284713745
1772806492492947200,4.682947265625,-0.3436146378517151,0.27003681659698486,-0.47361496090888977
1772806492502878200,4.692878173828125,-0.4483868479728699,0.14812901616096497,-0.24820367991924286
1772806492512810000,4.70281005859375,-0.5630849003791809,0.09077038615942001,-0.08110284060239792
1772806492522741000,4.712740966796875,-0.6699024438858032,0.11814261972904205,0.0216554943472147
1772806492532672300,4.72267236328125,-0.7434059381484985,0.21374531090259552,0.07329179346561432
1772806492542604000,4.73260400390625,-0.7758565545082092,0.35194045305252075,0.06588207930326462
1772806492552535000,4.74253515625,-0.7633868455886841,0.5385790467262268,0.04343162849545479
1772806492562467000,4.752467041015625,-0.7138435244560242,0.7092661261558533,0.021875737234950066
1772806492572398000,4.762398193359375,-0.6225330829620361,0.8148484826087952,-0.01859259232878685
1772806492582329000,4.7723291015625,-0.5011650919914246,0.8097269535064697,-0.09541653096675873
1772806492592261000,4.78226123046875,-0.3949829936027527,0.6761230826377869,-0.23977264761924744
1772806492602192100,4.792192138671875,-0.3180892765522003,0.4863704442977905,-0.43228456377983093
1772806492612123100,4.802123046875,-0.27959248423576355,0.21717093884944916,-0.6993626356124878
1772806492622055200,4.81205517578125,-0.24553146958351135,-0.7897870540618896,-1.6531457901000977
1772806492631986200,4.821986083984375,-0.1274154782295227,-1.6608567237854004,-2.1493980884552
1772806492641918200,4.831918212890625,-0.038431279361248016,-1.7155678272247314,-2.206566333770752
1772806492651849000,4.841848876953125,0.05245628207921982,-1.327221155166626,-2.0247950553894043
1772806492661780200,4.8517802734375,0.15526628494262695,-0.8895727396011353,-1.8335413932800293
1772806492671712300,4.861712158203125,0.24416100978851318,-0.7220546007156372,-1.7144464254379272
1772806492681643000,4.87164306640625,0.31294167041778564,-0.6595848202705383,-1.554580807685852
1772806492691575000,4.881574951171875,0.40769240260124207,-0.531304121017456,-1.2941207885742188
1772806492701506000,4.891506103515625,0.508223831653595,-0.38931792974472046,-0.9903417229652405
1772806492711437000,4.90143701171875,0.580102264881134,-0.31533318758010864,-0.7196897268295288
1772806492721369000,4.911369140625,0.5919930338859558,-0.3384920358657837,-0.48548173904418945
1772806492731300000,4.921300048828125,0.5594739317893982,-0.4267374873161316,-0.2593538165092468
1772806492741231000,4.931231201171875,0.5188431739807129,-0.4442136585712433,-0.019625632092356682
1772806492751163000,4.941162841796875,0.47793087363243103,-0.398395299911499,0.16245920956134796
1772806492761094100,4.95109423828125,0.43482762575149536,-0.3945499658584595,0.18100599944591522
1772806492771026200,4.961026123046875,0.4149197041988373,-0.41276174783706665,0.06834150850772858
1772806492780957000,4.97095703125,0.41026929020881653,-0.37536561489105225,-0.09737342596054077
1772806492790888200,4.98088818359375,0.4229091703891754,-0.3212600350379944,-0.28956684470176697
1772806492800820200,4.9908203125,0.4361315071582794,-0.3048914670944214,-0.49409255385398865
1772806492810751200,5.000751220703125,0.38645318150520325,-0.29930999875068665,-0.599237322807312
1772806492820683000,5.01068310546875,0.2976362109184265,-0.35299214720726013,-0.6420271396636963
1772806492830614000,5.020614013671875,0.1946648210287094,-0.552605926990509,-0.6629047393798828
1772806492840545300,5.030545166015625,0.11661289632320404,-0.804627001285553,-0.6064883470535278
1772806492850477000,5.04047705078125,0.13011033833026886,-0.9386196732521057,-0.5080664157867432
1772806492860408000,5.050407958984375,0.291248619556427,-1.0131194591522217,-0.43764153122901917
1772806492870339000,5.060339111328125,0.5805994868278503,-0.9508771300315857,-0.373475044965744
1772806492880271000,5.07027099609375,0.8603070378303528,-0.7186591029167175,-0.28046682476997375
1772806492890202000,5.0802021484375,1.0949912071228027,-0.4854564368724823,-0.25756868720054626
1772806492900134100,5.090134033203125,1.2366273403167725,-0.3475443720817566,-0.2591966688632965
1772806492910065200,5.100065185546875,1.2872838973999023,-0.3056126534938812,-0.26105237007141113
1772806492919996000,5.109995849609375,1.233141541481018,-0.3180522620677948,-0.20017702877521515
1772806492929928200,5.11992822265625,1.0600625276565552,-0.3194429874420166,-0.018571021035313606
1772806492939859200,5.129859130859375,0.774671733379364,-0.3055218458175659,0.2642092704772949
1772806492949791200,5.139791259765625,0.4700242280960083,-0.45635154843330383,0.49218839406967163
1772806492959722000,5.149721923828125,0.20078742504119873,-0.732761025428772,0.6198273301124573
1772806492969653200,5.1596533203125,-0.0073322150856256485,-1.0099247694015503,0.681424081325531
1772806492979585300,5.169585205078125,-0.12324923276901245,-1.2028710842132568,0.7449119687080383
1772806492989516000,5.17951611328125,-0.14395104348659515,-1.2728644609451294,0.8199700117111206
1772806492999448000,5.189447998046875,-0.0842464342713356,-1.2168523073196411,0.9175812005996704
1772806493009379000,5.199379150390625,0.056821469217538834,-1.0959278345108032,1.0164473056793213
1772806493019310000,5.20931005859375,0.23284336924552917,-0.9908900856971741,1.089834451675415
1772806493029242000,5.2192421875,0.4342654347419739,-0.9880610108375549,1.0182881355285645
1772806493039173000,5.229173095703125,0.6363056302070618,-1.1104696989059448,0.7748978734016418
1772806493049104000,5.239103759765625,0.7865182757377625,-1.351847767829895,0.37399569153785706
1772806493059036000,5.249035888671875,0.8983425498008728,-1.6388819217681885,-0.1136527955532074
1772806493068967200,5.25896728515625,0.9693019390106201,-1.8303143978118896,-0.5475829243659973
1772806493078899200,5.268899169921875,0.9755329489707947,-1.8814700841903687,-0.818825900554657
1772806493088830000,5.278829833984375,0.9263305068016052,-1.7891100645065308,-0.905133068561554
1772806493098761000,5.288760986328125,0.8257287740707397,-1.5801572799682617,-0.8523529767990112
1772806493108693200,5.298693359375,0.6861546635627747,-1.327513575553894,-0.6827239990234375
1772806493118624000,5.3086240234375,0.5193816423416138,-1.0655089616775513,-0.4647200107574463
1772806493128555000,5.318554931640625,0.31352755427360535,-0.8659952878952026,-0.23255202174186707
1772806493138487000,5.328487060546875,0.08549892157316208,-0.7074357271194458,-0.023631559684872627
1772806493148418300,5.338418212890625,-0.1104266420006752,-0.5876027941703796,0.14188577234745026
1772806493158350000,5.34835009765625,-0.2341507077217102,-0.4982081949710846,0.2820071876049042
1772806493168281000,5.358281005859375,-0.2894480526447296,-0.4000302255153656,0.3991505801677704
1772806493178212000,5.368212158203125,-0.29474109411239624,-0.29017484188079834,0.4959450364112854
1772806493188144000,5.37814404296875,-0.28299468755722046,-0.19263070821762085,0.5604941844940186
1772806493198075100,5.3880751953125,-0.2842780649662018,-0.11518624424934387,0.5885540843009949
1772806493208007200,5.398007080078125,-0.3066134750843048,-0.06295206397771835,0.5847340226173401
1772806493217938200,5.407938232421875,-0.33351752161979675,-0.04953533038496971,0.5299251079559326
1772806493227869000,5.417868896484375,-0.3553285300731659,-0.056822270154953,0.4325208067893982
1772806493237801000,5.427801025390625,-0.36067724227905273,-0.07600048929452896,0.3136996030807495
1772806493247732200,5.437732177734375,-0.3393855094909668,-0.07706069946289062,0.20583385229110718
1772806493257664300,5.447664306640625,-0.31312382221221924,-0.06997509300708771,0.12114293873310089
1772806493267595000,5.457594970703125,-0.29188430309295654,-0.03899986296892166,0.06409695744514465
1772806493277526000,5.467526123046875,-0.28070464730262756,0.024870462715625763,0.042629484087228775
1772806493287458300,5.477458251953125,-0.28222930431365967,0.11014115065336227,0.0335872545838356
1772806493297389300,5.487389404296875,-0.29506680369377136,0.20235443115234375,0.028960544615983963
1772806493307320300,5.4973203125,-0.32818081974983215,0.3362397849559784,0.03917669877409935
1772806493317252400,5.50725244140625,-0.3404395878314972,0.4498555660247803,0.025783926248550415
1772806493327183400,5.517183349609375,-0.30861935019493103,0.5081045031547546,-0.018931612372398376
1772806493337115400,5.527115478515625,-0.22162027657032013,0.5460574626922607,-0.08609627187252045
1772806493347046400,5.53704638671875,-0.10263290256261826,0.457013875246048,-0.15701651573181152
1772806493356977200,5.54697705078125,0.03195660188794136,0.31793856620788574,-0.22864222526550293
1772806493366909200,5.5569091796875,0.187373086810112,0.1639617681503296,-0.31761711835861206
1772806493376840400,5.56684033203125,0.3294577896595001,-0.03146018832921982,-0.3777424991130829
1772806493386772500,5.5767724609375,0.4686361849308014,-0.21215327084064484,-0.41012653708457947
1772806493396703200,5.586703125,0.5739127993583679,-0.3474847376346588,-0.44244614243507385
1772806493406634200,5.59663427734375,0.5775600075721741,-0.38609975576400757,-0.44876235723495483
1772806493416566300,5.606566162109375,0.5004915595054626,-0.3693311810493469,-0.41944360733032227
1772806493426497300,5.616497314453125,0.3685159683227539,-0.3470703363418579,-0.33137738704681396
1772806493436428300,5.62642822265625,0.22377823293209076,-0.3223109245300293,-0.2212548851966858
1772806493446360300,5.6363603515625,0.07453788071870804,-0.28016987442970276,-0.1184970885515213
1772806493456291300,5.646291259765625,-0.08506855368614197,-0.17795269191265106,-0.028956817463040352
1772806493466223400,5.656223388671875,-0.2579710781574249,0.02485688030719757,0.0648232027888298
1772806493476154400,5.666154296875,-0.43218764662742615,0.26593899726867676,0.1455042064189911
1772806493486085400,5.67608544921875,-0.592210590839386,0.4440796971321106,0.1639215648174286
1772806493496017400,5.686017333984375,-0.6910918951034546,0.5373505353927612,0.08474338054656982
1772806493505948400,5.695948486328125,-0.7055270075798035,0.5148947834968567,-0.07108642905950546
1772806493515880400,5.70588037109375,-0.6434948444366455,0.41600918769836426,-0.22152812778949738
1772806493525811500,5.7158115234375,-0.5622742772102356,0.2754603326320648,-0.3251943290233612
1772806493535742200,5.7257421875,-0.4777316749095917,0.11440859735012054,-0.37972041964530945
1772806493545674200,5.73567431640625,-0.34713053703308105,-0.05952271446585655,-0.36937564611434937
1772806493555605500,5.74560546875,-0.1847085952758789,-0.1992100477218628,-0.27419108152389526
1772806493565536300,5.755536376953125,-0.06105509772896767,-0.23081137239933014,-0.08002692461013794
1772806493575468300,5.76546826171875,-0.007268032990396023,-0.11897458881139755,0.1826675534248352
1772806493585399300,5.7753994140625,0.03449299558997154,0.05073641240596771,0.44728296995162964
1772806493595331300,5.785331298828125,0.02985510043799877,0.27775970101356506,0.6299608945846558
1772806493605262300,5.795262451171875,-0.04769641533493996,0.5475571155548096,0.7005077600479126
1772806493615193300,5.805193359375,-0.1650632619857788,0.7895255088806152,0.657883882522583
1772806493625125400,5.81512548828125,-0.21465876698493958,0.7580893039703369,0.5367569327354431
1772806493635056400,5.825056396484375,-0.17044684290885925,0.4526825249195099,0.4572591483592987
1772806493644988400,5.834988525390625,-0.1348571479320526,0.16348347067832947,0.499930202960968
1772806493654919400,5.84491943359375,-0.18128617107868195,0.007452323567122221,0.6410854458808899
1772806493664850200,5.85485009765625,-0.2713569402694702,-0.06988587230443954,0.8595994114875793
1772806493674782200,5.8647822265625,-0.3723647892475128,-0.10819624364376068,1.074144959449768
1772806493684713500,5.87471337890625,-0.4240655303001404,-0.0918516293168068,1.1522563695907593
1772806493694644500,5.88464453125,-0.4706844389438629,-0.06378190964460373,1.1092058420181274
1772806493704576300,5.894576171875,-0.534984827041626,0.051179297268390656,0.9890729784965515
1772806493714507300,5.90450732421875,-0.5707098245620728,0.2613897919654846,0.8410254716873169
1772806493724439300,5.914439208984375,-0.5563282370567322,0.43644654750823975,0.6953729391098022
1772806493734370300,5.924370361328125,-0.4984433650970459,0.5411271452903748,0.5437514185905457
1772806493744301300,5.93430126953125,-0.40541142225265503,0.635168194770813,0.3706806004047394
1772806493754233300,5.9442333984375,-0.30553382635116577,0.7268999814987183,0.1628086268901825
1772806493764164400,5.954164306640625,-0.20654705166816711,0.7943674325942993,-0.06998627632856369
1772806493774096100,5.96409619140625,-0.12538109719753265,0.8102606534957886,-0.28984779119491577
1772806493784027400,5.97402734375,-0.07462603598833084,0.7841467261314392,-0.4415137469768524
1772806493793958400,5.98395849609375,-0.04822052642703056,0.720718502998352,-0.5142660140991211
1772806493803890200,5.99389013671875,-0.04482473060488701,0.6188874840736389,-0.49591708183288574
1772806493813821400,6.003821533203125,-0.0681992918252945,0.5001025199890137,-0.3841599225997925
1772806493823752400,6.01375244140625,-0.1312432438135147,0.42304980754852295,-0.22883158922195435
1772806493833684500,6.0236845703125,-0.21601298451423645,0.41607069969177246,-0.06356912106275558
1772806493843615200,6.033615234375,-0.29555070400238037,0.44757163524627686,0.060019396245479584
1772806493853547300,6.04354736328125,-0.35724973678588867,0.4451353847980499,0.11956901103258133
1772806493863478500,6.053478515625,-0.4050513505935669,0.4373246133327484,0.1291063129901886
1772806493873409300,6.0634091796875,-0.430557519197464,0.4250926971435547,0.11962972581386566
1772806493883341300,6.07334130859375,-0.4387965202331543,0.39259734749794006,0.07148643583059311
1772806493893272300,6.083272216796875,-0.4283351004123688,0.3666112720966339,-0.006932474672794342
1772806493903204400,6.093204345703125,-0.40175861120224,0.40481698513031006,-0.08779936283826828
1772806493913135400,6.10313525390625,-0.3636322617530823,0.46823057532310486,-0.17312464118003845
1772806493923066400,6.11306640625,-0.3164655566215515,0.5084261894226074,-0.280336856842041
1772806493932998400,6.122998291015625,-0.2657001316547394,0.5216559767723083,-0.38312873244285583
1772806493942929200,6.13292919921875,-0.18417569994926453,0.5038498640060425,-0.452970415353775
1772806493952860400,6.1428603515625,-0.09151846170425415,0.42861446738243103,-0.5246466994285583
1772806493962792400,6.15279248046875,-0.004069043789058924,0.31965282559394836,-0.6113765835762024
1772806493972723200,6.16272314453125,0.08738816529512405,0.20508790016174316,-0.6777587532997131
1772806493982655200,6.1726552734375,0.15537573397159576,0.10293304175138474,-0.7171112298965454
1772806493992586500,6.18258642578125,0.21040676534175873,0.025410285219550133,-0.7423151135444641
1772806494002517200,6.192517333984375,0.2607184052467346,-0.036380112171173096,-0.7841315865516663
1772806494012449300,6.20244921875,0.28018638491630554,-0.09340211749076843,-0.8343086838722229
1772806494022380300,6.21238037109375,0.27767103910446167,-0.11595004051923752,-0.8824061751365662
1772806494032312300,6.222312255859375,0.2494758814573288,-0.13463157415390015,-0.905269980430603
1772806494042243300,6.232243408203125,0.20953138172626495,-0.18144915997982025,-0.8859516382217407
1772806494052174300,6.24217431640625,0.1792059689760208,-0.2596512734889984,-0.774225115776062
1772806494062106400,6.2521064453125,0.20348387956619263,-0.3770817816257477,-0.5838615894317627
1772806494072037000,6.262037109375,0.2983315587043762,-0.4992090165615082,-0.34584343433380127
1772806494081968400,6.271968505859375,0.4162560701370239,-0.5673214793205261,-0.09922485053539276
1772806494091900400,6.281900390625,0.4998191297054291,-0.5364304184913635,0.08523473888635635
1772806494101831400,6.29183154296875,0.5550621747970581,-0.4649932384490967,0.18094554543495178
1772806494111763200,6.30176318359375,0.5857164859771729,-0.3779803216457367,0.19122828543186188
1772806494121694200,6.311694091796875,0.581672728061676,-0.31256136298179626,0.1515069603919983
1772806494131625500,6.32162548828125,0.5489709973335266,-0.23729883134365082,0.06796520203351974
1772806494141557500,6.3315576171875,0.4699597656726837,-0.21834725141525269,-0.019274627789855003
1772806494151488300,6.34148828125,0.3519742786884308,-0.2179243415594101,-0.05106717720627785
1772806494161420300,6.351420166015625,0.2069113701581955,-0.22082293033599854,-0.016334498301148415
1772806494171351600,6.3613515625,0.06324075162410736,-0.20860859751701355,0.04681624099612236
1772806494181282300,6.3712822265625,-0.046661779284477234,-0.1678057760000229,0.09831511974334717
1772806494191214300,6.38121435546875,-0.04752517491579056,-0.11450979858636856,0.08614154160022736
1772806494201145300,6.391145263671875,0.0850730836391449,-0.09512065351009369,-0.01619814522564411
1772806494211076400,6.401076416015625,0.33260858058929443,-0.12587857246398926,-0.15347237884998322
1772806494221008400,6.41100830078125,0.656396746635437,-0.2718014121055603,-0.2666444778442383
1772806494230939400,6.420939453125,0.9722412824630737,-0.42100581526756287,-0.30489253997802734
1772806494240871400,6.430871337890625,1.1971251964569092,-0.5729484558105469,-0.2538203001022339
1772806494250802200,6.44080224609375,1.3060767650604248,-0.6832726001739502,-0.13847984373569489
1772806494260733400,6.4507333984375,1.2864609956741333,-0.7005053758621216,-0.0020503676496446133
1772806494270665500,6.46066552734375,1.134739637374878,-0.595345139503479,0.13692909479141235
1772806494280596200,6.47059619140625,0.9570167660713196,-0.37695634365081787,0.24685505032539368
1772806494290528000,6.480528076171875,0.7671477794647217,-0.2143663614988327,0.3051420748233795
1772806494300459000,6.490458984375,0.5357438325881958,-0.13733549416065216,0.3653430938720703
1772806494310390000,6.50039013671875,0.27836504578590393,-0.13035401701927185,0.48185157775878906
1772806494320322000,6.510322021484375,0.004381699021905661,-0.1876995861530304,0.6422404646873474
1772806494330252800,6.520252685546875,-0.26009178161621094,-0.23882563412189484,0.8284766674041748
1772806494340184000,6.53018408203125,-0.4810957908630371,-0.2356058657169342,1.0341349840164185
1772806494350116000,6.5401162109375,-0.6370113492012024,-0.15982694923877716,1.2282546758651733
1772806494360046800,6.550046875,-0.6909515261650085,-0.03567757084965706,1.336033582687378
1772806494369979000,6.559978759765625,-0.592808723449707,0.07593338191509247,1.253833293914795
1772806494379910000,6.569909912109375,-0.29577839374542236,-0.0023347933311015368,0.8989614844322205
1772806494389841200,6.579841064453125,0.13503265380859375,-0.246230810880661,0.31745147705078125
1772806494399773000,6.58977294921875,0.5781200528144836,-0.5908681154251099,-0.36550581455230713
1772806494409704000,6.599703857421875,0.910500705242157,-0.9189181327819824,-0.9307601451873779
1772806494419636000,6.609635986328125,1.0764172077178955,-1.207580327987671,-1.249196171760559
1772806494429567000,6.61956689453125,1.0964399576187134,-1.4014378786087036,-1.3016951084136963
1772806494439498000,6.629498046875,1.0076218843460083,-1.4874961376190186,-1.147867202758789
1772806494449430000,6.639429931640625,0.8635435700416565,-1.3907655477523804,-0.8412289619445801
1772806494459361000,6.649361083984375,0.6974078416824341,-1.1498112678527832,-0.40796539187431335
1772806494469292000,6.6592919921875,0.5235418081283569,-0.7869124412536621,0.05679430812597275
1772806494479224000,6.66922412109375,0.34386709332466125,-0.407324880361557,0.4601854383945465
1772806494489155000,6.679155029296875,0.14999961853027344,-0.085121288895607,0.8015651702880859
1772806494499086800,6.6890869140625,-0.009670470841228962,0.1357405185699463,1.0183554887771606
1772806494509017900,6.699017822265625,-0.11176248639822006,0.22054116427898407,1.0698513984680176
1772806494518949000,6.70894921875,-0.18793287873268127,0.18818162381649017,1.0008153915405273
1772806494528881200,6.718881103515625,-0.24121874570846558,0.09301383048295975,0.8561404943466187
1772806494538812000,6.72881201171875,-0.28080424666404724,-0.04693847894668579,0.6662728190422058
1772806494548744000,6.738743896484375,-0.3185018002986908,-0.18438050150871277,0.4704013168811798
1772806494558675000,6.748675048828125,-0.3621203899383545,-0.25931838154792786,0.29512566328048706
1772806494568606000,6.75860595703125,-0.39816227555274963,-0.2400440275669098,0.18950042128562927
1772806494578538000,6.7685380859375,-0.4220689535140991,-0.13553519546985626,0.1395094245672226
1772806494588469000,6.778468994140625,-0.42692121863365173,0.021034445613622665,0.1673746109008789
1772806494598400000,6.78839990234375,-0.4168347716331482,0.23048754036426544,0.24842499196529388
1772806494608332000,6.79833203125,-0.40577787160873413,0.4354103207588196,0.34543490409851074
1772806494618263000,6.808262939453125,-0.39718571305274963,0.6065184473991394,0.4219094216823578
1772806494628195000,6.818195068359375,-0.38875094056129456,0.6904186606407166,0.44795435667037964
1772806494638125800,6.828125732421875,-0.3680744171142578,0.6784994006156921,0.41096118092536926
1772806494648057000,6.83805712890625,-0.31969624757766724,0.5449256300926208,0.31101033091545105
1772806494657989000,6.847989013671875,-0.24849769473075867,0.34375205636024475,0.14419952034950256
1772806494667920000,6.857919921875,-0.1818571537733078,0.1564258188009262,-0.03275182098150253
1772806494677851000,6.867850830078125,-0.14443840086460114,0.037037380039691925,-0.17612922191619873
1772806494687783000,6.877782958984375,-0.1272522211074829,-0.02149064466357231,-0.2610531747341156
1772806494697714000,6.8877138671875,-0.10655973106622696,-0.01991272158920765,-0.2597154676914215
1772806494707646000,6.89764599609375,-0.07584762573242188,-0.025494441390037537,-0.21590086817741394
1772806494717577000,6.907576904296875,-0.05245441943407059,-0.017768610268831253,-0.16299131512641907
1772806494727508000,6.917508056640625,-0.045272938907146454,0.013596502132713795,-0.12033413350582123
1772806494737439700,6.927439697265625,-0.046599194407463074,0.046186402440071106,-0.10754270851612091
1772806494747371000,6.93737109375,-0.061055365949869156,0.1020539328455925,-0.13988998532295227
1772806494757303000,6.947302978515625,-0.09071046113967896,0.17892074584960938,-0.20741204917430878
1772806494767233800,6.95723388671875,-0.12360609322786331,0.23638483881950378,-0.30512261390686035
1772806494777165000,6.9671650390625,-0.13246509432792664,0.2726008892059326,-0.4231776297092438
1772806494787097000,6.97709716796875,-0.14311854541301727,0.2887660264968872,-0.5157877206802368
1772806494797028000,6.987028076171875,-0.1847514659166336,0.2881401777267456,-0.606104850769043
1772806494806958800,6.996958740234375,-0.26720160245895386,0.30934667587280273,-0.684633195400238
1772806494816891000,7.006890869140625,-0.391178160905838,0.3088768720626831,-0.7249079346656799
1772806494826822100,7.016822265625,-0.526088297367096,0.2920265197753906,-0.7344255447387695
1772806494836754000,7.02675390625,-0.6340895891189575,0.258413165807724,-0.69898521900177
1772806494846685000,7.036684814453125,-0.6692824959754944,0.1997368186712265,-0.5981528759002686
1772806494856616000,7.046615966796875,-0.6222033500671387,0.15137220919132233,-0.4762198030948639
1772806494866548000,7.0565478515625,-0.5064845085144043,0.056292831897735596,-0.3285360634326935
1772806494876479000,7.06647900390625,-0.3396742045879364,-0.05127197504043579,-0.16147011518478394
1772806494886411000,7.076410888671875,-0.18163877725601196,-0.10813312977552414,0.011273693293333054
1772806494896342000,7.086342041015625,-0.10039184987545013,-0.030045250430703163,0.21502602100372314
1772806494906272800,7.096272705078125,-0.08258488774299622,0.1242298036813736,0.41840416193008423
1772806494916205000,7.106205078125,-0.07339511811733246,0.3056611120700836,0.6050686240196228
1772806494926136000,7.116135986328125,-0.10419884324073792,0.5079202055931091,0.7282142043113708
1772806494936066800,7.12606689453125,-0.19652104377746582,0.669834554195404,0.7925599217414856
1772806494945998800,7.135998779296875,-0.3555586338043213,0.8005994558334351,0.8303956985473633
1772806494955930000,7.14593017578125,-0.5202993750572205,0.8329910039901733,0.8744750618934631
1772806494965862100,7.155862060546875,-0.5907389521598816,0.7441295385360718,0.975362241268158
1772806494975793000,7.16579296875,-0.6286988258361816,0.6323226094245911,1.112446904182434
1772806494985724000,7.175723876953125,-0.6325936913490295,0.46297457814216614,1.2670713663101196
1772806494995656000,7.185656005859375,-0.6063117384910583,0.21525664627552032,1.4135891199111938
1772806495005587000,7.1955869140625,-0.5567258596420288,-0.059777311980724335,1.515343189239502
1772806495015519000,7.20551904296875,-0.5385284423828125,-0.28946244716644287,1.5138736963272095
1772806495025450000,7.215449951171875,-0.5457642674446106,-0.4006637930870056,1.385111689567566
1772806495035381000,7.225381103515625,-0.5724989175796509,-0.3261919617652893,1.1390310525894165
1772806495045312800,7.235312744140625,-0.6220241189002991,-0.10753977298736572,0.8540464639663696
1772806495055244000,7.245244140625,-0.6696526408195496,0.14698810875415802,0.545285165309906
1772806495065175000,7.255175048828125,-0.7176827788352966,0.415616899728775,0.2733471095561981
1772806495075106800,7.26510693359375,-0.7374045252799988,0.5951387286186218,0.059060122817754745
1772806495085037800,7.275037841796875,-0.6996877789497375,0.7016745209693909,-0.1144203171133995
1772806495094970000,7.28497021484375,-0.6620256304740906,0.8271411061286926,-0.22740066051483154
1772806495104901000,7.294901123046875,-0.6273382306098938,0.9339439272880554,-0.31791937351226807
1772806495114832000,7.304831787109375,-0.5571021437644958,0.8634104132652283,-0.43369099497795105
1772806495124764000,7.314763916015625,-0.3461345136165619,0.6122276782989502,-0.4713877737522125
1772806495134695200,7.324695068359375,0.0774412602186203,0.19381527602672577,-0.5434310436248779
1772806495144627000,7.334626953125,0.4308139681816101,-0.22292070090770721,-0.5370852947235107
1772806495154558000,7.344557861328125,0.587055504322052,-0.4297226071357727,-0.4397030770778656
1772806495164489000,7.354489013671875,0.5254341959953308,-0.4651445150375366,-0.2745548486709595
1772806495174421000,7.3644208984375,0.2135319858789444,-0.3496706485748291,-0.08372392505407333
1772806495184352000,7.37435205078125,-0.09910207986831665,-0.15004435181617737,0.05816902965307236
1772806495194283000,7.384282958984375,-0.3951156437397003,0.080209881067276,0.16809473931789398
1772806495204215000,7.394215087890625,-0.5595889687538147,0.32479777932167053,0.24231143295764923
1772806495214145800,7.404145751953125,-0.6241618394851685,0.4778677821159363,0.21817414462566376
1772806495224077800,7.414077880859375,-0.6350746750831604,0.5064176321029663,0.1179649829864502
1772806495234009000,7.424009033203125,-0.5692522525787354,0.4529182016849518,-0.05092896148562431
1772806495243939800,7.43393994140625,-0.4165026843547821,0.34192830324172974,-0.25219282507896423
1772806495253871900,7.443871826171875,-0.18318340182304382,0.15753236413002014,-0.4926706850528717
1772806495263803000,7.453802978515625,0.054666973650455475,-0.0806700810790062,-0.7165991067886353
1772806495273734000,7.46373388671875,0.2496500462293625,-0.34171152114868164,-0.9003625512123108
1772806495283666000,7.473666015625,0.37458986043930054,-0.5741083025932312,-1.0339819192886353
1772806495293597000,7.483596923828125,0.4582067131996155,-0.6804624199867249,-1.0624377727508545
1772806495303529000,7.493529052734375,0.4973091185092926,-0.6670922636985779,-0.9847536087036133
1772806495313460000,7.5034599609375,0.5262867212295532,-0.5563926696777344,-0.8083428740501404
1772806495323391000,7.513390869140625,0.5546389818191528,-0.42333874106407166,-0.5611488223075867
1772806495333323000,7.523322998046875,0.5717756152153015,-0.31127798557281494,-0.3272921144962311
1772806495343253800,7.533253662109375,0.5701851844787598,-0.24540869891643524,-0.162361741065979
1772806495353185800,7.543185791015625,0.5476723909378052,-0.215056911110878,-0.04337890073657036
1772806495363117000,7.553116943359375,0.5263620615005493,-0.2290872484445572,0.052687447518110275
1772806495373048000,7.563048095703125,0.5133317708969116,-0.25351402163505554,0.12992922961711884
1772806495382979800,7.572979736328125,0.4992758631706238,-0.2752835154533386,0.1945417821407318
1772806495392910800,7.582910888671875,0.48492860794067383,-0.32679781317710876,0.23526924848556519
1772806495402842000,7.592842041015625,0.47674232721328735,-0.36681288480758667,0.2563886344432831
1772806495412774000,7.60277392578125,0.4815932512283325,-0.3868153691291809,0.2607541084289551
1772806495422705000,7.612704833984375,0.49307602643966675,-0.3772977590560913,0.24389442801475525
1772806495432637000,7.622636962890625,0.5171675086021423,-0.3820110261440277,0.19635699689388275
1772806495442568000,7.63256787109375,0.5492990612983704,-0.40495628118515015,0.11740625649690628
1772806495452499000,7.6424990234375,0.5644165277481079,-0.4413805902004242,0.03251240402460098
1772806495462431000,7.652430908203125,0.5742595791816711,-0.4515432119369507,-0.043416447937488556
1772806495472362000,7.662362060546875,0.5695210099220276,-0.4563233256340027,-0.12293177843093872
1772806495482294000,7.6722939453125,0.5579023957252502,-0.42575156688690186,-0.17387644946575165
1772806495492225000,7.68222509765625,0.554410457611084,-0.39278644323349,-0.19933867454528809
1772806495502156000,7.692156005859375,0.5560144782066345,-0.4058274030685425,-0.17861954867839813
1772806495512088000,7.702088134765625,0.5615389347076416,-0.4635128080844879,-0.15302470326423645
1772806495522018800,7.712018798828125,0.5576035976409912,-0.5077337622642517,-0.14672473073005676
1772806495531950000,7.7219501953125,0.5531468391418457,-0.5013781785964966,-0.14128948748111725
1772806495541882000,7.731882080078125,0.5642351508140564,-0.45809778571128845,-0.1379421502351761
1772806495551812900,7.741812744140625,0.5945643186569214,-0.42705971002578735,-0.12698857486248016
1772806495561745000,7.751744873046875,0.6441352963447571,-0.41283443570137024,-0.11107991635799408
1772806495571676000,7.761676025390625,0.6859663724899292,-0.4470059871673584,-0.08444643765687943
1772806495581607000,7.77160693359375,0.7191932797431946,-0.495896577835083,-0.05885825678706169
1772806495591539000,7.7815390625,0.7484920620918274,-0.5369870066642761,-0.042395658791065216
1772806495601470000,7.791469970703125,0.7725611925125122,-0.5525870323181152,-0.04325239732861519
1772806495611401000,7.80140087890625,0.7885822057723999,-0.5579023957252502,-0.08190365135669708
1772806495621333000,7.8113330078125,0.8153238296508789,-0.574277937412262,-0.16722041368484497
1772806495631264000,7.821263916015625,0.8448183536529541,-0.5854269862174988,-0.23918302357196808
1772806495641196000,7.831196044921875,0.8871325254440308,-0.5585095882415771,-0.2776068449020386
1772806495651126800,7.841126708984375,0.8984288573265076,-0.4862402081489563,-0.2685888409614563
1772806495661058000,7.85105810546875,0.8551889657974243,-0.42427751421928406,-0.2135186791419983
1772806495670990000,7.860989990234375,0.7460778951644897,-0.4359714388847351,-0.1185692548751831
1772806495680921000,7.870921142578125,0.580554187297821,-0.5244640111923218,-0.029136579483747482
1772806495690852900,7.880852783203125,0.3799518644809723,-0.6516265273094177,0.03617558255791664
1772806495700783900,7.890783935546875,0.19752000272274017,-0.7528367638587952,0.04210377857089043
1772806495710715100,7.900715087890625,0.06840302795171738,-0.8213614821434021,-0.0022335932590067387
1772806495720647000,7.91064697265625,0.027176227420568466,-0.8011693954467773,-0.06745573878288269
1772806495730578000,7.920577880859375,0.07328779250383377,-0.7276318073272705,-0.1509421169757843
1772806495740509000,7.930509033203125,0.20087212324142456,-0.6095091700553894,-0.2112283557653427
1772806495750441000,7.94044091796875,0.36120691895484924,-0.46378257870674133,-0.20787863433361053
1772806495760372000,7.9503720703125,0.4885462522506714,-0.34084945917129517,-0.15272003412246704
1772806495770304000,7.960303955078125,0.5449738502502441,-0.279590368270874,-0.09373634308576584
1772806495780235000,7.970235107421875,0.5191813707351685,-0.28905096650123596,-0.053038183599710464
1772806495790166000,7.980166015625,0.4454677402973175,-0.33304932713508606,-0.04074769467115402
1772806495800098000,7.99009814453125,0.35133567452430725,-0.4046422839164734,-0.06385141611099243
1772806495810029000,8.000029052734375,0.2595202624797821,-0.44028788805007935,-0.12327026575803757
1772806495819959800,8.009959716796875,0.19044078886508942,-0.44207489490509033,-0.19383232295513153
1772806495829891000,8.01989111328125,0.16221792995929718,-0.3675713539123535,-0.2481679916381836
1772806495839823000,8.029822998046875,0.16397163271903992,-0.27398812770843506,-0.30469226837158203
1772806495849753900,8.03975390625,0.18584762513637543,-0.19930244982242584,-0.34697020053863525
1772806495859686000,8.049685791015625,0.1948259472846985,-0.1450115144252777,-0.3475302755832672
1772806495869617000,8.059616943359375,0.1904224008321762,-0.09206095337867737,-0.29732516407966614
1772806495879548200,8.069548095703125,0.18505826592445374,-0.05296201631426811,-0.20296403765678406
1772806495889480000,8.07947998046875,0.1890183836221695,-0.03405996412038803,-0.07843782007694244
1772806495899411000,8.089410888671875,0.20803548395633698,-0.03369244933128357,0.04167900234460831
1772806495909342000,8.099342041015625,0.23355363309383392,-0.05686727911233902,0.12814012169837952
1772806495919273700,8.109273681640625,0.24681031703948975,-0.11142373085021973,0.13802418112754822
1772806495929205000,8.119205078125,0.2452763319015503,-0.16024240851402283,0.09479068964719772
1772806495939137000,8.129136962890625,0.2137005627155304,-0.1994750201702118,0.010627610608935356
1772806495949068000,8.139068115234375,0.1785295307636261,-0.21917948126792908,-0.07283186167478561
1772806495958999000,8.1489990234375,0.14723418653011322,-0.2278992086648941,-0.16142244637012482
1772806495968931000,8.15893115234375,0.1272628754377365,-0.2200993448495865,-0.24774880707263947
1772806495978862000,8.168862060546875,0.12912575900554657,-0.21353252232074738,-0.30971524119377136
1772806495988793900,8.1787939453125,0.1356947124004364,-0.1626480370759964,-0.3314506411552429
1772806495998724900,8.188724853515625,0.15965864062309265,-0.09086359292268753,-0.3063977360725403
1772806496008656100,8.19865625,0.18445107340812683,-0.028662538155913353,-0.24870967864990234
1772806496018588200,8.208588134765625,0.2009163349866867,-0.001773132593370974,-0.18709105253219604
1772806496028519000,8.218518798828125,0.18559755384922028,-0.009458483196794987,-0.12507829070091248
1772806496038450000,8.228449951171875,0.14410817623138428,-0.01840084418654442,-0.07095726579427719
1772806496048382000,8.2383818359375,0.08703876286745071,0.008714928291738033,-0.02468297630548477
1772806496058313000,8.24831298828125,0.03299576789140701,0.05686541274189949,-0.0021933794487267733
1772806496068245000,8.258244873046875,-0.009463543072342873,0.08705154806375504,0.0008535431115888059
1772806496078176000,8.268176025390625,-0.02869902178645134,0.10409444570541382,-0.01919153705239296
1772806496088106800,8.278106689453125,-0.03868481144309044,0.11621342599391937,-0.06350786983966827
1772806496098038800,8.288038818359375,-0.04530569538474083,0.0963507741689682,-0.11667388677597046
1772806496107970000,8.297969970703125,-0.040834516286849976,0.06714121997356415,-0.1547946333885193
1772806496117900800,8.30790087890625,-0.03737000748515129,0.030180539935827255,-0.1587267965078354
1772806496127832800,8.317832763671875,-0.028567995876073837,-0.021438712254166603,-0.15475761890411377
1772806496137764000,8.32776416015625,-0.040823597460985184,-0.06546502560377121,-0.14792688190937042
1772806496147696000,8.337696044921875,-0.07403960824012756,-0.05504860356450081,-0.12079273164272308
1772806496157627000,8.347626953125,-0.11192040890455246,-0.011123225092887878,-0.0767030343413353
1772806496167558000,8.357557861328125,-0.14566318690776825,0.045582398772239685,-0.031739287078380585
1772806496177491000,8.367490966796876,-0.16157904267311096,0.08098272979259491,0.013593040406703949
1772806496187422000,8.377421875,-0.1325676292181015,0.08828219026327133,0.061109691858291626
1772806496197353000,8.38735302734375,-0.07644124329090118,0.09686022996902466,0.12049179524183273
1772806496207285000,8.397284912109376,-0.010150372050702572,0.10846229642629623,0.14520113170146942
1772806496217216000,8.407216064453126,0.047096673399209976,0.11647415161132812,0.12837155163288116
1772806496227148000,8.41714794921875,0.08767285943031311,0.08383791148662567,0.067228302359581
1772806496237078800,8.427078857421876,0.0984615907073021,0.03707253187894821,0.011265969835221767
1772806496247010000,8.437010009765626,0.07594110071659088,0.011927765794098377,-0.025132516399025917
1772806496256942000,8.446942138671876,0.0389854833483696,0.005029912106692791,-0.0334722064435482
1772806496266872800,8.456872802734376,-0.002808836055919528,0.0776444599032402,-0.0008354336023330688
1772806496276804000,8.46680419921875,-0.0531817302107811,0.0868467465043068,-0.03513108938932419
1772806496286736100,8.476736083984376,-0.08148474246263504,0.08075929433107376,-0.0683516263961792
1772806496296667100,8.486667236328126,-0.0874432921409607,0.06879238039255142,-0.10119106620550156
1772806496306599200,8.49659912109375,-0.08835303038358688,0.06469084322452545,-0.1137356162071228
1772806496316530200,8.5065302734375,-0.07879121601581573,0.06754814833402634,-0.11295398324728012
1772806496326461200,8.516461181640626,-0.04976089671254158,0.0733083039522171,-0.10950412601232529
1772806496336393200,8.526393310546876,-0.01531983446329832,0.06480482965707779,-0.11777643114328384
1772806496346324200,8.53632421875,0.023741815239191055,0.03677479177713394,-0.1243421882390976
1772806496356255000,8.5462548828125,0.044371459633111954,0.011636150069534779,-0.12335202842950821
1772806496366187000,8.55618701171875,0.0564960315823555,-0.02346085198223591,-0.11732902377843857
1772806496376118300,8.5661181640625,0.06712736934423447,-0.049021072685718536,-0.1227584108710289
1772806496386050300,8.57605029296875,0.07274371385574341,-0.09893030673265457,-0.14364691078662872
1772806496395981000,8.58598095703125,0.08149538934230804,-0.16285735368728638,-0.17177335917949677
1772806496405912000,8.595912109375,0.09360185265541077,-0.18885087966918945,-0.15231257677078247
