time,seconds_elapsed,z,y,x
1772882769841119200,0.059119140625,-0.689910888671875,0.7640533447265625,0.212921142578125
1772882769851051300,0.06905126953125,-0.66754150390625,0.7656707763671875,0.213287353515625
1772882769860984300,0.078984375,-0.6454315185546875,0.7650146484375,0.2155914306640625
1772882769870917400,0.08891748046875,-0.6146392822265625,0.759429931640625,0.225494384765625
1772882769880849400,0.098849365234375,-0.59552001953125,0.7487030029296875,0.231170654296875
1772882769890782500,0.108782470703125,-0.6044464111328125,0.7457427978515625,0.224609375
1772882769900715300,0.11871533203125,-0.6224212646484375,0.746368408203125,0.207183837890625
1772882769910647300,0.128647216796875,-0.6402740478515625,0.7471466064453125,0.1840667724609375
1772882769920580400,0.138580322265625,-0.6617279052734375,0.7526397705078125,0.1765899658203125
1772882769930513400,0.148513427734375,-0.674530029296875,0.7533111572265625,0.181640625
1772882769940445400,0.158445556640625,-0.6689910888671875,0.7505950927734375,0.1976776123046875
1772882769950378500,0.16837841796875,-0.6530914306640625,0.74322509765625,0.2082977294921875
1772882769960311300,0.178311279296875,-0.6398773193359375,0.7348785400390625,0.2163848876953125
1772882769970243300,0.188243408203125,-0.62408447265625,0.72900390625,0.2127838134765625
1772882769980176100,0.198176025390625,-0.5986480712890625,0.718963623046875,0.202880859375
1772882769990109200,0.208109130859375,-0.5778350830078125,0.7110748291015625,0.1976470947265625
1772882770000041000,0.218041015625,-0.569854736328125,0.7114105224609375,0.1970062255859375
1772882770009974000,0.22797412109375,-0.5785675048828125,0.7128143310546875,0.1940765380859375
1772882770019907000,0.237906982421875,-0.5909271240234375,0.7227020263671875,0.193817138671875
1772882770029839000,0.247839111328125,-0.6117706298828125,0.73284912109375,0.1934814453125
1772882770039772200,0.257772216796875,-0.639892578125,0.7262725830078125,0.1994476318359375
1772882770049705000,0.267705078125,-0.678253173828125,0.70751953125,0.2268218994140625
1772882770059637000,0.277636962890625,-0.72021484375,0.6858062744140625,0.262939453125
1772882770069570000,0.287570068359375,-0.7393646240234375,0.6688385009765625,0.2798309326171875
1772882770079503000,0.297503173828125,-0.7329254150390625,0.66033935546875,0.273956298828125
1772882770089435100,0.30743505859375,-0.7209930419921875,0.669036865234375,0.2498931884765625
1772882770099368200,0.3173681640625,-0.72589111328125,0.6813201904296875,0.209869384765625
1772882770109301000,0.327301025390625,-0.7464599609375,0.6949462890625,0.16668701171875
1772882770119233000,0.33723291015625,-0.7569122314453125,0.70989990234375,0.13592529296875
1772882770129166000,0.347166015625,-0.7495574951171875,0.7164459228515625,0.1192169189453125
1772882770139099100,0.35709912109375,-0.7265472412109375,0.710723876953125,0.121246337890625
1772882770149031200,0.36703125,-0.7016143798828125,0.6963043212890625,0.1296539306640625
1772882770158964200,0.376964111328125,-0.686798095703125,0.679473876953125,0.148345947265625
1772882770168897000,0.38689697265625,-0.6802978515625,0.6641387939453125,0.167327880859375
1772882770178829000,0.3968291015625,-0.6727142333984375,0.6515045166015625,0.18438720703125
1772882770188761900,0.406761962890625,-0.65948486328125,0.6456298828125,0.2021026611328125
1772882770198694000,0.41669384765625,-0.64532470703125,0.64349365234375,0.2134246826171875
1772882770208627000,0.426626953125,-0.6352691650390625,0.6410369873046875,0.22003173828125
1772882770218560000,0.43656005859375,-0.6291351318359375,0.64178466796875,0.231109619140625
1772882770228492000,0.446491943359375,-0.63018798828125,0.6434478759765625,0.2452545166015625
1772882770238425000,0.456425048828125,-0.6404571533203125,0.641845703125,0.259124755859375
1772882770248358000,0.46635791015625,-0.652740478515625,0.6414031982421875,0.2663116455078125
1772882770258290200,0.476290283203125,-0.6613006591796875,0.640106201171875,0.2685546875
1772882770268223000,0.486222900390625,-0.65643310546875,0.637664794921875,0.262298583984375
1772882770278156000,0.496156005859375,-0.649261474609375,0.63958740234375,0.2577362060546875
1772882770288088000,0.506088134765625,-0.64404296875,0.6396026611328125,0.26129150390625
1772882770298021000,0.516021240234375,-0.6507720947265625,0.636199951171875,0.2662506103515625
1772882770307954200,0.5259541015625,-0.6556243896484375,0.6387176513671875,0.262237548828125
1772882770317886200,0.53588623046875,-0.6647186279296875,0.6426239013671875,0.2628173828125
1772882770327819000,0.545819091796875,-0.6729736328125,0.6470489501953125,0.2660064697265625
1772882770337752000,0.555751953125,-0.6828155517578125,0.6512603759765625,0.2625885009765625
1772882770347684000,0.56568408203125,-0.697052001953125,0.6486053466796875,0.256317138671875
1772882770357617200,0.5756171875,-0.710113525390625,0.6507110595703125,0.2613677978515625
1772882770367550200,0.58555029296875,-0.701446533203125,0.6766204833984375,0.2887725830078125
1772882770377482200,0.595482177734375,-0.6954193115234375,0.65789794921875,0.2436981201171875
1772882770387415300,0.605415283203125,-0.692169189453125,0.6203765869140625,0.2254791259765625
1772882770397348000,0.61534814453125,-0.6708221435546875,0.643280029296875,0.2303466796875
1772882770407279900,0.62527978515625,-0.6872711181640625,0.6362762451171875,0.206573486328125
1772882770417213000,0.635212890625,-0.6887359619140625,0.6401824951171875,0.2217254638671875
1772882770427146000,0.64514599609375,-0.6886749267578125,0.64251708984375,0.23675537109375
1772882770437078000,0.655078125,-0.701629638671875,0.6299591064453125,0.242828369140625
1772882770447011000,0.665010986328125,-0.70257568359375,0.6327056884765625,0.2530975341796875
1772882770456943900,0.67494384765625,-0.6997528076171875,0.631683349609375,0.2485504150390625
1772882770466876000,0.6848759765625,-0.7014923095703125,0.6309661865234375,0.2555084228515625
1772882770476809000,0.69480908203125,-0.70330810546875,0.6291046142578125,0.258575439453125
1772882770486742000,0.704741943359375,-0.701385498046875,0.6292724609375,0.2608489990234375
1772882770496674000,0.714674072265625,-0.7073974609375,0.634613037109375,0.2598724365234375
1772882770506607000,0.724607177734375,-0.725494384765625,0.6508636474609375,0.2491455078125
1772882770516540200,0.7345400390625,-0.767974853515625,0.6924591064453125,0.224029541015625
1772882770526472200,0.74447216796875,-0.8150634765625,0.756072998046875,0.1846923828125
1772882770536405000,0.754405029296875,-0.8401947021484375,0.8202056884765625,0.148956298828125
1772882770546338000,0.764338134765625,-0.8525238037109375,0.8691864013671875,0.1370849609375
1772882770556270000,0.77427001953125,-0.82427978515625,0.913665771484375,0.1714019775390625
1772882770566203100,0.784203125,-0.77044677734375,0.9693603515625,0.2064666748046875
1772882770576136200,0.79413623046875,-0.749542236328125,0.9781646728515625,0.2327880859375
1772882770586068200,0.804068115234375,-0.7350616455078125,0.961883544921875,0.273895263671875
1772882770596001000,0.8140009765625,-0.748931884765625,0.9281158447265625,0.3375091552734375
1772882770605934000,0.82393408203125,-0.778656005859375,0.8604736328125,0.3993682861328125
1772882770615866000,0.8338662109375,-0.8277740478515625,0.797515869140625,0.476715087890625
1772882770625799200,0.843799072265625,-0.8173370361328125,0.6470184326171875,0.425567626953125
1772882770635732200,0.853732177734375,-0.8024749755859375,0.59100341796875,0.4958343505859375
1772882770645664000,0.8636640625,-0.7425537109375,0.5384521484375,0.517120361328125
1772882770655597000,0.87359716796875,-0.665771484375,0.4709930419921875,0.515899658203125
1772882770665529900,0.88352978515625,-0.558319091796875,0.446075439453125,0.502685546875
1772882770675462000,0.8934619140625,-0.4298248291015625,0.4678192138671875,0.4593353271484375
1772882770685395000,0.90339501953125,-0.3174285888671875,0.5499267578125,0.357757568359375
1772882770695328000,0.913327880859375,-0.2552490234375,0.6171722412109375,0.2335357666015625
1772882770705260000,0.923260009765625,-0.227508544921875,0.704498291015625,0.1624908447265625
1772882770715193000,0.933193115234375,-0.2874755859375,0.777008056640625,0.142303466796875
1772882770725126100,0.943126220703125,-0.3978271484375,0.8291015625,0.1553192138671875
1772882770735058200,0.95305810546875,-0.517242431640625,0.869598388671875,0.1923370361328125
1772882770744991000,0.962990966796875,-0.6641082763671875,0.887115478515625,0.2389678955078125
1772882770754924000,0.972924072265625,-0.804534912109375,0.8859405517578125,0.2842864990234375
1772882770764856000,0.98285595703125,-0.898162841796875,0.8878326416015625,0.3134613037109375
1772882770774789000,0.9927890625,-0.9158782958984375,0.885040283203125,0.306427001953125
1772882770784722200,1.00272216796875,-0.8506927490234375,0.883270263671875,0.2763824462890625
1772882770794654200,1.012654296875,-0.731475830078125,0.8753204345703125,0.230255126953125
1772882770804587000,1.0225869140625,-0.616180419921875,0.85498046875,0.17333984375
1772882770814520000,1.03252001953125,-0.5457000732421875,0.8542327880859375,0.1197357177734375
1772882770824452000,1.0424521484375,-0.5075836181640625,0.875213623046875,0.0762481689453125
1772882770834385200,1.05238525390625,-0.4784393310546875,0.901397705078125,0.0346527099609375
1772882770844318200,1.062318115234375,-0.4521942138671875,0.9142913818359375,0.001312255859375
1772882770854250000,1.07225,-0.4221038818359375,0.9089202880859375,-0.0032196044921875
1772882770864183000,1.08218310546875,-0.3938446044921875,0.8921966552734375,0.0113525390625
1772882770874116000,1.0921162109375,-0.3756256103515625,0.8639984130859375,0.049072265625
1772882770884048000,1.1020478515625,-0.3664093017578125,0.8336639404296875,0.1074066162109375
1772882770893981000,1.11198095703125,-0.3404998779296875,0.804656982421875,0.177093505859375
1772882770903914000,1.1219140625,-0.31787109375,0.772247314453125,0.2529449462890625
1772882770913846000,1.131845947265625,-0.3191375732421875,0.7512969970703125,0.31854248046875
1772882770923779000,1.141779052734375,-0.3456268310546875,0.7487640380859375,0.357666015625
1772882770933712100,1.151712158203125,-0.3961181640625,0.7598114013671875,0.3696746826171875
1772882770943644200,1.16164404296875,-0.4794921875,0.7719879150390625,0.3511199951171875
1772882770953577000,1.171576904296875,-0.5464935302734375,0.7837066650390625,0.3146514892578125
1772882770963510000,1.181510009765625,-0.5754241943359375,0.8018341064453125,0.2560882568359375
1772882770973442000,1.191442138671875,-0.5708465576171875,0.8097686767578125,0.185028076171875
1772882770983375000,1.201375,-0.5401458740234375,0.797271728515625,0.133575439453125
1772882770993308200,1.21130810546875,-0.500885009765625,0.775146484375,0.1013336181640625
1772882771003240700,1.22124072265625,-0.4693450927734375,0.74139404296875,0.0810089111328125
1772882771013173500,1.231173583984375,-0.43121337890625,0.7104949951171875,0.0756683349609375
1772882771023106600,1.2411064453125,-0.4183502197265625,0.692596435546875,0.077728271484375
1772882771033038600,1.25103857421875,-0.4116363525390625,0.6927642822265625,0.082305908203125
1772882771042971600,1.2609716796875,-0.39886474609375,0.706268310546875,0.0789794921875
1772882771052904700,1.27090478515625,-0.400909423828125,0.719512939453125,0.088409423828125
1772882771062836500,1.28083642578125,-0.4323883056640625,0.732757568359375,0.1150054931640625
1772882771072769500,1.29076953125,-0.4818878173828125,0.7470245361328125,0.149566650390625
1772882771082702600,1.30070263671875,-0.545562744140625,0.76898193359375,0.1762542724609375
1772882771092634400,1.31063427734375,-0.6233367919921875,0.785430908203125,0.2058258056640625
1772882771102567400,1.3205673828125,-0.69671630859375,0.8008880615234375,0.2270660400390625
1772882771112500500,1.33050048828125,-0.7471923828125,0.8301849365234375,0.22882080078125
1772882771122432500,1.3404326171875,-0.7652435302734375,0.8538665771484375,0.208099365234375
1772882771132365600,1.350365478515625,-0.7471466064453125,0.8723297119140625,0.1822967529296875
1772882771142298400,1.36029833984375,-0.70098876953125,0.8870391845703125,0.1600341796875
1772882771152230400,1.37023046875,-0.644134521484375,0.88653564453125,0.14599609375
1772882771162163500,1.38016357421875,-0.592681884765625,0.873321533203125,0.1455535888671875
1772882771172096500,1.390096435546875,-0.559356689453125,0.854156494140625,0.1636810302734375
1772882771182028500,1.400028564453125,-0.5489044189453125,0.835906982421875,0.1851959228515625
1772882771191961600,1.409961669921875,-0.5601806640625,0.81732177734375,0.210479736328125
1772882771201894400,1.419894287109375,-0.56939697265625,0.8031005859375,0.236968994140625
1772882771211826700,1.42982666015625,-0.5627899169921875,0.7877655029296875,0.26416015625
1772882771221759500,1.439759521484375,-0.547637939453125,0.786712646484375,0.2801055908203125
1772882771231692500,1.449692626953125,-0.529144287109375,0.7915496826171875,0.273773193359375
1772882771241624600,1.45962451171875,-0.5125732421875,0.7975311279296875,0.247955322265625
1772882771251557600,1.4695576171875,-0.5002899169921875,0.8126373291015625,0.2191162109375
1772882771261490700,1.47949072265625,-0.4803619384765625,0.8240509033203125,0.1960296630859375
1772882771271422700,1.489422607421875,-0.474822998046875,0.8267059326171875,0.1795806884765625
1772882771281355500,1.49935546875,-0.4879150390625,0.8293304443359375,0.17327880859375
1772882771291288600,1.50928857421875,-0.5124053955078125,0.8306732177734375,0.166473388671875
1772882771301220400,1.519220458984375,-0.5468597412109375,0.836181640625,0.1601104736328125
1772882771311153400,1.5291533203125,-0.57421875,0.8404388427734375,0.159759521484375
1772882771321086500,1.53908642578125,-0.5825653076171875,0.840606689453125,0.1634368896484375
1772882771331018500,1.5490185546875,-0.5708770751953125,0.8435821533203125,0.1651763916015625
1772882771340951600,1.55895166015625,-0.5484619140625,0.8419647216796875,0.16302490234375
1772882771350884400,1.56888427734375,-0.517181396484375,0.8470001220703125,0.17645263671875
1772882771360816400,1.57881640625,-0.492767333984375,0.849853515625,0.191314697265625
1772882771370749400,1.58874951171875,-0.47259521484375,0.845001220703125,0.20867919921875
1772882771380682500,1.5986826171875,-0.474639892578125,0.833831787109375,0.2256011962890625
1772882771390614500,1.608614501953125,-0.504302978515625,0.828857421875,0.226348876953125
1772882771400547600,1.618547607421875,-0.5412445068359375,0.8509368896484375,0.1953887939453125
1772882771410480400,1.62848046875,-0.571807861328125,0.889678955078125,0.1610565185546875
1772882771420412400,1.638412353515625,-0.582183837890625,0.9590606689453125,0.151458740234375
1772882771430345500,1.648345458984375,-0.5715789794921875,1.026214599609375,0.1450958251953125
1772882771440278500,1.658278564453125,-0.5566864013671875,1.0970001220703125,0.1696319580078125
1772882771450210600,1.66821044921875,-0.5720977783203125,1.1680755615234375,0.1778106689453125
1772882771460143600,1.6781435546875,-0.63861083984375,1.2078704833984375,0.1595458984375
1772882771470076700,1.68807666015625,-0.724029541015625,1.213470458984375,0.1226043701171875
1772882771480008700,1.6980087890625,-0.7660064697265625,1.1862945556640625,0.0896453857421875
1772882771489941500,1.70794140625,-0.75445556640625,1.1264495849609375,0.0932159423828125
1772882771499874600,1.71787451171875,-0.7104949951171875,1.04144287109375,0.1218109130859375
1772882771509806600,1.727806640625,-0.628082275390625,0.9537353515625,0.1679534912109375
1772882771519739600,1.73773974609375,-0.5166473388671875,0.8804931640625,0.20843505859375
1772882771529672700,1.747672607421875,-0.3918304443359375,0.8162078857421875,0.247833251953125
1772882771539604500,1.7576044921875,-0.3026275634765625,0.772918701171875,0.267425537109375
1772882771549537500,1.76753759765625,-0.263946533203125,0.75396728515625,0.2714385986328125
1772882771559470300,1.77747021484375,-0.2783660888671875,0.7557373046875,0.25982666015625
1772882771569402400,1.78740234375,-0.3121795654296875,0.77215576171875,0.2447509765625
1772882771579335400,1.79733544921875,-0.3380584716796875,0.7480926513671875,0.2581939697265625
1772882771589268500,1.8072685546875,-0.3395538330078125,0.732696533203125,0.3004913330078125
1772882771599200500,1.817200439453125,-0.3282928466796875,0.6986846923828125,0.344573974609375
1772882771609133600,1.827133544921875,-0.3104705810546875,0.6687469482421875,0.38287353515625
1772882771619066400,1.83706640625,-0.2971038818359375,0.6356353759765625,0.425384521484375
1772882771628998400,1.846998291015625,-0.285064697265625,0.6256866455078125,0.459716796875
1772882771638931500,1.856931396484375,-0.2777862548828125,0.644439697265625,0.4835205078125
1772882771648864500,1.866864501953125,-0.2471923828125,0.68499755859375,0.4857177734375
1772882771658796500,1.876796630859375,-0.2477569580078125,0.7440185546875,0.437408447265625
1772882771668729600,1.8867294921875,-0.25537109375,0.814178466796875,0.3760986328125
1772882771678662700,1.89666259765625,-0.317169189453125,0.8773956298828125,0.3198089599609375
1772882771688594700,1.9065947265625,-0.4315032958984375,0.9300689697265625,0.270050048828125
1772882771698527500,1.916527587890625,-0.5787811279296875,0.9671630859375,0.2412109375
1772882771708460500,1.92646044921875,-0.7450408935546875,0.9829254150390625,0.237457275390625
1772882771718392600,1.936392578125,-0.8937530517578125,0.97357177734375,0.24725341796875
1772882771728325600,1.94632568359375,-1.0051422119140625,0.9405364990234375,0.26226806640625
1772882771738258700,1.9562587890625,-1.0590362548828125,0.8960723876953125,0.2473602294921875
1772882771748190700,1.966190673828125,-1.033477783203125,0.856414794921875,0.2159423828125
1772882771758123500,1.97612353515625,-0.95703125,0.80615234375,0.16986083984375
1772882771768056600,1.986056640625,-0.8459930419921875,0.7654876708984375,0.122772216796875
1772882771777988400,1.99598828125,-0.7293243408203125,0.722503662109375,0.0921478271484375
1772882771787921400,2.00592138671875,-0.6258544921875,0.696441650390625,0.069366455078125
1772882771797854500,2.0158544921875,-0.543243408203125,0.6919708251953125,0.0577392578125
1772882771807786500,2.025786376953125,-0.4784698486328125,0.6616363525390625,0.055267333984375
1772882771817719600,2.035719482421875,-0.423980712890625,0.6463775634765625,0.0733642578125
1772882771827652400,2.04565234375,-0.3787994384765625,0.6310577392578125,0.1075286865234375
1772882771837585400,2.05558544921875,-0.3535003662109375,0.6135406494140625,0.1531982421875
1772882771847517400,2.065517333984375,-0.3482818603515625,0.6079559326171875,0.1995391845703125
1772882771857450500,2.075450439453125,-0.3474578857421875,0.608734130859375,0.2514495849609375
1772882771867382500,2.085382568359375,-0.3483428955078125,0.6216583251953125,0.297027587890625
1772882771877315600,2.095315673828125,-0.35546875,0.635223388671875,0.3267364501953125
1772882771887248600,2.10524853515625,-0.375152587890625,0.6449432373046875,0.3473663330078125
1772882771897181400,2.115181396484375,-0.4163970947265625,0.6700897216796875,0.354736328125
1772882771907113500,2.125113525390625,-0.4727325439453125,0.7046661376953125,0.3388519287109375
1772882771917046500,2.135046630859375,-0.5369415283203125,0.729888916015625,0.307769775390625
1772882771926978600,2.144978515625,-0.6064300537109375,0.756591796875,0.273101806640625
1772882771936911600,2.15491162109375,-0.6670074462890625,0.7739105224609375,0.251373291015625
1772882771946844700,2.1648447265625,-0.70654296875,0.7646484375,0.2389373779296875
1772882771956777500,2.174777587890625,-0.7282562255859375,0.7589263916015625,0.2446441650390625
1772882771966709500,2.18470947265625,-0.7299957275390625,0.745025634765625,0.2566986083984375
1772882771976642600,2.194642578125,-0.718597412109375,0.726654052734375,0.25994873046875
1772882771986574300,2.20457421875,-0.703521728515625,0.7052459716796875,0.2600250244140625
1772882771996507400,2.21450732421875,-0.6938934326171875,0.684783935546875,0.2569427490234375
1772882772006440400,2.2244404296875,-0.6747283935546875,0.66522216796875,0.2527618408203125
1772882772016373500,2.23437353515625,-0.64959716796875,0.6445159912109375,0.2498931884765625
1772882772026305500,2.244305419921875,-0.625518798828125,0.6329345703125,0.24920654296875
1772882772036238300,2.25423828125,-0.6025390625,0.6220245361328125,0.2531585693359375
1772882772046170400,2.26417041015625,-0.5688323974609375,0.613494873046875,0.2473907470703125
1772882772056103400,2.274103515625,-0.5397796630859375,0.61212158203125,0.2462005615234375
1772882772066036500,2.284036376953125,-0.512847900390625,0.6179962158203125,0.2408599853515625
1772882772075969500,2.293969482421875,-0.492950439453125,0.625823974609375,0.2384490966796875
1772882772085901600,2.303901611328125,-0.4927215576171875,0.63885498046875,0.2520751953125
1772882772095834400,2.31383447265625,-0.5021209716796875,0.655914306640625,0.2706756591796875
1772882772105767400,2.323767333984375,-0.533599853515625,0.6688079833984375,0.288604736328125
1772882772115699200,2.33369921875,-0.571136474609375,0.6869049072265625,0.31097412109375
1772882772125632300,2.34363232421875,-0.609100341796875,0.708831787109375,0.32525634765625
1772882772135565300,2.3535654296875,-0.6459808349609375,0.7209320068359375,0.323944091796875
1772882772145497300,2.363497314453125,-0.675689697265625,0.72918701171875,0.3165130615234375
1772882772155430400,2.373430419921875,-0.705322265625,0.7369537353515625,0.3077850341796875
1772882772165363200,2.38336328125,-0.734588623046875,0.737396240234375,0.305694580078125
1772882772175295200,2.393295166015625,-0.7474212646484375,0.73291015625,0.30816650390625
1772882772185228300,2.403228271484375,-0.758575439453125,0.725921630859375,0.3219757080078125
1772882772195161300,2.413161376953125,-0.780181884765625,0.7088775634765625,0.3424224853515625
1772882772205093400,2.42309326171875,-0.7989959716796875,0.6850738525390625,0.357147216796875
1772882772215026400,2.4330263671875,-0.821563720703125,0.66668701171875,0.3480987548828125
1772882772224959500,2.44295947265625,-0.8275146484375,0.6560821533203125,0.32391357421875
1772882772234891500,2.4528916015625,-0.8339385986328125,0.6810302734375,0.283966064453125
1772882772244824300,2.46282421875,-0.895477294921875,0.788482666015625,0.1817779541015625
1772882772254757400,2.47275732421875,-0.947113037109375,0.8734130859375,0.0707550048828125
1772882772264689400,2.482689453125,-0.8728790283203125,0.9938812255859375,0.02056884765625
1772882772274622500,2.49262255859375,-0.731109619140625,1.137847900390625,0.010406494140625
1772882772284555500,2.502555419921875,-0.5995330810546875,1.185211181640625,0.0781097412109375
1772882772294487600,2.512487548828125,-0.45648193359375,1.1992340087890625,0.215087890625
1772882772304420400,2.52242041015625,-0.4066162109375,1.1991424560546875,0.33966064453125
1772882772314353400,2.532353515625,-0.4982147216796875,1.1427154541015625,0.4640655517578125
1772882772324285400,2.542285400390625,-0.6815948486328125,1.0451202392578125,0.5687255859375
1772882772334218500,2.552218505859375,-0.8739471435546875,0.9137420654296875,0.6710205078125
1772882772344151600,2.562151611328125,-1.00048828125,0.78753662109375,0.76385498046875
1772882772354083300,2.572083251953125,-1.0375213623046875,0.6997528076171875,0.7887420654296875
1772882772364016400,2.582016357421875,-0.9515838623046875,0.642059326171875,0.7197265625
1772882772373949200,2.59194921875,-0.724639892578125,0.6303253173828125,0.5628204345703125
1772882772383881200,2.601881103515625,-0.42059326171875,0.6589202880859375,0.3493194580078125
1772882772393814300,2.611814208984375,-0.120452880859375,0.7303619384765625,0.1231842041015625
1772882772403747300,2.621747314453125,0.1238861083984375,0.7798614501953125,-0.0687713623046875
1772882772413679400,2.631679443359375,0.2722930908203125,0.7987823486328125,-0.170074462890625
1772882772423612400,2.6416123046875,0.2827301025390625,0.794097900390625,-0.166412353515625
1772882772433545500,2.65154541015625,0.1960296630859375,0.7795867919921875,-0.08447265625
1772882772443477500,2.6614775390625,0.048614501953125,0.753021240234375,0.0557403564453125
1772882772453410300,2.671410400390625,-0.12249755859375,0.733612060546875,0.2081146240234375
1772882772463343400,2.68134326171875,-0.3113555908203125,0.7218170166015625,0.344757080078125
1772882772473275400,2.691275390625,-0.50006103515625,0.723724365234375,0.4656829833984375
1772882772483208400,2.70120849609375,-0.6680450439453125,0.7470855712890625,0.557037353515625
1772882772493141500,2.7111416015625,-0.7947845458984375,0.7912750244140625,0.598785400390625
1772882772503073500,2.721073486328125,-0.84356689453125,0.864044189453125,0.572418212890625
1772882772513006300,2.73100634765625,-0.793609619140625,0.9520416259765625,0.4713134765625
1772882772522939400,2.740939453125,-0.6880645751953125,1.014373779296875,0.3414459228515625
1772882772532871400,2.750871337890625,-0.6022186279296875,1.0548095703125,0.211944580078125
1772882772542804500,2.760804443359375,-0.5657501220703125,1.0728759765625,0.0962677001953125
1772882772552737500,2.770737548828125,-0.550140380859375,1.027801513671875,0.0272216796875
1772882772562669600,2.780669677734375,-0.52569580078125,0.959716796875,0.027008056640625
1772882772572602600,2.7906025390625,-0.49176025390625,0.879913330078125,0.0638275146484375
1772882772582535400,2.800535400390625,-0.455169677734375,0.786956787109375,0.109375
1772882772592467200,2.81046728515625,-0.412506103515625,0.7220611572265625,0.14422607421875
1772882772602400300,2.820400146484375,-0.378692626953125,0.6687164306640625,0.1737823486328125
1772882772612333300,2.830333251953125,-0.352935791015625,0.626800537109375,0.1962432861328125
1772882772622265300,2.840265380859375,-0.319854736328125,0.6278076171875,0.193145751953125
1772882772632198400,2.850198486328125,-0.296630859375,0.6417694091796875,0.1638641357421875
1772882772642131500,2.86013134765625,-0.3157501220703125,0.67523193359375,0.1376495361328125
1772882772652063500,2.8700634765625,-0.360382080078125,0.70928955078125,0.1362457275390625
1772882772661996300,2.879996337890625,-0.4186553955078125,0.73931884765625,0.1642913818359375
1772882772671929300,2.889929443359375,-0.477020263671875,0.7670135498046875,0.2032623291015625
1772882772681861400,2.899861328125,-0.531524658203125,0.7924957275390625,0.23773193359375
1772882772691794400,2.90979443359375,-0.5787811279296875,0.8191680908203125,0.2613372802734375
1772882772701727500,2.9197275390625,-0.61212158203125,0.8488311767578125,0.2740020751953125
1772882772711659500,2.929659423828125,-0.636199951171875,0.870574951171875,0.2940216064453125
1772882772721592300,2.93959228515625,-0.65716552734375,0.8758392333984375,0.317291259765625
1772882772731525400,2.949525390625,-0.66851806640625,0.8572540283203125,0.35479736328125
1772882772741457400,2.95945751953125,-0.672637939453125,0.8375701904296875,0.39569091796875
1772882772751390500,2.969390380859375,-0.6773223876953125,0.812713623046875,0.4199066162109375
1772882772761323500,2.979323486328125,-0.668670654296875,0.7782135009765625,0.4387969970703125
1772882772771255600,2.989255615234375,-0.6309356689453125,0.7777557373046875,0.4352569580078125
1772882772781188600,2.999188720703125,-0.575927734375,0.778167724609375,0.3975067138671875
1772882772791121400,3.009121337890625,-0.5178985595703125,0.7848052978515625,0.3327484130859375
1772882772801053200,3.01905322265625,-0.4661407470703125,0.807830810546875,0.25146484375
1772882772810986200,3.028986328125,-0.4112396240234375,0.837738037109375,0.1530609130859375
1772882772820919600,3.03891943359375,-0.37188720703125,0.8625946044921875,0.05987548828125
1772882772830851300,3.048851318359375,-0.3581085205078125,0.87713623046875,-0.0138092041015625
1772882772840784400,3.058784423828125,-0.3690185546875,0.8759002685546875,-0.039093017578125
1772882772850717200,3.06871728515625,-0.397369384765625,0.869354248046875,-0.0208282470703125
1772882772860649500,3.0786494140625,-0.439056396484375,0.851959228515625,0.017730712890625
1772882772870582300,3.088582275390625,-0.4783172607421875,0.817047119140625,0.0517425537109375
1772882772880515300,3.098515380859375,-0.494415283203125,0.7811737060546875,0.06414794921875
1772882772890447400,3.108447265625,-0.493499755859375,0.7710418701171875,0.050750732421875
1772882772900380400,3.11838037109375,-0.459747314453125,0.7865753173828125,0.0330810546875
1772882772910313500,3.1283134765625,-0.39105224609375,0.87005615234375,0.02801513671875
1772882772920245500,3.13824560546875,-0.2960357666015625,0.9989776611328125,0.05328369140625
1772882772930178300,3.14817822265625,-0.2298736572265625,1.10284423828125,0.1555023193359375
1772882772940111400,3.158111328125,-0.2769012451171875,1.227813720703125,0.2539520263671875
1772882772950043400,3.16804345703125,-0.4756317138671875,1.3095855712890625,0.29913330078125
1772882772959976400,3.1779765625,-0.7176666259765625,1.320098876953125,0.3215484619140625
1772882772969909500,3.187909423828125,-0.9122772216796875,1.320892333984375,0.33538818359375
1772882772979841500,3.197841552734375,-1.0309295654296875,1.2523651123046875,0.3500823974609375
1772882772989774600,3.207774658203125,-1.0219573974609375,1.095977783203125,0.4090728759765625
1772882772999707000,3.217706787109375,-0.9001922607421875,0.8985137939453125,0.53558349609375
1772882773009639000,3.227638916015625,-0.739288330078125,0.701751708984375,0.6847076416015625
1772882773019572000,3.237572021484375,-0.5675506591796875,0.563079833984375,0.803802490234375
1772882773029505000,3.247505126953125,-0.4142913818359375,0.501373291015625,0.8379364013671875
1772882773039437000,3.25743701171875,-0.288848876953125,0.501434326171875,0.782958984375
1772882773049370000,3.2673701171875,-0.20263671875,0.5762786865234375,0.63690185546875
1772882773059303200,3.27730322265625,-0.210662841796875,0.682861328125,0.4499053955078125
1772882773069235200,3.287235107421875,-0.285614013671875,0.8173828125,0.2755889892578125
1772882773079168000,3.29716796875,-0.3930511474609375,0.9353485107421875,0.1275482177734375
1772882773089101000,3.30710107421875,-0.5062408447265625,0.99066162109375,0.0345611572265625
1772882773099033000,3.317033203125,-0.6028289794921875,1.00262451171875,-0.0006561279296875
1772882773108966100,3.326966064453125,-0.6956939697265625,0.987762451171875,0.003265380859375
1772882773118899200,3.336899169921875,-0.77545166015625,0.936187744140625,0.0459136962890625
1772882773128831000,3.3468310546875,-0.8310394287109375,0.86285400390625,0.1053314208984375
1772882773138764000,3.356763916015625,-0.843292236328125,0.7863922119140625,0.1708831787109375
1772882773148697000,3.366697021484375,-0.8014984130859375,0.72442626953125,0.2185516357421875
1772882773158628900,3.37662890625,-0.716949462890625,0.6703948974609375,0.247833251953125
1772882773168562000,3.38656201171875,-0.6249542236328125,0.62994384765625,0.2577667236328125
1772882773178495000,3.396494873046875,-0.52056884765625,0.611480712890625,0.258056640625
1772882773188427000,3.406427001953125,-0.415771484375,0.5947418212890625,0.25872802734375
1772882773198360000,3.416360107421875,-0.3505401611328125,0.583587646484375,0.2679901123046875
1772882773208292900,3.42629296875,-0.3112945556640625,0.57781982421875,0.2868499755859375
1772882773218225000,3.436224853515625,-0.303070068359375,0.56591796875,0.3143463134765625
1772882773228158000,3.446157958984375,-0.3239898681640625,0.5656585693359375,0.34332275390625
1772882773238091000,3.456091064453125,-0.3755035400390625,0.566680908203125,0.366424560546875
1772882773248023000,3.46602294921875,-0.425750732421875,0.58642578125,0.375152587890625
1772882773257956000,3.4759560546875,-0.466705322265625,0.6088409423828125,0.355804443359375
1772882773267889000,3.485888916015625,-0.504638671875,0.63092041015625,0.3246917724609375
1772882773277821200,3.4958212890625,-0.5518951416015625,0.64990234375,0.29534912109375
1772882773287754000,3.50575390625,-0.5977783203125,0.67205810546875,0.2675628662109375
1772882773297687000,3.51568701171875,-0.6375579833984375,0.689910888671875,0.2396087646484375
1772882773307619000,3.525619140625,-0.6861572265625,0.699554443359375,0.2126312255859375
1772882773317552000,3.53555224609375,-0.7306365966796875,0.7099456787109375,0.1921844482421875
1772882773327485200,3.545485107421875,-0.773162841796875,0.719390869140625,0.1804962158203125
1772882773337418000,3.55541796875,-0.815673828125,0.7260284423828125,0.1785125732421875
1772882773347350000,3.56535009765625,-0.850341796875,0.731353759765625,0.178070068359375
1772882773357283000,3.575282958984375,-0.86181640625,0.7273101806640625,0.1773223876953125
1772882773367216000,3.585216064453125,-0.856292724609375,0.721527099609375,0.1676483154296875
1772882773377148000,3.59514794921875,-0.8350067138671875,0.710693359375,0.1605072021484375
1772882773387081000,3.6050810546875,-0.810455322265625,0.6858062744140625,0.1636505126953125
1772882773397014000,3.615013916015625,-0.77777099609375,0.6633758544921875,0.1702728271484375
1772882773406946000,3.624946044921875,-0.738189697265625,0.6338958740234375,0.1740570068359375
1772882773416878800,3.63487890625,-0.7087249755859375,0.6003875732421875,0.18597412109375
1772882773426812000,3.64481201171875,-0.68670654296875,0.58538818359375,0.1843109130859375
1772882773436744000,3.654743896484375,-0.6698760986328125,0.574371337890625,0.173492431640625
1772882773446677000,3.664677001953125,-0.6444244384765625,0.566314697265625,0.1565399169921875
1772882773456610000,3.674610107421875,-0.6218109130859375,0.577484130859375,0.144866943359375
1772882773466542000,3.6845419921875,-0.603240966796875,0.5812225341796875,0.163848876953125
1772882773476475000,3.694474853515625,-0.58905029296875,0.5788726806640625,0.209075927734375
1772882773486408000,3.704407958984375,-0.5856170654296875,0.5782623291015625,0.266571044921875
1772882773496340000,3.714340087890625,-0.5911712646484375,0.5859375,0.315277099609375
1772882773506273000,3.72427294921875,-0.6013946533203125,0.5978240966796875,0.3523406982421875
1772882773516206000,3.7342060546875,-0.6031646728515625,0.61334228515625,0.3816375732421875
1772882773526138000,3.74413818359375,-0.59796142578125,0.6272430419921875,0.41339111328125
1772882773536071200,3.7540712890625,-0.6093292236328125,0.63427734375,0.4418182373046875
1772882773546004000,3.76400390625,-0.6280670166015625,0.6399993896484375,0.4694366455078125
1772882773555936000,3.77393603515625,-0.653167724609375,0.64739990234375,0.49005126953125
1772882773565869000,3.783869140625,-0.6854705810546875,0.6532440185546875,0.488006591796875
1772882773575802000,3.793802001953125,-0.70257568359375,0.66339111328125,0.48828125
1772882773585734100,3.803734130859375,-0.7116546630859375,0.6494598388671875,0.485443115234375
1772882773595667200,3.813667236328125,-0.7213897705078125,0.6368408203125,0.4940185546875
1772882773605600000,3.82360009765625,-0.72174072265625,0.6192474365234375,0.5081329345703125
1772882773615532000,3.833531982421875,-0.718902587890625,0.6056365966796875,0.519744873046875
1772882773625464800,3.84346484375,-0.71832275390625,0.5936737060546875,0.531829833984375
1772882773635398000,3.85339794921875,-0.7129974365234375,0.58587646484375,0.533538818359375
1772882773645330000,3.863329833984375,-0.7468414306640625,0.6226806640625,0.5220184326171875
1772882773655263000,3.873262939453125,-0.8450164794921875,0.7205963134765625,0.442901611328125
1772882773665196000,3.883196044921875,-0.8907318115234375,0.799774169921875,0.3620452880859375
1772882773675128000,3.893128173828125,-0.8290863037109375,0.937835693359375,0.2716217041015625
1772882773685060900,3.903060791015625,-0.7132568359375,1.05224609375,0.176910400390625
1772882773694994000,3.912993896484375,-0.5854034423828125,1.119598388671875,0.1494598388671875
1772882773704926000,3.922926025390625,-0.4970855712890625,1.171051025390625,0.200836181640625
1772882773714859000,3.93285888671875,-0.5174407958984375,1.143035888671875,0.3082427978515625
1772882773724792000,3.9427919921875,-0.623016357421875,1.0796661376953125,0.4374847412109375
1772882773734724000,3.95272412109375,-0.79364013671875,1.00225830078125,0.573699951171875
1772882773744657200,3.9626572265625,-0.94903564453125,0.8752899169921875,0.654937744140625
1772882773754590000,3.97258984375,-1.025115966796875,0.7477569580078125,0.7111358642578125
1772882773764522000,3.98252197265625,-0.9863739013671875,0.6347503662109375,0.7609710693359375
1772882773774453000,3.992452880859375,-0.878265380859375,0.5714874267578125,0.7554931640625
1772882773784385800,4.0023857421875,-0.69500732421875,0.6223907470703125,0.606781005859375
1772882773794318800,4.01231884765625,-0.4696044921875,0.72735595703125,0.35296630859375
1772882773804251000,4.0222509765625,-0.2465972900390625,0.856048583984375,0.0608367919921875
1772882773814184000,4.032183837890625,-0.0644989013671875,0.9531402587890625,-0.1823883056640625
1772882773824117000,4.042116943359375,0.0373077392578125,1.01025390625,-0.313446044921875
1772882773834049000,4.052049072265625,0.0313873291015625,1.0457611083984375,-0.34698486328125
1772882773843982000,4.061982177734375,-0.0265960693359375,1.044677734375,-0.3169403076171875
1772882773853915000,4.071914794921875,-0.1134490966796875,0.99603271484375,-0.222442626953125
1772882773863847000,4.081846923828125,-0.214080810546875,0.9391632080078125,-0.0977630615234375
1772882773873780000,4.091780029296875,-0.32733154296875,0.891387939453125,0.0399017333984375
1772882773883713000,4.101713134765625,-0.45294189453125,0.8013916015625,0.175750732421875
1772882773893645000,4.11164501953125,-0.5735321044921875,0.7449493408203125,0.3165130615234375
1772882773903578000,4.121578125,-0.665130615234375,0.7029266357421875,0.4409637451171875
1772882773913511000,4.131510986328125,-0.7086334228515625,0.6913909912109375,0.5417633056640625
1772882773923443200,4.141443115234375,-0.6977386474609375,0.705078125,0.5821533203125
1772882773933376000,4.1513759765625,-0.633209228515625,0.74163818359375,0.5506134033203125
1772882773943309000,4.16130908203125,-0.545806884765625,0.7938385009765625,0.44500732421875
1772882773953241000,4.171240966796875,-0.4667510986328125,0.8594970703125,0.3214111328125
1772882773963174100,4.181174072265625,-0.42791748046875,0.8932647705078125,0.1966400146484375
1772882773973107200,4.191107177734375,-0.41082763671875,0.896575927734375,0.107666015625
1772882773983039200,4.201039306640625,-0.389892578125,0.85498046875,0.076019287109375
1772882773992972000,4.210971923828125,-0.3780059814453125,0.80621337890625,0.0769500732421875
1772882774002905000,4.220905029296875,-0.3561859130859375,0.7386474609375,0.1013031005859375
1772882774012837000,4.230837158203125,-0.3421630859375,0.6826629638671875,0.1629180908203125
1772882774022770200,4.240770263671875,-0.3365631103515625,0.651519775390625,0.2153167724609375
1772882774032703200,4.250703125,-0.3390655517578125,0.655029296875,0.22320556640625
1772882774042635300,4.26063525390625,-0.3371124267578125,0.6799774169921875,0.194000244140625
1772882774052568300,4.270568359375,-0.34466552734375,0.7078399658203125,0.1516265869140625
1772882774062501000,4.280501220703125,-0.390350341796875,0.7376251220703125,0.1181488037109375
1772882774072433200,4.29043310546875,-0.471710205078125,0.7750244140625,0.107330322265625
1772882774082366200,4.3003662109375,-0.5753173828125,0.8037109375,0.1105194091796875
1772882774092299300,4.31029931640625,-0.674591064453125,0.836090087890625,0.127593994140625
1772882774102231300,4.320231201171875,-0.7548675537109375,0.8625640869140625,0.1606292724609375
1772882774112164400,4.330164306640625,-0.7860870361328125,0.88153076171875,0.1837158203125
1772882774122097200,4.34009716796875,-0.7715606689453125,0.892364501953125,0.1935272216796875
1772882774132029200,4.350029296875,-0.7161102294921875,0.9075927734375,0.1881561279296875
1772882774141962000,4.3599619140625,-0.655914306640625,0.9101104736328125,0.1751251220703125
1772882774151896300,4.369896240234375,-0.594818115234375,0.8983306884765625,0.1697540283203125
1772882774161829000,4.3798291015625,-0.5287322998046875,0.8769378662109375,0.183258056640625
1772882774171761200,4.38976123046875,-0.4848480224609375,0.849578857421875,0.19415283203125
1772882774181694000,4.39969384765625,-0.4697113037109375,0.83673095703125,0.1909637451171875
1772882774191627300,4.409627197265625,-0.4490966796875,0.8245697021484375,0.2030181884765625
1772882774201559000,4.41955908203125,-0.4430999755859375,0.806182861328125,0.207916259765625
1772882774211492000,4.4294921875,-0.4354705810546875,0.795013427734375,0.233001708984375
1772882774221425200,4.439425048828125,-0.418121337890625,0.7703857421875,0.2808837890625
1772882774231357200,4.449357177734375,-0.420196533203125,0.7613067626953125,0.3083953857421875
1772882774241290000,4.4592900390625,-0.4189910888671875,0.76141357421875,0.3163299560546875
1772882774251223000,4.46922314453125,-0.4207916259765625,0.765625,0.2872772216796875
1772882774261155000,4.479155029296875,-0.4235992431640625,0.7753448486328125,0.2378692626953125
1772882774271088000,4.489088134765625,-0.42962646484375,0.78961181640625,0.1944427490234375
1772882774281021200,4.499021240234375,-0.4548187255859375,0.793060302734375,0.1551361083984375
1772882774290953200,4.508953125,-0.4929351806640625,0.800048828125,0.12591552734375
1772882774300886300,4.51888623046875,-0.5379791259765625,0.8017120361328125,0.107208251953125
1772882774310819000,4.528819091796875,-0.5797882080078125,0.800262451171875,0.1055450439453125
1772882774320751000,4.538751220703125,-0.613983154296875,0.79498291015625,0.1204376220703125
1772882774330684200,4.54868408203125,-0.6409149169921875,0.787109375,0.1504058837890625
1772882774340617200,4.5586171875,-0.6584014892578125,0.7841949462890625,0.1763763427734375
1772882774350549200,4.56854931640625,-0.660400390625,0.78851318359375,0.1919708251953125
1772882774360482300,4.578482421875,-0.660858154296875,0.7931365966796875,0.180694580078125
1772882774370415000,4.5884150390625,-0.64874267578125,0.7982635498046875,0.1545562744140625
1772882774380347100,4.59834716796875,-0.629486083984375,0.809112548828125,0.120758056640625
1772882774390280200,4.6082802734375,-0.6140594482421875,0.8206787109375,0.08349609375
1772882774400213200,4.618213134765625,-0.6049041748046875,0.827362060546875,0.060028076171875
1772882774410145000,4.62814501953125,-0.6052703857421875,0.8352203369140625,0.05706787109375
1772882774420078000,4.638078125,-0.6004638671875,0.8502197265625,0.0613250732421875
1772882774430011100,4.64801123046875,-0.58465576171875,0.8643646240234375,0.0681304931640625
1772882774439943200,4.657943115234375,-0.5810089111328125,0.8674163818359375,0.0792999267578125
1772882774449876000,4.6678759765625,-0.590667724609375,0.86090087890625,0.109222412109375
1772882774459809000,4.67780908203125,-0.6160430908203125,0.8498382568359375,0.1407012939453125
1772882774469741000,4.687740966796875,-0.64324951171875,0.85662841796875,0.1467742919921875
1772882774479674000,4.697674072265625,-0.6391754150390625,0.9016876220703125,0.1112213134765625
1772882774489607200,4.707607177734375,-0.6022796630859375,0.9618988037109375,0.0704498291015625
1772882774499539200,4.717539306640625,-0.5728912353515625,1.04925537109375,0.0777130126953125
1772882774509472300,4.72747216796875,-0.548736572265625,1.1376495361328125,0.1288299560546875
1772882774519405000,4.737405029296875,-0.5545196533203125,1.210906982421875,0.1710052490234375
1772882774529338000,4.747338134765625,-0.60565185546875,1.2469024658203125,0.184539794921875
1772882774539270100,4.757270263671875,-0.6754150390625,1.2573089599609375,0.1832733154296875
1772882774549203200,4.767203125,-0.71514892578125,1.2277374267578125,0.172393798828125
1772882774559136300,4.77713623046875,-0.711334228515625,1.15911865234375,0.171173095703125
1772882774569068300,4.787068359375,-0.666900634765625,1.0775299072265625,0.1722869873046875
1772882774579001000,4.7970009765625,-0.577880859375,0.978973388671875,0.1875
1772882774588934100,4.80693408203125,-0.46099853515625,0.8708343505859375,0.2381439208984375
1772882774598866200,4.8168662109375,-0.3713226318359375,0.7371063232421875,0.300872802734375
1772882774608799200,4.82679931640625,-0.2765655517578125,0.615875244140625,0.4096221923828125
1772882774618732300,4.836732177734375,-0.1910552978515625,0.5150604248046875,0.5116424560546875
1772882774628664300,4.846664306640625,-0.1454010009765625,0.4693603515625,0.585479736328125
1772882774638597400,4.856597412109375,-0.0432891845703125,0.5045166015625,0.64080810546875
1772882774648530200,4.8665302734375,0.0030059814453125,0.5637664794921875,0.6058807373046875
1772882774658462000,4.8764619140625,0.0093841552734375,0.65887451171875,0.5200042724609375
1772882774668395000,4.88639501953125,-0.022308349609375,0.779327392578125,0.4169464111328125
1772882774678328000,4.896328125,-0.1301727294921875,0.8900146484375,0.3060302734375
1772882774688260000,4.906260009765625,-0.27667236328125,0.99847412109375,0.204742431640625
1772882774698193200,4.916193115234375,-0.4516143798828125,1.06890869140625,0.129241943359375
1772882774708126000,4.9261259765625,-0.653533935546875,1.0957183837890625,0.09515380859375
1772882774718058000,4.93605810546875,-0.8644866943359375,1.088409423828125,0.100189208984375
1772882774727991000,4.945990966796875,-1.0592803955078125,1.0435028076171875,0.1222076416015625
1772882774737924000,4.955924072265625,-1.2151641845703125,0.9741058349609375,0.174346923828125
1772882774747856100,4.965856201171875,-1.2966461181640625,0.9102935791015625,0.2204742431640625
1772882774757789200,4.9757890625,-1.2705535888671875,0.84912109375,0.23028564453125
1772882774767722200,4.98572216796875,-1.1389312744140625,0.810302734375,0.1988983154296875
1772882774777654300,4.995654296875,-0.9567413330078125,0.76995849609375,0.14202880859375
1772882774787587000,5.005587158203125,-0.758819580078125,0.7263946533203125,0.0820465087890625
1772882774797520100,5.01552001953125,-0.589569091796875,0.6953125,0.04351806640625
1772882774807452200,5.0254521484375,-0.4663543701171875,0.6540679931640625,0.022430419921875
1772882774817385200,5.03538525390625,-0.385833740234375,0.6202850341796875,0.0388031005859375
1772882774827318300,5.045318359375,-0.3248443603515625,0.5952301025390625,0.08831787109375
1772882774837250300,5.055250244140625,-0.283233642578125,0.5619964599609375,0.1443023681640625
1772882774847183000,5.06518310546875,-0.260345458984375,0.5244598388671875,0.2162628173828125
1772882774857116200,5.0751162109375,-0.2508697509765625,0.501129150390625,0.2885284423828125
1772882774867048200,5.085048095703125,-0.2568206787109375,0.484405517578125,0.3460540771484375
1772882774876981200,5.094981201171875,-0.270843505859375,0.4795379638671875,0.391937255859375
1772882774886914300,5.104914306640625,-0.29608154296875,0.490692138671875,0.4069061279296875
1772882774896846000,5.11484619140625,-0.3408050537109375,0.5074462890625,0.4084930419921875
1772882774906779100,5.124779052734375,-0.376953125,0.540069580078125,0.3942413330078125
1772882774916712000,5.1347119140625,-0.4138946533203125,0.572906494140625,0.3621063232421875
1772882774926644000,5.14464404296875,-0.4542236328125,0.6021728515625,0.3108367919921875
1772882774936577000,5.154576904296875,-0.50201416015625,0.633026123046875,0.26226806640625
1772882774946510000,5.164510009765625,-0.55828857421875,0.652313232421875,0.2252960205078125
1772882774956443100,5.174443115234375,-0.626495361328125,0.6656646728515625,0.207061767578125
1772882774966375200,5.184375244140625,-0.692230224609375,0.679718017578125,0.19927978515625
1772882774976308200,5.19430810546875,-0.757965087890625,0.6885223388671875,0.19134521484375
1772882774986240300,5.204240234375,-0.8058013916015625,0.699462890625,0.1926727294921875
1772882774996173000,5.214173095703125,-0.82598876953125,0.7034454345703125,0.1924285888671875
1772882775006106000,5.224106201171875,-0.830841064453125,0.71246337890625,0.19293212890625
1772882775016039200,5.2340390625,-0.8308868408203125,0.712799072265625,0.1856231689453125
1772882775025971200,5.24397119140625,-0.8304901123046875,0.7157745361328125,0.1824188232421875
1772882775035904300,5.253904296875,-0.825897216796875,0.715423583984375,0.1835174560546875
1772882775045837000,5.263837158203125,-0.822601318359375,0.71160888671875,0.19219970703125
1772882775055769000,5.27376904296875,-0.822052001953125,0.71575927734375,0.2082061767578125
1772882775065702100,5.2837021484375,-0.8137664794921875,0.72021484375,0.2268218994140625
1772882775075635200,5.29363525390625,-0.7806854248046875,0.716339111328125,0.242919921875
1772882775085567200,5.303567138671875,-0.7312469482421875,0.7112884521484375,0.262359619140625
1772882775095500300,5.313500244140625,-0.683807373046875,0.711944580078125,0.2909393310546875
1772882775105433300,5.323433349609375,-0.653472900390625,0.702362060546875,0.316131591796875
1772882775115365400,5.333365478515625,-0.6531982421875,0.674774169921875,0.346893310546875
1772882775125298200,5.343298095703125,-0.68902587890625,0.64813232421875,0.393768310546875
1772882775135231200,5.353231201171875,-0.7612457275390625,0.6614837646484375,0.414764404296875
1772882775145163300,5.363163330078125,-0.8922271728515625,0.714385986328125,0.3774871826171875
1772882775155096300,5.373096435546875,-0.931243896484375,0.8014068603515625,0.307891845703125
1772882775165029400,5.383029296875,-0.8892059326171875,0.97515869140625,0.229400634765625
1772882775174961200,5.392961181640625,-0.82574462890625,1.1193084716796875,0.1450653076171875
1772882775184894200,5.402894287109375,-0.7601318359375,1.2031097412109375,0.1294403076171875
1772882775194827000,5.412826904296875,-0.7200775146484375,1.1875152587890625,0.20367431640625
1772882775204759000,5.422759033203125,-0.73785400390625,1.0880889892578125,0.3586273193359375
1772882775214692000,5.432692138671875,-0.800689697265625,0.97235107421875,0.5447540283203125
1772882775224625200,5.442625244140625,-0.8733367919921875,0.8826904296875,0.6843109130859375
1772882775234557200,5.45255712890625,-0.8926544189453125,0.82147216796875,0.725372314453125
1772882775244490200,5.462490234375,-0.8193359375,0.790771484375,0.64556884765625
1772882775254423000,5.472423095703125,-0.689483642578125,0.767578125,0.5292205810546875
1772882775264355000,5.48235498046875,-0.5355682373046875,0.7714385986328125,0.402313232421875
1772882775274288000,5.4922880859375,-0.3536529541015625,0.805328369140625,0.2659912109375
1772882775284221200,5.50222119140625,-0.189971923828125,0.84014892578125,0.134307861328125
1772882775294153200,5.5121533203125,-0.0699615478515625,0.867462158203125,0.0240631103515625
1772882775304086300,5.522086181640625,0.0217437744140625,0.865753173828125,-0.012786865234375
1772882775314019300,5.532019287109375,0.0771484375,0.8267974853515625,0.0200347900390625
1772882775323951400,5.541951416015625,0.0811767578125,0.7723846435546875,0.130126953125
1772882775333884200,5.55188427734375,0.04791259765625,0.7121734619140625,0.3017120361328125
1772882775343817200,5.561817138671875,-0.0389404296875,0.6619415283203125,0.475189208984375
1772882775353749200,5.571749267578125,-0.145233154296875,0.66143798828125,0.5975799560546875
1772882775363682300,5.581682373046875,-0.27392578125,0.6894683837890625,0.655670166015625
1772882775373615400,5.591615478515625,-0.3993377685546875,0.7423858642578125,0.6480865478515625
1772882775383548200,5.601548095703125,-0.5361480712890625,0.814361572265625,0.5875091552734375
1772882775393480200,5.611480224609375,-0.6504974365234375,0.8772430419921875,0.4947662353515625
1772882775403413200,5.621413330078125,-0.7215423583984375,0.9178466796875,0.38665771484375
1772882775413346300,5.63134619140625,-0.758544921875,0.926513671875,0.2723846435546875
1772882775423278000,5.641278076171875,-0.7617645263671875,0.9120025634765625,0.16259765625
1772882775433211100,5.651211181640625,-0.740234375,0.8815460205078125,0.070892333984375
1772882775443144200,5.661144287109375,-0.6886138916015625,0.848297119140625,0.0296173095703125
1772882775453076200,5.671076171875,-0.6161956787109375,0.8355712890625,0.0129547119140625
1772882775463009000,5.681009033203125,-0.5388946533203125,0.8448028564453125,0.0035400390625
1772882775472942000,5.690942138671875,-0.5003662109375,0.8358306884765625,-0.0224151611328125
1772882775482874000,5.7008740234375,-0.480926513671875,0.8222808837890625,-0.0496368408203125
1772882775492807200,5.71080712890625,-0.4801788330078125,0.8180999755859375,-0.0538177490234375
1772882775502740200,5.720740234375,-0.5252532958984375,0.791717529296875,-0.027679443359375
1772882775512672300,5.73067236328125,-0.587982177734375,0.7780914306640625,0.035247802734375
1772882775522605000,5.74060498046875,-0.6543121337890625,0.786346435546875,0.097412109375
1772882775532538000,5.7505380859375,-0.6962890625,0.8145294189453125,0.1289215087890625
1772882775542470100,5.76047021484375,-0.712890625,0.851593017578125,0.1392364501953125
1772882775552403200,5.7704033203125,-0.720977783203125,0.8751373291015625,0.1506195068359375
1772882775562336300,5.780336181640625,-0.705322265625,0.8799591064453125,0.1495208740234375
1772882775572268300,5.790268310546875,-0.6813812255859375,0.8768157958984375,0.143646240234375
1772882775582201300,5.800201416015625,-0.642425537109375,0.853607177734375,0.1488037109375
1772882775592134100,5.810134033203125,-0.6095123291015625,0.813812255859375,0.174346923828125
1772882775602066200,5.820066162109375,-0.584320068359375,0.778900146484375,0.1988067626953125
1772882775611999200,5.829999267578125,-0.5654296875,0.7521514892578125,0.2127685546875
1772882775621932300,5.839932373046875,-0.5455780029296875,0.74627685546875,0.2115936279296875
1772882775631864300,5.8498642578125,-0.54052734375,0.7495574951171875,0.19586181640625
1772882775641797400,5.85979736328125,-0.5490264892578125,0.7613983154296875,0.1798553466796875
1772882775651730200,5.869730224609375,-0.5566253662109375,0.7916259765625,0.14715576171875
1772882775661662200,5.879662109375,-0.551666259765625,0.834320068359375,0.0998992919921875
1772882775671595000,5.889594970703125,-0.526702880859375,0.83575439453125,0.0597991943359375
1772882775681528000,5.899528076171875,-0.5330047607421875,0.8589324951171875,0.0315093994140625
1772882775691460000,5.909460205078125,-0.5489349365234375,0.862152099609375,0.01361083984375
1772882775701393200,5.91939306640625,-0.58905029296875,0.8514862060546875,0.0306549072265625
1772882775711326200,5.929326171875,-0.6183319091796875,0.846893310546875,0.0522308349609375
1772882775721259000,5.939259033203125,-0.6293487548828125,0.8329925537109375,0.075469970703125
1772882775731191000,5.94919091796875,-0.6272735595703125,0.8349609375,0.0788116455078125
1772882775741124000,5.9591240234375,-0.6122894287109375,0.83612060546875,0.0602264404296875
1772882775751057200,5.96905712890625,-0.58172607421875,0.8354339599609375,0.0399627685546875
1772882775760989200,5.9789892578125,-0.5418548583984375,0.8438720703125,0.0232696533203125
1772882775770922200,5.988922119140625,-0.5032958984375,0.83660888671875,-0.0006561279296875
1772882775780855300,5.998855224609375,-0.478759765625,0.82952880859375,-0.0200042724609375
1772882775790787300,6.008787353515625,-0.4587249755859375,0.825714111328125,-0.020751953125
1772882775800720100,6.01872021484375,-0.4488525390625,0.82293701171875,0.02105712890625
1772882775810653200,6.028653076171875,-0.4632568359375,0.8192901611328125,0.0717010498046875
1772882775820585200,6.038585205078125,-0.4845733642578125,0.8199920654296875,0.1114501953125
1772882775830518300,6.048518310546875,-0.5092010498046875,0.8248443603515625,0.14788818359375
1772882775840451300,6.058451416015625,-0.5525360107421875,0.8300628662109375,0.1820831298828125
1772882775850383400,6.06838330078125,-0.6160888671875,0.836700439453125,0.2076568603515625
1772882775860316200,6.078316162109375,-0.6620941162109375,0.8497467041015625,0.2304229736328125
1772882775870249200,6.088249267578125,-0.684600830078125,0.863494873046875,0.23699951171875
1772882775880181000,6.098180908203125,-0.6869659423828125,0.8696441650390625,0.22491455078125
1772882775890114300,6.1081142578125,-0.6744842529296875,0.877197265625,0.20025634765625
1772882775900047400,6.11804736328125,-0.6575469970703125,0.8833465576171875,0.179718017578125
1772882775909979100,6.127979248046875,-0.6478424072265625,0.8877716064453125,0.1653289794921875
1772882775919912200,6.137912109375,-0.6472625732421875,0.886199951171875,0.1657867431640625
1772882775929845000,6.147844970703125,-0.6450653076171875,0.8777008056640625,0.1826629638671875
1772882775939777000,6.157777099609375,-0.6505279541015625,0.858306884765625,0.2158966064453125
1772882775949710000,6.1677099609375,-0.65576171875,0.8319244384765625,0.2674560546875
1772882775959643100,6.17764306640625,-0.6697540283203125,0.8158416748046875,0.336181640625
1772882775969575200,6.1875751953125,-0.679534912109375,0.7910003662109375,0.3867645263671875
1772882775979508200,6.19750830078125,-0.6816558837890625,0.7817535400390625,0.4086761474609375
1772882775989441300,6.207441162109375,-0.6746063232421875,0.778564453125,0.379425048828125
1772882775999373300,6.217373291015625,-0.6597137451171875,0.7879638671875,0.313568115234375
1772882776009306000,6.22730615234375,-0.643951416015625,0.791290283203125,0.2242889404296875
1772882776019239200,6.2372392578125,-0.6319122314453125,0.7890625,0.1381683349609375
1772882776029171200,6.247171142578125,-0.60791015625,0.7772064208984375,0.077423095703125
1772882776039104300,6.257104248046875,-0.585693359375,0.738922119140625,0.0547027587890625
1772882776049037300,6.267037353515625,-0.56036376953125,0.6766204833984375,0.0802001953125
1772882776058970000,6.27697021484375,-0.536224365234375,0.59564208984375,0.152984619140625
1772882776068902100,6.286902099609375,-0.5528106689453125,0.532257080078125,0.2320709228515625
1772882776078835200,6.296835205078125,-0.6067352294921875,0.494110107421875,0.2776641845703125
1772882776088768300,6.306768310546875,-0.6590576171875,0.495880126953125,0.2773590087890625
1772882776098700300,6.3167001953125,-0.6866912841796875,0.5219268798828125,0.230224609375
1772882776108633300,6.32663330078125,-0.6879425048828125,0.562042236328125,0.16546630859375
1772882776118566400,6.33656640625,-0.6874237060546875,0.598297119140625,0.100189208984375
1772882776128498400,6.34649853515625,-0.70379638671875,0.623748779296875,0.049102783203125
1772882776138431200,6.35643115234375,-0.7406005859375,0.654327392578125,0.0142364501953125
1772882776148364300,6.3663642578125,-0.7822418212890625,0.6894073486328125,-0.011749267578125
1772882776158296300,6.37629638671875,-0.8238525390625,0.7022857666015625,-0.017242431640625
1772882776168229400,6.3862294921875,-0.8655242919921875,0.697113037109375,-0.0037994384765625
1772882776178162400,6.396162353515625,-0.8914031982421875,0.6885223388671875,0.0293731689453125
1772882776188094500,6.406094482421875,-0.9080810546875,0.6706085205078125,0.0770263671875
1772882776198027300,6.41602734375,-0.9124755859375,0.6510162353515625,0.1327972412109375
1772882776207960300,6.425960205078125,-0.894500732421875,0.6265716552734375,0.1937103271484375
1772882776217892000,6.43589208984375,-0.853240966796875,0.6027374267578125,0.24945068359375
1772882776227825200,6.4458251953125,-0.80804443359375,0.5825958251953125,0.287994384765625
1772882776237758200,6.45575830078125,-0.76806640625,0.580291748046875,0.3162689208984375
1772882776247690200,6.465690185546875,-0.7476806640625,0.575531005859375,0.3173828125
1772882776257623300,6.475623291015625,-0.732635498046875,0.572662353515625,0.3175506591796875
1772882776267556000,6.48555615234375,-0.7106781005859375,0.57440185546875,0.3220672607421875
1772882776277488000,6.495488037109375,-0.6972808837890625,0.5637969970703125,0.325531005859375
1772882776287421200,6.505421142578125,-0.6996307373046875,0.5521087646484375,0.3337249755859375
1772882776297354200,6.515354248046875,-0.713836669921875,0.540496826171875,0.3396453857421875
1772882776307286300,6.525286376953125,-0.719451904296875,0.536407470703125,0.3416748046875
1772882776317219300,6.53521923828125,-0.7118072509765625,0.5268096923828125,0.3478851318359375
1772882776327152000,6.545152099609375,-0.6925811767578125,0.5100250244140625,0.3471221923828125
1772882776337085200,6.555085205078125,-0.669921875,0.501007080078125,0.3343505859375
1772882776347017200,6.565017333984375,-0.660675048828125,0.500335693359375,0.311553955078125
1772882776356950300,6.5749501953125,-0.6674652099609375,0.5106048583984375,0.2779998779296875
1772882776366883300,6.58488330078125,-0.6861572265625,0.52532958984375,0.246185302734375
1772882776376815400,6.5948154296875,-0.7064208984375,0.537994384765625,0.2207489013671875
1772882776386748400,6.60474853515625,-0.73541259765625,0.5484771728515625,0.217987060546875
1772882776396681200,6.61468115234375,-0.7759552001953125,0.5457916259765625,0.237213134765625
1772882776406613200,6.62461328125,-0.8018035888671875,0.5335845947265625,0.250885009765625
1772882776416546300,6.63454638671875,-0.820465087890625,0.520599365234375,0.263885498046875
1772882776426479400,6.644479248046875,-0.8259429931640625,0.5083160400390625,0.2772979736328125
1772882776436411400,6.654411376953125,-0.817291259765625,0.5001373291015625,0.2793121337890625
1772882776446344400,6.664344482421875,-0.804534912109375,0.506805419921875,0.2723236083984375
1772882776456277200,6.67427734375,-0.794525146484375,0.5050506591796875,0.2722015380859375
1772882776466209300,6.684209228515625,-0.791748046875,0.4975128173828125,0.2747650146484375
1772882776476142000,6.69414208984375,-0.79754638671875,0.4928436279296875,0.2657470703125
1772882776486075100,6.7040751953125,-0.8145294189453125,0.4897003173828125,0.2447967529296875
1772882776496007200,6.714007080078125,-0.828521728515625,0.4893798828125,0.22772216796875
1772882776505940200,6.723940185546875,-0.8374481201171875,0.4931488037109375,0.2064971923828125
1772882776515873300,6.733873291015625,-0.839019775390625,0.49676513671875,0.1945037841796875
1772882776525805300,6.743805419921875,-0.8191986083984375,0.4918212890625,0.18994140625
1772882776535738000,6.753738037109375,-0.8040008544921875,0.484375,0.1916961669921875
1772882776545671200,6.763671142578125,-0.7873077392578125,0.4844818115234375,0.201629638671875
1772882776555603200,6.773603271484375,-0.7771148681640625,0.4816436767578125,0.2176971435546875
1772882776565536300,6.783536376953125,-0.767608642578125,0.480743408203125,0.2451171875
1772882776575469300,6.79346923828125,-0.765655517578125,0.4795074462890625,0.2883148193359375
1772882776585402400,6.80340234375,-0.7841949462890625,0.479522705078125,0.339324951171875
1772882776595334400,6.81333447265625,-0.80804443359375,0.4757080078125,0.3965301513671875
1772882776605267200,6.82326708984375,-0.835601806640625,0.471282958984375,0.4422760009765625
1772882776615199200,6.83319921875,-0.8651580810546875,0.472930908203125,0.4703521728515625
1772882776625132300,6.84313232421875,-0.8968505859375,0.4894866943359375,0.4747467041015625
1772882776635065300,6.8530654296875,-0.9618988037109375,0.5787506103515625,0.431854248046875
1772882776644998400,6.862998291015625,-1.0029754638671875,0.67401123046875,0.32684326171875
1772882776654930400,6.872930419921875,-0.940216064453125,0.7578582763671875,0.3003387451171875
1772882776664863200,6.88286328125,-0.8404083251953125,0.8977813720703125,0.2587890625
1772882776674796300,6.89279638671875,-0.7798309326171875,0.9877166748046875,0.214080810546875
1772882776684728300,6.902728271484375,-0.7195281982421875,1.0507965087890625,0.221527099609375
1772882776694661400,6.912661376953125,-0.7046966552734375,1.0552520751953125,0.30517578125
1772882776704594400,6.922594482421875,-0.82073974609375,0.867645263671875,0.4517059326171875
1772882776714526200,6.932526123046875,-0.9635009765625,0.7085418701171875,0.6470947265625
1772882776724459300,6.942459228515625,-1.1019287109375,0.6324005126953125,0.742889404296875
1772882776734392000,6.95239208984375,-1.197723388671875,0.5081939697265625,0.7152862548828125
1772882776744324000,6.962323974609375,-1.203765869140625,0.525543212890625,0.6500244140625
1772882776754257200,6.972257080078125,-1.092987060546875,0.6049041748046875,0.4782562255859375
1772882776764190200,6.982190185546875,-0.887237548828125,0.682342529296875,0.27142333984375
1772882776774122200,6.992122314453125,-0.6563568115234375,0.7944488525390625,0.0550994873046875
1772882776784055300,7.00205517578125,-0.467498779296875,0.8751983642578125,-0.132293701171875
1772882776793988400,7.01198828125,-0.328521728515625,0.9305877685546875,-0.2645263671875
1772882776803920400,7.02192041015625,-0.2446441650390625,0.9594268798828125,-0.34844970703125
1772882776813853200,7.031853271484375,-0.201324462890625,0.9671173095703125,-0.3653717041015625
1772882776823786200,7.0417861328125,-0.207000732421875,0.925018310546875,-0.330474853515625
1772882776833718300,7.05171826171875,-0.2710723876953125,0.849273681640625,-0.232421875
1772882776843651300,7.0616513671875,-0.3853912353515625,0.7587127685546875,-0.0850677490234375
1772882776853584400,7.07158447265625,-0.5395050048828125,0.6696319580078125,0.0924835205078125
1772882776863517200,7.08151708984375,-0.6884002685546875,0.5913238525390625,0.2634429931640625
1772882776873449200,7.09144921875,-0.8095703125,0.5366363525390625,0.412750244140625
1772882776883382300,7.10138232421875,-0.8632659912109375,0.529510498046875,0.5356903076171875
1772882776893315300,7.1113154296875,-0.84527587890625,0.5515289306640625,0.566619873046875
1772882776903247400,7.121247314453125,-0.772857666015625,0.6082916259765625,0.5109710693359375
1772882776913180400,7.131180419921875,-0.6988372802734375,0.6280975341796875,0.3740386962890625
1772882776923113500,7.141113525390625,-0.5869598388671875,0.6885223388671875,0.3062896728515625
1772882776933045500,7.15104541015625,-0.5026092529296875,0.6956634521484375,0.2298583984375
1772882776942978300,7.160978271484375,-0.45361328125,0.7169189453125,0.1567840576171875
1772882776952911400,7.170911376953125,-0.4211273193359375,0.69903564453125,0.1203460693359375
1772882776962843100,7.180843017578125,-0.4224700927734375,0.6827392578125,0.11322021484375
1772882776972776200,7.190776123046875,-0.461822509765625,0.63836669921875,0.1158599853515625
1772882776982709200,7.200709228515625,-0.51123046875,0.6194610595703125,0.1468505859375
1772882776992641300,7.210641357421875,-0.5754547119140625,0.6109466552734375,0.15966796875
1772882777002574000,7.220573974609375,-0.6374359130859375,0.604248046875,0.1471099853515625
1772882777012507000,7.2305068359375,-0.6805572509765625,0.609588623046875,0.1221466064453125
1772882777022439000,7.24043896484375,-0.7134857177734375,0.6204833984375,0.092193603515625
1772882777032372000,7.2503720703125,-0.740509033203125,0.627105712890625,0.0750732421875
1772882777042305000,7.260304931640625,-0.776611328125,0.640411376953125,0.0638275146484375
1772882777052236800,7.27023681640625,-0.8117523193359375,0.65325927734375,0.07672119140625
1772882777062169900,7.280169921875,-0.8467254638671875,0.659027099609375,0.092254638671875
1772882777072103000,7.29010302734375,-0.885345458984375,0.66644287109375,0.1004180908203125
1772882777082035700,7.30003564453125,-0.9060821533203125,0.669342041015625,0.1074066162109375
1772882777091967700,7.3099677734375,-0.9102935791015625,0.67144775390625,0.1103057861328125
1772882777101900800,7.31990087890625,-0.886871337890625,0.6839447021484375,0.09307861328125
1772882777111833900,7.329833740234375,-0.847076416015625,0.696929931640625,0.0672607421875
1772882777121766000,7.339765869140625,-0.7960968017578125,0.7138519287109375,0.0491485595703125
1772882777131699000,7.349698974609375,-0.7453155517578125,0.714202880859375,0.0298004150390625
1772882777141631700,7.3596318359375,-0.7025299072265625,0.70806884765625,0.02349853515625
1772882777151563800,7.369563720703125,-0.68243408203125,0.6971282958984375,0.044952392578125
1772882777161496800,7.379496826171875,-0.686431884765625,0.678436279296875,0.0748291015625
1772882777171430000,7.389429931640625,-0.7024383544921875,0.66595458984375,0.10406494140625
1772882777181362000,7.39936181640625,-0.70977783203125,0.6513824462890625,0.124237060546875
1772882777191295000,7.409294921875,-0.7262420654296875,0.6368255615234375,0.14031982421875
1772882777201227800,7.419227783203125,-0.736358642578125,0.62261962890625,0.148773193359375
1772882777211160000,7.42916015625,-0.7317962646484375,0.612335205078125,0.1429290771484375
1772882777221092900,7.4390927734375,-0.7092132568359375,0.608001708984375,0.1307373046875
1772882777231026000,7.44902587890625,-0.6828460693359375,0.6076812744140625,0.1121978759765625
1772882777240958000,7.4589580078125,-0.667938232421875,0.6152801513671875,0.09417724609375
1772882777250891000,7.46889111328125,-0.667724609375,0.6280975341796875,0.075958251953125
1772882777260824000,7.478823974609375,-0.686431884765625,0.6393890380859375,0.0678863525390625
1772882777270756000,7.488756103515625,-0.7091522216796875,0.6511383056640625,0.0653533935546875
1772882777280689000,7.49868896484375,-0.72900390625,0.660675048828125,0.06573486328125
1772882777290622000,7.5086220703125,-0.747894287109375,0.66455078125,0.0745086669921875
1772882777300555000,7.518554931640625,-0.763031005859375,0.66033935546875,0.09600830078125
1772882777310486800,7.52848681640625,-0.7802886962890625,0.6611328125,0.1222991943359375
1772882777320419800,7.538419921875,-0.7889404296875,0.6776580810546875,0.14306640625
1772882777330353000,7.548352783203125,-0.7922821044921875,0.7079620361328125,0.1538848876953125
1772882777340285000,7.558284912109375,-0.7983245849609375,0.7379150390625,0.158843994140625
1772882777350217700,7.5682177734375,-0.8080596923828125,0.7610626220703125,0.1550750732421875
1772882777360150800,7.57815087890625,-0.816741943359375,0.7745819091796875,0.1529388427734375
1772882777370082800,7.588082763671875,-0.8212738037109375,0.771392822265625,0.146820068359375
1772882777380015900,7.598015869140625,-0.82366943359375,0.751800537109375,0.143524169921875
1772882777389949000,7.607948974609375,-0.82391357421875,0.7418365478515625,0.1397857666015625
1772882777399881000,7.617880859375,-0.8160247802734375,0.753631591796875,0.10784912109375
1772882777409813800,7.627813720703125,-0.7901611328125,0.7960662841796875,0.06146240234375
1772882777419746800,7.637746826171875,-0.746002197265625,0.847869873046875,0.0319671630859375
1772882777429678800,7.647678955078125,-0.7193450927734375,0.9027862548828125,0.029144287109375
1772882777439612000,7.65761181640625,-0.7189788818359375,0.9590911865234375,0.0337982177734375
1772882777449545000,7.667544921875,-0.7426910400390625,0.99609375,0.0212249755859375
1772882777459477000,7.67747705078125,-0.7803955078125,0.9989013671875,0.010528564453125
1772882777469410000,7.68741015625,-0.8165740966796875,0.97613525390625,0.012603759765625
1772882777479342800,7.6973427734375,-0.82244873046875,0.930633544921875,0.0312652587890625
1772882777489276000,7.70727587890625,-0.7913665771484375,0.8864288330078125,0.0736846923828125
1772882777499208000,7.7172080078125,-0.7267303466796875,0.816436767578125,0.099700927734375
1772882777509141000,7.72714111328125,-0.654510498046875,0.689727783203125,0.179473876953125
1772882777519074000,7.737073974609375,-0.5476837158203125,0.6516876220703125,0.3649139404296875
1772882777529006000,7.747006103515625,-0.522369384765625,0.529632568359375,0.4322509765625
1772882777538939000,7.75693896484375,-0.4622344970703125,0.50653076171875,0.548248291015625
1772882777548872000,7.766871826171875,-0.3980712890625,0.4987945556640625,0.649017333984375
1772882777558803700,7.7768037109375,-0.425506591796875,0.5652313232421875,0.5775146484375
1772882777568736800,7.78673681640625,-0.425689697265625,0.6528778076171875,0.50274658203125
1772882777578669800,7.796669921875,-0.4460296630859375,0.6993255615234375,0.427764892578125
1772882777588601900,7.806601806640625,-0.5199737548828125,0.773468017578125,0.3387908935546875
1772882777598535000,7.816534912109375,-0.59051513671875,0.8108062744140625,0.26611328125
1772882777608467700,7.8264677734375,-0.6955718994140625,0.8461151123046875,0.197509765625
1772882777618399700,7.836399658203125,-0.8082733154296875,0.862091064453125,0.1412811279296875
1772882777628332800,7.846332763671875,-0.9259490966796875,0.8415679931640625,0.115325927734375
1772882777638265900,7.856265869140625,-1.0327606201171875,0.7822265625,0.1401214599609375
1772882777648198000,7.866197998046875,-1.10443115234375,0.726715087890625,0.1746826171875
1772882777658131000,7.876130859375,-1.1437530517578125,0.6702117919921875,0.2143096923828125
1772882777668064000,7.88606396484375,-1.1522979736328125,0.620697021484375,0.2394561767578125
1772882777677996000,7.89599609375,-1.105133056640625,0.59417724609375,0.237640380859375
1772882777687928800,7.9059287109375,-0.99664306640625,0.577362060546875,0.2192535400390625
1772882777697862000,7.91586181640625,-0.86871337890625,0.5709991455078125,0.1869659423828125
1772882777707795000,7.925794921875,-0.7493438720703125,0.5746612548828125,0.1482086181640625
1772882777717727000,7.93572705078125,-0.63629150390625,0.5839385986328125,0.1163177490234375
1772882777727660000,7.945659912109375,-0.55303955078125,0.57818603515625,0.1028900146484375
1772882777737592800,7.9555927734375,-0.5009307861328125,0.56292724609375,0.11297607421875
1772882777747524900,7.96552490234375,-0.4774322509765625,0.5442657470703125,0.135345458984375
1772882777757458000,7.9754580078125,-0.4801483154296875,0.5236968994140625,0.16815185546875
1772882777767391000,7.985390869140625,-0.5019378662109375,0.500030517578125,0.207183837890625
1772882777777321700,7.99532177734375,-0.52508544921875,0.4794769287109375,0.2476043701171875
1772882777787254800,8.0052548828125,-0.5442657470703125,0.4676971435546875,0.285064697265625
1772882777797187800,8.015187744140626,-0.5640106201171875,0.471466064453125,0.299163818359375
1772882777807120000,8.025119873046876,-0.584716796875,0.488250732421875,0.294708251953125
1772882777817053000,8.035052978515624,-0.6158599853515625,0.5050506591796875,0.2913055419921875
1772882777826985700,8.04498583984375,-0.6556243896484375,0.5264434814453125,0.2938995361328125
1772882777836917800,8.054917724609375,-0.701904296875,0.546356201171875,0.2992706298828125
1772882777846850800,8.064850830078125,-0.7474822998046875,0.5517425537109375,0.31024169921875
1772882777856784000,8.074783935546876,-0.791412353515625,0.5504608154296875,0.32537841796875
1772882777866716000,8.0847158203125,-0.8224029541015625,0.5508575439453125,0.3271636962890625
1772882777876649000,8.09464892578125,-0.8460693359375,0.547027587890625,0.31671142578125
1772882777886582000,8.10458203125,-0.871063232421875,0.5474090576171875,0.3044281005859375
1772882777896514000,8.11451416015625,-0.8767547607421875,0.5456390380859375,0.284881591796875
1772882777906446800,8.12444677734375,-0.8582305908203125,0.539764404296875,0.2499237060546875
1772882777916380000,8.1343798828125,-0.82275390625,0.5276336669921875,0.212371826171875
1772882777926312000,8.14431201171875,-0.78143310546875,0.51336669921875,0.1865692138671875
1772882777936245000,8.154244873046874,-0.7462158203125,0.494659423828125,0.16143798828125
1772882777946178000,8.164177978515625,-0.7307891845703125,0.473480224609375,0.156005859375
1772882777956110000,8.174110107421875,-0.720611572265625,0.468475341796875,0.1663665771484375
1772882777966043000,8.18404296875,-0.712921142578125,0.4686737060546875,0.1710205078125
1772882777975976000,8.193975830078125,-0.706817626953125,0.478240966796875,0.168060302734375
1772882777985907700,8.20390771484375,-0.710052490234375,0.4874114990234375,0.16168212890625
1772882777995840800,8.2138408203125,-0.724365234375,0.495391845703125,0.1657257080078125
1772882778005773800,8.22377392578125,-0.740020751953125,0.5062713623046875,0.1683197021484375
1772882778015707100,8.23370703125,-0.746856689453125,0.5178375244140625,0.1662139892578125
1772882778025639000,8.243638916015625,-0.7516021728515625,0.53094482421875,0.1749420166015625
1772882778035571700,8.25357177734375,-0.7516937255859375,0.5411376953125,0.1841278076171875
1772882778045504800,8.2635048828125,-0.748077392578125,0.5485382080078125,0.204833984375
1772882778055436800,8.273436767578126,-0.7427825927734375,0.5547332763671875,0.2303619384765625
1772882778065369900,8.283369873046874,-0.7389678955078125,0.5561676025390625,0.2587432861328125
1772882778075303000,8.293302978515625,-0.74102783203125,0.5438995361328125,0.3001251220703125
1772882778085235000,8.30323486328125,-0.746612548828125,0.5311279296875,0.3376007080078125
1772882778095168000,8.31316796875,-0.7544097900390625,0.5135955810546875,0.37567138671875
1772882778105100800,8.323100830078126,-0.7606658935546875,0.49554443359375,0.401092529296875
1772882778115032800,8.33303271484375,-0.76422119140625,0.4913330078125,0.4018707275390625
1772882778124966000,8.3429658203125,-0.7544097900390625,0.500518798828125,0.3687591552734375
1772882778134899000,8.35289892578125,-0.7271270751953125,0.512420654296875,0.3197174072265625
1772882778144831000,8.3628310546875,-0.694183349609375,0.51617431640625,0.2862548828125
1772882778154764800,8.372764892578125,-0.701873779296875,0.5089111328125,0.2880096435546875
1772882778164696800,8.38269677734375,-0.763427734375,0.4923095703125,0.3207550048828125
1772882778174630000,8.3926298828125,-0.819488525390625,0.478607177734375,0.362823486328125
1772882778184563000,8.40256298828125,-0.869049072265625,0.47613525390625,0.40386962890625
1772882778194495000,8.412494873046874,-0.8917999267578125,0.4800262451171875,0.436187744140625
1772882778204428000,8.422427978515625,-0.89056396484375,0.4899749755859375,0.4695587158203125
1772882778214360800,8.43236083984375,-0.8607635498046875,0.512237548828125,0.481597900390625
1772882778224293000,8.442293212890625,-0.8144989013671875,0.5333404541015625,0.46575927734375
1772882778234226000,8.452225830078126,-0.760528564453125,0.5500335693359375,0.4402313232421875
1772882778244159000,8.462158935546874,-0.705718994140625,0.5585479736328125,0.420318603515625
1772882778254092000,8.472092041015625,-0.66015625,0.549285888671875,0.4095001220703125
1772882778264023800,8.48202392578125,-0.6419219970703125,0.55657958984375,0.4023590087890625
1772882778273957000,8.49195703125,-0.696197509765625,0.65155029296875,0.3498077392578125
1772882778283890000,8.501889892578125,-0.711700439453125,0.7440643310546875,0.2666015625
1772882778293821700,8.51182177734375,-0.6197967529296875,0.90643310546875,0.2240447998046875
1772882778303754800,8.521754638671876,-0.5283966064453125,1.0389556884765625,0.208221435546875
1772882778313687800,8.531687744140624,-0.4762420654296875,1.0907440185546875,0.27960205078125
1772882778323619800,8.541619873046875,-0.4780426025390625,1.1306915283203125,0.3930206298828125
1772882778333553000,8.551552978515625,-0.5697784423828125,1.089691162109375,0.531768798828125
1772882778343486000,8.56148583984375,-0.689910888671875,1.045654296875,0.60467529296875
1772882778353418000,8.57141796875,-0.835601806640625,0.9682159423828125,0.67535400390625
1772882778363350800,8.581350830078126,-0.898040771484375,0.8423004150390625,0.7212371826171875
1772882778373283800,8.591283935546874,-0.86370849609375,0.7850341796875,0.65557861328125
1772882778383215900,8.6012158203125,-0.7560577392578125,0.7832183837890625,0.4910736083984375
1772882778393149000,8.61114892578125,-0.66162109375,0.7666168212890625,0.3334503173828125
1772882778403082000,8.62108203125,-0.5677642822265625,0.7263946533203125,0.21990966796875
1772882778413014800,8.631014892578126,-0.4705657958984375,0.686920166015625,0.151947021484375
1772882778422946800,8.64094677734375,-0.3846282958984375,0.6603546142578125,0.085968017578125
1772882778432879900,8.6508798828125,-0.322052001953125,0.660858154296875,0.050628662109375
1772882778442813000,8.66081298828125,-0.3113861083984375,0.66265869140625,0.038543701171875
1772882778452745000,8.670744873046875,-0.3750457763671875,0.679595947265625,0.0787200927734375
1772882778462678000,8.680677978515625,-0.48968505859375,0.713134765625,0.15435791015625
1772882778472611000,8.690611083984376,-0.656402587890625,0.751617431640625,0.225860595703125
1772882778482543000,8.700543212890626,-0.8295745849609375,0.8009490966796875,0.2769622802734375
1772882778492476000,8.710475830078124,-0.960784912109375,0.838531494140625,0.289215087890625
1772882778502409000,8.720408935546875,-1.017120361328125,0.8490142822265625,0.2674713134765625
1772882778512340700,8.7303408203125,-1.00213623046875,0.8450927734375,0.2311248779296875
1772882778522274000,8.740274169921875,-0.927520751953125,0.8261260986328125,0.1961669921875
1772882778532207000,8.75020703125,-0.820770263671875,0.7867584228515625,0.17608642578125
1772882778542139000,8.760138916015626,-0.68902587890625,0.74456787109375,0.1719970703125
1772882778552072000,8.770072021484374,-0.5507354736328125,0.704986572265625,0.1666259765625
1772882778562004700,8.780004638671874,-0.4404754638671875,0.660888671875,0.1622161865234375
1772882778571937800,8.789937744140625,-0.37249755859375,0.6413116455078125,0.1558380126953125
1772882778581869800,8.799869873046875,-0.3460540771484375,0.6392822265625,0.1412353515625
1772882778591803000,8.809802978515625,-0.3484649658203125,0.6555938720703125,0.1235809326171875
1772882778601736000,8.81973583984375,-0.3880462646484375,0.6717529296875,0.1151885986328125
1772882778611668000,8.82966796875,-0.4552001953125,0.6757354736328125,0.1339874267578125
1772882778621600800,8.839600830078124,-0.5325775146484375,0.6683197021484375,0.17669677734375
1772882778631533800,8.849533935546875,-0.6165313720703125,0.66168212890625,0.233154296875
1772882778641465900,8.8594658203125,-0.7042694091796875,0.6612091064453125,0.2858428955078125
1772882778651399000,8.86939892578125,-0.7721710205078125,0.6784210205078125,0.317047119140625
1772882778661332000,8.87933203125,-0.810394287109375,0.7081756591796875,0.311065673828125
1772882778671264000,8.889263916015626,-0.8087158203125,0.7554931640625,0.2838592529296875
1772882778681197000,8.899197021484374,-0.771148681640625,0.797698974609375,0.225738525390625
1772882778691129900,8.9091298828125,-0.7300872802734375,0.8386383056640625,0.1590118408203125
1772882778701062000,8.919061767578125,-0.6913604736328125,0.865447998046875,0.103546142578125
1772882778710995000,8.928994873046875,-0.6607666015625,0.8669586181640625,0.0810699462890625
1772882778720928000,8.938927978515625,-0.6381072998046875,0.8543701171875,0.102630615234375
1772882778730861000,8.948861083984376,-0.6272430419921875,0.8220977783203125,0.1443328857421875
1772882778740793000,8.95879296875,-0.61224365234375,0.788818359375,0.1891021728515625
1772882778750726000,8.968725830078125,-0.5839996337890625,0.755035400390625,0.2299346923828125
1772882778760659000,8.978658935546875,-0.557586669921875,0.7297515869140625,0.2537384033203125
1772882778770590700,8.9885908203125,-0.54473876953125,0.6897430419921875,0.257476806640625
1772882778780524000,8.99852392578125,-0.5106658935546875,0.679962158203125,0.2842559814453125
1772882778790457000,9.00845703125,-0.5042877197265625,0.6591644287109375,0.2989959716796875
1772882778800388900,9.018388916015626,-0.4911956787109375,0.661163330078125,0.3082427978515625
1772882778810322000,9.028322021484374,-0.4920806884765625,0.68023681640625,0.30029296875
1772882778820254700,9.038254638671875,-0.510284423828125,0.6952667236328125,0.2765960693359375
1772882778830186800,9.048186767578125,-0.5386962890625,0.7081451416015625,0.25146484375
1772882778840119800,9.058119873046875,-0.5662841796875,0.717376708984375,0.228515625
1772882778850052900,9.068052978515626,-0.5969696044921875,0.7264556884765625,0.2109527587890625
1772882778859985000,9.07798486328125,-0.622833251953125,0.730133056640625,0.185882568359375
1772882778869918000,9.08791796875,-0.644744873046875,0.72906494140625,0.1610107421875
1772882778879850800,9.097850830078125,-0.6608123779296875,0.726593017578125,0.1389923095703125
1772882778889783800,9.10778369140625,-0.67987060546875,0.723876953125,0.1271209716796875
1772882778899715800,9.1177158203125,-0.7028350830078125,0.7187347412109375,0.124725341796875
1772882778909649000,9.12764892578125,-0.7228240966796875,0.7188873291015625,0.132293701171875
1772882778919582000,9.13758203125,-0.7448272705078125,0.7268218994140625,0.147186279296875
1772882778929514000,9.147513916015624,-0.763458251953125,0.73480224609375,0.155426025390625
1772882778939447000,9.157447021484375,-0.7669677734375,0.7471466064453125,0.1558990478515625
1772882778949379800,9.1673798828125,-0.75054931640625,0.7607269287109375,0.15576171875
1772882778959312000,9.177311767578125,-0.7201385498046875,0.777587890625,0.1467132568359375
1772882778969245000,9.187244873046875,-0.691192626953125,0.7806854248046875,0.132232666015625
1772882778979178000,9.197177978515626,-0.657684326171875,0.7769317626953125,0.143310546875
1772882778989110000,9.207110107421874,-0.628814697265625,0.7742767333984375,0.1636962890625
1772882778999043000,9.21704296875,-0.61920166015625,0.768951416015625,0.1752777099609375
1772882779008976400,9.226976318359375,-0.6209716796875,0.74945068359375,0.1841583251953125
1772882779018908400,9.236908447265625,-0.636962890625,0.7570648193359375,0.1822967529296875
1772882779028841500,9.246841552734375,-0.64727783203125,0.7409515380859375,0.164886474609375
1772882779038774500,9.2567744140625,-0.6559295654296875,0.7367401123046875,0.1548614501953125
1772882779048707600,9.26670751953125,-0.661102294921875,0.7408294677734375,0.1194610595703125
1772882779058639600,9.2766396484375,-0.660247802734375,0.7366180419921875,0.069488525390625
1772882779068572400,9.286572509765625,-0.653594970703125,0.7378692626953125,0.0358428955078125
1772882779078505500,9.29650537109375,-0.6536407470703125,0.7511138916015625,0.0106658935546875
1772882779088437500,9.3064375,-0.6524505615234375,0.7882537841796875,-0.01336669921875
1772882779098370600,9.31637060546875,-0.6443634033203125,0.8531951904296875,-0.0548095703125
1772882779108303600,9.3263037109375,-0.6209869384765625,0.9401092529296875,-0.09368896484375
1772882779118235400,9.3362353515625,-0.591644287109375,1.0114593505859375,-0.1126708984375
1772882779128168400,9.34616845703125,-0.574737548828125,1.064300537109375,-0.1125640869140625
1772882779138101200,9.356101318359375,-0.6015167236328125,1.09130859375,-0.08978271484375
1772882779148033300,9.366033203125,-0.6624603271484375,1.0948486328125,-0.0385284423828125
1772882779157966300,9.37596630859375,-0.7247161865234375,1.071136474609375,0.0332183837890625
1772882779167899400,9.3858994140625,-0.7623748779296875,1.0388336181640625,0.112640380859375
1772882779177831400,9.39583154296875,-0.7721710205078125,0.9965667724609375,0.204010009765625
1772882779187764500,9.405764404296875,-0.7529754638671875,0.945892333984375,0.3036956787109375
1772882779197697300,9.415697265625,-0.720916748046875,0.8972015380859375,0.3997650146484375
1772882779207630300,9.42563037109375,-0.6933441162109375,0.8599853515625,0.47821044921875
1772882779217562400,9.435562255859375,-0.663360595703125,0.8318634033203125,0.5228118896484375
1772882779227495400,9.445495361328126,-0.6100921630859375,0.8038787841796875,0.526580810546875
1772882779237428500,9.455428466796874,-0.5267486572265625,0.783599853515625,0.5133514404296875
1772882779247360500,9.465360595703125,-0.4450836181640625,0.735137939453125,0.4759063720703125
1772882779257293600,9.47529345703125,-0.412445068359375,0.7295074462890625,0.43585205078125
1772882779267226400,9.485226318359375,-0.370025634765625,0.709075927734375,0.44940185546875
1772882779277158400,9.495158447265625,-0.383880615234375,0.71453857421875,0.44305419921875
1772882779287091500,9.505091552734376,-0.398101806640625,0.73529052734375,0.431671142578125
1772882779297024500,9.5150244140625,-0.4292144775390625,0.7526702880859375,0.4157562255859375
1772882779306956500,9.52495654296875,-0.4688873291015625,0.767974853515625,0.417083740234375
1772882779316889600,9.5348896484375,-0.5152587890625,0.7805633544921875,0.4019317626953125
1772882779326822400,9.544822509765625,-0.5832672119140625,0.7921142578125,0.361968994140625
1772882779336754400,9.55475439453125,-0.6687164306640625,0.798797607421875,0.306304931640625
1772882779346687500,9.5646875,-0.73236083984375,0.7878875732421875,0.26483154296875
1772882779356620500,9.57462060546875,-0.77667236328125,0.7655792236328125,0.23284912109375
1772882779366553600,9.5845537109375,-0.8353271484375,0.7427520751953125,0.205078125
1772882779376485400,9.5944853515625,-0.8660125732421875,0.7261505126953125,0.1884918212890625
1772882779386418400,9.60441845703125,-0.8647918701171875,0.7007904052734375,0.1865081787109375
1772882779396351200,9.614351318359375,-0.8240814208984375,0.6738128662109375,0.1875152587890625
1772882779406283300,9.624283203125,-0.751953125,0.6498565673828125,0.1777801513671875
1772882779416216300,9.63421630859375,-0.668609619140625,0.6327972412109375,0.1625823974609375
1772882779426149400,9.6441494140625,-0.591339111328125,0.6139678955078125,0.1601715087890625
1772882779436081400,9.654081298828125,-0.5228424072265625,0.5984039306640625,0.1682586669921875
1772882779446014500,9.664014404296875,-0.456634521484375,0.5950775146484375,0.177764892578125
1772882779455947500,9.673947509765625,-0.415863037109375,0.5872955322265625,0.1793060302734375
1772882779465879600,9.683879638671876,-0.3876953125,0.5830230712890625,0.1878509521484375
1772882779475812400,9.693812255859376,-0.3810272216796875,0.5830230712890625,0.207733154296875
1772882779485745400,9.703745361328124,-0.397216796875,0.5766143798828125,0.2317657470703125
1772882779495678500,9.713678466796875,-0.4130401611328125,0.568878173828125,0.2724151611328125
1772882779505610500,9.723610595703125,-0.4290008544921875,0.560943603515625,0.3158111572265625
1772882779515543600,9.73354345703125,-0.45062255859375,0.5500640869140625,0.33282470703125
1772882779525476400,9.743476318359376,-0.4848785400390625,0.54620361328125,0.3336334228515625
1772882779535408400,9.753408447265626,-0.5260162353515625,0.5481719970703125,0.3253631591796875
1772882779545341400,9.763341552734374,-0.57208251953125,0.5535888671875,0.3123931884765625
1772882779555274500,9.7732744140625,-0.608856201171875,0.560699462890625,0.2958984375
1772882779565206500,9.78320654296875,-0.640106201171875,0.561126708984375,0.2803192138671875
1772882779575139600,9.7931396484375,-0.6851959228515625,0.5640106201171875,0.27105712890625
1772882779585072600,9.80307275390625,-0.73193359375,0.5767822265625,0.2616424560546875
1772882779595004700,9.813004638671876,-0.765106201171875,0.600616455078125,0.2534637451171875
1772882779604937500,9.8229375,-0.7878875732421875,0.627716064453125,0.23870849609375
1772882779614870500,9.83287060546875,-0.78436279296875,0.6446990966796875,0.219024658203125
1772882779624802300,9.84280224609375,-0.7645416259765625,0.657928466796875,0.204315185546875
1772882779634735400,9.8527353515625,-0.7420196533203125,0.6682891845703125,0.20159912109375
1772882779644668400,9.86266845703125,-0.7281494140625,0.66766357421875,0.2128143310546875
1772882779654601200,9.872601318359376,-0.73681640625,0.65936279296875,0.253143310546875
1772882779664533500,9.882533447265626,-0.744476318359375,0.649505615234375,0.2968597412109375
1772882779674466300,9.89246630859375,-0.738311767578125,0.6448211669921875,0.3376922607421875
1772882779684399400,9.9023994140625,-0.73284912109375,0.6483001708984375,0.3514404296875
1772882779694331400,9.912331298828125,-0.720611572265625,0.6655731201171875,0.3581695556640625
1772882779704264400,9.922264404296875,-0.698394775390625,0.682220458984375,0.3582000732421875
1772882779714197500,9.932197509765626,-0.6824493408203125,0.6971435546875,0.3596954345703125
1772882779724129500,9.942129638671876,-0.6819610595703125,0.693817138671875,0.3685302734375
1772882779734062300,9.952062255859374,-0.70361328125,0.6829071044921875,0.396942138671875
1772882779743995400,9.961995361328125,-0.7448272705078125,0.65185546875,0.4381256103515625
1772882779753927400,9.971927490234375,-0.8019256591796875,0.6227569580078125,0.477264404296875
1772882779763860500,9.981860595703125,-0.857391357421875,0.6015777587890625,0.5003509521484375
1772882779773793500,9.99179345703125,-0.9286651611328125,0.5987091064453125,0.5018157958984375
1772882779783726300,10.001726318359376,-1.044677734375,0.65618896484375,0.4486236572265625
1772882779793658400,10.011658447265624,-1.0879974365234375,0.731414794921875,0.3577117919921875
1772882779803591400,10.02159130859375,-0.9735870361328125,0.8850860595703125,0.242156982421875
1772882779813524500,10.0315244140625,-0.777923583984375,1.0372161865234375,0.112213134765625
1772882779823456500,10.04145654296875,-0.619384765625,1.0842437744140625,0.1005401611328125
1772882779833389600,10.0513896484375,-0.59906005859375,1.045257568359375,0.2117919921875
1772882779843322600,10.061322509765626,-0.649017333984375,0.98828125,0.3572235107421875
1772882779853254700,10.071254638671874,-0.755401611328125,0.9166107177734375,0.5198822021484375
1772882779863187500,10.0811875,-0.8681793212890625,0.868927001953125,0.5956878662109375
1772882779873120500,10.09112060546875,-0.928192138671875,0.8488922119140625,0.5699005126953125
1772882779883052300,10.10105224609375,-0.92950439453125,0.8157806396484375,0.4931640625
1772882779892985300,10.1109853515625,-0.860015869140625,0.756378173828125,0.440277099609375
1772882779902918400,10.12091845703125,-0.7387542724609375,0.70074462890625,0.385498046875
1772882779912850400,10.130850341796876,-0.56005859375,0.6756439208984375,0.26983642578125
1772882779922783500,10.140783447265624,-0.3569793701171875,0.6811981201171875,0.1201324462890625
1772882779932716300,10.15071630859375,-0.1407318115234375,0.6890106201171875,-0.0228729248046875
1772882779942649300,10.1606494140625,0.0040283203125,0.67401123046875,-0.1010894775390625
1772882779952581400,10.170581298828125,0.036102294921875,0.6460723876953125,-0.0954742431640625
1772882779962514400,10.180514404296876,-0.053253173828125,0.6346435546875,-0.0150146484375
1772882779972447500,10.190447509765624,-0.202545166015625,0.6378021240234375,0.0917510986328125
1772882779982379500,10.200379638671874,-0.375732421875,0.6524658203125,0.1979217529296875
1772882779992312300,10.210312255859375,-0.5571441650390625,0.6773834228515625,0.2913818359375
1772882780002245400,10.220245361328125,-0.7027130126953125,0.7163543701171875,0.3483123779296875
1772882780012177000,10.230177001953125,-0.80126953125,0.7704010009765625,0.3774261474609375
1772882780022110000,10.24010986328125,-0.844024658203125,0.8308563232421875,0.376617431640625
1772882780032043000,10.25004296875,-0.83721923828125,0.8725433349609375,0.3515472412109375
1772882780041975000,10.25997509765625,-0.7774658203125,0.88958740234375,0.32135009765625
1772882780051908000,10.269908203125,-0.6936187744140625,0.8880615234375,0.2975006103515625
1772882780061841000,10.2798408203125,-0.611297607421875,0.8619232177734375,0.2762451171875
1772882780071774000,10.28977392578125,-0.5468292236328125,0.81988525390625,0.2640838623046875
1772882780081706000,10.2997060546875,-0.48492431640625,0.7644500732421875,0.2651824951171875
1772882780091639000,10.30963916015625,-0.440155029296875,0.7057952880859375,0.276519775390625
1772882780101572000,10.319572021484374,-0.4246368408203125,0.6564483642578125,0.286834716796875
1772882780111504000,10.32950390625,-0.4334716796875,0.6248931884765625,0.2926483154296875
1772882780121437000,10.33943701171875,-0.4738616943359375,0.61328125,0.28466796875
1772882780131369700,10.34936962890625,-0.5181732177734375,0.617645263671875,0.27178955078125
1772882780141301800,10.3593017578125,-0.5545654296875,0.6364593505859375,0.2407989501953125
1772882780151234800,10.36923486328125,-0.589019775390625,0.656036376953125,0.1962738037109375
1772882780161168000,10.37916796875,-0.6122894287109375,0.679901123046875,0.1678009033203125
1772882780171100000,10.389099853515624,-0.6268463134765625,0.7081146240234375,0.1544036865234375
1772882780181033000,10.399032958984375,-0.6382904052734375,0.7325592041015625,0.167572021484375
1772882780190966000,10.408966064453125,-0.6565093994140625,0.74969482421875,0.20172119140625
1772882780200898000,10.41889794921875,-0.6802520751953125,0.7665252685546875,0.235443115234375
1772882780210830800,10.428830810546875,-0.7007598876953125,0.777557373046875,0.2657623291015625
1772882780220764000,10.438763916015626,-0.7174835205078125,0.786651611328125,0.2938079833984375
1772882780230697000,10.448697021484374,-0.72564697265625,0.790924072265625,0.309173583984375
1772882780240629000,10.45862890625,-0.71746826171875,0.788818359375,0.3064117431640625
1772882780250562000,10.46856201171875,-0.6840362548828125,0.7760009765625,0.298065185546875
1772882780260494800,10.478494873046875,-0.64306640625,0.7580718994140625,0.2887420654296875
1772882780270427000,10.488427001953125,-0.5926666259765625,0.7280426025390625,0.273681640625
1772882780280360000,10.49835986328125,-0.5426788330078125,0.7021636962890625,0.2600860595703125
1772882780290293000,10.50829296875,-0.5034942626953125,0.680999755859375,0.2354888916015625
1772882780300225000,10.51822509765625,-0.49609375,0.6738433837890625,0.22314453125
1772882780310158000,10.528157958984375,-0.517913818359375,0.6758575439453125,0.2272796630859375
1772882780320091100,10.538091064453125,-0.5628662109375,0.682586669921875,0.242462158203125
1772882780330023200,10.548023193359375,-0.61602783203125,0.682708740234375,0.2580108642578125
1772882780339956000,10.5579560546875,-0.66888427734375,0.6849365234375,0.276641845703125
1772882780349889000,10.567888916015624,-0.704193115234375,0.6813812255859375,0.2736968994140625
1772882780359822000,10.577822021484375,-0.719818115234375,0.682342529296875,0.2642974853515625
1772882780369753900,10.58775390625,-0.72723388671875,0.68377685546875,0.24554443359375
1772882780379687000,10.59768701171875,-0.7285919189453125,0.6925811767578125,0.2191619873046875
1772882780389619700,10.60761962890625,-0.7214813232421875,0.7127838134765625,0.1942291259765625
1772882780399551700,10.6175517578125,-0.709381103515625,0.7379913330078125,0.1774444580078125
1772882780409484800,10.62748486328125,-0.6986846923828125,0.751861572265625,0.175048828125
1772882780419417900,10.63741796875,-0.7041168212890625,0.7536773681640625,0.1821136474609375
1772882780429350000,10.647349853515625,-0.7104339599609375,0.745635986328125,0.204193115234375
1772882780439283000,10.657282958984375,-0.7063140869140625,0.724029541015625,0.2275848388671875
1772882780449216000,10.667216064453125,-0.696197509765625,0.7060089111328125,0.241119384765625
1772882780459148000,10.67714794921875,-0.6864166259765625,0.696807861328125,0.2386932373046875
1772882780469080800,10.687080810546876,-0.6690216064453125,0.70001220703125,0.22088623046875
1772882780479014000,10.697013916015624,-0.6407470703125,0.7236785888671875,0.1897125244140625
1772882780488946000,10.70694580078125,-0.60296630859375,0.7703399658203125,0.1518707275390625
1772882780498879000,10.71687890625,-0.564361572265625,0.8415069580078125,0.11724853515625
1772882780508812000,10.72681201171875,-0.5231475830078125,0.91326904296875,0.104583740234375
1772882780518744800,10.736744873046876,-0.5425567626953125,0.96270751953125,0.1316070556640625
1772882780528676900,10.7466767578125,-0.6612701416015625,0.97979736328125,0.19805908203125
1772882780538610000,10.75660986328125,-0.755828857421875,0.961700439453125,0.26617431640625
1772882780548543000,10.76654296875,-0.8418731689453125,0.9535675048828125,0.35662841796875
1772882780558475000,10.77647509765625,-0.915557861328125,0.93011474609375,0.3648529052734375
1772882780568408000,10.786407958984375,-0.8841705322265625,0.8857879638671875,0.3726348876953125
1772882780578341000,10.796341064453125,-0.761627197265625,0.839385986328125,0.397735595703125
1772882780588273200,10.806273193359376,-0.6190032958984375,0.7863922119140625,0.4017181396484375
