time,seconds_elapsed,z,y,x
1772882769851051300,0.06905126953125,-0.6156231303930282,-0.03895429229438305,0.16698752861991523
1772882769860984300,0.078984375,-0.38696050523519515,-0.03291208952069282,0.19065569671615956
1772882769870917400,0.08891748046875,-0.06560790594220162,-0.06395604708194733,0.2792404274895787
1772882769880849400,0.098849365234375,0.15805413444936275,-0.1538292102307081,0.3374757588371634
1772882769890782500,0.108782470703125,0.11114449923634528,-0.17731237714886663,0.27138547620549797
1772882769900715300,0.11871533203125,-0.056126376369595526,-0.15361293713152407,0.09035495531633496
1772882769910647300,0.128647216796875,-0.2156739642471075,-0.14581833773255348,-0.15564809622094034
1772882769920580400,0.138580322265625,-0.41284488807618613,-0.08251227899193764,-0.2625628489330411
1772882769930513400,0.148513427734375,-0.5414022944062948,-0.04626081591546535,-0.2379896948210895
1772882769940445400,0.158445556640625,-0.49174774439930913,-0.052987493821978565,-0.09008826720416545
1772882769950378500,0.16837841796875,-0.310146730145812,-0.09827683435678482,0.007878916681557893
1772882769960311300,0.178311279296875,-0.15916881769299507,-0.1580471201866865,0.09275544058680533
1772882769970243300,0.188243408203125,0.010545943933725356,-0.20289806930422782,0.07025412431284785
1772882769980176100,0.198176025390625,0.2732213133305311,-0.27906711674928664,-0.030549890433996914
1772882769990109200,0.208109130859375,0.49831309426426884,-0.34692777005434033,-0.10272373076304793
1772882770000041000,0.218041015625,0.6118295833289623,-0.3426251044243574,-0.11465835257619619
1772882770009974000,0.22797412109375,0.5461591335445642,-0.32511575121879577,-0.1584331968948245
1772882770019907000,0.237906982421875,0.42995559735298156,-0.24056465987563133,-0.16070508734956382
1772882770029839000,0.247839111328125,0.23711831881403922,-0.1279530106961727,-0.16341083917692303
1772882770039772200,0.257772216796875,-0.026869302225112912,-0.16387012725174427,-0.127633569483459
1772882770049705000,0.267705078125,-0.3879296425282955,-0.3413859180182218,0.12761413413062692
1772882770059637000,0.277636962890625,-0.8069803995072841,-0.5515840812027454,0.4925057231597602
1772882770069570000,0.287570068359375,-1.0204583150148392,-0.7199404139578341,0.6941567150123417
1772882770079503000,0.297503173828125,-0.9797937116712331,-0.815309836435318,0.6520153171144425
1772882770089435100,0.30743505859375,-0.8483972825229168,-0.7356032625138759,0.43264395965412256
1772882770099368200,0.3173681640625,-0.8647387609928846,-0.6100549748718738,0.036697599408775566
1772882770109301000,0.327301025390625,-1.0493798735946416,-0.4672936866223812,-0.41970761345252394
1772882770119233000,0.33723291015625,-1.163618247193098,-0.306448460149765,-0.7614312389925122
1772882770129166000,0.347166015625,-1.0987281341314314,-0.20581892518699169,-0.9673195761539042
1772882770139099100,0.35709912109375,-0.8788625634133815,-0.22945582136213777,-0.9739666129529475
1772882770149031200,0.36703125,-0.6171820502728224,-0.3577180441379547,-0.9112119044847786
1772882770158964200,0.376964111328125,-0.4427496124744415,-0.5071013808757067,-0.7455680455587804
1772882770168897000,0.38689697265625,-0.3674439038604498,-0.6468208172112703,-0.5633358937948942
1772882770178829000,0.3968291015625,-0.27981588928997514,-0.7712140895992518,-0.40420170902386304
1772882770188761900,0.406761962890625,-0.15836451557278633,-0.827374368238449,-0.2401864742130041
1772882770198694000,0.41669384765625,-0.013586042281985282,-0.8533014211773872,-0.11597177326232194
1772882770208627000,0.426626953125,0.09663198975920677,-0.8570978908509016,-0.059188248158246276
1772882770218560000,0.43656005859375,0.1589630659878254,-0.8568740189671515,0.04323708418011665
1772882770228492000,0.446491943359375,0.17040099032521247,-0.8367857551842928,0.17107362888976932
1772882770238425000,0.456425048828125,0.07157704347968101,-0.8486609018951654,0.3014274171173572
1772882770248358000,0.46635791015625,-0.04914952309429645,-0.8650707694262265,0.38462402511164545
1772882770258290200,0.476290283203125,-0.14944821866750715,-0.8671312090873717,0.40092824031114577
1772882770268223000,0.486222900390625,-0.1254781450152397,-0.9009206659644842,0.353039092541486
1772882770278156000,0.496156005859375,-0.06667056673765182,-0.8911141422212123,0.2966077418759465
1772882770288088000,0.506088134765625,-0.02345218725800514,-0.8953793984502554,0.3199830645054579
1772882770298021000,0.516021240234375,-0.08390577917695045,-0.9434124847352504,0.3546820374429226
1772882770307954200,0.5259541015625,-0.15160627348423003,-0.9365040205210446,0.3267503666833043
1772882770317886200,0.53588623046875,-0.2509387543737888,-0.9130465725660324,0.31857407449036834
1772882770327819000,0.545819091796875,-0.3579530219376087,-0.8829793510824442,0.3548670386210084
1772882770337752000,0.555751953125,-0.4608487482666969,-0.8501432494074106,0.33139614666253325
1772882770347684000,0.56568408203125,-0.6278501592814922,-0.8878507565110921,0.261988556176424
1772882770357617200,0.5756171875,-0.7645277437031268,-0.8961842850923538,0.29306232435405255
1772882770367550200,0.58555029296875,-0.749376351800561,-0.7173141571074724,0.4945144326336682
1772882770377482200,0.595482177734375,-0.689198069691658,-0.7575088048517703,0.2591214763075113
1772882770387415300,0.605415283203125,-0.6764286044895649,-1.2460557073831557,-0.1318091016024351
1772882770397348000,0.61534814453125,-0.5031459212481976,-1.0345634127348662,0.01482961260229349
1772882770407279900,0.62527978515625,-0.650585138180852,-1.1075433087497948,-0.2610119662292302
1772882770417213000,0.635212890625,-0.7260334701359271,-1.1162895097851753,-0.1707616403311491
1772882770427146000,0.64514599609375,-0.7353343824446201,-1.08759708378613,0.01945478818491101
1772882770437078000,0.655078125,-0.8928232842266559,-1.2320891413509845,0.07011033192798495
1772882770447011000,0.665010986328125,-0.9396265364557504,-1.2453957821696997,0.18044234573766588
1772882770456943900,0.67494384765625,-0.942413536825776,-1.277353931966424,0.15280278979241846
1772882770466876000,0.6848759765625,-0.9932079045176505,-1.3208365153402088,0.21209040667191145
1772882770476809000,0.69480908203125,-1.0440361744791269,-1.3613356989890337,0.2554334354445338
1772882770486742000,0.704741943359375,-1.058780739146471,-1.3880015875965357,0.2757160527557134
1772882770496674000,0.714674072265625,-1.1444967826157808,-1.3809522536069154,0.28055618626326323
1772882770506607000,0.724607177734375,-1.3297066350162028,-1.2615800242513417,0.1878117054618895
1772882770516540200,0.7345400390625,-1.7498785049796104,-0.9089783002138138,-0.035036534328758716
1772882770526472200,0.74447216796875,-2.2535639399319884,-0.3242465671688318,-0.4229337358921766
1772882770536405000,0.754405029296875,-2.543021517792344,0.3044195846706629,-0.7674535680219531
1772882770546338000,0.764338134765625,-2.679403334137797,0.8017676332950592,-0.9199852857880294
1772882770556270000,0.77427001953125,-2.4735996065199375,1.20622989295125,-0.5927952125132083
1772882770566203100,0.784203125,-1.917964788621664,1.7843144430667162,-0.22832506376653908
1772882770576136200,0.79413623046875,-1.6861597737848757,1.9265970078885555,0.03380056279301643
1772882770586068200,0.804068115234375,-1.5279560017317533,1.7808295235604046,0.3968929934456944
1772882770596001000,0.8140009765625,-1.6296674867123364,1.489494461390376,0.983656232318282
1772882770605934000,0.82393408203125,-1.9037129759073257,0.8776800756305456,1.574958575925231
1772882770615866000,0.8338662109375,-2.3448428782254456,0.2587321847289801,2.273328670848906
1772882770625799200,0.843799072265625,-2.331501166093349,-1.065984971436858,1.9113997310176492
1772882770635732200,0.853732177734375,-2.1457915474772453,-1.7641577902227639,2.368167493581027
1772882770645664000,0.8636640625,-1.5544886193484067,-2.148484439823031,2.6726509372681377
1772882770655597000,0.87359716796875,-0.7700660886079073,-2.794579280847311,2.5935174870595334
1772882770665529900,0.88352978515625,0.313110256126523,-3.016725655978918,2.4680408033490178
1772882770675462000,0.8934619140625,1.5911030705183744,-2.8444594563037153,2.062868641857803
1772882770685395000,0.90339501953125,2.7917402580291033,-2.011869399243593,1.1098454482123254
1772882770695328000,0.913327880859375,3.4560213286072012,-1.3402104933738708,-0.1262780632212758
1772882770705260000,0.923260009765625,3.787687816643715,-0.5232067125022412,-0.8999047669202089
1772882770715193000,0.933193115234375,3.2716748150378465,0.19537234997451305,-1.115036879375577
1772882770725126100,0.943126220703125,2.176267349761724,0.6690683048546314,-0.9903671281337737
1772882770735058200,0.95305810546875,0.9622744215935468,1.0240496175050735,-0.5823617890432476
1772882770744991000,0.962990966796875,-0.49676995647549627,1.1631336785465478,-0.07059416992217302
1772882770754924000,0.972924072265625,-1.9519173271059989,1.1147376041680574,0.4259801178507507
1772882770764856000,0.98285595703125,-2.9693460651665924,1.096291262373328,0.7927724259346723
1772882770774789000,0.9927890625,-3.2494723355799913,1.072939612880349,0.8026163590788841
1772882770784722200,1.00272216796875,-2.673161224877834,1.0602250927358865,0.5359145106449723
1772882770794654200,1.012654296875,-1.5326386065900326,1.0193687662124633,0.08977306377515196
1772882770804587000,1.0225869140625,-0.3386076854765415,0.8446335460752248,-0.482587117344141
1772882770814520000,1.03252001953125,0.4290460812926292,0.8287456565916538,-1.0614017352998255
1772882770824452000,1.0424521484375,0.8451976096987723,1.0425170020878314,-1.526769568426162
1772882770834385200,1.05238525390625,1.1504992379009722,1.3099778521955012,-1.9734278787769377
1772882770844318200,1.062318115234375,1.4131903893887996,1.4806576594620942,-2.3452732324667274
1772882770854250000,1.07225,1.7088760479837655,1.454316765025258,-2.438409635195136
1772882770864183000,1.08218310546875,1.984482210624218,1.2940730115771293,-2.3217684382386503
1772882770874116000,1.0921162109375,2.1625147187411784,1.0231038610875607,-1.9698770544275641
1772882770884048000,1.1020478515625,2.2487819663524626,0.7110095040053129,-1.392121736266464
1772882770893981000,1.11198095703125,2.4533073445975777,0.388003292286396,-0.6880832403175532
1772882770903914000,1.1219140625,2.664302795639634,0.03899170169532299,0.08951514349132776
1772882770913846000,1.131845947265625,2.6284599133640527,-0.24268822790086267,0.7847929714880884
1772882770923779000,1.141779052734375,2.3381693918108937,-0.32267946398258207,1.214142419641465
1772882770933712100,1.151712158203125,1.794193447524309,-0.29245909776389595,1.3659646739639342
1772882770943644200,1.16164404296875,0.9367793303310871,-0.21730887197256088,1.1877495027564466
1772882770953577000,1.171576904296875,0.15303075332939625,-0.15113573336303232,0.8273406120993196
1772882770963510000,1.181510009765625,-0.2352496023327112,-0.0028676643908023833,0.2520037532567978
1772882770973442000,1.191442138671875,-0.27661037124693394,0.06890519392192364,-0.4784596621505916
1772882770983375000,1.201375,-0.04385843094885349,-0.05333236173689365,-1.028420379935205
1772882770993308700,1.21130859375,0.30525954262614247,-0.286580561119318,-1.3801064504325389
1772882771003240700,1.22124072265625,0.5950777704924345,-0.6125275024652481,-1.5883254224985837
1772882771013173500,1.231173583984375,0.9316863911062478,-0.9661404493719339,-1.6734398468129337
1772882771023106600,1.2411064453125,1.0679513030737637,-1.1696493440508842,-1.6421829771533607
1772882771033038600,1.25103857421875,1.0958598852187393,-1.2252531578511,-1.5687987381212412
1772882771042971600,1.2609716796875,1.1804904715389013,-1.1318372075289487,-1.5637264032930134
1772882771052904700,1.27090478515625,1.1539432408750057,-1.0325012195080518,-1.464433523761481
1772882771062836500,1.28083642578125,0.8171294530779123,-0.9511761044740676,-1.1744827555567026
1772882771072769500,1.29076953125,0.3033317894339561,-0.8578238670378923,-0.7996513717934489
1772882771082702600,1.30070263671875,-0.36456337998807425,-0.7027326740473508,-0.48248321857824916
1772882771092634400,1.31063427734375,-1.1805834105193613,-0.5597504365235567,-0.17498451872318982
1772882771102567400,1.3205673828125,-1.95821905759871,-0.4659966325491667,0.06909034123048186
1772882771112500500,1.33050048828125,-2.529502403266728,-0.21188626240193842,0.1322837333768606
1772882771122432500,1.3404326171875,-2.7745445008173584,0.02247545118033886,-0.05845160444676876
1772882771132365600,1.350365478515625,-2.646158067139983,0.19967150847315787,-0.304259864064306
1772882771142298400,1.36029833984375,-2.2290616590991617,0.3493383383274078,-0.5342867633126676
1772882771152230400,1.37023046875,-1.6536729239389298,0.375130951231718,-0.685874770487845
1772882771162163500,1.38016357421875,-1.1429171122089028,0.2603717686295509,-0.7134304475419223
1772882771172096500,1.390096435546875,-0.7862965079188347,0.07707564089596271,-0.5532764182038605
1772882771182028500,1.400028564453125,-0.65764762391299,-0.09588029460906981,-0.3424637763828039
1772882771191961600,1.409961669921875,-0.7575958986133337,-0.2932154690891504,-0.09983458519279956
1772882771201894400,1.419894287109375,-0.8515016782790422,-0.43458150358796116,0.1469870892509818
1772882771211826700,1.42982666015625,-0.8173650153994559,-0.5762041431963444,0.421526791703701
1772882771221759500,1.439759521484375,-0.6682064273282885,-0.6118149702817202,0.5908345799647271
1772882771231692500,1.449692626953125,-0.4862821724697947,-0.5625152250617742,0.5453907795205712
1772882771241624600,1.45962451171875,-0.3163771489679813,-0.5006202021628618,0.2934117223136127
1772882771251557600,1.4695576171875,-0.21198387755751608,-0.35351825436055656,-0.00752352737262845
1772882771261490700,1.47949072265625,-0.02067161662876606,-0.23816344395279884,-0.2613822608463466
1772882771271422700,1.489422607421875,0.05676058261990547,-0.2063800662010908,-0.46323944279551504
1772882771281355500,1.49935546875,-0.07896773825287819,-0.18284136970341205,-0.5490647918581962
1772882771291288600,1.50928857421875,-0.3253326088398695,-0.1831400603890419,-0.6303434374019503
1772882771301220400,1.519220458984375,-0.6854805104732513,-0.13722294334471224,-0.719517512370646
1772882771311153400,1.5291533203125,-0.98515202383399,-0.09169511787891388,-0.7524312093265354
1772882771321086500,1.53908642578125,-1.092220067411661,-0.08800093953609466,-0.7315064947195351
1772882771331018500,1.5490185546875,-1.0009855527818203,-0.06037292789816856,-0.7161627951152623
1772882771340951600,1.55895166015625,-0.7928773476138711,-0.07189736147522927,-0.7574091438695788
1772882771350884400,1.56888427734375,-0.4875365564450621,-0.026385902622342108,-0.6590628975383936
1772882771360816400,1.57881640625,-0.23665128582417963,0.02107026055753231,-0.5212713605254888
1772882771370749400,1.58874951171875,-0.035865094107389445,-0.026412206107378003,-0.3692405780188739
1772882771380682500,1.5986826171875,-0.03303776172697544,-0.12863456321954728,-0.2053578835465014
1772882771390614500,1.608614501953125,-0.3272553935959935,-0.20831541817784308,-0.19178440848514436
1772882771400547600,1.618547607421875,-0.7069967612326145,-0.032035306686162945,-0.4606128936842084
1772882771410480400,1.62848046875,-1.0465276990339158,0.31884675395190715,-0.8308217322133481
1772882771420412400,1.638412353515625,-1.1956003623872995,0.9537140985190867,-0.9250855315364896
1772882771430345500,1.648345458984375,-1.1360369973063469,1.6200287207514046,-1.0055332792140543
1772882771440278500,1.658278564453125,-0.9936866279453038,2.2838982879191634,-0.7890132195316255
1772882771450210600,1.66821044921875,-1.1029264626041053,2.9882553482979533,-0.6728424165658652
1772882771460143600,1.6781435546875,-1.7302561051428318,3.4167566551893946,-0.8579075997985899
1772882771470076700,1.68807666015625,-2.577581959041953,3.5168624585390087,-1.2283300810784101
1772882771480008700,1.6980087890625,-3.052621729746461,3.309345497262478,-1.6114391715824603
1772882771489941500,1.70794140625,-2.9567081173896788,2.782294384291768,-1.6241165745869277
1772882771499874600,1.71787451171875,-2.5197750822395086,1.9893805040597914,-1.3751070347100496
1772882771509806600,1.727806640625,-1.6936644503265619,1.1442916154325007,-0.9143298903748392
1772882771519739600,1.73773974609375,-0.5632888397827744,0.45016018099188804,-0.486240671415627
1772882771529672700,1.747672607421875,0.7209826164871453,-0.15798399182260037,-0.08992752368450165
1772882771539604500,1.7576044921875,1.7086404856622217,-0.5905646769821643,0.1291214699536562
1772882771549537500,1.76753759765625,2.1959093310818076,-0.7640040120899677,0.16246230628043412
1772882771559470300,1.77747021484375,2.1230366948336363,-0.7727192334651947,0.03827829272896051
1772882771569402400,1.78740234375,1.8354501715421676,-0.5438847588717937,-0.1527563203021884
1772882771579335400,1.79733544921875,1.5734546011030672,-0.7514590032935142,-0.10757365501224994
1772882771589268500,1.8072685546875,1.576858856588602,-0.8546867380559444,0.2608849788486957
1772882771599200500,1.817200439453125,1.7030922038853167,-1.1486270142883062,0.6688599228009581
1772882771609133600,1.827133544921875,1.9235493107557295,-1.4058072934001684,1.029317328774929
1772882771619066400,1.83706640625,2.0882921291887757,-1.7169722606778144,1.4299419099643826
1772882771628998400,1.846998291015625,2.2407558962851764,-1.825098288875818,1.7770993971213698
1772882771638931500,1.856931396484375,2.324702007472515,-1.6653490409463643,1.9961931066840886
1772882771648864500,1.866864501953125,2.627349906295538,-1.2685305740416049,2.079699949671328
1772882771658796500,1.876796630859375,2.668887200820446,-0.7219657823055983,1.6551298447489737
1772882771668729600,1.8867294921875,2.583683783048391,-0.041056233009696005,1.0567261447042227
1772882771678662700,1.89666259765625,2.0352911913633345,0.5585322929054498,0.48331776970624923
1772882771688594700,1.9065947265625,0.9055249448895454,1.0636989063262938,-0.021066753426194188
1772882771698527500,1.916527587890625,-0.5583054984122514,1.4083803587585686,-0.31096593757420776
1772882771708460500,1.92646044921875,-2.225371280148625,1.5581027181923388,-0.3661114862129092
1772882771718392600,1.936392578125,-3.749999598762393,1.4809364764034747,-0.2589776839226484
1772882771728325600,1.94632568359375,-4.88977432129234,1.1713035409986972,-0.06759703393280506
1772882771738258700,1.9562587890625,-5.482434216988087,0.740330875557661,-0.1592784155473113
1772882771748190700,1.966190673828125,-5.261485527208447,0.39720892752707004,-0.44896775633692737
1772882771758123500,1.97612353515625,-4.489736600080132,-0.043542789128422736,-0.8959577828601002
1772882771768056600,1.986056640625,-3.339731283175945,-0.3924555955201387,-1.39467945792526
1772882771777988400,1.99598828125,-2.0992349634855985,-0.7295978846192359,-1.7705889923140405
1772882771787921400,2.00592138671875,-0.9727841251701116,-0.9504682484656571,-2.049098767441511
1772882771797854500,2.0158544921875,-0.05129764103889465,-0.8983838409632444,-2.2362641378238797
1772882771807786500,2.025786376953125,0.6971247710376978,-1.1044710616976021,-2.309562013746798
1772882771817719600,2.035719482421875,1.3152233516335488,-1.2142068631798029,-2.1966551810130475
1772882771827652400,2.04565234375,1.840980917662382,-1.2957289620906114,-1.8882994259372352
1772882771837585400,2.05558544921875,2.173894190889597,-1.4268775539577006,-1.4576397719681262
1772882771847517400,2.065517333984375,2.2952602244108915,-1.459971429786086,-1.006534419080615
1772882771857450500,2.075450439453125,2.336072711792588,-1.4259732985943554,-0.49915685161203144
1772882771867382500,2.085382568359375,2.366884614163637,-1.2984113330423832,-0.01795066723227501
1772882771877315600,2.095315673828125,2.3186598046988247,-1.1466314565569162,0.29253800821900366
1772882771887248600,2.10524853515625,2.1498288401693104,-1.0570809494912623,0.5078431391537189
1772882771897181400,2.115181396484375,1.7692957376331089,-0.8395119652777909,0.6054603405579925
1772882771907113500,2.125113525390625,1.2108470313578843,-0.5103595058888196,0.46462563645690674
1772882771917046500,2.135046630859375,0.5712754546225071,-0.279528889042139,0.177684717592597
1772882771926978600,2.144978515625,-0.13979308609366417,-0.030801965498924253,-0.1701473078250885
1772882771936911600,2.15491162109375,-0.7660749731451273,0.15296937853097914,-0.3985515743076801
1772882771946844700,2.1648447265625,-1.2002397126257418,0.059384501382708545,-0.5225947180837393
1772882771956777500,2.174777587890625,-1.444525438851118,-0.01153787758052349,-0.46987902694046496
1772882771966709500,2.18470947265625,-1.4928677372157573,-0.13798457536697387,-0.33976094716489313
1772882771976642600,2.194642578125,-1.3968085789084435,-0.3256120103031397,-0.29977146660387516
1772882771986574300,2.20457421875,-1.2426584661602973,-0.531498740029335,-0.30435148787051436
1772882771996507400,2.21450732421875,-1.1508335844218731,-0.7348778708487749,-0.32351562254577876
1772882772006440400,2.2244404296875,-0.970692705848813,-0.9183739050686359,-0.3842053613081574
1772882772016373500,2.23437353515625,-0.725304571339488,-1.1140993062645197,-0.4179971562728286
1772882772026305500,2.244305419921875,-0.48601358466148376,-1.2380939347237347,-0.44218437980711456
1772882772036238300,2.25423828125,-0.2585217568486929,-1.3364303903132677,-0.40496728656888004
1772882772046170400,2.26417041015625,0.06936053647398949,-1.4224796112596987,-0.44971769792139527
1772882772056103400,2.274103515625,0.3570090190857649,-1.4483400287032127,-0.4767649870619178
1772882772066036500,2.284036376953125,0.6164443836480379,-1.4019365894466638,-0.5085656082093716
1772882772075969500,2.293969482421875,0.8151707202255726,-1.347153444379568,-0.5371726940125227
1772882772085901600,2.303901611328125,0.8178390626519918,-1.2459826421469449,-0.41275837883651256
1772882772095834400,2.31383447265625,0.7111293309926986,-1.1103221258133649,-0.2155006535068154
1772882772105767400,2.323767333984375,0.3953840501874685,-1.0151450110375881,-0.011973054127395152
1772882772115699200,2.33369921875,-0.016799159109592437,-0.8805407257586717,0.2084869753524661
1772882772125632300,2.34363232421875,-0.41475919726490973,-0.693580814820528,0.3984031057476997
1772882772135565300,2.3535654296875,-0.8236860351145266,-0.5999608663588762,0.4234872781217098
1772882772145497300,2.363497314453125,-1.147907467842102,-0.5396048895955086,0.3692877781614661
1772882772155430400,2.373430419921875,-1.4616595290035008,-0.4932388597398996,0.3159074856296181
1772882772165363200,2.38336328125,-1.7903882100224493,-0.517089690926671,0.31811990098208187
1772882772175295200,2.393295166015625,-1.9541162984549998,-0.5737836380511522,0.3637640463039279
1772882772185228300,2.403228271484375,-2.0694962433040143,-0.6609136399716139,0.501731378275156
1772882772195161300,2.413161376953125,-2.301061604166031,-0.826520381757617,0.7366153621658682
1772882772205093400,2.42309326171875,-2.4949387471467257,-1.0806009412884712,0.9164423524841666
1772882772215026400,2.4330263671875,-2.7242735724776983,-1.2783090407341717,0.8696431919082999
1772882772224959500,2.44295947265625,-2.8113106354176995,-1.399280521979928,0.646892128881812
1772882772234891500,2.4528916015625,-2.834785034507513,-1.2416525039881467,0.3078226711124182
1772882772244824300,2.46282421875,-3.3594834468722343,-0.24847850174009797,-0.5842664536207914
1772882772254757400,2.47275732421875,-3.8990789841175078,0.6563298193126916,-1.6846850250571965
1772882772264689400,2.482689453125,-3.2855724074870345,1.7530296624869106,-2.1709557993501423
1772882772274622500,2.49262255859375,-1.8414362602144478,3.238215613028407,-2.185025387365371
1772882772284555500,2.502555419921875,-0.5052689047515392,3.8001001389712092,-1.5055200057789682
1772882772294487600,2.512487548828125,0.9543769463419913,3.918438933625817,-0.027805852422863243
1772882772304420400,2.52242041015625,1.611189580735564,3.9450633211791515,1.3200005029074846
1772882772314353400,2.532353515625,0.8515016782790422,3.4239357530385255,2.6217291438043118
1772882772324285400,2.542285400390625,-0.9045581456840037,2.49108850145936,3.696337566679716
1772882772334218500,2.552218505859375,-2.8378520208626985,1.222164544185996,4.707110061721504
1772882772344151600,2.562151611328125,-4.158583906784654,-0.04141162231862545,5.61890838779211
1772882772354083300,2.572083251953125,-4.589834220123291,-0.9029267450898886,5.959411677756905
1772882772364016400,2.582016357421875,-3.834426186943054,-1.429405611130595,5.330647326239943
1772882772373949200,2.59194921875,-1.642128324356675,-1.4910001897782086,3.8349697923004626
1772882772383881200,2.601881103515625,1.4128998820096252,-1.1458546269655228,1.6951548350147903
1772882772393814300,2.611814208984375,4.518929376816749,-0.34911446644365784,-0.6136033150032162
1772882772403747300,2.621747314453125,7.080891741922497,0.25607553274035455,-2.6418624157726764
1772882772413679400,2.631679443359375,8.72447903291583,0.5224456650018692,-3.8171623329311606
1772882772423612400,2.6416123046875,8.95652253268361,0.49066988603472705,-3.907334771287441
1772882772433545500,2.65154541015625,8.163700422388315,0.31170506550371646,-3.1943419845104217
1772882772443477500,2.6614775390625,6.687570469483733,-0.026101824983954428,-1.8298279477462172
1772882772453410300,2.671410400390625,4.923105805268883,-0.30929625079631806,-0.25445816067159177
1772882772463343400,2.68134326171875,2.9847248360842467,-0.5498702630221843,1.167467908358574
1772882772473275400,2.691275390625,1.0085609564721583,-0.6465390776604414,2.4513661474019286
1772882772483208400,2.70120849609375,-0.7686065374493598,-0.5369903231829405,3.466350414919853
1772882772493141500,2.7111416015625,-2.1478800441890953,-0.18958909039795396,4.0002471560016275
1772882772503073500,2.721073486328125,-2.794289942511916,0.43729894585311413,3.8391263274580236
1772882772513006300,2.73100634765625,-2.4493355183571577,1.2904752793461083,2.9152082322657105
1772882772522939400,2.740939453125,-1.4508622406572103,1.946570120859146,1.6148421118937433
1772882772532871400,2.750871337890625,-0.5732213279932737,2.3538661426365373,0.27297771383300423
1772882772542804500,2.760804443359375,-0.183788879686594,2.5929770965725183,-0.9342498118534683
1772882772552737500,2.770737548828125,-0.027425182542204857,2.2269430595099924,-1.7540420543998478
1772882772562669600,2.780669677734375,0.18632804277539253,1.5762971310526133,-1.8645545393429694
1772882772572602600,2.7906025390625,0.5252747509479523,0.8220967200964688,-1.5524452769525348
1772882772582535400,2.800535400390625,0.8811270012140273,-0.08733166197240352,-1.1152210037708281
1772882772592467200,2.81046728515625,1.2984919970631599,-0.7558908482611179,-0.7558904098697006
1772882772602400300,2.820400146484375,1.6506559142053125,-1.2769833450883625,-0.4721535477437079
1772882772612333300,2.830333251953125,1.9018308154225347,-1.7378332623988388,-0.22471987888142464
1772882772622265300,2.840265380859375,2.198030268758535,-1.7623668151527643,-0.2150312824293971
1772882772632198400,2.850198486328125,2.447337038016319,-1.650035736480355,-0.46783480776175856
1772882772642131500,2.86013134765625,2.290620874172449,-1.3811761254906654,-0.7376268772959709
1772882772652063500,2.8700634765625,1.8367367042213678,-1.0706839429080486,-0.7541692851655185
1772882772661996300,2.879996337890625,1.232310090625286,-0.8009463800400495,-0.4862449091993272
1772882772671929300,2.889929443359375,0.6121101538360119,-0.5611807615876198,-0.06674392423480749
1772882772681861400,2.899861328125,0.035514380973577495,-0.35012978096604347,0.31543650711700316
1772882772691794400,2.90979443359375,-0.46496027523875233,-0.110686234074831,0.5907485091164708
1772882772701727500,2.9197275390625,-0.8522533734291792,0.1490805543988943,0.7478991188548505
1772882772711659500,2.929659423828125,-1.102626895135641,0.36874738767445087,0.9516567275978625
1772882772721592300,2.93959228515625,-1.3296774089217185,0.4256266282379627,1.2029185764461756
1772882772731525400,2.949525390625,-1.4654706117242573,0.25458383287787434,1.5454549796737729
1772882772741457400,2.95945751953125,-1.511852423670888,0.05975567278265953,1.966800861852616
1772882772751390500,2.969390380859375,-1.561511649852991,-0.1587625749796629,2.204293420806527
1772882772761323500,2.979323486328125,-1.48225048161149,-0.5026631061673164,2.3826754730135202
1772882772771255600,2.989255615234375,-1.1460825905025005,-0.5296808769524097,2.3551173117414117
1772882772781188600,2.999188720703125,-0.5922679737687111,-0.49531566601395605,1.9938858526550232
1772882772791121400,3.009121337890625,-0.008404840251803398,-0.42882279393076894,1.3425116099230945
1772882772801053200,3.01905322265625,0.5219961676687002,-0.19107260695397854,0.509946541173756
1772882772810986200,3.028986328125,1.0835030924707652,0.13578443497419357,-0.5093235869698226
1772882772820919600,3.03891943359375,1.516115341812372,0.4129939411580562,-1.5152480574585496
1772882772830851300,3.048851318359375,1.6777607787519693,0.5978554185122251,-2.3386703270703553
1772882772840784400,3.058784423828125,1.597860728085041,0.6122820032715797,-2.7123358819246293
1772882772850717200,3.06871728515625,1.3284785545259714,0.5659907922178506,-2.626959445673227
1772882772860649500,3.0786494140625,0.9316922363251448,0.4249819005936384,-2.308704520134628
1772882772870582300,3.088582275390625,0.5305787025749683,0.1069306809335947,-1.9892364194139838
1772882772880515300,3.098515380859375,0.3380634955972433,-0.2591279060482979,-1.8572879093408583
1772882772890447400,3.108447265625,0.3422533485025167,-0.38075697441995143,-1.9485963659897445
1772882772900380400,3.11838037109375,0.638848523157835,-0.2589782684445381,-2.115013985767215
1772882772910313500,3.1283134765625,1.302527536189556,0.44013621510565276,-2.131598771473765
1772882772920245500,3.13824560546875,2.202818672078848,1.7006904034405945,-1.8805698545984924
1772882772930178300,3.14817822265625,2.8992811798155307,2.680226340958476,-0.9010779023528098
1772882772940111400,3.158111328125,2.550048639950156,3.8295220482885837,0.1651436543188989
1772882772950043400,3.16804345703125,0.6790308959424495,4.681095622760057,0.6703812871493399
1772882772959976400,3.1779765625,-1.798710632687807,4.7942754272162915,0.8795540528088808
1772882772969909500,3.187909423828125,-3.8160213462024926,4.804841829416156,0.9831620190605521
1772882772979841500,3.197841552734375,-5.115763635587692,4.262572689047455,1.070672983122617
1772882772989774600,3.207774658203125,-5.144049234351516,2.8399633139282465,1.5425667108863592
1772882772999707000,3.217706787109375,-3.9880198348522184,0.9766197578102349,2.733037893691659
1772882773009639000,3.227638916015625,-2.3346003011524674,-0.9296113383978605,4.220122663591802
1772882773019572000,3.237572021484375,-0.5715145240753888,-2.343122630304098,5.484208825445175
1772882773029505000,3.247505126953125,1.051346789753437,-2.9619834274441,5.915093812602758
1772882773039437000,3.25743701171875,2.3702497066825625,-3.011028321120143,5.45715773691237
1772882773049370000,3.2673701171875,3.3233909737497567,-2.2987860604494808,4.045934263682365
1772882773059303200,3.27730322265625,3.3710815302073955,-1.2653420071333645,2.154262730963528
1772882773069235200,3.287235107421875,2.6696055782228707,0.04061024280786514,0.3528580368861556
1772882773079168000,3.29716796875,1.6346283239901065,1.2561246814548968,-1.1946227495267987
1772882773089101000,3.30710107421875,0.49130350776314735,1.8783827198177574,-2.207453346142173
1772882773099033000,3.317033203125,-0.48637423466742036,2.0213860001295805,-2.627844119553268
1772882773108966100,3.326966064453125,-1.414297473847866,1.9000509462684392,-2.6128508408218623
1772882773118899200,3.336899169921875,-2.2037872248500583,1.4431085577905178,-2.2176778030365702
1772882773128831000,3.3468310546875,-2.7649744161784646,0.7410480839163065,-1.618030824932456
1772882773138764000,3.356763916015625,-2.900190695875883,0.023174539360404013,-0.9625842181950807
1772882773148697000,3.366697021484375,-2.492440500590205,-0.5794920788258314,-0.4649667049795389
1772882773158628900,3.37662890625,-1.6342811179876326,-1.058965448063612,-0.15652385614216327
1772882773168562000,3.38656201171875,-0.6618740094363689,-1.4293079959750175,-0.06072159520536661
1772882773178495000,3.396494873046875,0.3949748848646879,-1.566431570598483,-0.08429594753831625
1772882773188427000,3.406427001953125,1.5202344675689934,-1.6737170563191175,-0.1007739118695259
1772882773198360000,3.416360107421875,2.258137823718786,-1.7516291480392217,-0.04398264185041189
1772882773208292900,3.42629296875,2.708628844100237,-1.7591063520520924,0.10740706627368926
1772882773218225000,3.436224853515625,2.8507126714795827,-1.8665040659755467,0.3534121636375785
1772882773228158000,3.446157958984375,2.6946517566740513,-1.8591005117207764,0.6377753409683704
1772882773238091000,3.456091064453125,2.2302292415738103,-1.8594781128615139,0.8710232480898499
1772882773248023000,3.46602294921875,1.720257273697853,-1.6768956863552331,0.9850722365960478
1772882773257956000,3.4759560546875,1.307104342585802,-1.4570307001590728,0.8303001925572753
1772882773267889000,3.485888916015625,0.9402946449756622,-1.2385925318956374,0.5340244591146707
1772882773277821200,3.4958212890625,0.4897632925838232,-1.05423198980093,0.24804683232456445
1772882773287754000,3.50575390625,0.01909340752661228,-0.8621054898798465,-0.011651859349012373
1772882773297687000,3.51568701171875,-0.37454175316691396,-0.669623016127944,-0.28279490510076283
1772882773307619000,3.525619140625,-0.8476309743255376,-0.5864326917439698,-0.5351122543513774
1772882773317552000,3.53555224609375,-1.2947305987030266,-0.49479251892268655,-0.7295104985967278
1772882773327485200,3.545485107421875,-1.725173687312007,-0.4078068939089775,-0.8330822244912386
1772882773337418000,3.55541796875,-2.146779973992705,-0.3565098373919725,-0.8287529631152749
1772882773347350000,3.56535009765625,-2.5001444990962742,-0.30269933674931526,-0.8139148749455809
1772882773357283000,3.575282958984375,-2.629421451872587,-0.3348001098871231,-0.776325441263616
1772882773367216000,3.585216064453125,-2.5850667618393897,-0.39178807152211664,-0.8367202887326478
1772882773377148000,3.59514794921875,-2.3689538216531276,-0.4710410564571619,-0.8971542991682887
1772882773387081000,3.6050810546875,-2.099846373382211,-0.6953156757891178,-0.8617115221261977
1772882773397014000,3.615013916015625,-1.7705758405715226,-0.9067582860767841,-0.7861408789657056
1772882773406946000,3.624946044921875,-1.3548703023672104,-1.1598644476175308,-0.7414765384614467
1772882773416878800,3.63487890625,-1.0323884067833422,-1.482918590131402,-0.6409509022645652
1772882773426812000,3.64481201171875,-0.7888280722230673,-1.6310621559411287,-0.634038492527604
1772882773436744000,3.654743896484375,-0.6058768124043941,-1.7151830391734837,-0.7489654329121113
1772882773446677000,3.664677001953125,-0.33691841721534727,-1.7986591947615145,-0.910337313607335
1772882773456610000,3.674610107421875,-0.09239712866842746,-1.6897358787059782,-1.0387816149517892
1772882773466542000,3.6845419921875,0.10357260267734526,-1.6286381436645985,-0.8780386798098683
1772882773476475000,3.694474853515625,0.25949030961990355,-1.6448481047093868,-0.4513363851644098
1772882773486408000,3.704407958984375,0.3067436437040567,-1.6510323463022707,0.12843874838650227
1772882773496340000,3.714340087890625,0.2600771695971489,-1.602959512528777,0.6330914209358394
1772882773506273000,3.72427294921875,0.16038754583299158,-1.4877794741660355,1.0267144528001546
1772882773516206000,3.7342060546875,0.11518939071297644,-1.3590239149153232,1.3249362057439982
1772882773526138000,3.74413818359375,0.15958791988790033,-1.225967443600297,1.6446249634779988
1772882773536071200,3.7540712890625,0.05011223064661026,-1.1837766536027192,1.9271875211276113
1772882773546004000,3.76400390625,-0.14875556022822856,-1.1334715307325125,2.2083467878505587
1772882773555936000,3.77393603515625,-0.4351157565951347,-1.0979571497589349,2.424877368927002
1772882773565869000,3.783869140625,-0.7778320464342832,-1.0561579894274473,2.426063363841176
1772882773575802000,3.793802001953125,-0.9982382999002933,-0.9728466690123081,2.418139731235057
1772882773585734100,3.803734130859375,-1.1126467693686484,-1.1087275500982998,2.403944763274491
1772882773595667200,3.813667236328125,-1.250068450155854,-1.270509180638194,2.4672955379396675
1772882773605600000,3.82360009765625,-1.2882961817413567,-1.4569664027512073,2.6111232863768934
1772882773615532000,3.833531982421875,-1.290970369386673,-1.6251292587608097,2.7290283657893535
1772882773625464800,3.84346484375,-1.3099696688890456,-1.7645891673773526,2.848269369980693
1772882773635398000,3.85339794921875,-1.2850976779609917,-1.8759622146725654,2.878097229750454
1772882773645330000,3.863329833984375,-1.5559645371198654,-1.6241577833801506,2.796089685410261
1772882773655263000,3.873262939453125,-2.495791564583778,-0.6784644942313433,2.074259219922125
1772882773665196000,3.883196044921875,-3.060937138149142,0.09397183063924312,1.21714481632784
1772882773675128000,3.893128173828125,-2.565851189237833,1.4121137000679969,0.36890681601986286
1772882773685060900,3.903060791015625,-1.409903622803092,2.6310633738607168,-0.5991954349443316
1772882773694994000,3.912993896484375,-0.15387246485054493,3.3237475321024657,-0.953013402903825
1772882773704926000,3.922926025390625,0.8343138121128082,3.877429462367296,-0.5267638204619288
1772882773714859000,3.93285888671875,0.725050888839364,3.69653513507843,0.5088213365361094
1772882773724792000,3.9427919921875,-0.24667408266663549,3.031089696896076,1.760996403582394
1772882773734724000,3.95272412109375,-1.9011305581986904,2.2921114049911497,3.1524592375487086
1772882773744657200,3.9626572265625,-3.4967677650153637,1.073997597500682,4.030665675140917
1772882773754590000,3.97258984375,-4.355570706218481,-0.18600772477984429,4.601616720114648
1772882773764522000,3.98252197265625,-4.048428418585658,-1.2750713739871977,5.101150003823638
1772882773774453000,3.992452880859375,-2.9977719491839405,-1.9366554605662822,5.130755453014373
1772882773784385800,4.0023857421875,-1.2100199328839778,-1.4793255340754985,3.789281515575945
1772882773794318800,4.01231884765625,1.0640110410153865,-0.3919564138263464,1.2993632269397377
1772882773804251000,4.0222509765625,3.337645709073543,0.9282879808396101,-1.6398425515070556
1772882773814184000,4.032183837890625,5.239546082600951,2.019124484938383,-4.187487637446821
1772882773824117000,4.042116943359375,6.369334540906548,2.6296371404498813,-5.683060834228992
1772882773834049000,4.052049072265625,6.402376978808641,3.0106741008549927,-6.110707570117712
1772882773843982000,4.061982177734375,5.838966266211867,3.0228228038102385,-5.9175803687214845
1772882773853915000,4.071914794921875,4.96334020050168,2.549412680134177,-5.023564659839868
1772882773863847000,4.081846923828125,3.9317169328719377,1.8883938262224196,-3.7945775761574505
1772882773873780000,4.091780029296875,2.7665812668532133,1.4040741859972476,-2.3978356327444312
1772882773883713000,4.101713134765625,1.4824948117613792,0.4452829303443432,-1.0205372254699467
1772882773893645000,4.11164501953125,0.21178864724636076,-0.2051110691785812,0.44078883379548783
1772882773903578000,4.121578125,-0.7807394583135843,-0.702568423396349,1.7401956076160072
1772882773913511000,4.131510986328125,-1.309912970265746,-0.8993500556468963,2.8205636169314383
1772882773923443200,4.141443115234375,-1.2839479234039783,-0.8120113794118166,3.334997824913263
1772882773933376000,4.1513759765625,-0.7151677927285433,-0.4834282443434,3.103497053720057
1772882773943309000,4.16130908203125,0.11354045446217059,0.010646481698751448,2.12225124354437
1772882773953241000,4.171240966796875,0.9164818077117204,0.6673410426706076,0.8610987970553338
1772882773963174100,4.181174072265625,1.338024381506443,1.0478922653853893,-0.3991431104600429
1772882773973107200,4.191107177734375,1.498970730265975,1.1284008033394812,-1.3762386690884827
1772882773983039200,4.201039306640625,1.6878595634400844,0.7433177824139594,-1.7476061761334538
1772882773992972000,4.210971923828125,1.783309649938345,0.26420155605077744,-1.7569544347152113
1772882774002905000,4.220905029296875,1.975142135348916,-0.4148994825184345,-1.5323478069499135
1772882774012837000,4.230837158203125,2.100490516504645,-1.0088000259250403,-0.9394682771541177
1772882774022770200,4.240770263671875,2.148482686257362,-1.3827362144142388,-0.33073797501474617
1772882774032703200,4.250703125,2.098679667690396,-1.4268249469876289,-0.1641910297691822
1772882774042635300,4.26063525390625,2.066958249258995,-1.2293360432505607,-0.3679829791732132
1772882774052568300,4.270568359375,1.9756962621003389,-1.0091308653146027,-0.728855541819334
1772882774062501000,4.280501220703125,1.5005004240512847,-0.7855711162537335,-1.025775418384373
1772882774072433200,4.29043310546875,0.6741612440794706,-0.4776490764200687,-1.120772646548599
1772882774082366200,4.3003662109375,-0.40033085893988607,-0.25252514678239824,-1.0502196854196488
1772882774092299300,4.31029931640625,-1.4475462479770183,0.0108534024477005,-0.8626398890174924
1772882774102231300,4.320231201171875,-2.333841591739654,0.24016192429363725,-0.5031083657167852
1772882774112164400,4.330164306640625,-2.7324095326602458,0.41058045027554035,-0.21093875241875648
1772882774122097200,4.34009716796875,-2.65582430562973,0.5048486335128546,-0.07169117137864231
1772882774132029200,4.350029296875,-2.1515309679120778,0.6445078640937805,-0.08167509751543402
1772882774141962000,4.3599619140625,-1.5430951186746358,0.6966250048220157,-0.19704452097043393
1772882774151896300,4.369896240234375,-0.9507149167031049,0.5949585280269384,-0.2460077277123928
1772882774161829000,4.3798291015625,-0.2820610378682613,0.4021656731516123,-0.1470997558452189
1772882774171761200,4.38976123046875,0.21113807438313958,0.1374514914035797,-0.016103139669448135
1772882774181694000,4.39969384765625,0.3660696928977966,-0.0025508535265922547,-0.07008242100775242
1772882774191627300,4.409627197265625,0.5743506242841482,-0.09491057279407977,0.03856923849955201
1772882774201559000,4.41955908203125,0.649885465478897,-0.28982407308518887,0.0735556500762701
1772882774211492000,4.4294921875,0.712029494702816,-0.3845125275611877,0.28633126253336666
1772882774221425200,4.439425048828125,0.8772405151695013,-0.6258651229441166,0.7592443964727222
1772882774231357200,4.449357177734375,0.8726099327594041,-0.7475555661141872,1.0499098888181149
1772882774241290000,4.4592900390625,0.8611860369473695,-0.7487965060859918,1.151619327972084
1772882774251223000,4.46922314453125,0.8468143972456454,-0.7317974404901265,0.8984785335093736
1772882774261155000,4.479155029296875,0.7817752311021089,-0.6447919417321681,0.40537236023843287
1772882774271088000,4.489088134765625,0.7215648002892732,-0.518292636975646,-0.04407061239480972
1772882774281021200,4.499021240234375,0.4694087790802121,-0.4881231241613626,-0.4480361745752394
1772882774290953200,4.508953125,0.0724012193441391,-0.44120998181700705,-0.763349785964936
1772882774300886300,4.51888623046875,-0.39599019938707347,-0.42364217642247676,-0.9737348500236869
1772882774310819000,4.528819091796875,-0.8460536420062184,-0.45794951969385145,-1.0244564447402953
1772882774320751000,4.538751220703125,-1.2231868729710578,-0.5147632938057184,-0.9021513768032192
1772882774330684200,4.54868408203125,-1.504459390810132,-0.6135299575060605,-0.6256858208544552
1772882774340617200,4.5586171875,-1.7139894454747437,-0.6444979272216558,-0.37239699622318145
1772882774350549200,4.56854931640625,-1.7451283878430723,-0.6112824708402157,-0.20719781232476234
1772882774360482300,4.578482421875,-1.7681798853456974,-0.5592009859472513,-0.3059618456766009
1772882774370415000,4.5884150390625,-1.660478220039606,-0.503600094756484,-0.581849309476465
1772882774380347100,4.59834716796875,-1.4645055660843849,-0.39385377188026904,-0.9332793593861162
1772882774390280200,4.6082802734375,-1.3064566923320293,-0.2766863590925932,-1.3290455407589674
1772882774400213200,4.618213134765625,-1.2061468908429145,-0.17852175293862818,-1.617504024579376
1772882774410145000,4.62814501953125,-1.190102934014797,-0.10590016884207724,-1.6880007254764438
1772882774420078000,4.638078125,-1.1468252255633473,0.04133680351674557,-1.6648327619872987
1772882774430011100,4.64801123046875,-0.9862190685436129,0.19199673606157303,-1.6106275629386304
1772882774439943200,4.657943115234375,-0.9315639337703585,0.24896248586475847,-1.534588279353082
1772882774449876000,4.6678759765625,-1.0064633996710182,0.20052198782265185,-1.2745052645370363
1772882774459809000,4.67780908203125,-1.2341589333623646,0.09711889649331569,-0.967647054542601
1772882774469741000,4.687740966796875,-1.511746040686965,0.12499883706569671,-0.877246652649343
1772882774479674000,4.697674072265625,-1.51861826454401,0.5379810877859592,-1.1829976320542395
1772882774489607200,4.707607177734375,-1.1529723500162363,1.1167810926944017,-1.604223102723807
1772882774499539200,4.717539306640625,-0.852837310796976,1.9422195244342089,-1.587774802878499
1772882774509472300,4.72747216796875,-0.5985580138236284,2.81966520678699,-1.098487749504298
1772882774519405000,4.737405029296875,-0.6168944655030966,3.558904779976606,-0.6422291055068373
1772882774529338000,4.747338134765625,-1.0701771624296903,3.9567999362021684,-0.49129430154338477
1772882774539270100,4.757270263671875,-1.759043515948951,4.09135745972991,-0.49991044645830984
1772882774549203200,4.767203125,-2.192047687217593,3.882543444380164,-0.6330199631348252
1772882774559136300,4.77713623046875,-2.167423533570766,3.2528099555701013,-0.6588435556992888
1772882774569068300,4.787068359375,-1.720413925564289,2.5092308918714523,-0.6555110502757132
1772882774579001000,4.7970009765625,-0.8284925586134195,1.6021178010076282,-0.5408651187896728
1772882774588934100,4.80693408203125,0.3954927712589502,0.6185346339255571,-0.07125541030988097
1772882774598866200,4.8168662109375,1.4213853862822055,-0.6324982773482799,0.5275633002765476
1772882774608799200,4.82679931640625,2.4022020112603903,-1.76918234038651,1.5585748657487333
1772882774618732300,4.836732177734375,3.3984219570755956,-2.7388965565919876,2.610876325878501
1772882774628664300,4.846664306640625,3.9165526814877984,-3.2223341532856224,3.3427342643842097
1772882774638597400,4.856597412109375,4.9309839912980795,-2.921173278149962,3.944448988673091
1772882774648530200,4.8665302734375,5.53901242877841,-2.3133283805429934,3.7052956569001076
1772882774658462000,4.8764619140625,5.620595317965746,-1.4406938978642225,2.8718165420457717
1772882774668395000,4.88639501953125,5.3828118132412435,-0.2491618078291416,1.8605388739608226
1772882774678328000,4.896328125,4.347268741819263,0.8050134833484888,0.7428596633829176
1772882774688260000,4.906260009765625,2.8724855273485184,1.8445371488392353,-0.2729991950124502
1772882774698193200,4.916193115234375,1.1090250717401504,2.5387106688559054,-1.0527170551933347
1772882774708126000,4.9261259765625,-0.9231552941262722,2.7789146787256,-1.430325064063072
1772882774718058000,4.93605810546875,-3.0497686784029003,2.7063234897673127,-1.3716818825669586
1772882774727991000,4.945990966796875,-5.034002467224002,2.281433359110355,-1.1353596825666725
1772882774737924000,4.955924072265625,-6.626914632990956,1.5900561918139458,-0.6124132284358144
1772882774747856100,4.965856201171875,-7.494965295010805,0.9835007494956255,-0.0843206435881555
1772882774757789200,4.9757890625,-7.289654903867841,0.4108732957422733,0.10619169913455843
1772882774767722200,4.98572216796875,-5.982208031454682,0.07889175040721892,-0.1409241359502077
1772882774777654300,4.995654296875,-4.108254818516969,-0.21303309434950352,-0.6910306919462978
1772882774787587000,5.005587158203125,-2.0255133091926574,-0.5333668719887733,-1.328048346415162
1772882774797520100,5.01552001953125,-0.17231939116716383,-0.7278413963407278,-1.7680905996270477
1772882774807452200,5.0254521484375,1.2257412336289881,-1.0176648849040268,-2.0470885966628787
1772882774817385200,5.03538525390625,2.170879811504483,-1.2537906855493783,-1.9799995122522114
1772882774827318300,5.045318359375,2.8717689035117626,-1.4222376191973685,-1.5483144607581196
1772882774837250300,5.055250244140625,3.408252446216345,-1.6488877354890108,-1.0173160714663565
1772882774847183000,5.06518310546875,3.7055847029745577,-1.9620026677906512,-0.34457521557882426
1772882774857116200,5.0751162109375,3.8851089109539982,-2.15283211363852,0.37905104728490113
1772882774867048200,5.085048095703125,3.8815719689995047,-2.276267939171195,0.9567042202457785
1772882774876981200,5.094981201171875,3.786603528538346,-2.3260113365054127,1.4279082121796904
1772882774886914300,5.104914306640625,3.574028699350357,-2.2145798370212315,1.6082339458003638
1772882774896846000,5.11484619140625,3.160202399021387,-2.0439929687350986,1.6190728813312947
1772882774906779100,5.124779052734375,2.788452906921506,-1.7460300128579138,1.4938596708625553
1772882774916712000,5.1347119140625,2.4180203426390885,-1.4200351407170295,1.1937963817052542
1772882774926644000,5.14464404296875,2.0158920788884163,-1.1502210054814814,0.7039047865666449
1772882774936577000,5.154576904296875,1.5231062236130237,-0.8641419641435146,0.21699206110835073
1772882774946510000,5.164510009765625,0.9591524901807308,-0.686409900277853,-0.15030366645306348
1772882774956443100,5.174443115234375,0.2682569689214229,-0.5937473986715078,-0.35225349512174725
1772882774966375200,5.184375244140625,-0.4161778318911791,-0.4873270053476095,-0.4201151713401079
1772882774976308200,5.19430810546875,-1.100668746805191,-0.4277712390512228,-0.4942796009644866
1772882774986240300,5.204240234375,-1.623437067890167,-0.3453963227033615,-0.47116789770722384
1772882774996173000,5.214173095703125,-1.8676865537583827,-0.3229009977787733,-0.44606531289368867
1772882775006106000,5.224106201171875,-1.9267828858494758,-0.2507049456179142,-0.41771629350483414
1772882775016039200,5.2340390625,-1.9426690217673777,-0.23843992280662057,-0.46366439020931716
1772882775025971200,5.24397119140625,-1.9303005385816097,-0.2234247245043516,-0.47770592117384075
1772882775035904300,5.253904296875,-1.8622312109619379,-0.20508827282488346,-0.46040465776100753
1772882775045837000,5.263837158203125,-1.824477526628971,-0.23386311641037463,-0.3814044785432517
1772882775055769000,5.27376904296875,-1.7920102582663298,-0.18373451915085315,-0.22138941928446293
1772882775065702100,5.2837021484375,-1.6941431737542152,-0.11656652428507804,-0.029122780240327117
1772882775075635200,5.29363525390625,-1.3760259031206368,-0.1094184060961008,0.13311828450486063
1772882775085567200,5.303567138671875,-0.8608762403458357,-0.14082126009762286,0.3358142553657293
1772882775095500300,5.313500244140625,-0.36216216406524177,-0.11657587663531303,0.6180654089786112
1772882775105433300,5.323433349609375,-0.00800561180114746,-0.1761030013591051,0.8892714369639754
1772882775115365400,5.333365478515625,0.04836451019644737,-0.42865620519220826,1.179383825471252
1772882775125298200,5.343298095703125,-0.2672726340591907,-0.707598234257102,1.6544934465415775
1772882775135231200,5.353231201171875,-0.9029834437131882,-0.6512783811420202,1.931361884202808
1772882775145163300,5.363163330078125,-2.1655635849177837,-0.13145020516216754,1.646671520744264
1772882775155096300,5.373096435546875,-2.704361249783635,0.6117839906215667,0.9884588102944195
1772882775165029400,5.383029296875,-2.3063398368299004,2.3032728504747153,0.2876980208419263
1772882775174961200,5.392961181640625,-1.6619839484274386,3.7792730395197864,-0.5130504985384643
1772882775184894200,5.402894287109375,-0.9870482128441334,4.69571159261167,-0.6946984206736088
1772882775194827000,5.412826904296875,-0.5047954420208931,4.686740935170651,0.004680412901192903
1772882775204759000,5.422759033203125,-0.6040759004622698,3.7706454964280125,1.5164321526765823
1772882775214692000,5.432692138671875,-1.1610311533093451,2.6255975096702575,3.409875663504004
1772882775224625200,5.442625244140625,-1.8736369865953921,1.7290560817033052,4.911144149318337
1772882775234557200,5.45255712890625,-2.10059339235723,1.1174252358168364,5.471151775473356
1772882775244490200,5.462490234375,-1.412920924797654,0.8764274452209472,4.788919453141093
1772882775254423000,5.472423095703125,-0.07802899609804154,0.7536135509788989,3.5842046409279105
1772882775264355000,5.48235498046875,1.5159282948076724,0.8942337355464697,2.271258294315636
1772882775274288000,5.4922880859375,3.4079975946724415,1.3611767090350388,0.8446312079876661
1772882775284221200,5.50222119140625,5.16662522329688,1.856674745878577,-0.5346741551950573
1772882775294153200,5.5121533203125,6.49564679865837,2.2732395312607285,-1.7094389425635337
1772882775304086300,5.522086181640625,7.4944982620209455,2.3831074346899985,-2.167706880556792
1772882775314019300,5.532019287109375,8.142655880793928,2.079205151891708,-1.8685976772539317
1772882775323951400,5.541951416015625,8.239144662690162,1.5350012440681458,-0.8050726661898195
1772882775333884200,5.55188427734375,7.967033940950036,0.9072983843028545,0.9363673885293304
1772882775343817200,5.561817138671875,7.102111640083789,0.28208208065629004,2.784980262374878
1772882775353749200,5.571749267578125,6.034763563600182,0.12069149526059626,4.167204143352806
1772882775363682300,5.581682373046875,4.717378650018572,0.2768745751410723,4.907845692294836
1772882775373615400,5.591615478515625,3.4090970803469416,0.6530752014309168,4.949733699953556
1772882775383548200,5.601548095703125,1.9955092160731553,1.273247081169486,4.4538113002181055
1772882775393480200,5.611480224609375,0.7506745749175548,1.8322820629000662,3.574345510214567
1772882775403413200,5.621413330078125,-0.05106207871735096,2.200553649756312,2.536786422795057
1772882775413346300,5.63134619140625,-0.5041454536795615,2.279983160302043,1.42945237288177
1772882775423278000,5.641278076171875,-0.5838204634189605,2.116964096921682,0.3593070668950677
1772882775433211100,5.651211181640625,-0.4288157796680927,1.82382636924386,-0.5615517868570983
1772882775443144200,5.661144287109375,0.04660159217715263,1.4751485406517981,-0.9928718044310808
1772882775453076200,5.671076171875,0.7354711605668067,1.317876496490836,-1.1318865996286271
1772882775463009000,5.681009033203125,1.5194143833577631,1.3965169024854898,-1.1704529155187309
1772882775472942000,5.690942138671875,1.9401012171059846,1.3365373578190802,-1.3396008370429278
1772882775482874000,5.7008740234375,2.146370224148035,1.1473217769086361,-1.5603601417303083
1772882775492807200,5.71080712890625,2.1680986563533544,1.107354508179426,-1.5611863634213805
1772882775502740200,5.720740234375,1.7670868294119835,0.8302396945416927,-1.2904241336807607
1772882775512672300,5.73067236328125,1.124012797513604,0.6376613591998815,-0.654814738574624
1772882775522605000,5.74060498046875,0.44764556782245635,0.6584124708056449,0.017160539767891166
1772882775532538000,5.7505380859375,-0.031814941933751104,0.9059721041351556,0.3695740477569401
1772882775542470100,5.76047021484375,-0.21122750623226164,1.2456892121583223,0.484037170021981
1772882775552403200,5.7704033203125,-0.3225204740285873,1.516391820666194,0.590033273519203
1772882775562336300,5.780336181640625,-0.17891864330172538,1.5741010823130606,0.6075435765728354
1772882775572268300,5.790268310546875,0.05796820484399795,1.581144571083784,0.5529309657670557
1772882775582201300,5.800201416015625,0.4476075738996267,1.3851783468693495,0.6020108576912433
1772882775592134100,5.810134033203125,0.796361390337348,1.0210936903089285,0.8659688142444938
1772882775602066200,5.820066162109375,1.0669909336090087,0.6813818429827689,1.1338116494070738
1772882775611999200,5.829999267578125,1.2791753021746872,0.4152046029448509,1.3064265894547105
1772882775621932300,5.839932373046875,1.4816361491054295,0.34510523080229755,1.3200389352217317
1772882775631864300,5.8498642578125,1.5672323655873537,0.3746317695379257,1.18183333751522
1772882775641797400,5.85979736328125,1.4879647676050662,0.4805722703903913,1.0114625961977988
1772882775651730200,5.869730224609375,1.431313490578532,0.7713438534587621,0.7327210581410676
1772882775661662200,5.879662109375,1.4497498955011368,1.1958096212238072,0.2530205290839076
1772882775671595000,5.889594970703125,1.6986895850121975,1.2561100684076547,-0.12922251917533575
1772882775681528000,5.899528076171875,1.667152875497937,1.4337842646062373,-0.4121246109776199
1772882775691460000,5.909460205078125,1.5217203222125768,1.50918174315691,-0.6004874475162476
1772882775701393200,5.91939306640625,1.1421195320904254,1.4006290139794348,-0.45613889007531105
1772882775711326200,5.929326171875,0.8267483452945947,1.360874511218071,-0.23684359352588652
1772882775721259000,5.939259033203125,0.717469639930129,1.2374819403052328,-0.0232561532292515
1772882775731191000,5.94919091796875,0.7222334933310747,1.2273930924892424,0.02723484760187566
1772882775741124000,5.9591240234375,0.8862181868731975,1.29625386274755,-0.1714064410407096
1772882775751057200,5.96905712890625,1.1785001745045185,1.295336163380742,-0.4272022069916129
1772882775760989200,5.9789892578125,1.5932283921092747,1.4142092110425233,-0.6343854793343693
1772882775770922200,5.988922119140625,1.9886171184718608,1.370557116320729,-0.8926774460151791
1772882775780855300,5.998855224609375,2.2593138817608356,1.3185802608460186,-1.1260565783008933
1772882775790787300,6.008787353515625,2.462380293369293,1.2948071710705757,-1.1959861468344926
1772882775800720100,6.01872021484375,2.5934534819126127,1.2669745767712592,-0.8595147427342832
1772882775810653200,6.028653076171875,2.4680676913559436,1.2364490901261567,-0.388092358809337
1772882775820585200,6.038585205078125,2.251422836250067,1.2262509367167949,0.0029827421378344297
1772882775830518300,6.048518310546875,2.014182352361083,1.2667676560223102,0.3225539379067719
1772882775840451300,6.058451416015625,1.5936550930887459,1.3107991054505108,0.608115969633311
1772882775850383400,6.06838330078125,0.9797463653981685,1.3734230271458625,0.8217476143978536
1772882775860316200,6.078316162109375,0.4752794246792793,1.4930179593414068,0.9883547653980552
1772882775870249200,6.088249267578125,0.23402210636436938,1.642654394057393,1.020986430542171
1772882775880181000,6.098180908203125,0.18851883081793783,1.722890544810891,0.851390034598112
1772882775890114300,6.1081142578125,0.29913492226600646,1.8046131347298622,0.5517962626487016
1772882775900047400,6.11804736328125,0.4647136070013046,1.8851158274650572,0.28646701774224637
1772882775909979100,6.127979248046875,0.586260842308402,1.9516443553835152,0.08619038298279047
1772882775919912200,6.137912109375,0.5919973401337861,1.9636159482061861,0.0075805182568728915
1772882775929845000,6.147844970703125,0.6267647021323443,1.9060054707586764,0.11181728393137454
1772882775939777000,6.157777099609375,0.5895166292339563,1.7485247522830962,0.35165932862088084
1772882775949710000,6.1677099609375,0.5306505987673997,1.503129603511095,0.7841293930128216
1772882775959643100,6.17764306640625,0.40785599374771114,1.351898008558154,1.4012711112752556
1772882775969575200,6.1875751953125,0.29299218172729014,1.1157160938113928,1.8717549722410738
1772882775979508200,6.19750830078125,0.2496376086473465,1.0176455956816672,2.0816890776619315
1772882775989441300,6.207441162109375,0.2965186022877693,0.9837684605211019,1.7927452945426106
1772882775999373300,6.217373291015625,0.4330494717150926,1.0809341187655925,1.125877276211232
1772882776009306000,6.22730615234375,0.5788304000467062,1.149729422572255,0.1854718643374741
1772882776019239200,6.2372392578125,0.6900730989605188,1.1482295394033193,-0.7591098103076219
1772882776029171200,6.247171142578125,0.9116495652496814,1.0697867018073797,-1.4725278367593884
1772882776039104300,6.257104248046875,1.1344336537629365,0.7490916896402835,-1.8210285552188754
1772882776049037300,6.267037353515625,1.347880589610338,0.17472060708999632,-1.6856633685700595
1772882776058970000,6.27697021484375,1.5846318286776542,-0.6270704070806503,-1.0523891384132207
1772882776068902100,6.286902099609375,1.4558511349856853,-1.2995704399496315,-0.27675767076313496
1772882776078835200,6.296835205078125,0.9092834206402302,-1.756839576163888,0.20613953544348476
1772882776088768300,6.306768310546875,0.346262584143877,-1.8097697868406772,0.2523316700369119
1772882776098700300,6.3167001953125,0.005817161846160888,-1.6021172164857387,-0.19677578703165052
1772882776108633300,6.32663330078125,-0.05967734684944152,-1.2361422161340714,-0.8482797936230897
1772882776118566400,6.33656640625,-0.06973170787394047,-0.8887842379689216,-1.5277520035922527
1772882776128498400,6.34649853515625,-0.23791502214968202,-0.6462643523722886,-2.0858423979490994
1772882776138431200,6.35643115234375,-0.6120709908694029,-0.37922318898141383,-2.4618051238298415
1772882776148364300,6.3663642578125,-1.060992569977045,-0.05689736074209213,-2.7661770699664947
1772882776158296300,6.37629638671875,-1.4841507622748613,0.0862830297023058,-2.8688679213732478
1772882776168229400,6.3862294921875,-1.9407377614438532,0.024199790754914283,-2.7723341312915086
1772882776178162400,6.396162353515625,-2.2232371907293795,-0.06938917804658412,-2.459957157875597
1772882776188094500,6.406094482421875,-2.3961983869314194,-0.2400035188615322,-2.001991271568835
1772882776198027300,6.41602734375,-2.4710294637709853,-0.4404769913673401,-1.4484522569060325
1772882776207960300,6.425960205078125,-2.3054887729585167,-0.671668842741847,-0.8362216915607452
1772882776217892000,6.43589208984375,-1.9067817158281801,-0.8969213671952485,-0.25809505586922166
1772882776227825200,6.4458251953125,-1.4427403090000153,-1.1022890414834021,0.168147073918581
1772882776237758200,6.45575830078125,-1.0130886630296707,-1.123736903181672,0.4865992755949497
1772882776247690200,6.465690185546875,-0.767751966446638,-1.1453846713662146,0.543986757941544
1772882776257623300,6.475623291015625,-0.6187409701526164,-1.1764064170956612,0.5371890606254339
1772882776267556000,6.48555615234375,-0.38507892927229403,-1.1427028849363325,0.5849784012824296
1772882776277488000,6.495488037109375,-0.22963819219172,-1.2135539522290228,0.6076198566794395
1772882776287421200,6.505421142578125,-0.22563655533492563,-1.3322972360312937,0.6846177561640739
1772882776297354200,6.515354248046875,-0.3654536068260669,-1.4362451017618179,0.7497682737275958
1772882776307286300,6.525286376953125,-0.417505865624547,-1.483412511128187,0.7651397381216287
1772882776317219300,6.53521923828125,-0.34489188031256196,-1.550306949749589,0.8310115556970238
1772882776327152000,6.545152099609375,-0.17030220612585545,-1.7087176425516604,0.8408034663930535
1772882776337085200,6.555085205078125,0.07463058583140372,-1.8017916475683449,0.7266524788171053
1772882776347017200,6.565017333984375,0.1826554917424917,-1.8158996678978203,0.5202274044305086
1772882776356950300,6.5749501953125,0.1429021580249071,-1.7234861726164816,0.1902218353435397
1772882776366883300,6.58488330078125,-0.03407996425628662,-1.5759288822621107,-0.131717916187644
1772882776376815400,6.5948154296875,-0.23710779742002486,-1.4516840784341096,-0.3973261241659522
1772882776386748400,6.60474853515625,-0.5150339274406432,-1.360445472151041,-0.4491644479528069
1772882776396681200,6.61468115234375,-0.914707199254632,-1.3660241490662097,-0.272779414781928
1772882776406613200,6.62461328125,-1.1889052486628293,-1.4936954202115535,-0.10863923841714858
1772882776416546300,6.63454638671875,-1.3797709348678588,-1.627644456452131,0.03702010936141014
1772882776426479400,6.644479248046875,-1.4530103586018084,-1.7507412592887877,0.18233108209371565
1772882776436411400,6.654411376953125,-1.367651458007097,-1.8320634517133234,0.23516543118059635
1772882776446344400,6.664344482421875,-1.2360638902008532,-1.7886814061045646,0.17937077098339796
1772882776456277200,6.67427734375,-1.136111231586337,-1.7862953877508638,0.18716186325103043
1772882776466209300,6.684209228515625,-1.0890659872949122,-1.8546528846621513,0.21598697571903466
1772882776476142000,6.69414208984375,-1.1375199293404816,-1.9131980126112698,0.1503726400360465
1772882776486075100,6.7040751953125,-1.2929793711215256,-1.9478484702318906,-0.04485211816132068
1772882776496007200,6.714007080078125,-1.4316519287526606,-1.9445301394641399,-0.20900310818105935
1772882776505940200,6.723940185546875,-1.5217238293439148,-1.9161440029352903,-0.40515900974869723
1772882776515873300,6.733873291015625,-1.539414968857169,-1.8760867178350686,-0.5199876043252647
1772882776525805300,6.743805419921875,-1.3571727340906858,-1.9059762446641921,-0.533497074239701
1772882776535738000,6.753738037109375,-1.1824351758658884,-1.9789321752816438,-0.4928453303776681
1772882776545671200,6.763671142578125,-1.0040420177429914,-1.9806845719069242,-0.3706437228150666
1772882776555603200,6.773603271484375,-0.8837164331853389,-2.007975314414501,-0.19080255784094333
1772882776565536300,6.783536376953125,-0.7777087123155594,-2.016621562206745,0.09040025576278567
1772882776575469300,6.79346923828125,-0.742110160189867,-2.0454256318867206,0.5382710106432438
1772882776585402400,6.80340234375,-0.900680427467823,-2.0518074418783185,1.0490823519527912
1772882776595334400,6.81333447265625,-1.1257692857921122,-2.087419438007474,1.6501649158179759
1772882776605267200,6.82326708984375,-1.392609373652935,-2.1389088022261857,2.142021819680184
1772882776615199200,6.83319921875,-1.6825287238061426,-2.137379108440876,2.4618448713183403
1772882776625132300,6.84313232421875,-1.9695161121606826,-2.005022894349694,2.55153332554996
1772882776635065300,6.8530654296875,-2.5308739838808774,-1.2234732886970043,2.2256465899586675
1772882776644998400,6.862998291015625,-3.001052286028862,-0.14819325017035007,1.1719472457297146
1772882776654930400,6.872930419921875,-2.441571314096451,0.6252431916534901,0.8270299387149512
1772882776664863200,6.88286328125,-1.4093582638800144,2.054571061372757,0.500825077085197
1772882776674796300,6.89279638671875,-0.7183575286805629,3.0174931332200763,0.07210647418126463
1772882776684728300,6.902728271484375,-0.13830372431874274,3.6555636577427384,0.1484716287203133
1772882776694661400,6.912661376953125,0.14530863464474678,3.8482448689371345,0.9660894498370587
1772882776704594400,6.922594482421875,-0.8744757266312837,2.1509306639313697,2.383582504855841
1772882776714526200,6.932526123046875,-2.3198352782189846,0.3763122699707746,4.36884987450838
1772882776724459300,6.942459228515625,-3.702047761020064,-0.3677823420345783,5.520319418746233
1772882776734392000,6.95239208984375,-4.6932501709342,-1.5696253982037305,5.315015457344055
1772882776744324000,6.962323974609375,-4.846887657985091,-1.5668249538302421,4.701326802144944
1772882776754257200,6.972257080078125,-3.830765326347947,-0.6648445496797561,3.0747406225740908
1772882776764190200,6.982190185546875,-1.8040999245107172,0.1746948881268501,0.9624360418960451
1772882776774122200,6.992122314453125,0.5638105255693197,1.4026684108525513,-1.230920682093501
1772882776784055300,7.00205517578125,2.5580560053169727,2.3605296921789645,-3.213197783888876
1772882776793988400,7.01198828125,4.050854768949747,3.0396342378795147,-4.636317738878727
1772882776803920400,7.02192041015625,4.981744456720352,3.42215471484065,-5.579795105543733
1772882776813853200,7.031853271484375,5.485054044097661,3.5635020446389913,-5.8417415761440985
1772882776823786200,7.0417861328125,5.481558603197336,3.218289846330881,-5.563299897816777
1772882776833718300,7.05171826171875,4.897648123407364,2.4539982494711876,-4.647233977429568
1772882776843651300,7.0616513671875,3.793420222815871,1.5070874012261628,-3.2144764255225655
1772882776853584400,7.07158447265625,2.258676752901077,0.5376502483963966,-1.4429095280870794
1772882776863517200,7.08151708984375,0.7237181789308786,-0.32220483220815654,0.30620997521877286
1772882776873449200,7.09144921875,-0.5279302338927984,-0.9306891967624425,1.847534577089548
1772882776883382300,7.10138232421875,-1.192171556982398,-1.1256038660973309,3.1461352952241897
1772882776893315300,7.1113154296875,-1.0833552084326743,-0.9136357706308365,3.5918852585583925
1772882776903247400,7.121247314453125,-0.4466027807712555,-0.41953591014742847,3.161085027074814
1772882776913180400,7.131180419921875,0.3286030088126659,-0.1505453662544489,1.8423295557923614
1772882776923113500,7.141113525390625,1.3684768029153347,0.42563773415386674,1.0928723938405513
1772882776933045500,7.15104541015625,2.294171260130405,0.5490665454238652,0.3959725175999105
1772882776942978300,7.160978271484375,2.7593688512563705,0.7449515210956335,-0.3674981182657182
1772882776952911400,7.170911376953125,3.1146102761477232,0.5913017590850591,-0.7556443261541426
1772882776962843100,7.180843017578125,3.09081848167181,0.3882201499074697,-0.840675748360157
1772882776972776200,7.190776123046875,2.7206922068595887,-0.08288754204511642,-0.8155985902488231
1772882776982709200,7.200709228515625,2.167165174895525,-0.37973172302544117,-0.5161205536335707
1772882776992641300,7.210641357421875,1.5165776986271142,-0.5184872827649116,-0.3299630451194942
1772882777002574000,7.220573974609375,0.8252572299540042,-0.6741185739815235,-0.41899961131364105
1772882777012507000,7.2305068359375,0.34076690933704373,-0.6873971577495336,-0.6127813310958444
1772882777022439000,7.24043896484375,-0.053204935964941975,-0.6411702441036701,-0.8822342318035662
1772882777032372000,7.2503720703125,-0.3666851944476366,-0.6355962433636189,-1.0298074503794312
1772882777042305000,7.260304931640625,-0.757664287674427,-0.5771791257083415,-1.1149755045771599
1772882777052236800,7.27023681640625,-1.1520412066459655,-0.5015612824052572,-0.9702318103387951
1772882777062169900,7.280169921875,-1.53572079051435,-0.48454468115270133,-0.7733380960159003
1772882777072103000,7.29010302734375,-1.9508827233612536,-0.45348143436908717,-0.6748655929565429
1772882777082035700,7.30003564453125,-2.200582291328907,-0.4536369171917438,-0.5764437971711158
1772882777091967700,7.3099677734375,-2.286118302056193,-0.4599374786406755,-0.526110617250204
1772882777101900800,7.31990087890625,-2.097831526428461,-0.34463995137810705,-0.6587791121609509
1772882777111833900,7.329833740234375,-1.7331337064057588,-0.2230412781447172,-0.9062237408086657
1772882777121766000,7.339765869140625,-1.2357500019460916,-0.05438099400699138,-1.0962734344556928
1772882777131699000,7.349698974609375,-0.725491033822298,-0.018674305331707,-1.2782992499925196
1772882777141631700,7.3596318359375,-0.28776012629270553,-0.08374445113539696,-1.3679992485314607
1772882777151563800,7.369563720703125,-0.05936696572601795,-0.1775976238310337,-1.1841368652172386
1772882777161496800,7.379496826171875,-0.0643231268286705,-0.36259529478549957,-0.904188435588777
1772882777171430000,7.389429931640625,-0.23158406556248665,-0.49022097322344776,-0.5972182896524667
1772882777181362000,7.39936181640625,-0.3125479460686445,-0.6375128906399011,-0.39629853468388315
1772882777191295000,7.409294921875,-0.47119127858281135,-0.7837807257056236,-0.22159853199049828
1772882777201227800,7.419227783203125,-0.5837760397553443,-0.9313865313768386,-0.13800970980823038
1772882777211160000,7.42916015625,-0.5513479343593121,-1.035440195569396,-0.1650023461520672
1772882777221092900,7.4390927734375,-0.34073125350177286,-1.074941015830636,-0.2885482079304755
1772882777231026000,7.44902587890625,-0.07794190233647823,-1.076899164161086,-0.4649653898052871
1772882777240958000,7.4589580078125,0.08163023546040057,-1.0150216769188642,-0.6541985063724219
1772882777250891000,7.46889111328125,0.1080593927025795,-0.8951461742162704,-0.83220310356915
1772882777260824000,7.478823974609375,-0.058629883623123165,-0.7711720040231943,-0.931117359046638
1772882777270756000,7.488756103515625,-0.2884814263045788,-0.6683446667551994,-0.9625735506705939
1772882777280689000,7.49868896484375,-0.495873299896717,-0.5750269161105156,-0.9542616493992507
1772882777290622000,7.5086220703125,-0.6880904007107019,-0.5308364767283201,-0.8816567241765558
1772882777300555000,7.518554931640625,-0.8432002984017133,-0.5746539911448956,-0.6716615362182259
1772882777310486800,7.52848681640625,-1.0127613307714463,-0.5844044007867575,-0.40348274709954857
1772882777320419800,7.538419921875,-1.108104449763894,-0.4435644359886646,-0.17303309239447115
1772882777330353000,7.548352783203125,-1.1405009909778834,-0.1523223127990961,-0.05384381839036941
1772882777340285000,7.558284912109375,-1.1899217322289943,0.13634265337884424,0.0031517420291900635
1772882777350217700,7.5682177734375,-1.2728098587960004,0.3978939871817827,-0.03556917990073562
1772882777360150800,7.57815087890625,-1.3675778082489967,0.5494394703894854,-0.07132906006798148
1772882777370082800,7.588082763671875,-1.4041250394016505,0.5386579641342163,-0.13709288722425697
1772882777380015900,7.598015869140625,-1.4234575163811445,0.3617874855339527,-0.182622320125252
1772882777389949000,7.607948974609375,-1.4170470648169518,0.25539924091398714,-0.21205138983577487
1772882777399881000,7.617880859375,-1.3406898013234139,0.3573696690917015,-0.5014139828890561
1772882777409813800,7.627813720703125,-1.1010767430841921,0.7587643578708171,-0.9585371347613633
1772882777419746800,7.637746826171875,-0.6609218232780695,1.2732599406510592,-1.2751096601709724
1772882777429678800,7.647678955078125,-0.35859658053815363,1.8191484405606984,-1.3352253984376787
1772882777439612000,7.65761181640625,-0.3242079887241125,2.379708439901471,-1.2792027747035026
1772882777449545000,7.667544921875,-0.5345692335158586,2.7899679876595735,-1.3897753192707896
1772882777459477000,7.67747705078125,-0.8787906672209501,2.8538106374949215,-1.528433848376572
1772882777469410000,7.68741015625,-1.2352601726025343,2.675115866076946,-1.5243872033342718
1772882777479342800,7.6973427734375,-1.3201497021198272,2.282004436996579,-1.3743006867632268
1772882777489276000,7.70727587890625,-1.028884782576561,1.8435855472028255,-0.9939112304814159
1772882777499208000,7.7172080078125,-0.34884558637440205,1.363455175361037,-0.6786706843279302
1772882777509141000,7.72714111328125,0.35925182957649227,0.09786182381510734,-0.10888970604687928
1772882777519074000,7.737073974609375,1.494740545350313,-0.25583880137503145,1.680786994705349
1772882777529006000,7.747006103515625,1.894030955326557,-1.2916256184250117,2.4674019209235905
1772882777538939000,7.75693896484375,2.410710896408558,-1.6192343555033206,3.424657637572288
1772882777548872000,7.766871826171875,3.175819654870033,-1.6227508391916752,4.526369463689625
1772882777558803700,7.7768037109375,2.9803531968712806,-1.077782961258292,3.9368461124539373
1772882777568736800,7.78673681640625,2.9173668716043233,-0.14108254138231277,3.0979227607190607
1772882777578669800,7.796669921875,2.810468923896551,0.3045452568769455,2.3836681373126805
1772882777588601900,7.806601806640625,2.049555279037356,1.0009610028624534,1.4731946301050483
1772882777598535000,7.816534912109375,1.3428431799650191,1.3722370322316884,0.723942927597463
1772882777608467700,7.8264677734375,0.30856852104365823,1.6568185284882784,0.03938464653566479
1772882777618399700,7.836399658203125,-0.8548580029696226,1.8104156835287808,-0.5450036798991262
1772882777628332800,7.846332763671875,-2.0520190388023853,1.6079472378134727,-0.8579073075376451
1772882777638265900,7.856265869140625,-3.157789492660761,1.028608888244629,-0.6682729166932404
1772882777648198000,7.866197998046875,-3.9202456907868384,0.4512017989993095,-0.3330104499913752
1772882777658131000,7.876130859375,-4.337857354873418,-0.0771761786609888,0.04014028720855713
1772882777668064000,7.88606396484375,-4.441413590937852,-0.5503302817493677,0.31059739652276036
1772882777677996000,7.89599609375,-4.00133290541172,-0.7735475009828805,0.294683057423681
1772882777687928800,7.9059287109375,-2.921853077107668,-0.8770756799966096,0.10938888774067163
1772882777697862000,7.91586181640625,-1.5907576180815697,-0.8483896837383508,-0.21863179113939404
1772882777707795000,7.925794921875,-0.3294622559905052,-0.7337187639415264,-0.6411569462306798
1772882777717727000,7.93572705078125,0.863126649621129,-0.5343757567703724,-1.0126707298785447
1772882777727660000,7.945659912109375,1.7898013500452041,-0.48035190563797947,-1.2142059863969683
1772882777737592800,7.9555927734375,2.3869570958554744,-0.5490770668178796,-1.1819881627507507
1772882777747524900,7.96552490234375,2.6922172230035066,-0.6544003125548362,-1.007090007136762
1772882777757458000,7.9754580078125,2.7321897524297234,-0.8005155874073505,-0.7439761001922189
1772882777767391000,7.985390869140625,2.5595535503983498,-0.9883329919576644,-0.3955697820179164
1772882777777321700,7.99532177734375,2.347828616037965,-1.1566022309511899,-0.035654373966157435
1772882777787254800,8.0052548828125,2.1657301736563443,-1.2596183687895535,0.31518238622546196
1772882777797187800,8.015187744140626,1.9747247867196798,-1.2244430105119943,0.45630584414005276
1772882777807120000,8.025119873046876,1.7796926284849643,-1.0643582470178603,0.41515053467005486
1772882777817053000,8.035052978515624,1.494815364152193,-0.8862164333075284,0.3673617785349488
1772882777826985700,8.04498583984375,1.1019026725143193,-0.6929132908225059,0.3780769415557384
1772882777836917800,8.054917724609375,0.649758624228835,-0.5041331787198782,0.43143122286349533
1772882777846850800,8.064850830078125,0.18773907861709593,-0.44144086796343324,0.5309706245020032
1772882777856784000,8.074783935546876,-0.26261867077350615,-0.46665772680640216,0.6790110221982002
1772882777866716000,8.0847158203125,-0.5892845740437507,-0.47777299506068227,0.7166749824211001
1772882777876649000,8.09464892578125,-0.8346914132535457,-0.5096820450186729,0.6039017129391432
1772882777886582000,8.10458203125,-1.0868179161071776,-0.5143441916108131,0.4821355741843581
1772882777896514000,8.11451416015625,-1.168372163721919,-0.512139959564805,0.2749406844690442
1772882777906446800,8.12444677734375,-1.0163795212686062,-0.5472668025255203,-0.08475099782943725
1772882777916380000,8.1343798828125,-0.6752724201917648,-0.6376093367516994,-0.49045653554499147
1772882777926312000,8.14431201171875,-0.26664953372478484,-0.7600941451698541,-0.7774588292077184
1772882777936245000,8.154244873046874,0.10307809715867042,-0.9137257870018481,-1.0490241920247674
1772882777946178000,8.164177978515625,0.27345804469585416,-1.118752100506425,-1.1512614544451236
1772882777956110000,8.174110107421875,0.37173254096508024,-1.1797884607493876,-1.0755623625993729
1772882777966043000,8.18404296875,0.45104339356720446,-1.179002863329649,-1.0384659731313586
1772882777975976000,8.193975830078125,0.5089180749088525,-1.0895546475946902,-1.0698434004306792
1772882777985907700,8.20390771484375,0.48177287835180754,-0.998179263189435,-1.161098373326659
1772882777995840800,8.2138408203125,0.3456792312979698,-0.924511384910345,-1.1522612791374325
1772882778005773800,8.22377392578125,0.17817863858938215,-0.8233388291120529,-1.1358709930896758
1772882778015707100,8.23370703125,0.08398468963205814,-0.7291764443367719,-1.181817043967545
1772882778025639000,8.243638916015625,0.01797112549841404,-0.6027747547358274,-1.1182938353449106
1772882778035571700,8.25357177734375,0.0068324763685464855,-0.5216092141777277,-1.0559688965961336
1772882778045504800,8.2635048828125,0.013211948272585868,-0.4567658628672361,-0.8710568580985069
1772882778055436800,8.273436767578126,0.047754853865504265,-0.41670507063567636,-0.6188017604291439
1772882778065369900,8.283369873046874,0.07047405067384242,-0.40408290494978427,-0.34877427470386024
1772882778075303000,8.293302978515625,0.04003331970274448,-0.5362316137701273,0.054289516331255436
1772882778085235000,8.30323486328125,-0.028120179069042205,-0.7031038454473019,0.43213440269678827
1772882778095168000,8.31316796875,-0.12568448124229908,-0.8816133234262465,0.8103872853413224
1772882778105100800,8.323100830078126,-0.20826690286099908,-1.0917951199978588,1.0961527306854724
1772882778115032800,8.33303271484375,-0.25197861881554123,-1.179657527846098,1.1336743598282337
1772882778124966000,8.3429658203125,-0.21042145054638384,-1.124680906033516,0.8628919640824199
1772882778134899000,8.35289892578125,0.03124912474453449,-1.0196645342886448,0.37666473667025563
1772882778144831000,8.3628310546875,0.34774668522179125,-0.9886480492562055,0.014318740470707416
1772882778154764800,8.372764892578125,0.30699089646339417,-1.086927221700549,-0.030307752241194245
1772882778164696800,8.38269677734375,-0.28317104493677614,-1.2775304575771094,0.2642085703134537
1772882778174630000,8.3926298828125,-0.8833592903107405,-1.459406197118759,0.6821563344866037
1772882778184563000,8.40256298828125,-1.413838624164462,-1.5290478886216878,1.0927043437972663
1772882778194495000,8.412494873046874,-1.693030244076252,-1.5147154118865727,1.4217267470657824
1772882778204428000,8.422427978515625,-1.7171955480396746,-1.4354939911335707,1.7520152247473597
1772882778214360800,8.43236083984375,-1.4508324300408362,-1.2262217106223106,1.902427027750015
1772882778224293000,8.442293212890625,-1.0108873535931109,-1.0073673627734183,1.7635335208445786
1772882778234226000,8.452225830078126,-0.482801636877656,-0.8371984276384115,1.4991352731779217
1772882778244159000,8.462158935546874,0.058090369918942446,-0.7194938392341137,1.2780951057225465
1772882778254092000,8.472092041015625,0.5192424850463867,-0.7922013480484486,1.1419982437983154
1772882778264023800,8.48202392578125,0.7436363468438386,-0.7778805617511272,1.0543918565377592
1772882778273957000,8.49195703125,0.2835398782491684,0.06785071643292903,0.5961600127711891
1772882778283890000,8.501889892578125,-0.011245032113790512,1.0174883592933415,-0.2926712792098522
1772882778293821700,8.51182177734375,0.8114163361281156,2.5155197628825903,-0.7832280602589249
1772882778303754800,8.521754638671876,1.726736114323139,3.9407717614650726,-1.0136685087442396
1772882778313687800,8.531687744140624,2.25026080673337,4.439116419911384,-0.3848182325094938
1772882778323619800,8.541619873046875,2.309513206169009,4.8359483308196065,0.6909115956112742
1772882778333553000,8.551552978515625,1.400710847043991,4.390034701356291,2.0948189006090163
1772882778343486000,8.56148583984375,0.1999497408926487,3.9080239225953814,2.8816572603195905
1772882778353418000,8.57141796875,-1.330650053346157,3.1330987035185096,3.547675529953837
1772882778363350800,8.581350830078126,-2.127286168971658,1.8691431823074816,4.0274902599751945
1772882778373283800,8.591283935546874,-1.9327105223327874,1.184737607589364,3.4954657425060867
1772882778383215900,8.6012158203125,-0.9729010295480489,1.1364186901003122,1.879726243381202
1772882778393149000,8.61114892578125,-0.021144494837522506,1.0121318006962536,0.24514848053455351
1772882778403082000,8.62108203125,0.8507651806980371,0.6353805547863245,-0.9710647540315985
1772882778413014800,8.631014892578126,1.7968103520244358,0.23855332005321978,-1.7007222598835825
1772882778422946800,8.64094677734375,2.623570972278714,-0.07372223881483078,-2.372022269313037
1772882778432879900,8.6508798828125,3.2338194238960742,-0.13517244055569172,-2.7783693198025223
1772882778442813000,8.66081298828125,3.3551860419392585,-0.1804343085616827,-2.9316297902345654
1772882778452745000,8.670744873046875,2.7333611342966555,-0.1350298172146082,-2.602619661925733
1772882778462678000,8.680677978515625,1.553469797694683,0.09028408203721046,-1.8685002082288265
1772882778472611000,8.690611083984376,-0.12179857971966265,0.36525896103680133,-1.1352370791003108
1772882778482543000,8.700543212890626,-1.9357161338895559,0.7550058821201324,-0.5887397996425628
1772882778492476000,8.710475830078124,-3.354655880585313,1.090856962364912,-0.4024111723452806
1772882778502409000,8.720408935546875,-4.062365174001455,1.1820137355834246,-0.567991318385303
1772882778512340700,8.7303408203125,-4.002794210135937,1.135277703371644,-0.9094751438200473
1772882778522274000,8.740274169921875,-3.329313934057951,0.9718073890924454,-1.2433537549480795
1772882778532207000,8.75020703125,-2.2983704653859136,0.6247381647408008,-1.4574603237479924
1772882778542139000,8.760138916015626,-1.0000824664622545,0.2177303122550249,-1.4941127688407898
1772882778552072000,8.770072021484374,0.3873725931674242,-0.1429325531631708,-1.5366180316150189
1772882778562004700,8.780004638671874,1.5273475144445896,-0.5773264252245426,-1.5996148782759905
1772882778571937800,8.789937744140625,2.2535820601105687,-0.7920657389700412,-1.6619190664976835
1772882778581869800,8.799869873046875,2.5539824722677467,-0.8418605742305517,-1.7952634148433804
1772882778591803000,8.809802978515625,2.5381103648751973,-0.7175602408230304,-1.9637854595541953
1772882778601736000,8.81973583984375,2.1690642865151166,-0.5729723216682672,-2.0552020527526733
1772882778611668000,8.82966796875,1.5018822337985038,-0.557939003187418,-1.8924509926587343
1772882778621600800,8.839600830078124,0.70965341322124,-0.6665127751529216,-1.4766168596386908
1772882778631533800,8.849533935546875,-0.14474398649930953,-0.7742576950788498,-0.9063573040604591
1772882778641465900,8.8594658203125,-1.0414964268684386,-0.8328466621696948,-0.34263767164498565
1772882778651399000,8.86939892578125,-1.7584347364008426,-0.7164326980978251,0.04271364482790231
1772882778661332000,8.87933203125,-2.187134780734777,-0.4607341819763183,0.04125935436636209
1772882778671264000,8.889263916015626,-2.222421198171377,-0.01352116035223007,-0.17554916686862707
1772882778681197000,8.899197021484374,-1.8806360517024994,0.40474633729457854,-0.7163736613869667
1772882778691129900,8.9091298828125,-1.4706892231553792,0.8156020973801612,-1.3586153341144322
1772882778701062000,8.919061767578125,-1.0707827271074055,1.1187976932138204,-1.943854432159662
1772882778710995000,8.928994873046875,-0.7558236282438039,1.1608066969037056,-2.2072934794053434
1772882778720928000,8.938927978515625,-0.5132201560169458,1.0573907460927963,-2.0292054417088625
1772882778730861000,8.948861083984376,-0.3962707698941231,0.7618734298020601,-1.620789183729887
1772882778740793000,8.95879296875,-0.2429845804989338,0.43238662389218807,-1.1645286400362849
1772882778750726000,8.968725830078125,0.04465513428449631,0.11724281611144542,-0.7532993704631924
1772882778760659000,8.978658935546875,0.3166401838183403,-0.14755670583248137,-0.4731637476995587
1772882778770590700,8.9885908203125,0.4445066852748394,-0.5394955840021372,-0.4376061121061444
1772882778780524000,8.99852392578125,0.7878571813642978,-0.636492899942398,-0.16041589514464138
1772882778790457000,9.00845703125,0.8722200566589832,-0.8395832769483328,-0.010270926384627819
1772882778800388900,9.018388916015626,0.9993190808743238,-0.8571364692956208,0.10214753831028937
1772882778810322000,9.028322021484374,1.011107133823633,-0.69544193251729,0.054772623673081396
1772882778820254700,9.038254638671875,0.8419500060796737,-0.5328104071497917,-0.15875702202171085
1772882778830186800,9.048186767578125,0.5507283411562442,-0.4222276334494352,-0.4023205714523792
1772882778840119800,9.058119873046875,0.26521511700749395,-0.34206863958537576,-0.6309744287818669
1772882778850052900,9.068052978515626,-0.0567027149528265,-0.27623978436887264,-0.8057701469346881
1772882778859985000,9.07798486328125,-0.33158231688439843,-0.24585692106485366,-1.024863564236462
1772882778869918000,9.08791796875,-0.5596785403311252,-0.26880232784450053,-1.2656819066122174
1772882778879850800,9.097850830078125,-0.7499421689897775,-0.305831205034256,-1.4786261536344885
1772882778889783800,9.10778369140625,-0.939261794796586,-0.35574937441349025,-1.5958511418282986
1772882778899715800,9.1177158203125,-1.1809399688720703,-0.4238140258580446,-1.6072367514565586
1772882778909649000,9.12764892578125,-1.3915677556455135,-0.44594928529858585,-1.5358572763755918
1772882778919582000,9.13758203125,-1.6030448527246712,-0.37766543814539905,-1.3886509914159775
1772882778929514000,9.147513916015624,-1.8098533734709024,-0.2939683332830667,-1.289569562678039
1772882778939447000,9.157447021484375,-1.8521715892404316,-0.1731570110350847,-1.2829612504541874
1772882778949379800,9.1673798828125,-1.7041554492026567,-0.03399111692905426,-1.288555124938488
1772882778959312000,9.177311767578125,-1.3871949473887681,0.13475567644834519,-1.3472826237171887
1772882778969245000,9.187244873046875,-1.0890969669550656,0.2065846488624811,-1.4957853782281278
1772882778979178000,9.197177978515626,-0.7461597278416157,0.1789689121842384,-1.4185422718107699
1772882778989110000,9.207110107421874,-0.4295253892421722,0.16371289086341856,-1.2055001173719764
1772882778999043000,9.21704296875,-0.28521044180989263,0.15957856753766536,-1.0704974804252385
1772882779008976400,9.226976318359375,-0.29585400089919567,-0.06714753659963607,-0.998613562953472
1772882779018908400,9.236908447265625,-0.41099546081721783,0.029041970089077947,-0.9646355977669357
1772882779028841500,9.246841552734375,-0.5181494291126728,-0.09918167424201965,-1.1638675457790493
1772882779038774500,9.2567744140625,-0.593517681568861,-0.1611322267204523,-1.2550099982112646
1772882779048707600,9.26670751953125,-0.6398235056698321,-0.09059738577008247,-1.5790730255067347
1772882779058639600,9.2766396484375,-0.6340291401773691,-0.11586451349556445,-2.0914514700025317
1772882779068572400,9.286572509765625,-0.5585287857741117,-0.11218261011242865,-2.446032092897594
1772882779078505500,9.29650537109375,-0.5351397268801927,0.01362228263914585,-2.7116578365325927
1772882779088437500,9.3064375,-0.5169564199358224,0.35955811904668805,-2.9280282586112616
1772882779098370600,9.31637060546875,-0.4403472275078296,0.958838601925969,-3.321531609618664
1772882779108303600,9.3263037109375,-0.2257119586586952,1.823507804813981,-3.705233405318856
1772882779118235400,9.3362353515625,0.07717559413909912,2.545361943438649,-3.91468454952836
1772882779128168400,9.34616845703125,0.2866425204396248,3.08639774262011,-3.9179906053364273
1772882779138101200,9.356101318359375,0.06894435688853263,3.3694512986570593,-3.6997079198956486
1772882779148033300,9.366033203125,-0.5099368965625762,3.4116695611834524,-3.191411484016478
1772882779157966300,9.37596630859375,-1.157905714765191,3.179290545850992,-2.457447220881283
1772882779167899400,9.3858994140625,-1.5506284367889165,2.8409371273964643,-1.6226605305597186
1772882779177831400,9.39583154296875,-1.667995756062865,2.4331822559356686,-0.6727659903287887
1772882779187764500,9.405764404296875,-1.4754945776104926,1.9427099382996558,0.35954379826039073
1772882779197697300,9.415697265625,-1.1397381899118422,1.4600100082308054,1.3582567299351096
1772882779207630300,9.42563037109375,-0.8003408153623343,1.1125409709066152,2.1959629609651863
1772882779217562400,9.435562255859375,-0.4763485152155161,0.8732803793668746,2.699392813721299
1772882779227495400,9.445495361328126,0.08282675176858902,0.6538648905038833,2.767163450655341
1772882779237428500,9.455428466796874,0.9101263012051581,0.5123240839600562,2.6254689148545265
1772882779247360500,9.465360595703125,1.8252900120556352,0.13246318159699438,2.279125374428928
1772882779257293600,9.47529345703125,2.19313489793241,0.054984220597147936,1.7774387120783328
1772882779267226400,9.485226318359375,2.671675370234251,-0.06655307783782481,1.8687293408095835
1772882779277158400,9.495158447265625,2.6159967376321553,-0.05541501322984695,1.8057327864095567
1772882779287091500,9.505091552734376,2.4711586431086063,0.17567571585774422,1.6885571903154253
1772882779297024500,9.5150244140625,2.200320425522327,0.35743688910901544,1.5068088765457273
1772882779306956500,9.52495654296875,1.8001695993244646,0.5146498965591192,1.495313376802206
1772882779316889600,9.5348896484375,1.3545067297518252,0.6340636269688605,1.3715361904859542
1772882779326822400,9.544822509765625,0.7035398987770081,0.7411129658460617,0.9796461198940872
1772882779336754400,9.55475439453125,-0.13413842133283616,0.8245347608983516,0.42369302982687945
1772882779346687500,9.5646875,-0.8287538398981094,0.7265957801938057,-0.0344835766211152
1772882779356620500,9.57462060546875,-1.2554536503255367,0.519359389424324,-0.3816635678708553
1772882779366553600,9.5845537109375,-1.8174305307269096,0.29997604926526544,-0.6847022195771336
1772882779376485400,9.5944853515625,-2.1562217560768127,0.16699381223022935,-0.8875555729568004
1772882779386418400,9.60441845703125,-2.1466963873624803,-0.04128361202478409,-0.9262143894359469
1772882779396351200,9.614351318359375,-1.7546435274243353,-0.26055881563425065,-0.9350722341522574
1772882779406283300,9.624283203125,-1.0308733260452747,-0.444544679197669,-1.0278747287511825
1772882779416216300,9.63421630859375,-0.1527934374421835,-0.556157964989543,-1.1909487371891736
1772882779426149400,9.6441494140625,0.6769423992305994,-0.675396923354268,-1.2547580692768097
1772882779436081400,9.654081298828125,1.399410870361328,-0.7743751839786768,-1.2063579032450913
1772882779446014500,9.664014404296875,2.1084008512377737,-0.7699047605663537,-1.1345941050216555
1772882779455947500,9.673947509765625,2.575953481057286,-0.7862140903323889,-1.1387561931371688
1772882779465879600,9.683879638671876,2.8863153152585026,-0.7973644299000501,-1.100756717349589
1772882779475812400,9.693812255859376,2.999348989242315,-0.7750339401483536,-0.9318927273333072
1772882779485745400,9.703745361328124,2.860255575850606,-0.8180430607914924,-0.7163231002435088
1772882779495678500,9.713678466796875,2.705838336598873,-0.9002437896162271,-0.35905046178549527
1772882779505610500,9.723610595703125,2.536353876596689,-0.9778145205527543,0.08622048586010933
1772882779515543600,9.73354345703125,2.3205717757999897,-1.0954442901551722,0.2932990557193756
1772882779525476400,9.743476318359376,1.9778361967384814,-1.1765478713929653,0.30262714829593895
1772882779535408400,9.753408447265626,1.5687439391940832,-1.1746598656892775,0.2450032268449664
1772882779545341400,9.763341552734374,1.09490769906044,-1.153642212101817,0.1268944415539503
1772882779555274500,9.7732744140625,0.6940764893829822,-1.119262972638011,-0.03173281660825014
1772882779565206500,9.78320654296875,0.35998014385104177,-1.1294909366637467,-0.17237696657329796
1772882779575139600,9.7931396484375,-0.0898421834886074,-1.1364239507973193,-0.26723405561447144
1772882779585072600,9.80307275390625,-0.5745335796356201,-1.0545417864024638,-0.34332886877954005
1772882779595004700,9.813004638671876,-0.9292541955232619,-0.8562076640129089,-0.40295010152757166
1772882779604937500,9.8229375,-1.187342821651697,-0.6095569622218608,-0.52388008171916
1772882779614870500,9.83287060546875,-1.1906062073618173,-0.43510055902600286,-0.6858952287539839
1772882779624802300,9.84280224609375,-0.9979676662653684,-0.3134370038628578,-0.8202534303173422
1772882779634735400,9.8527353515625,-0.7783522709161043,-0.20867373009622095,-0.8331734099060296
1772882779644668400,9.86266845703125,-0.6117857441872357,-0.20821371136903763,-0.7309747259303927
1772882779654601200,9.872601318359376,-0.6690589525043964,-0.2850333316773176,-0.3406573114827275
1772882779664533500,9.882533447265626,-0.7519698754251003,-0.38098143082559105,0.10679477959424256
1772882779674466300,9.89246630859375,-0.6870102042585611,-0.4359206432372331,0.5365946018636226
1772882779684399400,9.9023994140625,-0.6198726045310496,-0.4162783696562051,0.7153440260782837
1772882779694331400,9.912331298828125,-0.5072556946545839,-0.23726328024268148,0.8038762960121035
1772882779704264400,9.922264404296875,-0.28964930104017256,-0.07379121239781379,0.8165773721531033
1772882779714197500,9.932197509765626,-0.10797931320369243,0.09528525132536887,0.8395797698169947
1772882779724129500,9.942129638671876,-0.05788111108243465,0.08627367735207081,0.9220748054131865
1772882779734062300,9.952062255859374,-0.24181027602255342,-0.00779693748652935,1.1938117254048586
1772882779743995400,9.961995361328125,-0.6200970609366894,-0.3059031012266874,1.5972119087874888
1772882779753927400,9.971927490234375,-1.186753623586893,-0.608749152970314,2.0128139866173265
1772882779763860500,9.981860595703125,-1.7176713488578796,-0.8259674240499735,2.2566955159559843
1772882779773793500,9.99179345703125,-2.3717291315853593,-0.8937211098492145,2.315087499170005
1772882779783726300,10.001726318359376,-3.460996194410324,-0.36490590981543064,1.8591808834806083
1772882779793658400,10.011658447265624,-4.033289886164665,0.37185821317136286,1.0086655858904123
1772882779803591400,10.02159130859375,-3.0081729316890238,1.8389052804321049,-0.0773617643609643
1772882779813524500,10.0315244140625,-1.0891244394838808,3.450158574053645,-1.3333739253520964
1772882779823456500,10.04145654296875,0.6280331146329641,4.06724184012711,-1.6189996699646114
1772882779833389600,10.0513896484375,1.0038976408362388,3.7513428300648926,-0.5685428147882223
1772882779843322600,10.061322509765626,0.5647954449534416,3.2006852160573005,0.8225339424699545
1772882779853254700,10.071254638671874,-0.42106618845462795,2.4937188499629497,2.434080958341062
1772882779863187500,10.0811875,-1.5783458802759647,1.9811200407147407,3.3094989342585204
1772882779873120500,10.09112060546875,-2.20484696303606,1.7980162206828594,3.113107178108394
1772882779883052300,10.10105224609375,-2.2768203123569486,1.563203256201744,2.35256528917104
1772882779892985300,10.1109853515625,-1.6187556320756673,1.0729746841937302,1.7352791940018533
1772882779902918400,10.12091845703125,-0.4345861797630787,0.5980214227288961,1.1961223404347896
1772882779912850400,10.130850341796876,1.3354495625823735,0.4119008852243423,0.09242080180495976
1772882779922783500,10.140783447265624,3.3877602778077125,0.5375362666279078,-1.3993728764384985
1772882779932716300,10.15071630859375,5.57532409760952,0.7018108830273151,-2.889041233091056
1772882779942649300,10.1606494140625,7.129722700586915,0.6358031641125679,-3.750152158975601
1772882779952581400,10.170581298828125,7.584678883683681,0.337946591219306,-3.8328587914958594
1772882779962514400,10.180514404296876,6.790985251250863,0.15966975295245647,-3.1045027236312626
1772882779972447500,10.190447509765624,5.316033694475889,0.11641864024698734,-2.0659803441375493
1772882779982379500,10.200379638671874,3.5821909630179403,0.1671411117464304,-1.0106158431753516
1772882779992312300,10.210312255859375,1.7335189063310623,0.32422260177135465,-0.04102145395725965
1772882780002245400,10.220245361328125,0.20646365283131599,0.6216746855169535,0.5750552654221653
1772882780012177000,10.230177001953125,-0.862529852771759,1.0957716224133969,0.9066580405727028
1772882780022110000,10.24010986328125,-1.3585253177434204,1.657173333275318,0.9523618071272969
1772882780032043000,10.25004296875,-1.3689040884166954,2.0934417670369148,0.7353799751520157
1772882780041975000,10.25997509765625,-0.840509744143486,2.2861586340665814,0.44778176142275333
1772882780051908000,10.269908203125,-0.01573591379225254,2.2979215525746346,0.20969927375167607
1772882780061841000,10.2798408203125,0.8207482280969619,2.084489229774475,0.016100363190472124
1772882780071774000,10.28977392578125,1.468852655377984,1.6773440146446228,-0.10706716679483652
1772882780081706000,10.2997060546875,2.0827526152402163,1.150692130124569,-0.10898381407111883
1772882780091639000,10.30963916015625,2.536600544834137,0.5582032070815562,0.014763269367814063
1772882780101572000,10.319572021484374,2.7194612037599084,0.041887423136830325,0.1169774431735277
1772882780111504000,10.32950390625,2.625754746058583,-0.3131137632578611,0.18107465229183434
1772882780121437000,10.33943701171875,2.255346147173643,-0.47747313533127306,0.119524497307837
1772882780131369700,10.34936962890625,1.775097701910138,-0.4892196872264147,-0.007262976740300655
1772882780141301800,10.3593017578125,1.390352534636855,-0.343483767080307,-0.273687761798501
1772882780151234800,10.36923486328125,1.0164327127605677,-0.1789928775817156,-0.7137292843580245
1772882780161168000,10.37916796875,0.7542179466128349,0.024101591077446936,-1.0113789365023373
1772882780171100000,10.389099853515624,0.5732815337479115,0.2695002469807863,-1.152985794019699
1772882780181033000,10.399032958984375,0.4446943168014288,0.49198856741786,-1.050848484842479
1772882780190966000,10.408966064453125,0.24763152952194212,0.6303109964370727,-0.7260285016998648
1772882780200898000,10.41889794921875,-0.0075333181142807,0.7805681933999061,-0.37426907370537515
1772882780210830800,10.428830810546875,-0.23543606481552123,0.8715022637784481,-0.06330752004534006
1772882780220764000,10.438763916015626,-0.4209562983393669,0.9396785589039325,0.21093933694064615
1772882780230697000,10.448697021484374,-0.5343436080664395,0.9791875624716281,0.38751404746472834
1772882780240629000,10.45862890625,-0.47999125563204287,0.9676105219244956,0.3796545661360025
1772882780250562000,10.46856201171875,-0.1858931584894657,0.8577993171185254,0.28471768985688684
1772882780260494800,10.478494873046875,0.21580548167228697,0.6878636062175035,0.19242577512860298
1772882780270427000,10.488427001953125,0.7003449021279812,0.40799920161068437,0.04225508740544319
1772882780280360000,10.49835986328125,1.1943874794661997,0.14216799853146075,-0.09588409400135278
1772882780290293000,10.50829296875,1.594555841320753,-0.08163958781063556,-0.33351649981737136
1772882780300225000,10.51822509765625,1.6931792971581219,-0.18324761241674423,-0.48209027373790736
1772882780310158000,10.528157958984375,1.4813777904301881,-0.1933089877039194,-0.4650646123960614
1772882780320091100,10.538091064453125,1.0358628048956393,-0.14999474663436413,-0.3192036045655608
1772882780330023200,10.548023193359375,0.4989548992991447,-0.1731447360754013,-0.16845540921539068
1772882780339956000,10.5579560546875,-0.06137830554842948,-0.17453531365096567,0.026729893754422664
1772882780349889000,10.567888916015624,-0.4555214157640934,-0.22499942647516727,0.03982698347568512
1772882780359822000,10.577822021484375,-0.6374971085488795,-0.2407446926176548,-0.04983984344601631
1772882780369753900,10.58775390625,-0.7312193483412265,-0.2461941901952028,-0.21345979532897472
1772882780379687000,10.59768701171875,-0.7577654099613428,-0.178193836158514,-0.4639905534237623
1772882780389619700,10.60761962890625,-0.708918669205904,-0.001633154159784317,-0.7108543134436011
1772882780399551700,10.6175517578125,-0.5979612169742584,0.24118717568814754,-0.8852502186238765
1772882780409484800,10.62748486328125,-0.4894868137300014,0.3880173208117485,-0.9151277627542614
1772882780419417900,10.63741796875,-0.524340684968233,0.41478666979372497,-0.8609279705330729
1772882780429350000,10.647349853515625,-0.5902051960200071,0.3440682889699936,-0.6428875694155692
1772882780439283000,10.657282958984375,-0.5664443812042474,0.14480536129772661,-0.39877310810387134
1772882780449216000,10.667216064453125,-0.4523755189538002,-0.044401451784372326,-0.23256080164015291
1772882780459148000,10.67714794921875,-0.35034956119656563,-0.14455869306027888,-0.21355068848282097
1772882780469080800,10.687080810546876,-0.1776718581110239,-0.12393442270457744,-0.35875060205608605
1772882780479014000,10.697013916015624,0.1055757591933012,0.09995382765829562,-0.6424503470420837
1772882780488946000,10.70694580078125,0.47919104516506195,0.5355296029806137,-0.9948498265057801
1772882780498879000,10.71687890625,0.8716670989513396,1.2232470787256955,-1.3428715292766689
1772882780508812000,10.72681201171875,1.2920546574920415,1.947842040491104,-1.501724997410178
1772882780518744800,10.736744873046876,1.206948270353675,2.4594237816512585,-1.3009659859612583
1772882780528676900,10.7466767578125,0.1411246269583702,2.6677824544489384,-0.681128160482645
1772882780538610000,10.75660986328125,-0.9326169499546288,2.492067575624585,-0.044347383509576316
1772882780548543000,10.76654296875,-1.6798726563394069,2.4149247147113084,0.879122675654292
1772882780558475000,10.77647509765625,-2.5124492693960665,2.1892308762311936,1.0689408986330031
1772882780568408000,10.786407958984375,-2.2767419864237306,1.8149048116415738,1.1477867640718817
1772882780578341000,10.796341064453125,-1.1331447829961776,1.377441030615568,1.4381937516115606
1772882780588273200,10.806273193359376,0.32892391133010385,0.8986012831062078,1.5507954639188943
