time,seconds_elapsed,z,y,x
1772807140374582000,0.06258203125,-0.9953155517578125,-0.0197906494140625,0.00726318359375
1772807140384513000,0.072512939453125,-0.9966888427734375,-0.0196990966796875,0.0062103271484375
1772807140394445000,0.082445068359375,-0.99603271484375,-0.0193939208984375,0.0064697265625
1772807140404377000,0.092377197265625,-0.99566650390625,-0.0207672119140625,0.006011962890625
1772807140414309000,0.10230908203125,-0.99639892578125,-0.0190277099609375,0.007659912109375
1772807140424240000,0.112240234375,-0.9946441650390625,-0.019927978515625,0.0067138671875
1772807140434172200,0.122172119140625,-0.9959869384765625,-0.01953125,0.0081634521484375
1772807140444104200,0.132104248046875,-0.9974365234375,-0.018707275390625,0.0087432861328125
1772807140454036000,0.142035888671875,-0.9967803955078125,-0.017578125,0.0077056884765625
1772807140463967000,0.151967041015625,-0.9965667724609375,-0.0180816650390625,0.009490966796875
1772807140473899000,0.16189892578125,-0.9965667724609375,-0.01983642578125,0.0088043212890625
1772807140483831000,0.1718310546875,-0.9971771240234375,-0.020904541015625,0.007537841796875
1772807140493763300,0.181763427734375,-0.994842529296875,-0.0184478759765625,0.00836181640625
1772807140503694000,0.191694091796875,-0.99609375,-0.019195556640625,0.0088348388671875
1772807140513626000,0.201626220703125,-0.99737548828125,-0.01959228515625,0.0081024169921875
1772807140523558100,0.21155810546875,-0.996063232421875,-0.0191650390625,0.008758544921875
1772807140533490200,0.221490234375,-0.9971923828125,-0.017974853515625,0.0090789794921875
1772807140543421000,0.2314208984375,-0.99578857421875,-0.0182952880859375,0.007659912109375
1772807140553353000,0.24135302734375,-0.9954986572265625,-0.018646240234375,0.0084686279296875
1772807140563285000,0.251284912109375,-0.99603271484375,-0.018310546875,0.007537841796875
1772807140573217300,0.26121728515625,-0.9972686767578125,-0.0187530517578125,0.009429931640625
1772807140583148000,0.27114794921875,-0.996337890625,-0.018463134765625,0.0077056884765625
1772807140593080000,0.281080078125,-0.9968414306640625,-0.019439697265625,0.0084075927734375
1772807140603012000,0.29101220703125,-0.9968414306640625,-0.01873779296875,0.009429931640625
1772807140612944100,0.300944091796875,-0.9956817626953125,-0.0206146240234375,0.006500244140625
1772807140622875000,0.310875,-0.9970703125,-0.0211944580078125,0.00775146484375
1772807140632807000,0.320806884765625,-0.996185302734375,-0.020904541015625,0.0082550048828125
1772807140642739000,0.330739013671875,-0.996612548828125,-0.0214996337890625,0.0080718994140625
1772807140652671000,0.3406708984375,-0.99591064453125,-0.019622802734375,0.0092010498046875
1772807140662602200,0.350602294921875,-0.9953460693359375,-0.017974853515625,0.0103759765625
1772807140672534000,0.360533935546875,-0.99627685546875,-0.0185394287109375,0.0088348388671875
1772807140682466000,0.370466064453125,-0.997283935546875,-0.0181121826171875,0.005950927734375
1772807140692398000,0.380398193359375,-0.996795654296875,-0.0188751220703125,0.0083465576171875
1772807140702329000,0.3903291015625,-0.997314453125,-0.019287109375,0.0072021484375
1772807140712261000,0.40026123046875,-0.9954681396484375,-0.0174407958984375,0.0076446533203125
1772807140722193000,0.41019287109375,-0.9958343505859375,-0.0164947509765625,0.007537841796875
1772807140732125000,0.420125,-0.9971160888671875,-0.016387939453125,0.0093231201171875
1772807140742056200,0.43005615234375,-0.9969024658203125,-0.01953125,0.009185791015625
1772807140751988200,0.43998828125,-0.9967193603515625,-0.018951416015625,0.00762939453125
1772807140761920000,0.449919921875,-0.9974822998046875,-0.0196380615234375,0.0092315673828125
1772807140771852000,0.45985205078125,-0.9962921142578125,-0.0204620361328125,0.008941650390625
1772807140781783000,0.469782958984375,-0.997314453125,-0.0210418701171875,0.0080718994140625
1772807140791715000,0.479715087890625,-0.9969940185546875,-0.0191497802734375,0.0082550048828125
1772807140801647000,0.489647216796875,-0.996429443359375,-0.0188751220703125,0.0086822509765625
1772807140811579000,0.499578857421875,-0.9962158203125,-0.019439697265625,0.0070953369140625
1772807140821510100,0.50951025390625,-0.9962310791015625,-0.0187530517578125,0.008697509765625
1772807140831443000,0.51944287109375,-0.9948883056640625,-0.018768310546875,0.008148193359375
1772807140841375000,0.529375,-0.9976043701171875,-0.0176849365234375,0.0072021484375
1772807140851307000,0.53930712890625,-0.996124267578125,-0.01715087890625,0.0086212158203125
1772807140861237800,0.54923779296875,-0.9955291748046875,-0.018585205078125,0.0106658935546875
1772807140871169800,0.559169677734375,-0.996856689453125,-0.0191497802734375,0.0088958740234375
1772807140881101800,0.569101806640625,-0.996307373046875,-0.018402099609375,0.0091552734375
1772807140891033900,0.579033935546875,-0.996368408203125,-0.0186004638671875,0.0089874267578125
1772807140900964900,0.58896484375,-0.99713134765625,-0.0188140869140625,0.0083770751953125
1772807140910897000,0.59889697265625,-0.99688720703125,-0.01861572265625,0.0084991455078125
1772807140920829000,0.608828857421875,-0.9971923828125,-0.02008056640625,0.006927490234375
1772807140930761000,0.618760986328125,-0.996063232421875,-0.0186920166015625,0.0089111328125
1772807140940691700,0.628691650390625,-0.996063232421875,-0.019317626953125,0.00921630859375
1772807140950623700,0.638623779296875,-0.996063232421875,-0.0195465087890625,0.009033203125
1772807140960555800,0.6485556640625,-0.9958343505859375,-0.0205230712890625,0.0093536376953125
1772807140970487800,0.65848779296875,-0.994964599609375,-0.0204620361328125,0.008209228515625
1772807140980418600,0.66841845703125,-0.9969940185546875,-0.019683837890625,0.007080078125
1772807140990350800,0.678350830078125,-0.9940643310546875,-0.0205078125,0.0097198486328125
1772807141000283000,0.688282958984375,-0.9956207275390625,-0.0177459716796875,0.0078277587890625
1772807141010215000,0.69821484375,-0.9972991943359375,-0.019073486328125,0.0070037841796875
1772807141020146000,0.70814599609375,-0.9969024658203125,-0.0187835693359375,0.0082855224609375
1772807141030077700,0.71807763671875,-0.997467041015625,-0.018890380859375,0.008148193359375
1772807141040009700,0.728009765625,-0.9957427978515625,-0.0186920166015625,0.0074462890625
1772807141049941800,0.737941650390625,-0.9954681396484375,-0.0190582275390625,0.0073394775390625
1772807141059872800,0.747872802734375,-0.9958648681640625,-0.01727294921875,0.006866455078125
1772807141069804800,0.7578046875,-0.995941162109375,-0.017242431640625,0.0084228515625
1772807141079736800,0.76773681640625,-0.99481201171875,-0.0171661376953125,0.0094146728515625
1772807141089668900,0.7776689453125,-0.9954833984375,-0.0183868408203125,0.0089569091796875
1772807141099600000,0.787599853515625,-0.9963226318359375,-0.018280029296875,0.0073394775390625
1772807141109532000,0.797531982421875,-0.996337890625,-0.019622802734375,0.0070953369140625
1772807141119463700,0.807463623046875,-0.996124267578125,-0.0193939208984375,0.007598876953125
1772807141129395700,0.817395751953125,-0.995819091796875,-0.019256591796875,0.0088653564453125
1772807141139326700,0.82732666015625,-0.9957733154296875,-0.0202484130859375,0.0077056884765625
1772807141149258800,0.8372587890625,-0.99615478515625,-0.0217437744140625,0.008270263671875
1772807141159190800,0.847190673828125,-0.9946746826171875,-0.021240234375,0.0087890625
1772807141169122800,0.857122802734375,-0.995941162109375,-0.0219268798828125,0.0074462890625
1772807141179053800,0.8670537109375,-0.997314453125,-0.0201568603515625,0.0078582763671875
1772807141188985900,0.87698583984375,-0.9959259033203125,-0.0179443359375,0.006683349609375
1772807141198918000,0.88691796875,-0.9976043701171875,-0.0169830322265625,0.0061798095703125
1772807141208850000,0.896849853515625,-0.9962615966796875,-0.016082763671875,0.006439208984375
1772807141218780700,0.90678076171875,-0.995880126953125,-0.017974853515625,0.0091094970703125
1772807141228712700,0.916712646484375,-0.99658203125,-0.0172882080078125,0.0105133056640625
1772807141238644700,0.926644775390625,-0.996429443359375,-0.016571044921875,0.0092010498046875
1772807141248576800,0.93657666015625,-0.9963226318359375,-0.0179443359375,0.0096282958984375
1772807141258507800,0.9465078125,-0.99761962890625,-0.0194854736328125,0.0099639892578125
1772807141268439800,0.956439697265625,-0.99688720703125,-0.017852783203125,0.0047760009765625
1772807141278371800,0.966371826171875,-0.996978759765625,-0.01934814453125,0.0084991455078125
1772807141288303900,0.976303955078125,-0.9976806640625,-0.0199737548828125,0.0066680908203125
1772807141298234600,0.986234619140625,-0.9975433349609375,-0.0216064453125,0.0072174072265625
1772807141308166700,0.996166748046875,-0.99853515625,-0.020751953125,0.008148193359375
1772807141318098700,1.0060986328125,-0.9970855712890625,-0.020172119140625,0.00701904296875
1772807141328030700,1.01603076171875,-0.9959259033203125,-0.0200958251953125,0.00714111328125
1772807141337962000,1.0259619140625,-0.9986114501953125,-0.0201568603515625,0.0086669921875
1772807141347893800,1.035893798828125,-0.9973297119140625,-0.0202178955078125,0.0104522705078125
1772807141357825800,1.04582568359375,-0.996368408203125,-0.01971435546875,0.010040283203125
1772807141367757800,1.0557578125,-0.9965362548828125,-0.0185089111328125,0.009246826171875
1772807141377688800,1.065688720703125,-0.996673583984375,-0.017333984375,0.008819580078125
1772807141387620600,1.07562060546875,-0.9967803955078125,-0.0179290771484375,0.0072784423828125
1772807141397552600,1.085552734375,-0.9964599609375,-0.019195556640625,0.0079498291015625
1772807141407484700,1.095484619140625,-0.9962158203125,-0.0184783935546875,0.007720947265625
1772807141417416000,1.105416015625,-0.9954681396484375,-0.0183868408203125,0.00653076171875
1772807141427348000,1.115347900390625,-0.997100830078125,-0.018157958984375,0.007965087890625
1772807141437279700,1.12527978515625,-0.9966583251953125,-0.0194549560546875,0.0088348388671875
1772807141447211800,1.135211669921875,-0.9966583251953125,-0.02008056640625,0.0095977783203125
1772807141457142800,1.145142822265625,-0.996734619140625,-0.0200042724609375,0.0070953369140625
1772807141467074800,1.15507470703125,-0.994842529296875,-0.020233154296875,0.008087158203125
1772807141477006800,1.1650068359375,-0.99664306640625,-0.02032470703125,0.0089111328125
1772807141486938600,1.174938720703125,-0.9959869384765625,-0.019622802734375,0.0070343017578125
1772807141496870000,1.184869873046875,-0.99609375,-0.02020263671875,0.0074310302734375
1772807141506802000,1.194802001953125,-0.9955596923828125,-0.0197296142578125,0.008819580078125
1772807141516734000,1.20473388671875,-0.99713134765625,-0.01995849609375,0.009124755859375
1772807141526665700,1.214665771484375,-0.997650146484375,-0.019927978515625,0.0079803466796875
1772807141536596700,1.2245966796875,-0.9955596923828125,-0.0192108154296875,0.0098114013671875
1772807141546528800,1.23452880859375,-0.99615478515625,-0.01898193359375,0.0085601806640625
1772807141556460800,1.244460693359375,-0.995819091796875,-0.0178985595703125,0.007659912109375
1772807141566392800,1.254392822265625,-0.995880126953125,-0.0169677734375,0.007781982421875
1772807141576323800,1.26432373046875,-0.9961395263671875,-0.0186767578125,0.00848388671875
1772807141586256000,1.274255859375,-0.9969329833984375,-0.018280029296875,0.0095367431640625
1772807141596188000,1.28418798828125,-0.9960479736328125,-0.01837158203125,0.0079498291015625
1772807141606118700,1.29411865234375,-0.99688720703125,-0.020660400390625,0.0081634521484375
1772807141616050700,1.30405078125,-0.9961700439453125,-0.0194244384765625,0.0081329345703125
1772807141625982700,1.313982666015625,-0.9970245361328125,-0.019195556640625,0.008941650390625
1772807141635914800,1.323914794921875,-0.9970855712890625,-0.0186614990234375,0.0074005126953125
1772807141645846800,1.3338466796875,-0.996856689453125,-0.0182342529296875,0.0082550048828125
1772807141655777800,1.34377783203125,-0.997161865234375,-0.0202789306640625,0.0087127685546875
1772807141665709800,1.353709716796875,-0.997283935546875,-0.019561767578125,0.0094757080078125
1772807141675641900,1.363641845703125,-0.99639892578125,-0.0174407958984375,0.009490966796875
1772807141685572900,1.37357275390625,-0.9969024658203125,-0.0184173583984375,0.0089874267578125
1772807141695505000,1.3835048828125,-0.9966583251953125,-0.0176544189453125,0.008392333984375
1772807141705436700,1.393436767578125,-0.99639892578125,-0.0187835693359375,0.007415771484375
1772807141715368700,1.40336865234375,-0.9959869384765625,-0.0191802978515625,0.008209228515625
1772807141725299700,1.4132998046875,-0.9965667724609375,-0.0187835693359375,0.0085906982421875
1772807141735232000,1.42323193359375,-0.9969940185546875,-0.02044677734375,0.0070953369140625
1772807141745163800,1.433163818359375,-0.99725341796875,-0.02020263671875,0.0091705322265625
1772807141755095800,1.443095703125,-0.9970245361328125,-0.0207366943359375,0.0092620849609375
1772807141765026800,1.45302685546875,-0.9957733154296875,-0.0206146240234375,0.008575439453125
1772807141774958800,1.462958740234375,-0.995391845703125,-0.0190887451171875,0.0079345703125
1772807141784891000,1.472890869140625,-0.9969482421875,-0.019439697265625,0.0068359375
1772807141794822700,1.48282275390625,-0.9976043701171875,-0.0197296142578125,0.0071868896484375
1772807141804753700,1.492753662109375,-0.9965057373046875,-0.019317626953125,0.007781982421875
1772807141814685700,1.502685791015625,-0.9971466064453125,-0.0196380615234375,0.0081329345703125
1772807141824618000,1.512617919921875,-0.996337890625,-0.0183868408203125,0.009124755859375
1772807141834549500,1.522549560546875,-0.9958343505859375,-0.0189361572265625,0.0074462890625
1772807141844480500,1.53248046875,-0.996337890625,-0.0197906494140625,0.0066680908203125
1772807141854412300,1.542412353515625,-0.996337890625,-0.019378662109375,0.008331298828125
1772807141864344300,1.55234423828125,-0.996856689453125,-0.0183258056640625,0.008514404296875
1772807141874276400,1.5622763671875,-0.9965057373046875,-0.0194549560546875,0.0083770751953125
1772807141884207400,1.572207275390625,-0.994781494140625,-0.01898193359375,0.007537841796875
1772807141894139600,1.5821396484375,-0.9957275390625,-0.019439697265625,0.008453369140625
1772807141904071400,1.592071533203125,-0.9954376220703125,-0.0189056396484375,0.0064849853515625
1772807141914003500,1.60200341796875,-0.99713134765625,-0.0184478759765625,0.0075225830078125
1772807141923934500,1.6119345703125,-0.99658203125,-0.020294189453125,0.0079193115234375
1772807141933866500,1.621866455078125,-0.9968109130859375,-0.0196075439453125,0.007781982421875
1772807141943798300,1.63179833984375,-0.9965362548828125,-0.0200347900390625,0.008270263671875
1772807141953730300,1.641730224609375,-0.996795654296875,-0.0197601318359375,0.008209228515625
1772807141963661300,1.651661376953125,-0.9975128173828125,-0.020477294921875,0.0076751708984375
1772807141973593600,1.661593505859375,-0.9943695068359375,-0.020904541015625,0.008453369140625
1772807141983525600,1.671525634765625,-0.996551513671875,-0.0193328857421875,0.0080108642578125
1772807141993457400,1.68145751953125,-0.9970245361328125,-0.01971435546875,0.0081634521484375
1772807142003388400,1.691388427734375,-0.995941162109375,-0.020477294921875,0.007110595703125
1772807142013320400,1.701320556640625,-0.9976348876953125,-0.0194091796875,0.00738525390625
1772807142023252500,1.71125244140625,-0.9959716796875,-0.02020263671875,0.0065460205078125
1772807142033184500,1.7211845703125,-0.996002197265625,-0.0188751220703125,0.009765625
1772807142043115300,1.731115234375,-0.99639892578125,-0.01934814453125,0.0084381103515625
1772807142053047300,1.74104736328125,-0.996734619140625,-0.018798828125,0.008941650390625
1772807142062979600,1.7509794921875,-0.9970245361328125,-0.018890380859375,0.0088653564453125
1772807142072911600,1.76091162109375,-0.995513916015625,-0.0187225341796875,0.00897216796875
1772807142082842400,1.77084228515625,-0.9952392578125,-0.018157958984375,0.0087738037109375
1772807142092774400,1.7807744140625,-0.9957733154296875,-0.0204925537109375,0.008880615234375
1772807142102706400,1.79070654296875,-0.9964141845703125,-0.0193939208984375,0.00823974609375
1772807142112638500,1.800638427734375,-0.996337890625,-0.018646240234375,0.006439208984375
1772807142122569200,1.8105693359375,-0.995574951171875,-0.020294189453125,0.008056640625
1772807142132501200,1.820501220703125,-0.997100830078125,-0.0195465087890625,0.0097503662109375
1772807142142433300,1.830433349609375,-0.9964141845703125,-0.0174560546875,0.0062408447265625
1772807142152365600,1.840365478515625,-0.99627685546875,-0.0185546875,0.00848388671875
1772807142162296600,1.850296630859375,-0.9972991943359375,-0.019805908203125,0.00921630859375
1772807142172228400,1.860228271484375,-0.99615478515625,-0.0183258056640625,0.008056640625
1772807142182160400,1.870160400390625,-0.9961700439453125,-0.018585205078125,0.007354736328125
1772807142192092400,1.880092529296875,-0.995635986328125,-0.0198516845703125,0.008941650390625
1772807142202023400,1.8900234375,-0.99755859375,-0.020172119140625,0.00750732421875
1772807142211955200,1.899955078125,-0.99603271484375,-0.018707275390625,0.0072784423828125
1772807142221887200,1.90988720703125,-0.996673583984375,-0.0190277099609375,0.00762939453125
1772807142231819300,1.9198193359375,-0.996368408203125,-0.019927978515625,0.0062713623046875
1772807142241750500,1.92975048828125,-0.9976348876953125,-0.01983642578125,0.0070648193359375
1772807142251682600,1.9396826171875,-0.99652099609375,-0.018951416015625,0.008453369140625
1772807142261614300,1.9496142578125,-0.9953155517578125,-0.018798828125,0.0072174072265625
1772807142271546400,1.95954638671875,-0.9976806640625,-0.0196685791015625,0.009124755859375
1772807142281477400,1.969477294921875,-0.9972076416015625,-0.018768310546875,0.009307861328125
1772807142291409400,1.979409423828125,-0.99700927734375,-0.0195770263671875,0.008880615234375
1772807142301341400,1.989341552734375,-0.998291015625,-0.0201568603515625,0.00909423828125
1772807142311273200,1.999273193359375,-0.9967498779296875,-0.019073486328125,0.0093536376953125
1772807142321204500,2.00920458984375,-0.995819091796875,-0.0184478759765625,0.008941650390625
1772807142331136500,2.019136474609375,-0.9967041015625,-0.0191497802734375,0.0075836181640625
1772807142341068500,2.029068603515625,-0.99652099609375,-0.020599365234375,0.00714111328125
1772807142351000300,2.039000244140625,-0.9969940185546875,-0.020233154296875,0.0089874267578125
1772807142360931300,2.048931396484375,-0.9964599609375,-0.018524169921875,0.008148193359375
1772807142370863400,2.05886328125,-0.996612548828125,-0.0178680419921875,0.00787353515625
1772807142380795400,2.06879541015625,-0.9956512451171875,-0.018310546875,0.0084381103515625
1772807142390727400,2.0787275390625,-0.996307373046875,-0.018951416015625,0.0096282958984375
1772807142400658400,2.088658447265625,-0.9959716796875,-0.019439697265625,0.0086669921875
1772807142410590500,2.098590576171875,-0.997955322265625,-0.0193328857421875,0.0067901611328125
1772807142420522500,2.1085224609375,-0.9960479736328125,-0.019866943359375,0.0076751708984375
1772807142430454500,2.11845458984375,-0.9977569580078125,-0.0201416015625,0.00836181640625
1772807142440385300,2.12838525390625,-0.9978179931640625,-0.0203094482421875,0.006744384765625
1772807142450317300,2.1383173828125,-0.9944000244140625,-0.020751953125,0.00787353515625
1772807142460249300,2.148249267578125,-0.9951324462890625,-0.01910400390625,0.0091705322265625
1772807142470181400,2.158181396484375,-0.99688720703125,-0.0186767578125,0.0088958740234375
1772807142480112400,2.1681123046875,-0.996002197265625,-0.020111083984375,0.008880615234375
1772807142490044400,2.17804443359375,-0.99566650390625,-0.01824951171875,0.0098419189453125
1772807142499976400,2.1879765625,-0.997283935546875,-0.018585205078125,0.0082244873046875
1772807142509908500,2.197908447265625,-0.997222900390625,-0.01788330078125,0.0088348388671875
1772807142519839500,2.207839599609375,-0.9972076416015625,-0.0175933837890625,0.00909423828125
1772807142529771300,2.217771240234375,-0.9969635009765625,-0.0182647705078125,0.006622314453125
1772807142539703300,2.227703369140625,-0.99615478515625,-0.0185089111328125,0.008514404296875
1772807142549635300,2.23763525390625,-0.9973907470703125,-0.0195465087890625,0.00750732421875
1772807142559566600,2.247566650390625,-0.9968414306640625,-0.0193328857421875,0.009857177734375
1772807142569498600,2.25749853515625,-0.9973907470703125,-0.0187835693359375,0.0086669921875
1772807142579430400,2.267430419921875,-0.99713134765625,-0.01995849609375,0.0092010498046875
1772807142589362400,2.277362548828125,-0.9961395263671875,-0.0205535888671875,0.0086517333984375
1772807142599293400,2.28729345703125,-0.9969635009765625,-0.021453857421875,0.0087738037109375
1772807142609225500,2.2972255859375,-0.9949493408203125,-0.0212860107421875,0.0087890625
1772807142619157200,2.3071572265625,-0.9964447021484375,-0.020843505859375,0.00665283203125
1772807142629088500,2.317088623046875,-0.9960479736328125,-0.019317626953125,0.0074005126953125
1772807142639020500,2.3270205078125,-0.997283935546875,-0.01947021484375,0.008636474609375
1772807142648952600,2.33695263671875,-0.9967803955078125,-0.01898193359375,0.0094146728515625
1772807142658884600,2.346884521484375,-0.9964447021484375,-0.0182342529296875,0.0085906982421875
1772807142668815400,2.3568154296875,-0.997222900390625,-0.0173797607421875,0.00909423828125
1772807142678747400,2.366747314453125,-0.99560546875,-0.0179290771484375,0.0076141357421875
1772807142688679400,2.376679443359375,-0.9970855712890625,-0.0194244384765625,0.0088653564453125
1772807142698611500,2.386611572265625,-0.9990692138671875,-0.0186004638671875,0.0078125
1772807142708542500,2.39654248046875,-0.996490478515625,-0.0172271728515625,0.0073089599609375
1772807142718474500,2.406474609375,-0.9958038330078125,-0.0195159912109375,0.0069122314453125
1772807142728406500,2.416406494140625,-0.9970245361328125,-0.018829345703125,0.0089263916015625
1772807142738338600,2.426338623046875,-0.996368408203125,-0.0185699462890625,0.0072784423828125
1772807142748269300,2.436269287109375,-0.99609375,-0.0204620361328125,0.009368896484375
1772807142758201300,2.446201416015625,-0.996673583984375,-0.020477294921875,0.008880615234375
1772807142768133400,2.45613330078125,-0.996490478515625,-0.018585205078125,0.0078887939453125
1772807142778065400,2.4660654296875,-0.9974212646484375,-0.02069091796875,0.0084381103515625
1772807142787996400,2.475996337890625,-0.9964447021484375,-0.019805908203125,0.0059967041015625
1772807142797928400,2.485928466796875,-0.9958648681640625,-0.0211944580078125,0.00689697265625
1772807142807860500,2.495860595703125,-0.9964141845703125,-0.0196990966796875,0.0071563720703125
1772807142817792500,2.50579248046875,-0.9964599609375,-0.019256591796875,0.00848388671875
1772807142827723500,2.5157236328125,-0.995880126953125,-0.01910400390625,0.0083465576171875
1772807142837655600,2.525655517578125,-0.996185302734375,-0.017486572265625,0.0090789794921875
1772807142847587300,2.53558740234375,-0.996673583984375,-0.0189208984375,0.007904052734375
1772807142857519400,2.545519287109375,-0.9972686767578125,-0.017578125,0.008331298828125
1772807142867450400,2.555450439453125,-0.9960479736328125,-0.0177154541015625,0.0093994140625
1772807142877382400,2.56538232421875,-0.9963226318359375,-0.0185699462890625,0.0079498291015625
1772807142887314400,2.575314453125,-0.9958648681640625,-0.0190582275390625,0.0080108642578125
1772807142897246500,2.58524658203125,-0.996856689453125,-0.018707275390625,0.008392333984375
1772807142907177500,2.595177490234375,-0.994842529296875,-0.018035888671875,0.008087158203125
1772807142917109500,2.605109619140625,-0.9967498779296875,-0.0191802978515625,0.007720947265625
1772807142927041500,2.61504150390625,-0.9971466064453125,-0.018585205078125,0.007598876953125
1772807142936973600,2.6249736328125,-0.9959564208984375,-0.018585205078125,0.0082855224609375
1772807142946904300,2.634904296875,-0.9968109130859375,-0.0184478759765625,0.009185791015625
1772807142956836400,2.64483642578125,-0.9964752197265625,-0.0196380615234375,0.0082550048828125
1772807142966768400,2.654768310546875,-0.997467041015625,-0.020172119140625,0.008636474609375
1772807142976700700,2.66470068359375,-0.996307373046875,-0.01947021484375,0.0083770751953125
1772807142986631400,2.67463134765625,-0.99664306640625,-0.019744873046875,0.0097198486328125
1772807142996563500,2.6845634765625,-0.9975128173828125,-0.0194091796875,0.0077972412109375
1772807143006495500,2.69449560546875,-0.9955291748046875,-0.019805908203125,0.0093231201171875
1772807143016427500,2.704427490234375,-0.9958648681640625,-0.0198974609375,0.0071868896484375
1772807143026358300,2.714358154296875,-0.99676513671875,-0.0197601318359375,0.0076904296875
1772807143036290300,2.724290283203125,-0.9954833984375,-0.01898193359375,0.0087127685546875
1772807143046222300,2.734222412109375,-0.9972381591796875,-0.01885986328125,0.009552001953125
1772807143056154400,2.744154296875,-0.9969329833984375,-0.019439697265625,0.00909423828125
1772807143066085600,2.754085693359375,-0.99609375,-0.0186309814453125,0.009552001953125
1772807143076017400,2.764017333984375,-0.995208740234375,-0.018035888671875,0.0093231201171875
1772807143085949400,2.773949462890625,-0.99639892578125,-0.0175323486328125,0.0099029541015625
1772807143095881500,2.783881591796875,-0.9941864013671875,-0.017730712890625,0.010223388671875
1772807143105812500,2.7938125,-0.997894287109375,-0.01910400390625,0.008575439453125
1772807143115744300,2.803744140625,-0.998046875,-0.0188446044921875,0.0092926025390625
1772807143125676300,2.81367626953125,-0.9969482421875,-0.0196990966796875,0.0092010498046875
1772807143135608300,2.8236083984375,-0.99725341796875,-0.019073486328125,0.006683349609375
1772807143145539600,2.83353955078125,-0.9959259033203125,-0.0211181640625,0.008056640625
1772807143155471600,2.8434716796875,-0.998016357421875,-0.0195159912109375,0.006439208984375
1772807143165403400,2.8534033203125,-0.9963531494140625,-0.021026611328125,0.00762939453125
1772807143175335400,2.86333544921875,-0.99615478515625,-0.0203094482421875,0.00836181640625
1772807143185266400,2.873266357421875,-0.9975128173828125,-0.0204010009765625,0.0095672607421875
1772807143195198500,2.883198486328125,-0.9980010986328125,-0.0194854736328125,0.0099029541015625
1772807143205130500,2.893130615234375,-0.9959716796875,-0.019317626953125,0.007537841796875
1772807143215062300,2.903062255859375,-0.99755859375,-0.0193939208984375,0.0074615478515625
1772807143224993500,2.91299365234375,-0.99664306640625,-0.0195159912109375,0.0079345703125
1772807143234925600,2.922925537109375,-0.9955291748046875,-0.01904296875,0.00640869140625
1772807143244857600,2.932857666015625,-0.9964752197265625,-0.0187530517578125,0.0087890625
1772807143254789400,2.942789306640625,-0.9965667724609375,-0.01849365234375,0.0091705322265625
1772807143264720400,2.952720458984375,-0.9977874755859375,-0.0182037353515625,0.0078887939453125
1772807143274652400,2.96265234375,-0.996063232421875,-0.018280029296875,0.007568359375
1772807143284584400,2.97258447265625,-0.9965667724609375,-0.01776123046875,0.009765625
1772807143294516500,2.9825166015625,-0.9970245361328125,-0.01751708984375,0.008880615234375
1772807143304447500,2.992447509765625,-0.9972991943359375,-0.019073486328125,0.006195068359375
1772807143314379500,3.002379638671875,-0.995819091796875,-0.0184173583984375,0.007476806640625
1772807143324311600,3.0123115234375,-0.996307373046875,-0.019744873046875,0.0068817138671875
1772807143334242600,3.02224267578125,-0.995758056640625,-0.0184326171875,0.0092010498046875
1772807143344174300,3.03217431640625,-0.9966888427734375,-0.0193634033203125,0.0102386474609375
1772807143354106400,3.0421064453125,-0.99676513671875,-0.0199432373046875,0.0081939697265625
1772807143364038400,3.052038330078125,-0.9977874755859375,-0.0196685791015625,0.0067291259765625
1772807143373969700,3.0619697265625,-0.99578857421875,-0.019775390625,0.00787353515625
1772807143383901400,3.0719013671875,-0.9960174560546875,-0.019012451171875,0.0084381103515625
1772807143393833500,3.08183349609375,-0.996368408203125,-0.018768310546875,0.0086822509765625
1772807143403765500,3.091765625,-0.9966888427734375,-0.0180511474609375,0.0080413818359375
1772807143413696500,3.101696533203125,-0.996826171875,-0.0181427001953125,0.0085906982421875
1772807143423628500,3.111628662109375,-0.99609375,-0.0183868408203125,0.007720947265625
1772807143433560300,3.121560302734375,-0.995361328125,-0.0184173583984375,0.0073394775390625
1772807143443492400,3.131492431640625,-0.9962158203125,-0.018310546875,0.0073394775390625
1772807143453423600,3.141423583984375,-0.99639892578125,-0.01910400390625,0.0072479248046875
1772807143463355600,3.151355712890625,-0.996856689453125,-0.0202484130859375,0.0071563720703125
1772807143473287700,3.16128759765625,-0.9950714111328125,-0.019561767578125,0.0096435546875
1772807143483219500,3.171219482421875,-0.995880126953125,-0.018707275390625,0.0099029541015625
1772807143493150500,3.181150390625,-0.998443603515625,-0.020477294921875,0.009796142578125
1772807143503082500,3.19108251953125,-0.9958953857421875,-0.0198211669921875,0.0106658935546875
1772807143513014500,3.2010146484375,-0.9980316162109375,-0.0197296142578125,0.010528564453125
1772807143522946300,3.2109462890625,-0.995849609375,-0.019500732421875,0.0072021484375
1772807143532877600,3.220877685546875,-0.99407958984375,-0.0183563232421875,0.0078277587890625
1772807143542809600,3.2308095703125,-0.9967803955078125,-0.0191497802734375,0.0089263916015625
1772807143552741600,3.24074169921875,-0.9961090087890625,-0.0196380615234375,0.007720947265625
1772807143562673700,3.250673583984375,-0.996429443359375,-0.018585205078125,0.007354736328125
1772807143572604400,3.2606044921875,-0.9964141845703125,-0.0183563232421875,0.0073394775390625
1772807143582536400,3.270536376953125,-0.9949951171875,-0.0191650390625,0.0088043212890625
1772807143592468500,3.280468505859375,-0.9962921142578125,-0.02056884765625,0.008514404296875
1772807143602400500,3.290400390625,-0.997314453125,-0.02056884765625,0.0055999755859375
1772807143612331300,3.300331298828125,-0.9960784912109375,-0.01953125,0.007904052734375
1772807143622263600,3.310263671875,-0.9971160888671875,-0.0191497802734375,0.007293701171875
1772807143632195600,3.320195556640625,-0.9967193603515625,-0.0203704833984375,0.0077972412109375
1772807143642127600,3.330127685546875,-0.9966888427734375,-0.020416259765625,0.0081787109375
1772807143652058400,3.340058349609375,-0.9962005615234375,-0.0205841064453125,0.0069427490234375
1772807143661990400,3.349990478515625,-0.9953765869140625,-0.019287109375,0.008575439453125
1772807143671922400,3.35992236328125,-0.99481201171875,-0.0197296142578125,0.0067596435546875
1772807143681854500,3.3698544921875,-0.9965972900390625,-0.019378662109375,0.0076904296875
1772807143691785500,3.379785400390625,-0.9954681396484375,-0.0178375244140625,0.0071868896484375
1772807143701717500,3.389717529296875,-0.9974212646484375,-0.0186920166015625,0.0074462890625
1772807143711649500,3.3996494140625,-0.9975433349609375,-0.0190582275390625,0.008819580078125
1772807143721581600,3.40958154296875,-0.996490478515625,-0.0187530517578125,0.0079803466796875
1772807143731512600,3.4195126953125,-0.997406005859375,-0.0185089111328125,0.009033203125
1772807143741444400,3.4294443359375,-0.996795654296875,-0.0199432373046875,0.008148193359375
1772807143751376400,3.43937646484375,-0.9955291748046875,-0.01751708984375,0.0050506591796875
1772807143761308400,3.449308349609375,-0.9971771240234375,-0.01898193359375,0.007904052734375
1772807143771239400,3.459239501953125,-0.9978485107421875,-0.0196075439453125,0.0091094970703125
1772807143781171500,3.46917138671875,-0.9976654052734375,-0.01910400390625,0.006866455078125
1772807143791103500,3.479103515625,-0.9967498779296875,-0.020416259765625,0.008636474609375
1772807143801035500,3.489035400390625,-0.995361328125,-0.0206298828125,0.0081939697265625
1772807143810966500,3.498966552734375,-0.996185302734375,-0.01904296875,0.0075531005859375
1772807143820898600,3.508898681640625,-0.9957275390625,-0.0183868408203125,0.0072784423828125
1772807143830830600,3.51883056640625,-0.9966888427734375,-0.0185699462890625,0.007080078125
1772807143840762600,3.5287626953125,-0.996307373046875,-0.0198822021484375,0.006134033203125
1772807143850693600,3.538693603515625,-0.9954833984375,-0.01947021484375,0.00726318359375
1772807143860625700,3.548625732421875,-0.9962158203125,-0.019805908203125,0.00732421875
1772807143870557700,3.5585576171875,-0.9954376220703125,-0.0196380615234375,0.007781982421875
1772807143880489500,3.568489501953125,-0.9959716796875,-0.019744873046875,0.0071258544921875
1772807143890420700,3.578420654296875,-0.9965667724609375,-0.0195159912109375,0.007293701171875
1772807143900352800,3.588352783203125,-0.995758056640625,-0.0209808349609375,0.00726318359375
1772807143910284800,3.598284912109375,-0.9965972900390625,-0.0185546875,0.00830078125
1772807143920216600,3.608216552734375,-0.99627685546875,-0.0186309814453125,0.008056640625
1772807143930147600,3.618147705078125,-0.996124267578125,-0.01922607421875,0.0100860595703125
1772807143940079600,3.62807958984375,-0.99566650390625,-0.019012451171875,0.00885009765625
1772807143950011600,3.63801171875,-0.9967193603515625,-0.0176849365234375,0.00836181640625
1772807143959943700,3.647943603515625,-0.997772216796875,-0.0170135498046875,0.0082550048828125
1772807143969874700,3.657874755859375,-0.9955902099609375,-0.0186309814453125,0.0074310302734375
1772807143979806700,3.667806640625,-0.9967041015625,-0.0179443359375,0.010162353515625
1772807143989738800,3.67773876953125,-0.9970855712890625,-0.017822265625,0.0079803466796875
1772807143999670800,3.6876708984375,-0.998779296875,-0.017425537109375,0.0076904296875
1772807144009601500,3.6976015625,-0.997528076171875,-0.0194854736328125,0.0084075927734375
1772807144019533600,3.707533447265625,-0.9971160888671875,-0.02032470703125,0.009185791015625
1772807144029465600,3.717465576171875,-0.9961395263671875,-0.019744873046875,0.007781982421875
1772807144039397600,3.727397705078125,-0.9965362548828125,-0.0221710205078125,0.008392333984375
1772807144049328600,3.73732861328125,-0.9952392578125,-0.0206756591796875,0.0076751708984375
1772807144059260700,3.7472607421875,-0.995880126953125,-0.0212249755859375,0.009552001953125
1772807144069192700,3.757192626953125,-0.9963531494140625,-0.02081298828125,0.0087738037109375
1772807144079124700,3.767124755859375,-0.9962921142578125,-0.0194244384765625,0.0100860595703125
1772807144089055700,3.7770556640625,-0.99639892578125,-0.0192718505859375,0.0081634521484375
1772807144098987500,3.786987548828125,-0.995269775390625,-0.0202789306640625,0.0083465576171875
1772807144108919600,3.79691943359375,-0.995452880859375,-0.0188140869140625,0.00689697265625
1772807144118851600,3.8068515625,-0.99615478515625,-0.0194091796875,0.0067291259765625
1772807144128782800,3.816782958984375,-0.99639892578125,-0.017669677734375,0.0068511962890625
1772807144138715000,3.82671484375,-0.9968109130859375,-0.018341064453125,0.006591796875
1772807144148646700,3.836646728515625,-0.9950714111328125,-0.018585205078125,0.0075225830078125
1772807144158578700,3.84657861328125,-0.9957122802734375,-0.017181396484375,0.0086822509765625
1772807144168509700,3.856509765625,-0.9957733154296875,-0.0177764892578125,0.0081939697265625
1772807144178441700,3.866441650390625,-0.9961395263671875,-0.0187835693359375,0.0085906982421875
1772807144188373500,3.87637353515625,-0.996856689453125,-0.0182647705078125,0.0082855224609375
1772807144198305500,3.886305419921875,-0.995147705078125,-0.0199127197265625,0.008331298828125
1772807144208236800,3.89623681640625,-0.9957275390625,-0.0203857421875,0.0055389404296875
1772807144218168800,3.9061689453125,-0.9966888427734375,-0.0202484130859375,0.0077972412109375
1772807144228100900,3.916100830078125,-0.9954833984375,-0.021484375,0.0069732666015625
1772807144238032600,3.92603271484375,-0.995697021484375,-0.020050048828125,0.00750732421875
1772807144247963600,3.935963623046875,-0.995635986328125,-0.020721435546875,0.006103515625
1772807144257895700,3.945895751953125,-0.9960174560546875,-0.0200958251953125,0.0070037841796875
1772807144267827700,3.95582763671875,-0.9962158203125,-0.019256591796875,0.0088653564453125
1772807144277759700,3.965759765625,-0.9970245361328125,-0.0200958251953125,0.0084075927734375
1772807144287690800,3.975690673828125,-0.997833251953125,-0.0201568603515625,0.0084075927734375
1772807144297621800,3.985621826171875,-0.9954376220703125,-0.0172576904296875,0.00872802734375
1772807144307552500,3.995552490234375,-0.99615478515625,-0.0179595947265625,0.0062408447265625
1772807144317484500,4.005484619140625,-0.997039794921875,-0.018402099609375,0.007965087890625
1772807144327416600,4.01541650390625,-0.9952545166015625,-0.0170745849609375,0.0094757080078125
1772807144337348600,4.0253486328125,-0.995361328125,-0.018218994140625,0.0084686279296875
1772807144347280000,4.03527978515625,-0.995025634765625,-0.0183868408203125,0.009002685546875
1772807144357211600,4.045211669921875,-0.9954376220703125,-0.0189666748046875,0.0079345703125
1772807144367143700,4.055143798828125,-0.99560546875,-0.0208892822265625,0.0089874267578125
1772807144377075700,4.06507568359375,-0.996826171875,-0.0188446044921875,0.008758544921875
1772807144387006700,4.0750068359375,-0.995758056640625,-0.018646240234375,0.0068511962890625
1772807144396938500,4.0849384765625,-0.9958038330078125,-0.0189971923828125,0.0088043212890625
1772807144406870500,4.09487060546875,-0.9967803955078125,-0.02032470703125,0.007965087890625
1772807144416802600,4.104802490234375,-0.9964752197265625,-0.0190582275390625,0.0084686279296875
1772807144426733800,4.11473388671875,-0.998931884765625,-0.020477294921875,0.00762939453125
1772807144436665900,4.124665771484375,-0.9973297119140625,-0.0193023681640625,0.007293701171875
1772807144446597600,4.13459765625,-0.9968109130859375,-0.0204315185546875,0.00738525390625
1772807144456529700,4.14452978515625,-0.9954376220703125,-0.019989013671875,0.0083770751953125
1772807144466460700,4.154460693359375,-0.9972686767578125,-0.0189666748046875,0.0096282958984375
1772807144476392700,4.164392822265625,-0.9960174560546875,-0.019073486328125,0.0107574462890625
1772807144486324700,4.17432470703125,-0.9966583251953125,-0.01983642578125,0.0092010498046875
1772807144496256500,4.184256591796875,-0.9958343505859375,-0.019927978515625,0.009185791015625
1772807144506187800,4.194187744140625,-0.9961395263671875,-0.0205078125,0.0082550048828125
1772807144516119800,4.204119873046875,-0.9966583251953125,-0.019378662109375,0.0058746337890625
1772807144526051800,4.2140517578125,-0.996429443359375,-0.019317626953125,0.0083465576171875
1772807144535983600,4.223983642578125,-0.996246337890625,-0.0186614990234375,0.008270263671875
1772807144545914600,4.23391455078125,-0.99725341796875,-0.0179290771484375,0.0097198486328125
1772807144555846700,4.2438466796875,-0.9972076416015625,-0.0165557861328125,0.00830078125
1772807144565778700,4.25377880859375,-0.9958648681640625,-0.0175018310546875,0.0069580078125
1772807144575710700,4.263710693359375,-0.9959259033203125,-0.0184326171875,0.0085601806640625
1772807144585641700,4.273641845703125,-0.9951629638671875,-0.0187530517578125,0.009735107421875
1772807144595573800,4.28357373046875,-0.996826171875,-0.0197601318359375,0.007965087890625
1772807144605505800,4.293505859375,-0.995880126953125,-0.019287109375,0.0101776123046875
1772807144615437800,4.303437744140625,-0.996429443359375,-0.019317626953125,0.007568359375
1772807144625368600,4.31336865234375,-0.9964141845703125,-0.020721435546875,0.00836181640625
1772807144635300600,4.323300537109375,-0.99609375,-0.0207672119140625,0.0084686279296875
1772807144645232600,4.333232666015625,-0.9964752197265625,-0.0191802978515625,0.0072021484375
1772807144655164700,4.34316455078125,-0.9967803955078125,-0.0215606689453125,0.008758544921875
1772807144665096700,4.3530966796875,-0.9952239990234375,-0.0209503173828125,0.0088958740234375
1772807144675028500,4.363028564453125,-0.9965362548828125,-0.0197296142578125,0.0069580078125
1772807144684959700,4.372959716796875,-0.9960784912109375,-0.020538330078125,0.010589599609375
1772807144694891800,4.382891845703125,-0.995758056640625,-0.0190277099609375,0.0093231201171875
1772807144704823800,4.39282373046875,-0.9969024658203125,-0.019683837890625,0.008758544921875
1772807144714755800,4.402755859375,-0.996002197265625,-0.0188140869140625,0.0079803466796875
1772807144724686600,4.4126865234375,-0.9973907470703125,-0.01776123046875,0.00714111328125
1772807144734618600,4.42261865234375,-0.996429443359375,-0.0173492431640625,0.0069732666015625
1772807144744550700,4.432550537109375,-0.9953460693359375,-0.0186309814453125,0.007659912109375
1772807144754482700,4.442482666015625,-0.9954986572265625,-0.01739501953125,0.0086212158203125
1772807144764413700,4.45241357421875,-0.9957122802734375,-0.0190887451171875,0.0089111328125
1772807144774345700,4.462345703125,-0.9959869384765625,-0.0190887451171875,0.0095062255859375
1772807144784277800,4.47227783203125,-0.995361328125,-0.018341064453125,0.0092926025390625
1772807144794209800,4.482209716796875,-0.995361328125,-0.0185546875,0.00848388671875
1772807144804140500,4.492140625,-0.9973602294921875,-0.02020263671875,0.00823974609375
1772807144814072600,4.502072509765625,-0.9974517822265625,-0.019805908203125,0.0080718994140625
1772807144824004600,4.512004638671875,-0.99554443359375,-0.0197296142578125,0.0069427490234375
1772807144833936600,4.5219365234375,-0.996612548828125,-0.0207366943359375,0.0075531005859375
1772807144843867400,4.531867431640625,-0.9969329833984375,-0.019927978515625,0.00543212890625
1772807144853799400,4.54179931640625,-0.9957733154296875,-0.020843505859375,0.008575439453125
1772807144863731500,4.5517314453125,-0.9966278076171875,-0.0207977294921875,0.007080078125
1772807144873663500,4.56166357421875,-0.9977874755859375,-0.0185546875,0.00616455078125
1772807144883594200,4.57159423828125,-0.996856689453125,-0.0191192626953125,0.00927734375
1772807144893526300,4.5815263671875,-0.9959716796875,-0.0193939208984375,0.0095062255859375
1772807144903458300,4.591458251953125,-0.9944000244140625,-0.0184326171875,0.0111236572265625
1772807144913390300,4.601390380859375,-0.9951019287109375,-0.0177001953125,0.0101318359375
1772807144923321300,4.6113212890625,-0.9970245361328125,-0.018280029296875,0.0081939697265625
1772807144933253400,4.62125341796875,-0.9969024658203125,-0.018310546875,0.006927490234375
1772807144943185400,4.631185302734375,-0.9971160888671875,-0.019561767578125,0.00750732421875
1772807144953117400,4.641117431640625,-0.9962921142578125,-0.0190887451171875,0.0078887939453125
1772807144963048400,4.65104833984375,-0.995513916015625,-0.0180511474609375,0.008819580078125
1772807144972980200,4.660980224609375,-0.9963836669921875,-0.019500732421875,0.0092926025390625
1772807144982912300,4.670912353515625,-0.9964599609375,-0.0202484130859375,0.0096588134765625
1772807144992844300,4.68084423828125,-0.9959716796875,-0.01934814453125,0.0086822509765625
1772807145002775600,4.690775634765625,-0.9952392578125,-0.0210723876953125,0.008270263671875
1772807145012707300,4.700707275390625,-0.9956512451171875,-0.019683837890625,0.0063934326171875
1772807145022639400,4.710639404296875,-0.996795654296875,-0.019073486328125,0.007232666015625
1772807145032571400,4.7205712890625,-0.9959716796875,-0.0196533203125,0.0080413818359375
1772807145042502400,4.73050244140625,-0.996673583984375,-0.0185089111328125,0.0071868896484375
1772807145052434400,4.740434326171875,-0.9966888427734375,-0.018157958984375,0.0065765380859375
1772807145062366200,4.7503662109375,-0.9958648681640625,-0.018707275390625,0.0077056884765625
1772807145072298200,4.76029833984375,-0.9943695068359375,-0.018768310546875,0.0088958740234375
1772807145082229200,4.770229248046875,-0.995635986328125,-0.0175018310546875,0.009613037109375
1772807145092161500,4.78016162109375,-0.9959259033203125,-0.01837158203125,0.010467529296875
1772807145102093600,4.790093505859375,-0.996795654296875,-0.018951416015625,0.009552001953125
1772807145112025300,4.800025390625,-0.9961395263671875,-0.019500732421875,0.007720947265625
1772807145121956400,4.809956298828125,-0.9967193603515625,-0.0189971923828125,0.0086517333984375
1772807145131888400,4.819888427734375,-0.995361328125,-0.0202484130859375,0.0088653564453125
1772807145141820400,4.8298203125,-0.996826171875,-0.01953125,0.0074462890625
1772807145151752200,4.839752197265625,-0.9955596923828125,-0.020294189453125,0.007232666015625
1772807145161683200,4.84968310546875,-0.9961090087890625,-0.018829345703125,0.008087158203125
1772807145171615500,4.859615478515625,-0.9960174560546875,-0.019317626953125,0.0070648193359375
1772807145181547500,4.869547607421875,-0.996856689453125,-0.019317626953125,0.0080718994140625
1772807145191479600,4.8794794921875,-0.996612548828125,-0.0202178955078125,0.006256103515625
1772807145201410300,4.889410400390625,-0.9950714111328125,-0.0196685791015625,0.0065765380859375
1772807145211342300,4.89934228515625,-0.997589111328125,-0.0200958251953125,0.0095062255859375
1772807145221274400,4.9092744140625,-0.9981689453125,-0.01922607421875,0.008270263671875
1772807145231206400,4.919206298828125,-0.9965057373046875,-0.0192108154296875,0.008087158203125
1772807145241137200,4.92913720703125,-0.9964752197265625,-0.019561767578125,0.009429931640625
1772807145251069200,4.939069091796875,-0.9962921142578125,-0.01995849609375,0.01007080078125
1772807145261001500,4.94900146484375,-0.9965362548828125,-0.01849365234375,0.0091552734375
1772807145270933500,4.95893359375,-0.997314453125,-0.0188446044921875,0.0103607177734375
1772807145280864300,4.9688642578125,-0.9964141845703125,-0.018585205078125,0.009857177734375
1772807145290796300,4.97879638671875,-0.9969482421875,-0.0176239013671875,0.0084991455078125
1772807145300728300,4.988728271484375,-0.996246337890625,-0.01812744140625,0.007781982421875
1772807145310660400,4.998660400390625,-0.995941162109375,-0.0196075439453125,0.00775146484375
1772807145320591400,5.00859130859375,-0.9966888427734375,-0.0195465087890625,0.007354736328125
1772807145330523100,5.018523193359375,-0.9953765869140625,-0.01953125,0.0066986083984375
1772807145340455200,5.028455078125,-0.9966888427734375,-0.019256591796875,0.00634765625
1772807145350387500,5.038387451171875,-0.994964599609375,-0.0206146240234375,0.0076446533203125
1772807145360318500,5.048318359375,-0.9961395263671875,-0.01934814453125,0.00860595703125
1772807145370250200,5.058250244140625,-0.9967041015625,-0.0217437744140625,0.00823974609375
1772807145380182300,5.068182373046875,-0.9960174560546875,-0.019378662109375,0.0094146728515625
1772807145390114300,5.0781142578125,-0.9965362548828125,-0.019287109375,0.0082244873046875
1772807145400045300,5.08804541015625,-0.9963531494140625,-0.0192413330078125,0.0095672607421875
1772807145409977300,5.097977294921875,-0.9956512451171875,-0.0197296142578125,0.00897216796875
1772807145419909000,5.1079091796875,-0.994842529296875,-0.020111083984375,0.008087158203125
1772807145429841200,5.117841064453125,-0.9974517822265625,-0.0186614990234375,0.008270263671875
1772807145439772400,5.1277724609375,-0.9962005615234375,-0.017730712890625,0.0067596435546875
1772807145449704400,5.137704345703125,-0.9953765869140625,-0.018035888671875,0.00762939453125
1772807145459636500,5.147636474609375,-0.9957275390625,-0.018402099609375,0.0074310302734375
1772807145469568300,5.157568359375,-0.997100830078125,-0.0178680419921875,0.00811767578125
1772807145479499300,5.167499267578125,-0.9980316162109375,-0.0188446044921875,0.0072021484375
1772807145489431300,5.177431396484375,-0.9957122802734375,-0.01806640625,0.008575439453125
1772807145499363300,5.18736328125,-0.9959259033203125,-0.01849365234375,0.009613037109375
1772807145509295000,5.197295166015625,-0.9962158203125,-0.01904296875,0.0078582763671875
1772807145519226400,5.207226318359375,-0.99603271484375,-0.0196380615234375,0.0083160400390625
1772807145529158400,5.217158447265625,-0.9954681396484375,-0.020416259765625,0.0096893310546875
1772807145539090400,5.22709033203125,-0.9960784912109375,-0.02069091796875,0.0081634521484375
1772807145549022500,5.2370224609375,-0.99609375,-0.022186279296875,0.00811767578125
1772807145558953200,5.246953125,-0.996063232421875,-0.02130126953125,0.0075531005859375
1772807145568885200,5.25688525390625,-0.99560546875,-0.0198516845703125,0.0077972412109375
1772807145578817300,5.2668173828125,-0.9964447021484375,-0.02020263671875,0.008636474609375
1772807145588749300,5.276749267578125,-0.994537353515625,-0.0197296142578125,0.0084381103515625
1772807145598680300,5.286680419921875,-0.9949493408203125,-0.017578125,0.0081634521484375
1772807145608612400,5.2966123046875,-0.9961700439453125,-0.0179901123046875,0.0077972412109375
1772807145618544400,5.30654443359375,-0.9969635009765625,-0.018157958984375,0.0078582763671875
1772807145628476400,5.316476318359375,-0.9973602294921875,-0.017822265625,0.0089569091796875
1772807145638407200,5.3264072265625,-0.996826171875,-0.016632080078125,0.006927490234375
1772807145648339200,5.336339111328125,-0.996612548828125,-0.01849365234375,0.0072021484375
1772807145658271200,5.346271240234375,-0.996917724609375,-0.018280029296875,0.009368896484375
1772807145668203300,5.356203369140625,-0.9971771240234375,-0.017822265625,0.0085601806640625
1772807145678134500,5.366134521484375,-0.996978759765625,-0.0189361572265625,0.0090789794921875
1772807145688066300,5.37606640625,-0.9967498779296875,-0.0200347900390625,0.0075836181640625
1772807145697998300,5.385998291015625,-0.996978759765625,-0.0200042724609375,0.0084228515625
1772807145707930400,5.395930419921875,-0.996124267578125,-0.02099609375,0.0084381103515625
1772807145717861400,5.405861328125,-0.9959564208984375,-0.0217742919921875,0.0068206787109375
1772807145727793400,5.41579345703125,-0.9959716796875,-0.0207366943359375,0.007904052734375
1772807145737725200,5.42572509765625,-0.9961395263671875,-0.02130126953125,0.0074005126953125
1772807145747657200,5.4356572265625,-0.9960479736328125,-0.021820068359375,0.0069427490234375
1772807145757588500,5.44558837890625,-0.99676513671875,-0.0199737548828125,0.009674072265625
1772807145767520500,5.4555205078125,-0.9959259033203125,-0.0185089111328125,0.0085906982421875
1772807145777452300,5.465452392578125,-0.995758056640625,-0.017547607421875,0.0103912353515625
1772807145787384300,5.47538427734375,-0.9965667724609375,-0.018768310546875,0.0086517333984375
1772807145797315300,5.4853154296875,-0.9962005615234375,-0.01739501953125,0.008392333984375
1772807145807247400,5.495247314453125,-0.9973602294921875,-0.0182037353515625,0.0079498291015625
1772807145817179400,5.505179443359375,-0.9969024658203125,-0.0179290771484375,0.0094757080078125
1772807145827111200,5.515111083984375,-0.9957733154296875,-0.01776123046875,0.010711669921875
1772807145837043500,5.52504345703125,-0.995880126953125,-0.0186920166015625,0.008026123046875
1772807145846974700,5.534974609375,-0.995147705078125,-0.0196990966796875,0.0088043212890625
1772807145856906800,5.54490673828125,-0.9968719482421875,-0.0176849365234375,0.009796142578125
1772807145866838800,5.5548388671875,-0.9971160888671875,-0.019500732421875,0.0077056884765625
1772807145876770600,5.5647705078125,-0.9964447021484375,-0.020294189453125,0.007537841796875
1772807145886701600,5.57470166015625,-0.995697021484375,-0.021026611328125,0.00897216796875
1772807145896633600,5.584633544921875,-0.997528076171875,-0.0197296142578125,0.0092315673828125
1772807145906565600,5.594565673828125,-0.9966583251953125,-0.02008056640625,0.0091552734375
1772807145916497700,5.60449755859375,-0.9953765869140625,-0.0202178955078125,0.00726318359375
1772807145926428700,5.6144287109375,-0.99627685546875,-0.0203857421875,0.008941650390625
1772807145936360700,5.624360595703125,-0.997772216796875,-0.01983642578125,0.0084686279296875
1772807145946292700,5.634292724609375,-0.9967041015625,-0.017486572265625,0.0065155029296875
1772807145956224800,5.644224853515625,-0.997039794921875,-0.01788330078125,0.006744384765625
1772807145966155500,5.654155517578125,-0.9962158203125,-0.017364501953125,0.008575439453125
1772807145976087600,5.664087646484375,-0.996307373046875,-0.0162506103515625,0.0096588134765625
1772807145986019600,5.67401953125,-0.99658203125,-0.018280029296875,0.0089111328125
1772807145995951600,5.68395166015625,-0.997314453125,-0.017486572265625,0.0092620849609375
1772807146005882600,5.693882568359375,-0.9949798583984375,-0.016845703125,0.009002685546875
1772807146015814700,5.703814697265625,-0.9974212646484375,-0.0173492431640625,0.006195068359375
1772807146025746700,5.71374658203125,-0.9968109130859375,-0.0177459716796875,0.007232666015625
1772807146035678700,5.7236787109375,-0.9955596923828125,-0.0201873779296875,0.008270263671875
1772807146045609500,5.733609375,-0.99664306640625,-0.0201263427734375,0.0078125
1772807146055541500,5.74354150390625,-0.9968109130859375,-0.0204315185546875,0.00848388671875
1772807146065473500,5.7534736328125,-0.9968719482421875,-0.0213623046875,0.0084381103515625
1772807146075405600,5.763405517578125,-0.9957275390625,-0.0194091796875,0.00885009765625
1772807146085336600,5.773336669921875,-0.99652099609375,-0.019439697265625,0.0080108642578125
1772807146095268600,5.7832685546875,-0.9958648681640625,-0.0201416015625,0.0074310302734375
1772807146105200600,5.79320068359375,-0.997222900390625,-0.0196380615234375,0.0079498291015625
1772807146115132700,5.803132568359375,-0.996246337890625,-0.018768310546875,0.006683349609375
1772807146125063700,5.813063720703125,-0.9962921142578125,-0.021087646484375,0.008331298828125
1772807146134995700,5.82299560546875,-0.9976043701171875,-0.0181732177734375,0.0087432861328125
1772807146144927500,5.832927490234375,-0.9967041015625,-0.016693115234375,0.00787353515625
1772807146154859500,5.842859619140625,-0.9965667724609375,-0.0181732177734375,0.0087127685546875
1772807146164790500,5.85279052734375,-0.996337890625,-0.017852783203125,0.007781982421875
1772807146174722600,5.86272265625,-0.99603271484375,-0.0170135498046875,0.00823974609375
1772807146184654600,5.872654541015625,-0.99676513671875,-0.0178680419921875,0.0086669921875
1772807146194586600,5.882586669921875,-0.997711181640625,-0.0188751220703125,0.007537841796875
1772807146204517600,5.892517578125,-0.995025634765625,-0.0189208984375,0.0088043212890625
1772807146214449700,5.90244970703125,-0.996246337890625,-0.01983642578125,0.0081787109375
1772807146224381700,5.912381591796875,-0.9954681396484375,-0.0208587646484375,0.008087158203125
1772807146234313500,5.9223134765625,-0.9958343505859375,-0.017791748046875,0.0067291259765625
1772807146244244500,5.932244384765625,-0.997100830078125,-0.0188140869140625,0.0067901611328125
1772807146254176500,5.942176513671875,-0.996734619140625,-0.01904296875,0.0087127685546875
1772807146264108500,5.952108642578125,-0.9959259033203125,-0.0194244384765625,0.0081634521484375
1772807146274040600,5.96204052734375,-0.99639892578125,-0.0192108154296875,0.0081939697265625
1772807146283971600,5.9719716796875,-0.997100830078125,-0.0200347900390625,0.008270263671875
1772807146293903600,5.981903564453125,-0.995361328125,-0.0201568603515625,0.0081024169921875
1772807146303835600,5.991835693359375,-0.9971923828125,-0.0194244384765625,0.0078582763671875
1772807146313767700,6.001767578125,-0.9966278076171875,-0.0207672119140625,0.0079803466796875
1772807146323698400,6.011698486328125,-0.9959564208984375,-0.018829345703125,0.0086517333984375
1772807146333630500,6.02163037109375,-0.996917724609375,-0.0190277099609375,0.009368896484375
1772807146343562500,6.0315625,-0.996002197265625,-0.0195465087890625,0.00927734375
1772807146353494500,6.04149462890625,-0.995574951171875,-0.0188140869140625,0.0100555419921875
1772807146363425500,6.051425537109375,-0.9959716796875,-0.0181884765625,0.0089263916015625
1772807146373357600,6.061357666015625,-0.99603271484375,-0.01922607421875,0.006744384765625
1772807146383289600,6.07128955078125,-0.9962158203125,-0.019287109375,0.0085906982421875
1772807146393221600,6.0812216796875,-0.995697021484375,-0.0194091796875,0.0077667236328125
1772807146403152600,6.091152587890625,-0.997314453125,-0.0199737548828125,0.0081939697265625
1772807146413084400,6.10108447265625,-0.9964141845703125,-0.0187225341796875,0.007354736328125
1772807146423016400,6.111016357421875,-0.99609375,-0.0194091796875,0.0081634521484375
1772807146432948500,6.120948486328125,-0.996551513671875,-0.020904541015625,0.0069580078125
1772807146442879700,6.130879638671875,-0.997344970703125,-0.019134521484375,0.00701904296875
1772807146452811500,6.1408115234375,-0.996917724609375,-0.0167999267578125,0.00653076171875
1772807146462743600,6.15074365234375,-0.997161865234375,-0.0195770263671875,0.007232666015625
1772807146472675600,6.160675537109375,-0.99603271484375,-0.019927978515625,0.0079345703125
1772807146482606600,6.170606689453125,-0.9967498779296875,-0.02020263671875,0.0087127685546875
1772807146492538600,6.18053857421875,-0.9957275390625,-0.0207977294921875,0.0082855224609375
1772807146502470400,6.190470458984375,-0.99566650390625,-0.02142333984375,0.0101165771484375
1772807146512402400,6.20040234375,-0.9954681396484375,-0.0186920166015625,0.0086517333984375
1772807146522333700,6.210333740234375,-0.9955291748046875,-0.0198211669921875,0.006866455078125
1772807146532265700,6.220265625,-0.99749755859375,-0.0208587646484375,0.00830078125
1772807146542197800,6.23019775390625,-0.996551513671875,-0.018280029296875,0.0080413818359375
1772807146552129500,6.240129638671875,-0.9964141845703125,-0.017578125,0.0087738037109375
1772807146562060500,6.250060546875,-0.9959259033203125,-0.017730712890625,0.009033203125
1772807146571992600,6.25999267578125,-0.996124267578125,-0.017974853515625,0.0068817138671875
1772807146581924600,6.269924560546875,-0.9950103759765625,-0.0189056396484375,0.0081024169921875
1772807146591856400,6.2798564453125,-0.9975128173828125,-0.018524169921875,0.0074615478515625
1772807146601787600,6.28978759765625,-0.9967193603515625,-0.0190582275390625,0.0084075927734375
1772807146611719700,6.2997197265625,-0.996337890625,-0.0189056396484375,0.00927734375
1772807146621651700,6.309651611328125,-0.99658203125,-0.0185394287109375,0.0097503662109375
1772807146631583700,6.319583740234375,-0.9967193603515625,-0.018798828125,0.00860595703125
1772807146641514500,6.329514404296875,-0.9966278076171875,-0.0201568603515625,0.0082550048828125
1772807146651446500,6.339446533203125,-0.996612548828125,-0.0198211669921875,0.006988525390625
1772807146661378600,6.349378662109375,-0.9959869384765625,-0.0185546875,0.00701904296875
1772807146671310600,6.359310546875,-0.9968414306640625,-0.019500732421875,0.0081024169921875
1772807146681241600,6.36924169921875,-0.9972991943359375,-0.02032470703125,0.0064544677734375
1772807146691173600,6.379173583984375,-0.994720458984375,-0.0205230712890625,0.00933837890625
1772807146701105700,6.389105712890625,-0.996002197265625,-0.02056884765625,0.0075225830078125
1772807146711037700,6.39903759765625,-0.9968414306640625,-0.0189666748046875,0.0073089599609375
1772807146720968400,6.408968505859375,-0.9961700439453125,-0.0194091796875,0.009246826171875
1772807146730900500,6.418900390625,-0.996978759765625,-0.01934814453125,0.0086212158203125
1772807146740832500,6.42883251953125,-0.99700927734375,-0.0191497802734375,0.0073089599609375
1772807146750764500,6.4387646484375,-0.9973907470703125,-0.0187530517578125,0.0092620849609375
1772807146760695800,6.44869580078125,-0.9968719482421875,-0.01873779296875,0.0083160400390625
1772807146770627600,6.458627685546875,-0.9969635009765625,-0.01800537109375,0.009002685546875
1772807146780559600,6.4685595703125,-0.9967193603515625,-0.0183258056640625,0.00823974609375
1772807146790491600,6.47849169921875,-0.9963531494140625,-0.019317626953125,0.0070037841796875
1772807146800422700,6.488422607421875,-0.9966278076171875,-0.0190887451171875,0.0096588134765625
1772807146810354400,6.4983544921875,-0.995452880859375,-0.0193939208984375,0.0081939697265625
1772807146820286500,6.508286376953125,-0.9954833984375,-0.0203399658203125,0.007293701171875
1772807146830218500,6.518218505859375,-0.9966278076171875,-0.0197906494140625,0.0086517333984375
1772807146840149500,6.5281494140625,-0.996612548828125,-0.021087646484375,0.0077056884765625
1772807146850081300,6.538081298828125,-0.9976654052734375,-0.0202178955078125,0.007293701171875
1772807146860013300,6.548013427734375,-0.9968719482421875,-0.019134521484375,0.0069732666015625
1772807146869945300,6.5579453125,-0.996612548828125,-0.01904296875,0.0081787109375
1772807146879876400,6.56787646484375,-0.99700927734375,-0.020233154296875,0.008331298828125
1772807146889808400,6.577808349609375,-0.9965362548828125,-0.019317626953125,0.0081634521484375
1772807146899740200,6.587740234375,-0.996246337890625,-0.0193023681640625,0.0081024169921875
1772807146909672200,6.597672119140625,-0.9958648681640625,-0.0185699462890625,0.009002685546875
1772807146919603500,6.607603515625,-0.9957427978515625,-0.01806640625,0.0100555419921875
1772807146929535500,6.617535400390625,-0.9960479736328125,-0.0181427001953125,0.0065155029296875
1772807146939467300,6.62746728515625,-0.9959716796875,-0.0197906494140625,0.0078582763671875
1772807146949399300,6.6373994140625,-0.9972991943359375,-0.01788330078125,0.0084075927734375
1772807146959330300,6.647330322265625,-0.9974365234375,-0.0183868408203125,0.0092315673828125
1772807146969262300,6.657262451171875,-0.9977264404296875,-0.02001953125,0.007598876953125
1772807146979194400,6.6671943359375,-0.997772216796875,-0.01947021484375,0.0071563720703125
1772807146989126100,6.677126220703125,-0.99676513671875,-0.01849365234375,0.008087158203125
1772807146999057400,6.687057373046875,-0.9954986572265625,-0.0193939208984375,0.0086822509765625
1772807147008989400,6.696989501953125,-0.99627685546875,-0.0198822021484375,0.009002685546875
1772807147018921500,6.70692138671875,-0.9959869384765625,-0.0202178955078125,0.006622314453125
1772807147028853500,6.716853515625,-0.995361328125,-0.0200347900390625,0.007598876953125
1772807147038784300,6.7267841796875,-0.99566650390625,-0.01861572265625,0.0068817138671875
1772807147048716300,6.73671630859375,-0.9966278076171875,-0.018463134765625,0.0082550048828125
1772807147058648300,6.7466484375,-0.997802734375,-0.0188751220703125,0.0087738037109375
1772807147068580400,6.756580322265625,-0.9974822998046875,-0.0188751220703125,0.0069580078125
1772807147078511400,6.766511474609375,-0.9948272705078125,-0.0177459716796875,0.008514404296875
1772807147088443400,6.776443359375,-0.99603271484375,-0.0188446044921875,0.0073394775390625
1772807147098375400,6.78637548828125,-0.9956817626953125,-0.018829345703125,0.0084381103515625
1772807147108307500,6.796307373046875,-0.996490478515625,-0.01806640625,0.008270263671875
1772807147118238200,6.80623828125,-0.99578857421875,-0.0182647705078125,0.0082550048828125
1772807147128170200,6.816170166015625,-0.995941162109375,-0.0194244384765625,0.0080108642578125
1772807147138102300,6.826102294921875,-0.9964141845703125,-0.0198974609375,0.009368896484375
1772807147148034300,6.836034423828125,-0.9981536865234375,-0.02032470703125,0.009124755859375
1772807147157965000,6.845965087890625,-0.9952392578125,-0.01934814453125,0.0068359375
1772807147167897300,6.8558974609375,-0.99554443359375,-0.0199432373046875,0.0078125
1772807147177829400,6.865829345703125,-0.995941162109375,-0.019622802734375,0.0079803466796875
1772807147187761400,6.875761474609375,-0.99664306640625,-0.0189056396484375,0.0082244873046875
1772807147197692400,6.8856923828125,-0.9964141845703125,-0.0192108154296875,0.0079345703125
1772807147207624200,6.895624267578125,-0.9968109130859375,-0.01995849609375,0.01104736328125
1772807147217556200,6.90555615234375,-0.9954986572265625,-0.0194091796875,0.0083770751953125
1772807147227487200,6.9154873046875,-0.994964599609375,-0.0191802978515625,0.00830078125
1772807147237419300,6.925419189453125,-0.99627685546875,-0.0198974609375,0.0075836181640625
1772807147247351300,6.935351318359375,-0.9956512451171875,-0.0201568603515625,0.006866455078125
1772807147257283300,6.945283447265625,-0.9962310791015625,-0.0191650390625,0.0073699951171875
1772807147267214300,6.95521435546875,-0.9957427978515625,-0.0187835693359375,0.0093994140625
1772807147277146400,6.965146484375,-0.9970245361328125,-0.02001953125,0.0095672607421875
1772807147287078400,6.975078369140625,-0.9965667724609375,-0.0191192626953125,0.00946044921875
1772807147297010200,6.98501025390625,-0.996551513671875,-0.019378662109375,0.0088653564453125
1772807147306942200,6.994942138671875,-0.9953765869140625,-0.018890380859375,0.00732421875
1772807147316873200,7.004873291015625,-0.9961700439453125,-0.0186309814453125,0.0070648193359375
1772807147326805200,7.01480517578125,-0.9958038330078125,-0.0187530517578125,0.00762939453125
1772807147336737300,7.0247373046875,-0.99560546875,-0.0194244384765625,0.008148193359375
1772807147346668300,7.034668212890625,-0.996429443359375,-0.0179901123046875,0.0097503662109375
1772807147356600300,7.044600341796875,-0.9976348876953125,-0.0195465087890625,0.0078887939453125
1772807147366532400,7.054532470703125,-0.994781494140625,-0.0200958251953125,0.008697509765625
1772807147376464400,7.06446435546875,-0.9969635009765625,-0.01934814453125,0.0089263916015625
1772807147386396400,7.074396484375,-0.996337890625,-0.019287109375,0.006927490234375
1772807147396327200,7.0843271484375,-0.9966888427734375,-0.0206298828125,0.0080108642578125
1772807147406259200,7.09425927734375,-0.995361328125,-0.0203704833984375,0.0079193115234375
1772807147416191200,7.104191162109375,-0.996124267578125,-0.0192108154296875,0.009552001953125
1772807147426123300,7.114123291015625,-0.9957733154296875,-0.0200042724609375,0.007110595703125
1772807147436054300,7.12405419921875,-0.996734619140625,-0.0199127197265625,0.0093536376953125
1772807147445986300,7.133986328125,-0.99658203125,-0.0175323486328125,0.008575439453125
1772807147455918300,7.14391845703125,-0.9962615966796875,-0.0190582275390625,0.0057373046875
1772807147465850400,7.153850341796875,-0.995635986328125,-0.0193634033203125,0.0068511962890625
1772807147475781000,7.163781005859375,-0.9963836669921875,-0.0193023681640625,0.006622314453125
1772807147485713200,7.173713134765625,-0.9968719482421875,-0.016754150390625,0.006744384765625
1772807147495645200,7.183645263671875,-0.996856689453125,-0.0182647705078125,0.00994873046875
1772807147505577200,7.1935771484375,-0.9944305419921875,-0.0189971923828125,0.0078582763671875
1772807147515508500,7.203508544921875,-0.99560546875,-0.018402099609375,0.0084075927734375
1772807147525440300,7.213440185546875,-0.99700927734375,-0.01849365234375,0.0069427490234375
1772807147535372300,7.223372314453125,-0.996368408203125,-0.0189971923828125,0.0081634521484375
1772807147545304300,7.23330419921875,-0.997589111328125,-0.0186920166015625,0.0066070556640625
1772807147555235300,7.2432353515625,-0.9971923828125,-0.0194091796875,0.0092315673828125
1772807147565167000,7.2531669921875,-0.9966583251953125,-0.0194091796875,0.009796142578125
1772807147575099100,7.26309912109375,-0.9950103759765625,-0.019134521484375,0.010101318359375
1772807147585031200,7.27303125,-0.996856689453125,-0.020050048828125,0.0093841552734375
1772807147594962400,7.28296240234375,-0.9948272705078125,-0.0194549560546875,0.0073699951171875
1772807147604894500,7.29289453125,-0.9953765869140625,-0.0194854736328125,0.008636474609375
1772807147614826200,7.302826171875,-0.996124267578125,-0.019622802734375,0.010009765625
1772807147624758300,7.31275830078125,-0.9976348876953125,-0.0171356201171875,0.009979248046875
1772807147634689300,7.322689208984375,-0.9973297119140625,-0.01898193359375,0.0074310302734375
1772807147644621300,7.332621337890625,-0.9968109130859375,-0.0188140869140625,0.007568359375
1772807147654553300,7.34255322265625,-0.996734619140625,-0.0189208984375,0.0076751708984375
1772807147664485000,7.352485107421875,-0.9959564208984375,-0.0178375244140625,0.0083465576171875
1772807147674416400,7.36241650390625,-0.9953460693359375,-0.018035888671875,0.0087127685546875
1772807147684348400,7.372348388671875,-0.9952850341796875,-0.0199737548828125,0.00714111328125
1772807147694280400,7.382280517578125,-0.99639892578125,-0.020416259765625,0.0083770751953125
1772807147704212200,7.392212158203125,-0.9972991943359375,-0.01910400390625,0.0102386474609375
1772807147714143200,7.402143310546875,-0.9960479736328125,-0.0202178955078125,0.0092620849609375
1772807147724075300,7.4120751953125,-0.9962005615234375,-0.0191650390625,0.00921630859375
1772807147734007300,7.42200732421875,-0.9959564208984375,-0.0214385986328125,0.0082244873046875
1772807147743939300,7.431939208984375,-0.9953460693359375,-0.019012451171875,0.00543212890625
1772807147753871000,7.44187109375,-0.99700927734375,-0.0196685791015625,0.0076904296875
1772807147763802400,7.45180224609375,-0.9969329833984375,-0.020355224609375,0.0073394775390625
1772807147773734400,7.461734375,-0.9966278076171875,-0.019683837890625,0.0093841552734375
1772807147783666400,7.47166650390625,-0.9958648681640625,-0.0191650390625,0.0083160400390625
1772807147793598500,7.481598388671875,-0.9962310791015625,-0.018829345703125,0.0081024169921875
1772807147803529200,7.491529296875,-0.9964752197265625,-0.019866943359375,0.009246826171875
1772807147813461200,7.501461181640625,-0.9958648681640625,-0.0186767578125,0.0087432861328125
1772807147823393300,7.511393310546875,-0.99554443359375,-0.0178680419921875,0.008026123046875
1772807147833325300,7.5213251953125,-0.995819091796875,-0.018402099609375,0.00836181640625
1772807147843256000,7.531256103515625,-0.9967803955078125,-0.0183868408203125,0.0071563720703125
1772807147853188000,7.54118798828125,-0.996734619140625,-0.018463134765625,0.0069732666015625
1772807147863120100,7.5511201171875,-0.9957733154296875,-0.0182952880859375,0.008209228515625
1772807147873052000,7.561052001953125,-0.9957427978515625,-0.0185699462890625,0.0074462890625
1772807147882983000,7.57098291015625,-0.9969940185546875,-0.0183868408203125,0.0090789794921875
1772807147892915000,7.5809150390625,-0.9964599609375,-0.020172119140625,0.0093841552734375
1772807147902847000,7.590846923828125,-0.995941162109375,-0.019256591796875,0.009246826171875
1772807147912778800,7.60077880859375,-0.9964752197265625,-0.018768310546875,0.00933837890625
1772807147922710000,7.6107099609375,-0.9959564208984375,-0.0196380615234375,0.0088348388671875
1772807147932642000,7.62064208984375,-0.99676513671875,-0.01934814453125,0.0066986083984375
1772807147942574000,7.630573974609375,-0.9971466064453125,-0.021514892578125,0.0079803466796875
1772807147952506000,7.640506103515625,-0.99578857421875,-0.019866943359375,0.0090484619140625
1772807147962436900,7.650436767578125,-0.99688720703125,-0.0199737548828125,0.006683349609375
1772807147972369000,7.660368896484375,-0.9970550537109375,-0.0189208984375,0.00799560546875
1772807147982301000,7.670301025390625,-0.995849609375,-0.01806640625,0.008392333984375
1772807147992233000,7.68023291015625,-0.9958648681640625,-0.019439697265625,0.0089111328125
1772807148002165000,7.6901650390625,-0.9969940185546875,-0.019683837890625,0.009490966796875
1772807148012096000,7.700095947265625,-0.9961090087890625,-0.0172576904296875,0.0089263916015625
1772807148022028000,7.710028076171875,-0.996337890625,-0.0168914794921875,0.0080413818359375
1772807148031960000,7.7199599609375,-0.9957122802734375,-0.01800537109375,0.0074005126953125
1772807148041892000,7.72989208984375,-0.9964141845703125,-0.0179901123046875,0.00811767578125
1772807148051822800,7.73982275390625,-0.995025634765625,-0.0189361572265625,0.0074310302734375
1772807148061755000,7.7497548828125,-0.995849609375,-0.0196990966796875,0.008453369140625
1772807148071687000,7.75968701171875,-0.9972076416015625,-0.0193634033203125,0.0088043212890625
1772807148081619000,7.769618896484375,-0.9965057373046875,-0.0195770263671875,0.00860595703125
1772807148091550000,7.779550048828125,-0.99676513671875,-0.0207366943359375,0.0084228515625
1772807148101482000,7.78948193359375,-0.9964752197265625,-0.0198974609375,0.00860595703125
1772807148111414000,7.7994140625,-0.9962615966796875,-0.0200653076171875,0.009429931640625
1772807148121346000,7.809345947265625,-0.995513916015625,-0.02069091796875,0.009918212890625
1772807148131276800,7.81927685546875,-0.9963226318359375,-0.021240234375,0.009429931640625
1772807148141208800,7.829208740234375,-0.9968719482421875,-0.0191802978515625,0.0099639892578125
1772807148151140900,7.839140869140625,-0.9968109130859375,-0.019622802734375,0.008148193359375
1772807148161073000,7.849072998046875,-0.9960174560546875,-0.0191497802734375,0.0075225830078125
1772807148171004200,7.859004150390625,-0.9959716796875,-0.018951416015625,0.008819580078125
1772807148180936000,7.86893603515625,-0.9964141845703125,-0.0183563232421875,0.0085296630859375
1772807148190868000,7.878867919921875,-0.99652099609375,-0.0184173583984375,0.007171630859375
1772807148200800000,7.888800048828125,-0.9957275390625,-0.0177764892578125,0.0064239501953125
1772807148210731000,7.89873095703125,-0.9974517822265625,-0.01947021484375,0.00933837890625
1772807148220663000,7.9086630859375,-0.9967803955078125,-0.0194244384765625,0.0093841552734375
1772807148230594800,7.9185947265625,-0.9953155517578125,-0.0184783935546875,0.0093536376953125
1772807148240526800,7.92852685546875,-0.995819091796875,-0.0181884765625,0.00836181640625
1772807148250458000,7.9384580078125,-0.99639892578125,-0.019317626953125,0.0096282958984375
1772807148260390100,7.94839013671875,-0.996978759765625,-0.019989013671875,0.0085296630859375
1772807148270322000,7.958322021484375,-0.996307373046875,-0.0204925537109375,0.0080413818359375
1772807148280254000,7.96825390625,-0.9947662353515625,-0.018463134765625,0.0076141357421875
1772807148290185000,7.97818505859375,-0.996673583984375,-0.018646240234375,0.0063323974609375
1772807148300117000,7.988116943359375,-0.99591064453125,-0.0205535888671875,0.0091400146484375
1772807148310049000,7.998049072265625,-0.99615478515625,-0.02069091796875,0.0088958740234375
1772807148319980800,8.007980712890625,-0.9950408935546875,-0.01959228515625,0.00775146484375
1772807148329912000,8.017912109375,-0.997283935546875,-0.01971435546875,0.0076904296875
1772807148339844000,8.027843994140625,-0.996978759765625,-0.0189971923828125,0.0072021484375
1772807148349776100,8.037776123046875,-0.997650146484375,-0.0175018310546875,0.0079498291015625
1772807148359708200,8.047708251953125,-0.9980621337890625,-0.019500732421875,0.00885009765625
1772807148369639000,8.057638916015625,-0.995361328125,-0.0189056396484375,0.0083160400390625
1772807148379571000,8.067571044921875,-0.99566650390625,-0.01861572265625,0.00811767578125
1772807148389503000,8.0775029296875,-0.9968414306640625,-0.0176544189453125,0.007781982421875
1772807148399435000,8.08743505859375,-0.9967803955078125,-0.0191192626953125,0.006500244140625
1772807148409366000,8.097365966796875,-0.9957275390625,-0.0191497802734375,0.0078125
1772807148419298000,8.107298095703126,-0.9960784912109375,-0.0174713134765625,0.0086822509765625
1772807148429230000,8.11722998046875,-0.9954071044921875,-0.018798828125,0.0091705322265625
1772807148439162000,8.127162109375,-0.9963226318359375,-0.0196990966796875,0.009552001953125
1772807148449094100,8.13709423828125,-0.997528076171875,-0.0211181640625,0.007965087890625
1772807148459025000,8.14702490234375,-0.9961700439453125,-0.0194091796875,0.008514404296875
1772807148468957000,8.15695703125,-0.99700927734375,-0.020721435546875,0.00677490234375
1772807148478889000,8.166888916015624,-1.003265380859375,-0.021148681640625,0.00286865234375
1772807148488821000,8.176821044921875,-0.987335205078125,-0.0203704833984375,0.0146484375
1772807148498752000,8.186751953125,-0.9987335205078125,-0.0212860107421875,0.008148193359375
1772807148508684000,8.19668408203125,-0.9933624267578125,-0.020660400390625,0.0108642578125
1772807148518616000,8.206615966796875,-0.9944305419921875,-0.01953125,0.0113525390625
1772807148528548000,8.216548095703125,-0.9970855712890625,-0.019500732421875,0.010711669921875
1772807148538478800,8.226478759765625,-0.9951019287109375,-0.0194854736328125,0.0107574462890625
1772807148548411000,8.236410888671875,-0.9993133544921875,-0.0190277099609375,0.007720947265625
1772807148558343000,8.246343017578125,-0.996337890625,-0.017486572265625,0.00811767578125
1772807148568274000,8.25627392578125,-0.995330810546875,-0.0184783935546875,0.008941650390625
1772807148578206000,8.2662060546875,-0.9973602294921875,-0.01739501953125,0.0067138671875
1772807148588138000,8.276137939453125,-0.9949493408203125,-0.018798828125,0.007568359375
