time,seconds_elapsed,z,y,x
1772807140384513000,0.072512939453125,0.03156710465252399,-0.007710629176255315,-0.00637177722135093
1772807140394445000,0.082445068359375,0.04009644806683063,-0.007052603658940643,-0.004405774378008209
1772807140404377000,0.092377197265625,0.04234218116700649,-0.01386241153795272,-0.007761290784412994
1772807140414309000,0.10230908203125,0.03426175056397915,-0.004723338727466762,0.002456097048381343
1772807140424240000,0.112240234375,0.046532034072279925,-0.017310323502123356,0.006299511136161163
1772807140434172200,0.122172119140625,0.02947451628744602,-0.0012213767548091708,0.016894157616398297
1772807140444104200,0.132104248046875,0.027083237236738205,-0.0009450074988417327,0.02046258612112142
1772807140454036000,0.142035888671875,0.04174596883952617,0.015757285373844205,0.0029410629871534184
1772807140463967000,0.151967041015625,0.032166824111342425,0.007620046549662947,0.028633389288187025
1772807140473899000,0.16189892578125,0.02558276954591274,-0.01313944929195568,0.015422116869036107
1772807140483831000,0.1718310546875,0.0336626156270504,-0.01980931897731498,0.015061078704032114
1772807140493763300,0.181763427734375,0.04757832825481891,0.0019429690276272593,0.012400759753864258
1772807140503694000,0.191694091796875,0.03291384308636188,-0.0024376754757016897,0.022767671025986782
1772807140513626000,0.201626220703125,0.024832827961444853,-0.01920316977770999,0.009506152557209133
1772807140523558100,0.21155810546875,0.028423545929789542,0.002227740785758942,0.017282015289668926
1772807140533490200,0.221490234375,0.03156768917441368,0.0060785161960870025,0.01832201216216199
1772807140543421000,0.2314208984375,0.04039338518679142,0.0024869214449077842,0.0037745683689601717
1772807140553353000,0.24135302734375,0.042186698344349856,0.002706464213412255,0.010822957077086902
1772807140563285000,0.251284912109375,0.031712650603055954,0.0021039865419268606,0.019382389668980614
1772807140573217300,0.26121728515625,0.020339023673534393,-0.004537643429636955,0.01967839977375697
1772807140583148000,0.27114794921875,0.03575286590456962,-0.0008577858731150627,0.012191953008505516
1772807140593080000,0.281080078125,0.017947744622826577,-0.013055716531258076,0.02118164851013571
1772807140603012000,0.29101220703125,0.03515490001142025,-0.006927315045148134,0.027927506041154265
1772807140612944100,0.300944091796875,0.033062311646342275,-0.021680227415729312,-0.010037578853056766
1772807140622875000,0.310875,0.030219781696796417,-0.02287108116811141,0.010864028872991911
1772807140632807000,0.320806884765625,0.031416298004984855,-0.021956231345515696,0.013963141099223867
1772807140642739000,0.330739013671875,0.030067221483588216,-0.020997779843211172,0.025648688088706694
1772807140652671000,0.3406708984375,0.042185529300570485,-0.004242332011181861,0.020762413884489794
1772807140662602200,0.350602294921875,0.03485153315067291,0.005992719342466444,0.03035107535969
1772807140672534000,0.360533935546875,0.03455225794315338,-0.0002814838225021958,0.008424896659143269
1772807140682466000,0.370466064453125,0.023478490743041036,0.013981270410958677,-0.008716445217933506
1772807140692398000,0.380398193359375,0.029765023666620254,-0.002972786999400705,0.012491716839792206
1772807140702329000,0.3903291015625,0.037545594540238376,-0.005937883882690221,0.006178729734127409
1772807140712261000,0.40026123046875,0.0391916081815958,0.007093246196582913,0.009514623558032325
1772807140722193000,0.41019287109375,0.030214520999789236,0.024824535057134924,0.02113929807259701
1772807140732125000,0.420125,0.024379238975048064,0.011414981853216885,0.028212200167472473
1772807140742056200,0.43005615234375,0.0296148015409708,-0.00808229376655072,0.028670625159190968
1772807140751988200,0.43998828125,0.027520459610223768,-0.004830032238643616,0.0035105699707986787
1772807140761920000,0.449919921875,0.024527707535028455,-0.008722710561938584,0.024767133180936797
1772807140771852000,0.45985205078125,0.03156359752118587,-0.013922525961045176,0.013159067307878285
1772807140781783000,0.469782958984375,0.026774025157094,-0.022688217148184774,0.012471331638889386
1772807140791715000,0.479715087890625,0.02782441099286079,-0.0002699943141080439,0.021676341258478348
1772807140801647000,0.489647216796875,0.04039280066490173,-0.006355141180381179,0.014164586522034369
1772807140811579000,0.499578857421875,0.03455518055260181,-0.007390658240579068,0.0031436226548161358
1772807140821510100,0.50951025390625,0.03874152632653713,-0.009323708662390708,0.024208088225801474
1772807140831443000,0.51944287109375,0.0381458985209465,0.0010483400091528892,0.006206960314768366
1772807140841375000,0.529375,0.02332885313928127,0.013895254361629486,0.008256773550622164
1772807140851307000,0.53930712890625,0.04367898272871971,0.01120937627851963,0.02481574439590331
1772807140861237800,0.54923779296875,0.03918985461592674,0.0022412578544579445,0.037551138365035874
1772807140871169800,0.559169677734375,0.024375731843709943,0.0008795045145787298,0.02324748129902873
1772807140881101800,0.569101806640625,0.03529986144006252,0.0038201976089738306,0.030844548831903375
1772807140891033900,0.579033935546875,0.03544949904382229,0.0032638606341555713,0.022154238135647028
1772807140900964900,0.58896484375,0.032305940321087835,-0.0058215457603335375,0.02268870120537467
1772807140910897000,0.59889697265625,0.03529986144006252,0.004588971758075058,0.0053061344509478655
1772807140920829000,0.608828857421875,0.029167057773470877,-0.0051519394030794495,0.005688028174312785
1772807140930761000,0.618760986328125,0.02946808654665947,-0.003143357793334871,0.014606352639896795
1772807140940691700,0.628691650390625,0.037547932627797126,-0.0027186661078594625,0.01928090662246104
1772807140950623700,0.638623779296875,0.04143851032555103,-0.008976758388243616,0.01999810128137469
1772807140960555800,0.6485556640625,0.03515490001142025,-0.01368398623112589,0.03038168056050781
1772807140970487800,0.65848779296875,0.039945056897401805,-0.009889288389589636,0.0021590868631843475
1772807140980418600,0.66841845703125,0.03485562480390072,-0.012816720143612473,0.001754748412570916
1772807140990350800,0.678350830078125,0.05280921464562416,-0.01580740812588483,0.028531020325678398
1772807141000283000,0.688282958984375,0.03245850053429603,0.01009750604648143,0.0036049200236331668
1772807141010215000,0.69821484375,0.02497545130252838,-0.006569295387715101,0.007228700011363253
1772807141020146000,0.70814599609375,0.024374562799930572,-0.00231744662951678,0.022361094952514395
1772807141030077700,0.71807763671875,0.032304771277308464,0.003366188497468829,0.0056643002388533205
1772807141040009700,0.728009765625,0.041133389899134634,-0.00830972758056596,0.004610895895515568
1772807141049941800,0.737941650390625,0.04412672649621963,0.0077225388097576795,-0.0029129328712122512
1772807141059872800,0.747872802734375,0.041433249628543854,0.015340411668643354,0.0028597596455598247
1772807141069804800,0.7578046875,0.04382569772303104,0.021657705056667326,0.019927698359708302
1772807141079736800,0.76773681640625,0.04592062417566776,0.012561685936618596,0.0243340937922243
1772807141089668900,0.7776689453125,0.04157996462285518,0.01352391856489703,0.021270573469181545
1772807141099600000,0.787599853515625,0.03903612535893917,-0.0012933094798587262,-0.0033516667817719277
1772807141109532000,0.797531982421875,0.03814122234582901,-0.0009789280347526073,0.009159654374211094
1772807141119463700,0.807463623046875,0.03963993647098541,-0.010210775428917258,0.0150354967382038
1772807141129395700,0.817395751953125,0.04488017521202564,-0.005238521707989275,0.01275522661418654
1772807141139326700,0.82732666015625,0.036948797690868375,-0.026182342874258756,0.012400924150645733
1772807141149258800,0.8372587890625,0.03291208952069282,-0.02752396674156189,0.02325370554383844
1772807141159190800,0.847190673828125,0.05550795221030712,-0.021017050799261777,0.010401329564955085
1772807141169122800,0.857122802734375,0.03350947089195251,-0.026121369934640825,0.011827649740758351
1772807141179053800,0.8670537109375,0.03425648986697197,-0.013398410755395888,0.01046857698173262
1772807141188985900,0.87698583984375,0.02767301982343197,0.005590349086653441,-0.008807466235943138
1772807141198918000,0.88691796875,0.023333529314398763,0.016674107957817614,-0.004768885769089684
1772807141208850000,0.896849853515625,0.038298458734154696,0.01949981463672593,-0.0010793059695744886
1772807141218780700,0.90678076171875,0.0317149886906147,-0.0011618103209882975,0.026502318376512266
1772807141228712700,0.916712646484375,0.02722586057782173,0.025173567690514025,0.03176607042388059
1772807141238644700,0.926644775390625,0.03709960433840751,0.009830799668002873,0.01715523797168862
1772807141248576800,0.93657666015625,0.02767243530154228,0.00807190023669973,0.02540133486466948
1772807141258507800,0.9465078125,0.018243512699007987,-0.006552271187677979,0.021421672377665527
1772807141268439800,0.956439697265625,0.030514380729198452,0.014501093033980577,-0.013934476693742908
1772807141278371800,0.966371826171875,0.029017420169711112,-0.009132442140299827,0.01727779577227775
1772807141288303900,0.976303955078125,0.024529461100697515,-0.016209869713243095,-0.013082431008247658
1772807141298234600,0.986234619140625,0.02452712301313877,-0.033640787387732414,0.008696571473684162
1772807141308166700,0.996166748046875,0.009413725033402442,-0.020767496484983713,0.015064731965842655
1772807141318098700,1.0060986328125,0.03350187210738659,-0.007582874610740691,0.004394029141287319
1772807141328030700,1.01603076171875,0.023922142857313155,-0.009429543657042086,-0.005424166773469187
1772807141337962000,1.0259619140625,0.014793664506077766,-0.0214310384276323,0.02383436410916038
1772807141347893800,1.035893798828125,0.03230126414597034,-0.00883650966733694,0.034837267163302744
1772807141357825800,1.04582568359375,0.03634031040370464,-0.008685958748124539,0.03123710551317781
1772807141367757800,1.0557578125,0.03888122705817222,0.009284472630545496,0.01851310515431687
1772807141377688800,1.065688720703125,0.024664485657215116,0.01190188858732581,0.01273199643564876
1772807141387620600,1.07562060546875,0.0352875864803791,0.007741700167953967,0.012921710321470162
1772807141397552600,1.085552734375,0.03439209894537926,0.005963036590255796,0.006048162157018668
1772807141407484700,1.095484619140625,0.036489948007464405,0.0010369783649221062,-0.0009575016542337834
1772807141417416000,1.105416015625,0.03603986615240574,0.0009217910200357436,-0.0020488588212057945
1772807141427348000,1.115347900390625,0.02616319978237152,0.008089782953262329,0.013697252138075417
1772807141437279700,1.12527978515625,0.03529050908982754,-0.006396477837767452,0.015178088113246484
1772807141447211800,1.135211669921875,0.025263620594143867,-0.01637285998892039,0.024235062997695057
1772807141457142800,1.145142822265625,0.02885141595304012,-0.01189465512894094,-0.004296660580881871
1772807141467074800,1.15507470703125,0.0436620315939188,-0.012144465171545743,0.015192413466121069
1772807141477006800,1.1650068359375,0.02765022346973419,-0.011196242802310734,0.008336926114745437
1772807141486938600,1.174938720703125,0.03513151913583278,-0.004286664343252778,-0.005389479052578099
1772807141496870000,1.184869873046875,0.04051788834929466,-0.02026690828539431,0.007469166836887598
1772807141506802000,1.194802001953125,0.03049275341928005,-0.008053506063483654,0.019210234272736125
1772807141516734000,1.20473388671875,0.02211070952117443,-0.012592464667372405,0.013294840783067047
1772807141526665700,1.214665771484375,0.019265256962180136,-0.0076927464596927165,0.012700080627156421
1772807141536596700,1.2245966796875,0.05053893162608147,0.0013752156096510587,0.03013821806029882
1772807141546528800,1.23452880859375,0.03377718191742897,-0.0037780572339892386,0.00818436590153724
1772807141556460800,1.244460693359375,0.043055297872424125,0.010558620752207934,0.0022161782121285795
1772807141566392800,1.254392822265625,0.031980946150422095,0.013891254039946942,0.011764274781499988
1772807141576323800,1.26432373046875,0.030934651967883108,0.005397073270566761,0.011480411772243678
1772807141586256000,1.274255859375,0.02869067243337631,0.005514215110521763,0.02356781756088603
1772807141596188000,1.28418798828125,0.03482289157807827,0.0006986680549569428,0.0009256634775549172
1772807141606118700,1.29411865234375,0.027640286597609517,-0.020363190000411122,0.010717368677607737
1772807141616050700,1.30405078125,0.03631809857189655,-0.004806267770566046,0.014872442530444823
1772807141625982700,1.313982666015625,0.027339842346310615,0.0015832506034523248,0.014933255639858542
1772807141635914800,1.323914794921875,0.023598317730426786,0.007735982813220471,-0.0009338239511242135
1772807141645846800,1.3338466796875,0.024642858347296712,-0.004992730253376067,0.01408894116966985
1772807141655777800,1.34377783203125,0.020006430718302725,-0.016789295302703976,0.016028914522612465
1772807141665709800,1.353709716796875,0.03122866647839546,-0.0028601934703998268,0.023442391949775626
1772807141675641900,1.363641845703125,0.036466567131876945,0.012355532372649759,0.025206748440908266
1772807141685572900,1.37357275390625,0.03182897045910358,0.009007043928653001,0.011448267634888178
1772807141695505000,1.3835048828125,0.0283861365288496,0.012471432103589176,0.016443925064289943
1772807141705436700,1.393436767578125,0.03960954133272171,-0.0011726422422565518,-0.0015073358230292795
1772807141715368700,1.40336865234375,0.030330840855836868,-0.0020018230753950776,0.018402881678915583
1772807141725299700,1.4132998046875,0.03601765432059765,0.001986369777936488,0.0066908942070789635
1772807141735232000,1.42323193359375,0.021204700592160224,-0.02110929565997794,0.012090154868154786
1772807141745163800,1.433163818359375,0.018961305579543113,-0.0074118836916983125,0.018647581721562893
1772807141755095800,1.443095703125,0.03512333582937717,-0.022306999278254806,0.01938520268057473
1772807141765026800,1.45302685546875,0.03632102118134498,-0.0112527222299017,0.009655895192245953
1772807141774958800,1.462958740234375,0.047992169752717015,-0.005087751593068242,0.003680492310761474
1772807141784891000,1.472890869140625,0.031080197918415067,-0.00566392577951774,0.0004596853670431301
1772807141794822700,1.48282275390625,0.024346505749225616,-0.009431626016274093,0.0030394498942885547
1772807141804753700,1.492753662109375,0.03242342922091484,-0.004823054508585483,0.0075173396604368455
1772807141814685700,1.502685791015625,0.029727029743790625,-0.010788904110435395,0.01368125541792251
1772807141824618000,1.512617919921875,0.0313707052975893,0.0061169485103338955,0.016001323262788355
1772807141834549500,1.522549560546875,0.040946342894434926,-0.005022413005586713,0.002794101397669874
1772807141844480500,1.53248046875,0.024935119292140005,-0.017412158175092188,-0.004210324871144257
1772807141854412300,1.542412353515625,0.03496200778782368,-0.006344857248384505,0.009291888752020895
1772807141864344300,1.55234423828125,0.027031799310445782,0.006941763695608824,0.011397469029412605
1772807141874276400,1.5622763671875,0.038107320076227184,-0.001569952730461955,0.015984084433619865
1772807141884207400,1.572207275390625,0.046186581635475156,-0.005269830161705613,0.004244355004909448
1772807141894139600,1.5821396484375,0.03780570678114891,-0.013914013861026614,0.0064358691332396115
1772807141904071400,1.592071533203125,0.038703532403707504,0.00481507213152945,0.00004437343126628548
1772807141914003500,1.60200341796875,0.02269289332330227,-0.006019041093811393,0.007593167675891891
1772807141923934500,1.6119345703125,0.03630933074355125,-0.013051369149703531,0.011159445322724058
1772807141933866500,1.621866455078125,0.031067338436841962,-0.010294581254851073,0.0011420598743250594
1772807141943798300,1.63179833984375,0.02687690100967884,-0.01205486892564222,0.019995566830993627
1772807141953730300,1.641730224609375,0.021488778230547904,-0.011847820312529801,0.0002454489613184705
1772807141963661300,1.651661376953125,0.028368600872159002,-0.019199078124482183,0.011804191233357414
1772807141973593600,1.661593505859375,0.04662263496518135,-0.021337478392664342,0.004207717355526983
1772807141983525600,1.671525634765625,0.03315583514869213,-0.003994494729954749,0.005410558373224921
1772807141993457400,1.68145751953125,0.03105915513038635,-0.006766772454883903,0.011916876093903555
1772807142003388400,1.691388427734375,0.033902854123711586,-0.007508494200278073,0.00007824373482726513
1772807142013320400,1.701320556640625,0.02387830371558666,-0.0015259309256449342,-0.0036773139729863033
1772807142023252500,1.71125244140625,0.0455745872169733,-0.013506364641897379,-0.004258917819801718
1772807142033184500,1.7211845703125,0.02686637961566448,0.0036869996833615005,0.03238643994508311
1772807142043115300,1.731115234375,0.037488895916938776,0.001048102547135204,0.015705989011446944
1772807142053047300,1.74104736328125,0.03000526216328144,0.012342526760604232,0.026400401505152694
1772807142062979600,1.7509794921875,0.03209726600646973,0.004125811225734651,0.01641979983660858
1772807142072911600,1.76091162109375,0.03912789529561996,0.0060706982158124445,0.01229534031774383
1772807142082842400,1.77084228515625,0.039727614754438395,0.009148571291193366,0.018860744981630703
1772807142092774400,1.7807744140625,0.036438510081171986,-0.016891988492198286,0.021227236650954
1772807142102706400,1.79070654296875,0.030601474490761754,0.0016992781985551118,0.009193784972676075
1772807142112638500,1.800638427734375,0.039430677634477614,-0.0008994878566823899,-0.010463124488480389
1772807142122569200,1.8105693359375,0.03404547746479511,-0.0065041211970150465,0.018964639180945233
1772807142132501200,1.820501220703125,0.03539338494241238,-0.005989741934090852,0.015874020788422784
1772807142142433300,1.830433349609375,0.033898177948594094,0.011300031970348208,-0.0034771243589231744
1772807142152365600,1.840365478515625,0.03045534401834011,0.0016002200045622883,0.016512606386328114
1772807142162296600,1.850296630859375,0.029556349352002142,-0.012966814405098557,0.024666750679537653
1772807142172228400,1.860228271484375,0.033144729232788085,0.004199826310016214,0.008870201874384656
1772807142182160400,1.870160400390625,0.045565819388628005,0.0049154272334650155,0.000893898366112262
1772807142192092400,1.880092529296875,0.0298544555157423,-0.00871823531622067,0.013008858881960622
1772807142202023400,1.8900234375,0.020875614768266677,-0.004518847397621721,0.0017630778494989497
1772807142211955200,1.899955078125,0.03419102341532707,0.0012504019198939203,-0.006011538207367994
1772807142221887200,1.90988720703125,0.026859365352988242,-0.011058989756088704,-0.005873120683943853
1772807142231819300,1.9198193359375,0.030599720925092694,-0.008482216336950659,0.00041837154254317283
1772807142241750500,1.92975048828125,0.022668927925825116,-0.01083855193844065,0.0036332419358193874
1772807142251682600,1.9396826171875,0.04242050710022449,0.010920658997632563,0.01454557606310118
1772807142261614300,1.9496142578125,0.040327334213256835,-0.0023086970674805344,0.0002527006860123947
1772807142271546400,1.95954638671875,0.02356909163594246,-0.009280362711008638,0.019339066550484858
1772807142281477400,1.969477294921875,0.031948212924599644,-0.000896565247233957,0.012540022094082087
1772807142291409400,1.979409423828125,0.02282441074848175,-0.003937284650001675,0.017022062878962605
1772807142301341400,1.989341552734375,0.03075461922585964,-0.0034621231526136397,0.023496597221889532
1772807142311273200,1.999273193359375,0.029258243188261986,0.005892327707912773,0.018715139665594325
1772807142321204500,2.00920458984375,0.037489480438828465,0.002986687660589814,0.010486121771577745
1772807142331136500,2.019136474609375,0.026266660156846044,-0.00839837397839874,0.0025130879326257854
1772807142341068500,2.029068603515625,0.03239946382343769,-0.02086721226610243,0.0029644164632773025
1772807142351000300,2.039000244140625,0.032995676150918,-0.01433760956795886,0.024866369471442884
1772807142360931300,2.048931396484375,0.037782325905561444,0.009053787413518876,0.006814237458957359
1772807142370863400,2.05886328125,0.0316495222389698,0.015802859814930705,0.004944685293990187
1772807142380795400,2.06879541015625,0.033892332729697223,0.0037425840618088837,0.014565911031654104
1772807142390727400,2.0787275390625,0.036138065829873084,-0.007243760583177208,0.032261804351839236
1772807142400658400,2.088658447265625,0.030902503263950346,0.0021094664346426725,0.004747788182133808
1772807142410590500,2.098590576171875,0.01638648665547371,0.0035254707124084232,-0.0024080931881908327
1772807142420522500,2.1085224609375,0.03553776184916496,-0.008440313423983752,0.01085342984716408
1772807142430454500,2.11845458984375,0.01907762543559074,-0.012338416841067373,0.01248677580319345
1772807142440385300,2.12838525390625,0.03224865717589855,-0.008489595925807952,-0.008003451810101979
1772807142450317300,2.1383173828125,0.05559504597187042,-0.02266388642452657,0.01505480422687251
1772807142460249300,2.148249267578125,0.03659399290382862,-0.0018275442207232116,0.019481100803101434
1772807142470181400,2.158181396484375,0.033300212055444714,0.0014949695318005978,0.01362046970797237
1772807142480112400,2.1681123046875,0.04377192170917987,-0.008838025770988314,0.019120912021468393
1772807142490044400,2.17804443359375,0.03928279359638691,0.004134816516097635,0.025869125906354744
1772807142499976400,2.1879765625,0.026114684465527532,0.008238032317534089,0.010432779582566581
1772807142509908500,2.197908447265625,0.02267185053527355,0.01528595980135724,0.02722450887095183
1772807142519839500,2.207839599609375,0.03194879744648933,0.007143241084460169,0.010600418633897789
1772807142529771300,2.217771240234375,0.03179857532083988,0.009554558276198805,-0.0009269786518067121
1772807142539703300,2.227703369140625,0.036436756515502926,0.002473897566553205,0.012358847707742824
1772807142549635300,2.23763525390625,0.030597967359423637,-0.012982724360283464,0.004610923294979147
1772807142559566600,2.247566650390625,0.036281858214735986,0.0010651267471723258,0.022042936948011627
1772807142569498600,2.25749853515625,0.025506781700253486,-0.000926795988716185,0.007927728825923986
1772807142579430400,2.267430419921875,0.028048282876610754,-0.014250004349742084,0.02126798421987332
1772807142589362400,2.277362548828125,0.027598201021552086,-0.023613570098485796,0.01214328242803458
1772807142599293400,2.28729345703125,0.03373568086326122,-0.016825462594628332,0.014661083068395964
1772807142609225500,2.2972255859375,0.0440630136102438,-0.02244690093928948,0.011556372218439356
1772807142619157200,2.3071572265625,0.03224164291322231,-0.011706000689044593,-0.005676082008192316
1772807142629088500,2.317088623046875,0.033735096341371534,-0.0003087188892997801,-0.002339603662397712
1772807142639020500,2.3270205078125,0.022809213179349898,-0.00014691592371091246,0.015549131649034096
1772807142648952600,2.33695263671875,0.03223696673810482,0.0053586774889379735,0.011336646786844358
1772807142658884600,2.346884521484375,0.03717383861839771,0.013063881571404635,0.01733330708548892
1772807142668815400,2.3568154296875,0.032384266254305835,0.016813096303399652,0.009484607445681466
1772807142678747400,2.366747314453125,0.043005613511800767,0.008427106882538647,0.00597477269382216
1772807142688679400,2.376679443359375,0.015622516545653341,-0.0030209369900636375,0.02248715988444164
1772807142698611500,2.386611572265625,0.013376783445477484,0.007542652198206633,0.0038433044899255035
1772807142708542500,2.39654248046875,0.03731763100326061,0.013574297045264392,-0.0004997616491047665
1772807142718474500,2.406474609375,0.03926350437402725,-0.001525437735300511,0.00602977711695712
1772807142728406500,2.416406494140625,0.028788872110843657,0.008822225413657724,0.01463915436437819
1772807142738338600,2.426338623046875,0.036571196550130844,-0.0009644976506009697,-0.000061018605390563605
1772807142748269300,2.436269287109375,0.03642272799015045,-0.01706226702518761,0.022462048276071435
1772807142758201300,2.446201416015625,0.033875966116786,-0.0024639424281194806,0.010179024017206393
1772807142768133400,2.45613330078125,0.02280219891667366,-0.0019936397689394652,0.006547371250274591
1772807142778065400,2.4660654296875,0.021755320212244987,-0.018285543476138262,0.009368187124934048
1772807142787996400,2.475996337890625,0.03761749073266983,-0.016711864418629555,-0.008857488523283974
1772807142797928400,2.485928466796875,0.037165070790052414,-0.024246059315744785,0.0012872267989441752
1772807142807860500,2.495860595703125,0.03237666746973991,-0.003777472712099552,0.0030943629858782512
1772807142817792500,2.50579248046875,0.03895896846950054,-0.0025269429280422627,0.011842582448408938
1772807142827723500,2.5157236328125,0.02848375168442726,0.003039952217787504,0.02228342660642229
1772807142837655600,2.525655517578125,0.046590486261248586,0.015441168629378079,0.01026024516040925
1772807142847587300,2.53558740234375,0.02893383353948593,-0.0031437048532068725,0.00861209436089266
1772807142857519400,2.545519287109375,0.03147708828151226,0.010052936252392827,0.01919934755254071
1772807142867450400,2.555450439453125,0.036565351331233974,0.012937003788724541,0.017406628050026483
1772807142877382400,2.56538232421875,0.03566401857733726,0.0009549626372754573,0.009716379508096723
1772807142887314400,2.575314453125,0.03192190943956375,0.00702065588440746,0.008208733157813548
1772807142897246500,2.58524658203125,0.041349078476428984,0.005248896971531212,0.011316517314268276
1772807142907177500,2.595177490234375,0.042397710746526714,0.011313110647629946,0.010680849759234114
1772807142917109500,2.605109619140625,0.03341886999905109,-0.004220905630663037,0.0021483188739977776
1772807142927041500,2.61504150390625,0.029079964011907575,0.003101217418350279,0.007121650307159871
1772807142936973600,2.6249736328125,0.032221769168972965,0.009723868694808334,0.017043370528472587
1772807142946904300,2.634904296875,0.046586979129910465,0.0014465090138837695,0.012901758945407345
1772807142956836400,2.64483642578125,0.030577509093284605,-0.010373546508885919,0.004484913161979057
1772807142966768400,2.654768310546875,0.018310148194432257,-0.006324362449627369,0.017840051031229084
1772807142976700700,2.66470068359375,0.025793781948089598,-0.0010203742899931967,0.012640158000309019
1772807142986631400,2.67463134765625,0.042702246651053426,-0.004573938585724681,0.017578071060217915
1772807142996563500,2.6845634765625,0.026392916885018346,-0.0032004034765064715,0.005022161843837239
1772807143006495500,2.69449560546875,0.03866320039331913,-0.008319956713635474,0.019578231901489197
1772807143016427500,2.704427490234375,0.04270166212916374,-0.008926964429765939,-0.0008300987151684239
1772807143026358300,2.714358154296875,0.017559622088074683,0.005872472229972481,0.010990139470691792
1772807143036290300,2.724290283203125,0.03536532789170742,0.0014545096572488546,0.01381942634617444
1772807143046222300,2.734222412109375,0.02518587918281555,0.0038604200215078886,0.018941331370593978
1772807143056154400,2.744154296875,0.028774843585491178,-0.005303695898689329,0.013533024319959803
1772807143066085600,2.754085693359375,0.04343932875394821,0.009944817969109862,0.023072873650793916
1772807143076017400,2.764017333984375,0.037003158226609226,0.0173450660219416,0.023139331049704923
1772807143085949400,2.773949462890625,0.036250878554582595,0.020933080576546487,0.0315189866279019
1772807143095881500,2.783881591796875,0.0492693500816822,0.017542214295547455,0.02613482307125814
1772807143105812500,2.7938125,0.01679857458770275,-0.001607015071529895,0.01455092352507636
1772807143115744300,2.803744140625,0.026671733826398848,0.005397347265202552,0.025381273890752343
1772807143125676300,2.81367626953125,0.019338906720280647,-0.009052563570812343,0.0076256543065421276
1772807143135608300,2.8236083984375,0.036543724021315574,-0.0011547229930758476,-0.0013314951989334075
1772807143145539600,2.83353955078125,0.03220423351228237,-0.017326891044434158,0.010158547484758309
1772807143155471600,2.8434716796875,0.01993745713531971,0.0029635442470200358,-0.010558588786167092
1772807143165403400,2.8534033203125,0.04193535393178463,-0.018051588589791206,0.0055595246901269995
1772807143175335400,2.86333544921875,0.035948096215724944,-0.013917959383781998,0.011843043672712519
1772807143185266400,2.873266357421875,0.025320903739333152,-0.007970960612874478,0.028791575524583456
1772807143195198500,2.883198486328125,0.02831073320508003,-0.012962686219252645,0.014624372353777289
1772807143205130500,2.893130615234375,0.033548633858561515,-0.001010419151559472,0.009124363865121268
1772807143215062300,2.903062255859375,0.02442249359488487,-0.005987001987732946,0.008640580669860355
1772807143224993500,2.91299365234375,0.045969139492511746,-0.005168780940026044,0.0019216431118082254
1772807143234925600,2.922925537109375,0.037440380600094796,0.0020618279006332156,-0.0034236314728623256
1772807143244857600,2.932857666015625,0.032201895424723626,0.006271627615392208,0.020314893879275767
1772807143254789400,2.942789306640625,0.028462124374508856,0.00897301379488781,0.015351622615824453
1772807143264720400,2.952720458984375,0.028611761978268622,0.007292787356674671,0.005296814066753723
1772807143274652400,2.96265234375,0.036243279770016665,0.012759729259368031,0.0002615096135530621
1772807143284584400,2.97258447265625,0.032651392757892604,0.014877050206903367,0.023007658360898492
1772807143294516500,2.9825166015625,0.026366028878092765,0.008060337663069368,0.008851625038078055
1772807143304447500,2.992447509765625,0.03294832987785339,0.002825524015817791,-0.01297944099123124
1772807143314379500,3.002379638671875,0.03369651789665222,-0.0014714059931226074,0.002999423844576813
1772807143324311600,3.0123115234375,0.036839492097496984,-0.007821286476496606,-0.002159689651383087
1772807143334242600,3.02224267578125,0.03938508492708206,0.007490374021697789,0.025350312496908008
1772807143344174300,3.03217431640625,0.026815526211261747,-0.002325776066444814,0.022929569889698177
1772807143354106400,3.0421064453125,0.02456862406730652,-0.00017606895295903087,0.00016587635250762104
1772807143364038400,3.052038330078125,0.027560207098722457,-0.007309829823020845,-0.0010720770777668802
1772807143373969700,3.0619697265625,0.03803308579623699,-0.003039532092679292,0.00600746482044924
1772807143383901400,3.0719013671875,0.03429389926791191,0.0033985381308011707,0.012791078812279737
1772807143393833500,3.08183349609375,0.042971711242198944,0.007353321904875337,0.012812815720052457
1772807143403765500,3.091765625,0.026359014615416527,0.012301482364162801,0.009509700787742622
1772807143413696500,3.101696533203125,0.03189735952019691,0.008650649972725659,0.004351783735025674
1772807143423628500,3.111628662109375,0.03728255968987942,0.000029317426029592752,0.010870170919410884
1772807143433560300,3.121560302734375,0.0431172571927309,0.007740184064302593,-0.006886941935564391
1772807143443492400,3.131492431640625,0.04969897367060184,0.0028903694129548967,0.00638935854381416
1772807143453423600,3.141423583984375,0.03174421478509903,-0.003924772228300571,-0.00875713798792567
1772807143463355600,3.151355712890625,0.025906010150909424,-0.006525858104787767,0.0020964699557516724
1772807143473287700,3.16128759765625,0.04236556204259395,-0.001560582113917917,0.0227584419733379
1772807143483219500,3.171219482421875,0.043265725752711294,-0.0019890731916762886,0.019305680304113775
1772807143493150500,3.181150390625,0.015133856245875358,-0.015746343854721633,0.029828311860910613
1772807143503082500,3.19108251953125,0.030697336080670354,-0.006050587009545415,0.02789805618438404
1772807143513014500,3.2010146484375,0.026509821262955664,-0.0019172500644810497,0.03153938552853651
1772807143522946300,3.2109462890625,0.04057634053826332,-0.007948346922267228,0.0020366066944086923
1772807143532877600,3.220877685546875,0.0432698174059391,0.003027458062395453,0.005151770439720712
1772807143542809600,3.2308095703125,0.027557284489274022,0.005600377290323377,0.015017522690095937
1772807143552741600,3.24074169921875,0.03802957866489887,-0.0022143881138414145,-0.004136688812775537
1772807143562673700,3.250673583984375,0.028751462709903714,0.006251790403760969,-0.004014395873667672
1772807143572604400,3.2606044921875,0.0327910934895277,0.009878054609522223,0.003210504745412618
1772807143582536400,3.270536376953125,0.03742927468419075,-0.002979983925167471,0.013653664158098398
1772807143592468500,3.280468505859375,0.035037411111593246,-0.015387283017672598,0.007184189582779072
1772807143602400500,3.290400390625,0.027707506614923477,-0.009077825876232236,-0.008857045565289445
1772807143612331300,3.300331298828125,0.03968085300326347,-0.0012503471209667622,0.007902146860095672
1772807143622263600,3.310263671875,0.022620997130870818,-0.00898408317817375,-0.007359856676938943
1772807143632195600,3.320195556640625,0.0347387204259634,-0.0014773060109466313,0.010486811324744485
1772807143642127600,3.330127685546875,0.028450433936715123,-0.01161713509550318,-0.0034175853245658797
1772807143652058400,3.340058349609375,0.038327100306749344,-0.008786021589115262,0.006682710900623351
1772807143661990400,3.349990478515625,0.0467032989859581,0.004278499303106218,0.007135614900430664
1772807143671922400,3.35992236328125,0.04221066374182701,0.0016315649908967315,-0.0016232812197413294
1772807143681854500,3.3698544921875,0.028294366592168805,0.0034043833496980366,0.00728562696352601
1772807143691785500,3.379785400390625,0.03143500270545482,0.017930336830299348,-0.002789260825770907
1772807143701717500,3.389717529296875,0.01512508841753006,-0.0006848221926949918,0.00596777213087771
1772807143711649500,3.3996494140625,0.025602058768272398,0.006263024183828383,0.018746265456220133
1772807143721581600,3.40958154296875,0.027699323308467864,0.011420808805804698,0.009614188642101363
1772807143731512600,3.4195126953125,0.023806992045044897,0.007911777771543711,0.016594279620680025
1772807143741444400,3.4294443359375,0.030091771402955055,-0.002884341530967504,0.0036997723999666046
1772807143751376400,3.43937646484375,0.034732875207066534,0.018302348480466753,-0.01892530725097749
1772807143761308400,3.449308349609375,0.021266659912467,-0.00521985354013741,0.013027093224972485
1772807143771239400,3.459239501953125,0.025007015484571456,0.005732570568937808,0.007494744236138649
1772807143781171500,3.46917138671875,0.017075053441524504,0.003977379198372364,-0.0013585658689495175
1772807143791103500,3.479103515625,0.03458557569086552,-0.007688673072773963,0.006404592645564116
1772807143801035500,3.489035400390625,0.039375148054957385,-0.011233853132650256,0.007206086320756003
1772807143810966500,3.498966552734375,0.043565000960230825,0.005307915416080504,0.0022052823587786403
1772807143820898600,3.508898681640625,0.03533434823155403,0.008362352816946804,0.005262519071507267
1772807143830830600,3.51883056640625,0.028898762226104734,0.004944324534386396,-0.0008211938895052298
1772807143840762600,3.5287626953125,0.04116787669062614,-0.009849851428344845,-0.00885764378691092
1772807143850693600,3.538693603515625,0.03772387371659278,-0.0030145072492770847,0.01100553340264596
1772807143860625700,3.548625732421875,0.03772212015092373,-0.005652765064686536,0.000005881751514971256
1772807143870557700,3.5585576171875,0.043855508339405054,-0.004846636313572526,-0.00144600669038482
1772807143880489500,3.568489501953125,0.029340660774707792,-0.005320866229198873,-0.000020458266139030454
1772807143890420700,3.578420654296875,0.04176175093054771,0.0011701762905344366,0.0066484798374585805
1772807143900352800,3.588352783203125,0.03757423611283302,-0.006126465257350355,0.0060718672595918175
1772807143910284800,3.598284912109375,0.0297977568924427,0.005928166206274181,0.01911847803578712
1772807143920216600,3.608216552734375,0.03518587967157364,0.010030468692258,0.014864049161435104
1772807143930147600,3.618147705078125,0.03668108666539192,0.0037902225958183406,0.02365726767631713
1772807143940079600,3.62807958984375,0.033091537740826606,0.005333798776008188,0.019293145049526356
1772807143950011600,3.63801171875,0.02920212908685207,0.014122633376717566,0.004859048270573839
1772807143959943700,3.647943603515625,0.024715923583507535,0.013014526004344225,0.006113980235112831
1772807143969874700,3.657874755859375,0.03234744137525558,0.01139428612506017,0.007510649624746292
1772807143979806700,3.667806640625,0.03174830643832684,0.01498312266357243,0.025281357180234044
1772807143989738800,3.67773876953125,0.02666121243238449,0.011192881801445037,0.006667335234978236
1772807143999670800,3.6876708984375,0.006461889490485191,0.021725126003380862,0.00811044214880094
1772807144009601500,3.6976015625,0.02187280911207199,-0.006324581645336002,0.011542229528655298
1772807144019533600,3.707533447265625,0.02471709262728691,-0.0029439262310974297,0.014420607109717093
1772807144029465600,3.717465576171875,0.03204875068962574,-0.012168156574387103,0.01232229682332836
1772807144039397600,3.727397705078125,0.038783611902594564,-0.023321911941841245,0.013375244508939794
1772807144049328600,3.73732861328125,0.04506956030428409,-0.011721052127704024,0.002691321443207562
1772807144059260700,3.7472607421875,0.03639467093944549,-0.017303345772065222,0.022468500849744305
1772807144069192700,3.757192626953125,0.038788872599601745,-0.01686568500716239,0.010388876508758403
1772807144079124700,3.767124755859375,0.03325695743560791,-0.0013515424731187521,0.025106050845677963
1772807144089055700,3.7770556640625,0.03385550785064697,-0.003028170448448509,-0.002762167322868481
1772807144098987500,3.786987548828125,0.041188919478654856,-0.01488300502365455,0.008700873189466074
1772807144108919600,3.79691943359375,0.040890813314914704,-0.0014015008283779025,-0.003694625867391005
1772807144118851600,3.8068515625,0.03191080352365971,-0.0038388292442075905,-0.001443362642149441
1772807144128782800,3.816782958984375,0.03490355559885502,0.02012428494431078,-0.007338649492128752
1772807144138715000,3.82671484375,0.034304420661926266,-0.0027241277342662214,-0.005041820958955213
1772807144148646700,3.836646728515625,0.043131870239973065,0.010664693208876997,0.013827801448875106
1772807144158578700,3.84657861328125,0.0437315896987915,0.020669552535843103,0.016304027969832532
1772807144168509700,3.856509765625,0.0410433735281229,0.010566804058663547,0.004769990880787373
1772807144178441700,3.866441650390625,0.029369886869192122,0.009403605498187244,0.010764075629855506
1772807144188373500,3.87637353515625,0.038348727616667744,0.01362436499837786,0.017023282155091874
1772807144198305500,3.886305419921875,0.038947862553596495,-0.008722126040048897,-0.0002018975139595568
1772807144208236800,3.89623681640625,0.03460778752267361,-0.009586871376913041,-0.009735116174607537
1772807144218168800,3.9061689453125,0.03310965791940689,-0.013057817156799137,0.005415873869159258
1772807144228100900,3.916100830078125,0.04373217422068119,-0.015650591862667353,0.00635179387924727
1772807144238032600,3.92603271484375,0.03685118253529072,-0.01097357649495825,0.003995640940847807
1772807144247963600,3.935963623046875,0.03969488152861595,-0.007865417879167945,-0.013807790707307867
1772807144257895700,3.945895751953125,0.03580371930897236,-0.015566786036733537,-0.0015918449018616227
1772807144267827700,3.95582763671875,0.034606033957004546,-0.004136314353439956,0.014189013143815099
1772807144277759700,3.965759765625,0.024431845945119858,-0.014029456934239714,0.009356336856936103
1772807144287690800,3.975690673828125,0.02547872464954853,-0.004888794954866171,0.015341133187850936
1772807144297621800,3.985621826171875,0.02547814012765884,-0.004864281568117439,0.01533412349175196
1772807144307552500,3.995552490234375,0.04882160631418228,0.012488785097189247,0.010056105457013473
1772807144317484500,4.005484619140625,0.027572482058405876,0.01010789957633242,-0.006307890805439092
1772807144327416600,4.01541650390625,0.029067689052224156,0.011495773738157003,0.014755538152507505
1772807144337348600,4.0253486328125,0.049418987685441965,0.018238489464018494,0.014550777394603937
1772807144347280000,4.03527978515625,0.04582651615142822,0.009072948771715163,0.015278278818400576
1772807144357211600,4.045211669921875,0.046424482044577595,0.0068112874500453465,0.016843304211995563
1772807144367143700,4.055143798828125,0.04014204077422619,0.0008868475708179175,0.004624540828377939
1772807144377075700,4.06507568359375,0.03311082696318626,-0.013273944125510752,0.01654967329397332
1772807144387006700,4.0750068359375,0.03041735009551048,0.0036390688884072003,0.015535870308661832
1772807144396938500,4.0849384765625,0.040892566880583764,0.005615300864819437,0.00506789611512795
1772807144406870500,4.09487060546875,0.027128245422244072,-0.0040873606451787056,0.012698824818409048
1772807144416802600,4.104802490234375,0.028922727623581886,-0.0089469477718696,-0.0005950295839691535
1772807144426733800,4.11473388671875,0.02667641000151634,-0.002606328307185322,0.015947784710954874
1772807144436665900,4.124665771484375,0.017250994530320165,-0.006937324982509017,0.0002684508109930903
1772807144446597600,4.13459765625,0.031168460723757743,-0.004700487574841827,0.01086950419913046
1772807144456529700,4.14452978515625,0.03401274423897266,-0.0170071575707756,0.0041826651126611976
1772807144466460700,4.154460693359375,0.0398497798293829,-0.01254612304130569,0.019138050385937095
1772807144476392700,4.164392822265625,0.02473404376208782,0.005094747589435428,0.027387517412938177
1772807144486324700,4.17432470703125,0.03655366089344025,-0.007526650911476463,0.028761997803649863
1772807144496256500,4.184256591796875,0.03027005057930946,0.0027769904326647517,0.01583105842953082
1772807144506187800,4.194187744140625,0.04433540081083774,-0.00858834359254688,0.01908061197712086
1772807144516119800,4.204119873046875,0.03520750698149204,-0.008084851049818098,0.0046580412391806015
1772807144526051800,4.2140517578125,0.033712299987673756,0.0015440876368433237,-0.005100442111282609
1772807144535983600,4.223983642578125,0.03356383142769336,0.0031320326817221938,0.012355491273454389
1772807144545914600,4.23391455078125,0.03760638481676578,0.005882317770551889,0.01979979309714399
1772807144555846700,4.2438466796875,0.014711831441521644,0.020882172373216597,0.023597536845714785
1772807144565778700,4.25377880859375,0.031171383333206175,0.02239418437136337,0.011787007203116082
1772807144575710700,4.263710693359375,0.035512627407908434,0.01157581670442596,0.0024427215435774995
1772807144585641700,4.273641845703125,0.03236789964139462,0.009608297757431864,0.01605488464750815
1772807144595573800,4.28357373046875,0.036707390150427816,-0.0010163557020016014,0.023101003766735084
1772807144605505800,4.293505859375,0.021743629774451254,-0.012283617913909256,0.01703446113623213
1772807144615437800,4.303437744140625,0.03685878131985664,-0.003547152821253985,0.03122756136669777
1772807144625368600,4.31336865234375,0.026533786660432813,-0.00413147378154099,0.006735272204922512
1772807144635300600,4.323300537109375,0.0361111778229475,-0.015390991078410297,0.01601175789183471
1772807144645232600,4.333232666015625,0.035066637206077576,-0.009418510806374252,0.006957911112811416
1772807144655164700,4.34316455078125,0.02848667429387569,-0.007220690234843641,0.01015222277524881
1772807144665096700,4.3530966796875,0.026394670450687406,-0.0202195985449478,0.016369576619868167
1772807144675028500,4.363028564453125,0.03806406545639038,-0.019490096960309893,0.015610360316978766
1772807144684959700,4.372959716796875,0.03162497231960296,-0.013050492366869003,0.0007825652124360203
1772807144694891800,4.382891845703125,0.03356909212470054,-0.0053947351830080145,0.028929961081966757
1772807144704823800,4.39282373046875,0.03461947796046733,0.006548891920503229,0.018714454679004847
1772807144714755800,4.402755859375,0.024593173986673354,-0.003303352394327521,0.012499009663681499
1772807144724686600,4.4126865234375,0.031178982117772102,0.007244436436612159,0.005083353979163803
1772807144734618600,4.42261865234375,0.026990298256278036,0.01362403620481491,-0.005408690643124282
1772807144744550700,4.432550537109375,0.039109775117039676,0.013808745121955871,0.0056697527321055525
1772807144754482700,4.442482666015625,0.03985562504827976,0.005104227803833783,0.005217387588415294
1772807144764413700,4.45241357421875,0.041352585607767105,0.016785514176730066,0.018939819833519868
1772807144774345700,4.462345703125,0.042998014727234836,-0.00019179624505341052,0.015465513052768073
1772807144784277800,4.47227783203125,0.03760813838243484,0.003385057594720274,0.024680774638312867
1772807144794209800,4.482209716796875,0.048830958664417265,0.0037978579130023716,0.022315607276395893
1772807144804140500,4.492140625,0.030126842716336248,0.001663074374012649,0.011740848240139894
1772807144814072600,4.502072509765625,0.0254886615216732,-0.002528221569675952,0.01435895831666421
1772807144824004600,4.512004638671875,0.03102466833889484,-0.00967246730113402,0.0021121059163007883
1772807144833936600,4.5219365234375,0.04509001857042312,-0.00861210806062445,0.008897870766022243
1772807144843867400,4.531867431640625,0.017107786667346952,-0.01779392403429374,-0.003621482999366708
1772807144853799400,4.54179931640625,0.03072363956570625,-0.006347852923069149,-0.011376841799914836
1772807144863731500,4.5517314453125,0.034763854867219925,-0.019892138422559946,0.012922413574368692
1772807144873663500,4.56166357421875,0.028926234754920004,-0.00784757169522345,-0.004227116175740957
1772807144883594200,4.57159423828125,0.032220015603303905,0.006276742181926966,0.005939491317886859
1772807144893526300,4.5815263671875,0.03117196785509586,0.00421080436175689,0.019751222981372846
1772807144903458300,4.591458251953125,0.04613514370918274,0.0005076389948837458,0.028387725697737187
1772807144913390300,4.601390380859375,0.047778819262981415,0.009148169432394207,0.042296538227261045
1772807144923321300,4.6113212890625,0.03536006719470024,0.014345993803814053,0.023337109510973095
1772807144933253400,4.62125341796875,0.023390227937698363,0.009981295788288116,0.010920823394414038
1772807144943185400,4.631185302734375,0.03192015587389469,0.009672686496842652,-0.006880160568328574
1772807144953117400,4.641117431640625,0.02219429615139961,-0.007864632427878677,0.008976109934272244
1772807144963048400,4.65104833984375,0.039105098941922184,0.009429653254896402,0.007688088550884277
1772807144972980200,4.660980224609375,0.04269640143215656,0.011538937026448547,0.022550575942895373
1772807144982912300,4.670912353515625,0.026388240709900854,-0.004438092045299709,0.018565721257543192
1772807144992844300,4.68084423828125,0.03297229527533054,-0.00699466292662546,0.0220870637841057
1772807145002775600,4.690775634765625,0.03865735517442226,-0.01130205953065306,0.016479635698487982
1772807145012707300,4.700707275390625,0.047935471129417415,-0.018017832450661807,0.0019430146933998912
1772807145022639400,4.710639404296875,0.03132452806830406,-0.0025158004795201123,-0.004844056197418831
1772807145032571400,4.7205712890625,0.03581307165920734,-0.007080660709645599,0.011428078796807677
1772807145042502400,4.73050244140625,0.035064883640408516,0.0014661635624244808,0.007010102524352259
1772807145052434400,4.740434326171875,0.03671323536932468,0.010312774498667568,0.007755267469002865
1772807145062366200,4.7503662109375,0.02608955002427101,0.006245543326064944,-0.009139369638008064
1772807145072298200,4.76029833984375,0.03701251057684421,0.00776696247337386,0.010391260262089782
1772807145082229200,4.770229248046875,0.05437105713486671,0.0054897017237730324,0.016970793916028924
1772807145092161500,4.78016162109375,0.028632220244407654,0.020674082580488175,0.021201997178420424
1772807145102093600,4.790093505859375,0.03566343405544758,0.0004414053582586348,0.028773418813385066
1772807145112025300,4.800025390625,0.03312017931342125,0.0062546582142822445,0.02087406669857446
1772807145121956400,4.809956298828125,0.03042787148952484,0.0012601561289280652,0.005329204799281433
1772807145131888400,4.819888427734375,0.032822657671570776,-0.0032549101427197455,0.021057040316355413
1772807145141820400,4.8298203125,0.04449497528672218,-0.011313402908574789,0.010058078218391164
1772807145151752200,4.839752197265625,0.04224865766465664,-0.0016495207726955413,-0.004913326607923954
1772807145161683200,4.84968310546875,0.03820844236314296,-0.016313147424627094,0.007845991659490391
1772807145171615500,4.859615478515625,0.042700493085384365,0.0028693814238533377,0.006020776393171399
1772807145181547500,4.869547607421875,0.03671615797877312,0.004358250008430332,0.00793160128344316
1772807145191479600,4.8794794921875,0.026841245174407957,-0.007470500277448445,0.0062322819856926795
1772807145201410300,4.889410400390625,0.04180442102849483,-0.016265417559072376,-0.008805237746238708
1772807145211342300,4.89934228515625,0.037163901746273036,-0.0006985219244845211,0.00523342540776357
1772807145221274400,4.9092744140625,0.0142693483710289,-0.005461516808904707,0.023909338174667207
1772807145231206400,4.919206298828125,0.024594927552342414,0.00398390027070418,0.00860540889177937
1772807145241137200,4.92913720703125,0.0385118092238903,-0.004554375368729233,0.017633673704974352
1772807145251069200,4.939069091796875,0.03836509422957897,-0.007680380168464034,0.033267917221039535
1772807145261001500,4.94900146484375,0.04016016095280647,-0.004829082390572875,0.015875619090464897
1772807145270933500,4.95893359375,0.040160745474696155,0.007860632106196135,0.03576387592235114
1772807145280864300,4.9688642578125,0.02070551889836788,-0.0014834434907883404,0.019046563577046618
1772807145290796300,4.97879638671875,0.03312719357609749,0.005772372856363654,0.026084138630214145
1772807145300728300,4.988728271484375,0.02759235580265522,0.011962971124798058,0.006793683294695802
1772807145310660400,4.998660400390625,0.03806698806583881,0.010452785757556557,0.010515932387951761
1772807145320591400,5.00859130859375,0.03282967193424702,-0.009766356129664927,0.0025421633300604296
1772807145330523100,5.018523193359375,0.033577275431156156,-0.001488119665905833,0.007633970043738372
1772807145340455200,5.028455078125,0.035519641670584676,-0.004179313244950026,-0.0019191543271997943
1772807145350387500,5.038387451171875,0.04060907376408577,-0.00847918412964791,-0.0018276720848865806
1772807145360318500,5.048318359375,0.04285188425481319,-0.006494458319526166,0.01418214044503402
1772807145370250200,5.058250244140625,0.03147942636907101,-0.012363185956142842,0.021019306688429787
1772807145380182300,5.068182373046875,0.02340074933171272,-0.015426427717972546,0.015014928874210454
1772807145390114300,5.0781142578125,0.04360182583928108,-0.002566325090359896,0.019182702378416433
1772807145400045300,5.08804541015625,0.03342471521794796,0.001502714446838945,0.018034692253917455
1772807145409977300,5.097977294921875,0.031180151161551473,-0.004142123039718717,0.030214849793352185
1772807145419909000,5.1079091796875,0.039407881280779836,-0.009849687031563371,0.021388806721102445
1772807145429841200,5.117841064453125,0.04868599723577499,-0.01273095982261002,0.006590287943393923
1772807145439772400,5.1277724609375,0.025941665986180303,0.008376290010754019,0.007109279449353925
1772807145449704400,5.137704345703125,0.042700493085384365,0.013333364428859204,-0.0051927828701213
1772807145459636500,5.147636474609375,0.04853577511012554,0.009446385193988681,0.011236451515113002
1772807145469568300,5.157568359375,0.03761164551377296,0.005126110842078924,0.009979368692683056
1772807145479499300,5.167499267578125,0.027435119414329526,0.021020247403346,0.006194425060180947
1772807145489431300,5.177431396484375,0.02668985400497913,-0.002920326159801334,0.0011066278013400733
1772807145499363300,5.18736328125,0.04135492369532585,0.015018869830388575,0.02150228616609238
1772807145509295000,5.197295166015625,0.0379150123745203,0.0029746684292331336,0.02649251850170549
1772807145519226400,5.207226318359375,0.032231121519207956,0.0007726648729294538,0.0059812526669586075
1772807145529158400,5.217158447265625,0.04136018439233303,-0.0057462337681092315,0.017794951514177954
1772807145539090400,5.22709033203125,0.036574119159579276,-0.01616931850714609,0.02354242739130277
1772807145549022500,5.2370224609375,0.03253331933617592,-0.016883275462780147,0.013071288559725508
1772807145558953200,5.246953125,0.03507891216576099,-0.026250987663678824,0.0023204514373559504
1772807145568885200,5.25688525390625,0.03657528820335865,-0.01639101670011878,0.010804731867229566
1772807145578817300,5.2668173828125,0.037626258561015126,-0.014636318519897757,0.0038475468402029943
1772807145588749300,5.276749267578125,0.029842180556058882,-0.002416084698401391,0.015567471023323013
1772807145598680300,5.286680419921875,0.046751229780912396,-0.0008967113777063787,0.004528510275110602
1772807145608612400,5.2966123046875,0.04301087420880794,0.00862317744391039,0.00596147482083179
1772807145618544400,5.30654443359375,0.03777180451154709,0.011504468501266091,0.012385247090901247
1772807145628476400,5.316476318359375,0.034328970581293104,0.00850820929473266,0.008959857485792599
1772807145638407200,5.3264072265625,0.02969195843040943,0.010346128778997809,0.011733473217859863
1772807145648339200,5.336339111328125,0.032086744612455365,0.01883693028120324,-0.006651178684621117
1772807145658271200,5.346271240234375,0.03044190001487732,0.00894444528752938,0.006631953394343144
1772807145668203300,5.356203369140625,0.03613105156719684,0.010881130704842507,0.0269259277831763
1772807145678134500,5.366134521484375,0.021914310166239737,0.011971446692198514,0.021496778873912988
1772807145688066300,5.37606640625,0.02191547921001911,-0.005574895789194852,0.014068514869571662
1772807145697998300,5.385998291015625,0.022217677026987074,-0.013664733541384338,0.00790062162328977
1772807145707930400,5.395930419921875,0.032391865038871766,-0.007646185637917369,0.015449552865233272
1772807145717861400,5.405861328125,0.03194236770570278,-0.017419336834549902,0.01257900239760056
1772807145727793400,5.41579345703125,0.044812955194711686,-0.025759404754452406,-0.004383000857196748
1772807145737725200,5.42572509765625,0.03957563906311989,-0.019243446989171204,0.009674659258220345
1772807145747657200,5.4356572265625,0.03807867850363254,-0.016664883471746,0.0023132864776300266
1772807145757588500,5.44558837890625,0.028801147070527076,-0.025391685686912385,0.00473833080062177
1772807145767520500,5.4555205078125,0.02461129416525364,-0.005626735574286431,0.021647279560775494
1772807145777452300,5.465452392578125,0.045859833899140355,0.010809271045029163,0.017300637791748157
1772807145787384300,5.47538427734375,0.03718085288107395,0.010635010456666349,0.027682258009235374
1772807145797315300,5.4853154296875,0.032094343397021295,0.0014332111408933996,0.013019704502960666
1772807145807247400,5.495247314453125,0.03807926302552223,0.018454488568566737,0.006148403094522655
1772807145817179400,5.505179443359375,0.02191898634135723,0.014976199732441454,0.017125705916527657
1772807145827111200,5.515111083984375,0.029549335089325904,0.015042323771212248,0.02755214252327569
1772807145837043500,5.52504345703125,0.04301496586203575,0.005073540404625237,0.02923645604813937
1772807145846974700,5.534974609375,0.03687982410788536,0.0038800745700486,0.005035432317364029
1772807145856906800,5.54490673828125,0.046157940062880515,0.002181691420637071,0.022360195336793547
1772807145866838800,5.5548388671875,0.02416121231019497,0.014469181792065501,0.024338856732309795
1772807145876770600,5.5647705078125,0.022067454901337623,-0.006855930309370159,0.008769166352436877
1772807145886701600,5.57470166015625,0.03733341309428215,-0.010286562345176935,0.006340208472730592
1772807145896633600,5.584633544921875,0.03718260644674301,-0.016843655838444827,0.020675662616221235
1772807145906565600,5.594565673828125,0.0253624047935009,-0.01127803933424875,0.017178472716803662
1772807145916497700,5.60449755859375,0.02625906137228012,-0.009914989086426794,0.01514185232266318
1772807145926428700,5.6144287109375,0.0377799878180027,-0.01718136336021125,0.01138683803754393
1772807145936360700,5.624360595703125,0.022067454901337623,-0.008048902953602373,0.0188163487174781
1772807145946292700,5.634292724609375,0.023863690668344498,-0.0106329828963615,0.00011558007053099572
1772807145956224800,5.644224853515625,0.03239420312643051,0.02209728378402069,-0.014805578706157393
1772807145966155500,5.654155517578125,0.029549335089325904,0.012881127149332315,0.0006727709952974692
1772807145976087600,5.664087646484375,0.030596798315644262,0.017210023199114948,0.019949512899294496
1772807145986019600,5.67401953125,0.035686230409145356,0.02733927609072998,0.031876312165590934
1772807145995951600,5.68395166015625,0.026706805139780042,0.006290496712643653,0.010129504053364507
1772807146005882600,5.693882568359375,0.03478489765524864,0.015538473257701843,0.02464427855282556
1772807146015814700,5.703814697265625,0.044212066692113874,0.011323960835207253,0.012956959731364622
1772807146025746700,5.71374658203125,0.02296294243633747,0.020967476036492735,-0.020521490401239132
1772807146035678700,5.7236787109375,0.035386370679736136,0.008536449008528143,0.01310464740663301
1772807146045609500,5.733609375,0.03882862008810043,-0.014220869586803018,0.00431580823934637
1772807146055541500,5.74354150390625,0.026558921101689337,-0.01083484387770295,0.007684353090682998
1772807146065473500,5.7534736328125,0.02281915005147457,-0.016033179705776272,0.01745682843388058
1772807146075405600,5.763405517578125,0.037034722408652306,-0.01815015359343961,0.010812116022664122
1772807146085336600,5.773336669921875,0.0392787019431591,0.002760039297863841,0.013463904606504365
1772807146095268600,5.7832685546875,0.030601474490761754,-0.007499050518497824,0.009681413225992582
1772807146105200600,5.79320068359375,0.044970191583037375,-0.0067618588177487254,0.0026361297904048116
1772807146115132700,5.803132568359375,0.018339958810806273,-0.004561627093423158,0.007579956567869521
1772807146125063700,5.813063720703125,0.02986263882219791,-0.002226699606142938,-0.0015762774399714543
1772807146134995700,5.82299560546875,0.0246259072124958,-0.019894969700463117,0.017605054965266025
1772807146144927500,5.832927490234375,0.03255377760231495,0.016358904528804123,0.01349492079927586
1772807146154859500,5.842859619140625,0.030608488753437996,0.020832049621175974,0.005122101387241855
1772807146164790500,5.85279052734375,0.03554302254617214,0.009787051857821643,0.014947622091928497
1772807146174722600,5.86272265625,0.0291050984531641,0.018651234983373434,0.006314169849175959
1772807146184654600,5.872654541015625,0.035839375144243235,0.01883800799343735,0.010766103190160355
1772807146194586600,5.882586669921875,0.021470073530077932,0.011840970446635037,0.018357124574738554
1772807146204517600,5.892517578125,0.028203765699267386,-0.0017633564107120037,0.013280287101329304
1772807146214449700,5.90244970703125,0.045858664855360984,-0.003046655953209847,0.019262106023868544
1772807146224381700,5.912381591796875,0.036280104649066926,-0.015208949042391031,0.006151407902361824
1772807146234313500,5.9223134765625,0.04316343442201614,-0.019416063609719276,0.00299077931381762
1772807146244244500,5.932244384765625,0.03164016988873482,0.012966449078917502,-0.003960085570276714
1772807146254176500,5.942176513671875,0.016228081223368645,-0.007886807727068661,0.008853497334755957
1772807146264108500,5.952108642578125,0.03118891898989677,-0.0043046018587425345,0.007464193834247999
1772807146274040600,5.96204052734375,0.03642681964337825,-0.0027432890924625098,0.007510946452268399
1772807146283971600,5.9719716796875,0.03029284693300724,-0.01068969978597015,0.006730532097723335
1772807146293903600,5.981903564453125,0.02879647089540958,-0.01335130194434896,0.018608368522603995
1772807146303835600,5.991835693359375,0.03732289170026779,-0.010872143680788576,0.00546259908771608
1772807146313767700,6.001767578125,0.027896307185292242,-0.012358856840897351,0.007597053833142854
1772807146323698400,6.011698486328125,0.025503274568915366,-0.009572970715723932,0.0140884388461709
1772807146333630500,6.02163037109375,0.03298515475690365,0.0009007299656979739,0.012994643126940354
1772807146343562500,6.0315625,0.02625204710960388,0.001023461296223104,0.02220489061065018
1772807146353494500,6.04149462890625,0.03388590298891067,0.002165032546781003,0.018478207370871677
1772807146363425500,6.051425537109375,0.03418459367454052,0.006109057464823126,0.0340767174198525
1772807146373357600,6.061357666015625,0.03777531164288521,0.0013087445110082625,0.005259916122467257
1772807146383289600,6.07128955078125,0.03418400915265083,-0.003003127338737249,-0.0008598088668426498
1772807146393221600,6.0812216796875,0.03493453525900841,0.0056983760383911425,0.018166410608496514
1772807146403152600,6.091152587890625,0.03478489765524864,-0.005068060511909425,0.010437601888156496
1772807146413084400,6.10108447265625,0.027304186511039732,-0.0036272505864500997,0.0027711269474588332
1772807146423016400,6.111016357421875,0.02685585822165012,0.010280132604390382,0.009421300985082053
1772807146432948500,6.120948486328125,0.031793314623832704,-0.004653232633322477,0.01437388189116027
1772807146442879700,6.130879638671875,0.03643091129660606,-0.018150244924984873,0.0011407173006096854
1772807146452811500,6.1408115234375,0.02835048069357872,0.004884319709148257,0.0030405321730999275
1772807146462743600,6.15074365234375,0.022363222977519033,0.016750095803476868,-0.01085021041019354
1772807146472675600,6.160675537109375,0.02715045725405216,-0.009844061008375137,0.0004707136511337012
1772807146482606600,6.170606689453125,0.03447919270694256,-0.0001350062902085483,0.01801180000209715
1772807146492538600,6.18053857421875,0.0373223071783781,-0.0069301097904331975,0.012118636610545217
1772807146502470400,6.190470458984375,0.037920857593417165,-0.024894056629389524,0.019846833409531972
1772807146512402400,6.20040234375,0.047348611152172086,-0.019095343755371866,0.017462408791296184
1772807146522333700,6.210333740234375,0.044054830303788185,0.004624609327036887,0.008462127963569946
1772807146532265700,6.220265625,0.038521746096014976,-0.011203202266059815,-0.0008228469904744997
1772807146542197800,6.23019775390625,0.020866262418031693,-0.012891995603218675,0.008493701278767548
1772807146552129500,6.240129638671875,0.029396774876117703,0.005028039028774947,0.006448084727418609
1772807146562060500,6.250060546875,0.033737434428930284,0.006426416318304836,0.021137229413096793
1772807146571992600,6.25999267578125,0.03822539349794388,0.006878872793540358,0.01489548547931481
1772807146581924600,6.269924560546875,0.035680969712138175,0.00854276915146038,-0.0042858012601500375
1772807146591856400,6.2798564453125,0.04930091426372528,-0.003987900592386722,0.012424862148659304
1772807146601787600,6.28978759765625,0.019824644410610198,-0.0008235913425683975,-0.003339601884642616
1772807146611719700,6.2997197265625,0.028802316114306448,0.0002626512578688562,0.019566801758599466
1772807146621651700,6.309651611328125,0.03014905454814434,-0.00020566037362441418,0.016822617616993375
1772807146631583700,6.319583740234375,0.026704467052221296,0.003017356793489307,0.019489941696682944
1772807146641514500,6.329514404296875,0.03164367702007294,-0.006508980035223067,0.01854036305400077
1772807146651446500,6.339446533203125,0.030896073523163793,-0.0071552968484349545,0.007391758785699493
1772807146661378600,6.349378662109375,0.03718202192485332,-0.010437588188424706,-0.006764164939266629
1772807146671310600,6.359310546875,0.034189854371547694,0.003164729374926537,0.0014931246345862746
1772807146681241600,6.36924169921875,0.027754268366098404,-0.006167838447354733,0.010517905149329453
1772807146691173600,6.379173583984375,0.02386661327779293,-0.006866561301238834,-0.0055536566383438185
1772807146701105700,6.389105712890625,0.05364566546976566,-0.01457846911912784,0.019258854620857163
1772807146711037700,6.39903759765625,0.029103929409384725,-0.010504442879557608,-0.0014615741522749884
1772807146720968400,6.408968505859375,0.027907413101196286,-0.0003375248586758971,-0.0009655479633715003
1772807146730900500,6.418900390625,0.03569090658426285,-0.005523622259683907,0.023786547478637655
1772807146740832500,6.42883251953125,0.024468670824170112,0.0021921397494152188,0.01127401161310263
1772807146750764500,6.4387646484375,0.031951135534048075,0.0025976700766943395,0.0026897094414336607
1772807146760695800,6.44869580078125,0.023571429723501205,0.0036368951976299283,0.026583818080928176
1772807146770627600,6.458627685546875,0.02386836684346199,0.002706573811266571,0.0076001362727954975
1772807146780559600,6.4685595703125,0.030602059012651443,0.008378500234149397,0.0170035362750059
1772807146790491600,6.47849169921875,0.03105214086771011,0.011341551290825008,0.009303419359610415
1772807146800422700,6.488422607421875,0.033597733697295185,-0.001736815463658422,-0.0008164948815014213
1772807146810354400,6.4983544921875,0.03225041074156761,0.000514708056487143,0.024081922829174436
1772807146820286500,6.508286376953125,0.03688800741434097,-0.01680356129007414,0.004783252221159637
1772807146830218500,6.518218505859375,0.04182487929463386,-0.007767565261572599,0.006515839034272357
1772807146840149500,6.5281494140625,0.031051556345820425,-0.01200375979291275,0.011892449472122825
1772807146850081300,6.538081298828125,0.030599720925092694,-0.0218995327222161,-0.0020691435574088242
1772807146860013300,6.548013427734375,0.019976035580039023,-0.00337470059748739,0.0008901583393337205
1772807146869945300,6.5579453125,0.024168811094760892,-0.0012495799359865487,-0.0005347964298678562
1772807146879876400,6.56787646484375,0.02207446916401386,-0.0005252477168105542,0.006979771318170242
1772807146889808400,6.577808349609375,0.029855040037631987,-0.016666673570033163,0.011795843530120328
1772807146899740200,6.587740234375,0.031049802780151365,-0.0069654550984501835,0.011185936037427745
1772807146909672200,6.597672119140625,0.03179740627706051,-0.0031530572034418583,0.012155808549467474
1772807146919603500,6.607603515625,0.03643266486227512,0.002982468143198639,0.015998715747171082
1772807146929535500,6.617535400390625,0.030445991668105122,0.0070850628901273005,0.015631731898570433
1772807146939467300,6.62746728515625,0.03254150264263153,0.0051072600111365316,-0.009936913223867304
1772807146949399300,6.6373994140625,0.03329436683654785,-0.003893756035529077,0.0070133082615910095
1772807146959330300,6.647330322265625,0.02371931376159191,0.010060717700049281,0.02014783021667972
1772807146969262300,6.657262451171875,0.024616554862260817,0.007077336241398007,0.012629070350714026
1772807146979194400,6.6671943359375,0.025362989315390584,-0.008393935265298932,0.0001774160932516679
1772807146989126100,6.677126220703125,0.026859949874877928,-0.0038164347493089734,0.005522672411613166
1772807146999057400,6.687057373046875,0.03658873220682144,-0.0003133950644172728,0.015730721593904307
1772807147008989400,6.696989501953125,0.043324177941679955,-0.002043433727417141,0.018910214713122694
1772807147018921500,6.70692138671875,0.031056817042827603,-0.00857687235046178,0.012774246408487669
1772807147028853500,6.716853515625,0.0400368268340826,-0.012112864456884562,-0.010688032985269092
1772807147038784300,6.7267841796875,0.04228372897803783,-0.005643686709087342,0.0005734936055960133
1772807147048716300,6.73671630859375,0.03510229304134845,-0.0016162212912924586,-0.00021497619124129415
1772807147058648300,6.7466484375,0.030166590204834937,-0.00006345715764909983,0.013606171754561363
1772807147068580400,6.756580322265625,0.014603110370039939,-0.0003340177273377776,0.0030841795185813678
1772807147078511400,6.766511474609375,0.02358253563940525,-0.007309354898985475,0.0041304691345430905
1772807147088443400,6.776443359375,0.046475919970870014,0.007692034073639661,0.013688297080062329
1772807147098375400,6.78637548828125,0.031362521991133686,-0.006043298752233386,0.009402655650116503
1772807147108307500,6.796307373046875,0.04138941048681736,0.00196457807123661,0.015541436966345645
1772807147118238200,6.80623828125,0.0321112945318222,0.006488631366938352,0.009125126483524218
1772807147128170200,6.816170166015625,0.034652211186289784,0.007202898849826306,0.008549007096001877
1772807147138102300,6.826102294921875,0.03988835827410221,-0.010698047489207238,0.0073212416996015234
1772807147148034300,6.836034423828125,0.02641805132627487,-0.008490198714006691,0.01934115347629413
1772807147157965000,6.845965087890625,0.022377836024761198,-0.010878390758484601,0.007727183018834329
1772807147167897300,6.8558974609375,0.05066109670102596,-0.0047145708991214634,0.0016358667066786437
1772807147177829400,6.865829345703125,0.0454220270037651,-0.012753080322872846,0.006609421902126632
1772807147187761400,6.875761474609375,0.041382980746030806,-0.008554806649126112,0.008966931113973259
1772807147197692400,6.8856923828125,0.023875381106138228,-0.001503280702419579,0.007513238874054513
1772807147207624200,6.895624267578125,0.03330255014300346,-0.00689386943327263,0.011238282712595537
1772807147217556200,6.90555615234375,0.028065234011411665,-0.013325144589785485,0.03339389995457604
1772807147227487200,6.9154873046875,0.046022915506362914,-0.00006612403877079486,0.006133972710371017
1772807147237419300,6.925419189453125,0.04392682000994682,-0.005145546194911003,0.013312563669425435
1772807147247351300,6.935351318359375,0.037491818526387215,-0.0037693076719529923,0.004345308328466489
1772807147257283300,6.945283447265625,0.039138416689634324,-0.00800701830694452,-0.0003592754661804065
1772807147267214300,6.95521435546875,0.03479834165871143,-0.001951608991809189,0.013046418979950248
1772807147277146400,6.965146484375,0.03599602701067924,0.0008393186346627771,0.017643126519909128
1772807147287078400,6.975078369140625,0.028965397721529004,-0.004407696907036006,0.019190917650912888
1772807147297010200,6.98501025390625,0.02821662518084049,-0.0006717069827951491,0.023508735184255055
1772807147306942200,6.994942138671875,0.03180909671485424,0.005157291431631893,0.00744309168071486
1772807147316873200,7.004873291015625,0.0442284333050251,0.0069387862872332335,-0.01043630041363649
1772807147326805200,7.01480517578125,0.036143326526880265,0.001018054468743503,0.0005451488605234772
1772807147336737300,7.0247373046875,0.037490064960718154,-0.0046302536165341735,0.005110684944083914
1772807147346668300,7.034668212890625,0.03269990807473659,-0.0012314962900243699,0.011595708714984356
1772807147356600300,7.044600341796875,0.025070728370547295,0.009856372500676662,0.018007521119201553
1772807147366532400,7.054532470703125,0.025222704061865806,-0.015545505786687135,0.00016369809515308587
1772807147376464400,7.06446435546875,0.04257949705421924,-0.015538400192465633,0.021024119860865175
1772807147386396400,7.074396484375,0.0339022696018219,-0.010514653746318072,0.012375168654881417
1772807147396327200,7.0843271484375,0.02806464948952198,-0.0036852461176924405,0.001447636958467774
1772807147406259200,7.09425927734375,0.030758710879087447,-0.018257468159124254,0.014286495868652127
1772807147416191200,7.104191162109375,0.04886544545590877,-0.011350921907369046,0.007367633558018133
1772807147426123300,7.114123291015625,0.041834231644868845,-0.0026008301481604576,0.02162763414538931
1772807147436054300,7.12405419921875,0.032704584249854084,-0.00913308146111667,-0.002542227262142114
1772807147445986300,7.133986328125,0.02986146977841854,-0.010055219541024417,0.01985125842289999
1772807147455918300,7.14391845703125,0.04033493299782276,0.010960369953513144,0.0014128396397223696
1772807147465850400,7.153850341796875,0.03734393448829651,-0.00885609115064144,-0.011841554968524723
1772807147475781000,7.163781005859375,0.04093406793475151,-0.012385763114131986,-0.003593065189057961
1772807147485713200,7.173713134765625,0.03045885114967823,0.000991860581561923,-0.010384049636591225
1772807147495645200,7.183645263671875,0.02477145316302776,0.02013228558767587,0.0017248921304242684
1772807147505577200,7.1935771484375,0.0359936889231205,-0.001855765668209642,0.022719397737737745
1772807147515508500,7.203508544921875,0.05454758274555206,0.004026479037106037,0.010748704530787653
1772807147525440300,7.213440185546875,0.03539396946430206,0.012101886405143886,0.01606283505852334
1772807147535372300,7.223372314453125,0.029707155999541282,-0.0009189232095144688,0.0031544408763526004
1772807147545304300,7.23330419921875,0.03614391104876995,-0.004745988950692117,0.0017652926394715904
1772807147555235300,7.2432353515625,0.021930676779150962,0.0035368688892573118,-0.0010281009387224911
1772807147565167000,7.2531669921875,0.03614917174577713,-0.0142771115523763,0.018428536709980108
1772807147575099100,7.26309912109375,0.03285948255062103,-0.0015064773065038024,0.023832286316505632
1772807147585031200,7.27303125,0.04004442561864853,-0.005206153808347881,0.024961514108721165
1772807147594962400,7.28296240234375,0.03780044608414173,-0.008283625024929643,0.014371023213793523
1772807147604894500,7.29289453125,0.05411094489395618,-0.00963270154632628,-0.00004119509349111467
1772807147614826200,7.302826171875,0.023736849418282507,-0.006945398691110312,0.019522204565047285
1772807147624758300,7.31275830078125,0.03166939598321915,-0.002825779744144529,0.02684770231465809
1772807147634689300,7.322689208984375,0.03031973493993282,0.014968984540365635,0.02730186668979004
1772807147644621300,7.332621337890625,0.01685118155777454,-0.0032171719482168553,-0.0006821553115732967
1772807147654553300,7.34255322265625,0.02882218985855579,0.006466510866675526,0.010582700314116664
1772807147664485000,7.352485107421875,0.03316168036758899,-0.0046396607656963166,0.0010995085073867812
1772807147674416400,7.36241650390625,0.03136836721003056,0.008449318714346735,0.00986994436830282
1772807147684348400,7.372348388671875,0.04363748167455196,0.0014663279592059552,0.01881239406156819
1772807147694280400,7.382280517578125,0.03839899649918079,-0.017634422623645514,0.001865186517103575
1772807147704212200,7.392212158203125,0.029870237606763838,-0.012002097558788954,0.010035318397311492
1772807147714143200,7.402143310546875,0.028373277047276494,0.0018670359808951615,0.027527254677191373
1772807147724075300,7.4120751953125,0.03974339684545994,-0.007472363440971821,0.018750119647430254
1772807147734007300,7.42200732421875,0.03839607388973236,-0.006540051026921719,0.007793069595587439
1772807147743939300,7.431939208984375,0.03390753029882908,-0.025584084720164536,-0.0011852870946982876
1772807147753871000,7.44187109375,0.036899697852134705,-0.007455558436643332,-0.02292445532316342
1772807147763802400,7.45180224609375,0.030313305199146268,-0.007254501172900199,0.005068508036481216
1772807147773734400,7.461734375,0.026872809356451033,-0.015289156405441462,0.0012273452712921425
1772807147783666400,7.47166650390625,0.02552665544450283,-0.012758998607005924,0.024024246958340517
1772807147793598500,7.481598388671875,0.04004091848731041,-0.007525865460187196,0.00910934439250268
1772807147803529200,7.491529296875,0.032408231651782984,0.000636325142160058,0.013920425335504114
1772807147813461200,7.501461181640625,0.027170915520191193,-0.004613576476369053,0.01123097162239719
1772807147823393300,7.511393310546875,0.03839315128028393,-0.002166603449359536,0.0080879015234299
1772807147833325300,7.5213251953125,0.042132922330498694,0.015032642627414316,0.007945310148387216
1772807147843256000,7.531256103515625,0.03135843033790588,0.0005023600315675139,0.00930732378317043
1772807147853188000,7.54118798828125,0.03779343182146549,0.006752579532749951,-0.004737782811350189
1772807147863120100,7.5511201171875,0.030312136155366896,0.003749543525557965,0.0023476819375762713
1772807147873052000,7.561052001953125,0.04751870702207088,0.006693762017600238,0.011608659528102725
1772807147882983000,7.57098291015625,0.03285480637550354,0.0025030140631832182,0.005862937216646969
1772807147892915000,7.5809150390625,0.027169746476411818,-0.0035682138755917547,0.015960091636679136
1772807147902847000,7.590846923828125,0.0310614932179451,-0.002172211206238717,0.015306372401723637
1772807147912778800,7.60077880859375,0.031063246783614155,-0.004834489218052476,0.022281937902234494
1772807147922710000,7.6107099609375,0.032110710009932514,0.0013264262981712818,0.01663137392778881
1772807147932642000,7.62064208984375,0.03974222780168056,-0.010491674729529768,0.011718709473568014
1772807147942574000,7.630573974609375,0.02717325360774994,-0.010020184760261326,-0.014089265396655537
1772807147952506000,7.640506103515625,0.03390928386449814,-0.027473770924285053,0.01322352454594802
1772807147962436900,7.650436767578125,0.03780219964981079,-0.012359550960641353,0.015167009596806018
1772807147972369000,7.660368896484375,0.030620179191231726,-0.01657557948678732,-0.006698931383062154
1772807147982301000,7.670301025390625,0.03301438085138798,0.004384535227157175,0.0064911795170512045
1772807147992233000,7.68023291015625,0.03690262046158314,0.00886681347405538,0.0033777693374082442
1772807148002165000,7.6901650390625,0.034955578047037125,-0.0065500244316644965,0.023939596315613015
1772807148012096000,7.700095947265625,0.0210357737660408,-0.0011623400439508258,0.02237102269148454
1772807148022028000,7.710028076171875,0.040488662254810334,0.01620963225122541,0.016294200695562176
1772807148031960000,7.7199599609375,0.03525251516699791,0.02210124757308513,0.0058717963765375315
1772807148041892000,7.72989208984375,0.03884557122290134,0.008787592491693794,0.002420217450824566
1772807148051822800,7.73982275390625,0.03375613912940025,0.0037324097276665268,0.004064331396040507
1772807148061755000,7.7497548828125,0.04467968420386314,-0.008866448147874325,0.002070349133806303
1772807148071687000,7.75968701171875,0.02792027258276939,-0.0030538894115947185,0.009915934367920272
1772807148081619000,7.769618896484375,0.02447860769629478,-0.0005475691464729606,0.012188934500934556
1772807148091550000,7.779550048828125,0.03510287756323814,-0.012094707745686172,0.0043893392664380365
1772807148101482000,7.78948193359375,0.0255278244882822,-0.02070915389386937,0.009334892210108227
1772807148111414000,7.7994140625,0.03540741346776485,-0.011133516297023742,0.013743703361996448
1772807148121346000,7.809345947265625,0.044235447567701335,-0.021440847435593605,0.01713886222562287
1772807148131276800,7.81927685546875,0.03630640813410282,-0.018139120742771773,0.025478765748743897
1772807148141208800,7.829208740234375,0.03810089033544063,-0.023160857894923538,0.020628594904369673
1772807148151140900,7.839140869140625,0.033010873720049856,-0.004835566930286586,0.022755596995702943
1772807148161073000,7.849072998046875,0.026129882034659383,-0.012253021846245974,-0.00045805966553743926
1772807148171004200,7.859004150390625,0.03046761897802353,-0.006150978644099086,0.0013700371110346168
1772807148180936000,7.86893603515625,0.03735036422908306,0.0017971125498414038,0.012083327835146337
1772807148190868000,7.878867919921875,0.029863807865977286,0.008827723572682588,0.006811447280249558
1772807148200800000,7.888800048828125,0.03330255014300346,0.004338540660962462,-0.0043038620732259005
1772807148210731000,7.89873095703125,0.031953473621606825,0.012326196680311112,-0.004612663160916418
1772807148220663000,7.9086630859375,0.026564181798696518,-0.008380308598745613,0.0177143377257511
1772807148230594800,7.9185947265625,0.03494447213113308,-0.00738709631031379,0.019737879442609844
1772807148240526800,7.92852685546875,0.039730537363886834,0.011552125301584601,0.010088071497855707
1772807148250458000,7.9384580078125,0.04062719394266605,0.002951251021027565,0.008217743014753795
1772807148260390100,7.94839013671875,0.03928220907449722,-0.006703260498307645,0.01658974044288043
1772807148270322000,7.958322021484375,0.03165244484841823,-0.008779756245110184,0.0021345460769720374
1772807148280254000,7.96825390625,0.04287409608662128,-0.021736725109629332,0.0021624752635136246
1772807148290185000,7.97818505859375,0.0373357511818409,-0.0025160196752287444,0.00013365458333864806
1772807148300117000,7.988116943359375,0.040027474483847615,-0.007071673685591667,-0.004860441076639108
1772807148310049000,7.998049072265625,0.03404080128967762,-0.01301726595070213,0.011879078533896244
1772807148319980800,8.007980712890625,0.0425683911383152,-0.015195212777983396,0.010910973287257365
1772807148329912000,8.017912109375,0.039276363855600356,-0.010231525956001132,0.005259724326222203
1772807148339844000,8.027843994140625,0.0241641349196434,-0.0014895444380119442,-0.008809283733693883
1772807148349776100,8.037776123046875,0.02102057619690895,0.004566887790430337,-0.0009035201444057748
1772807148359708200,8.047708251953125,0.02311316456198692,0.005425276451744139,0.018071973790694026
1772807148369639000,8.057638916015625,0.023412439769506452,-0.005639485458005219,0.012444735892908646
1772807148379571000,8.067571044921875,0.038676059874892234,0.0036352146971970795,0.006498152680532075
1772807148389503000,8.0775029296875,0.03912263459861278,-0.0016755867957137524,0.0035784293089294802
1772807148399435000,8.08743505859375,0.03029576954245567,0.015623155866470187,-0.0032274787130998446
1772807148409366000,8.097365966796875,0.028200843089818954,-0.005911251604091376,-0.011872735558077692
1772807148419298000,8.107298095703126,0.0362812736928463,0.004067907026037574,-0.0013650184426223858
1772807148429230000,8.11722998046875,0.04331365654766559,0.012338782167248426,0.01386058490704745
1772807148439162000,8.127162109375,0.03762567403912544,0.0035853659397922454,0.021196626883558927
1772807148449094100,8.13709423828125,0.029095746102929112,-0.010619739822298288,0.01769819030854851
1772807148459025000,8.14702490234375,0.029843934121727943,-0.017740403748769312,0.009155110629834234
1772807148468957000,8.15695703125,0.03790156837105751,-0.006796473473403603,0.005084048098907805
1772807148478889000,8.166888916015624,0.017647884893417357,-0.018753325384669006,-0.03740074270945042
1772807148488821000,8.176821044921875,-0.007795768442749976,-0.015919581529777495,-0.0210762884395197
1772807148498752000,8.186751953125,0.11429390317797661,-0.01037564713442698,0.05115041458792984
1772807148508684000,8.19668408203125,-0.007059270861744881,-0.020835867279767988,-0.0071121700927615165
1772807148518616000,8.206615966796875,0.08198562476933002,-0.015943674791418016,0.03783920719195157
1772807148528548000,8.216548095703125,0.038003859701752664,0.0032137926810421047,0.01932992882938124
1772807148538478800,8.226478759765625,0.02875613888502121,-0.002372154225129634,0.032511810757266356
1772807148548411000,8.236410888671875,0.052259764069318766,-0.008100012086331845,0.02531132762681227
1772807148558343000,8.246343017578125,-0.0069815294504165645,0.008505122288502752,-0.01881750862810295
1772807148568274000,8.25627392578125,0.05512801298201084,0.006654434654209763,0.024954312616377136
1772807148578206000,8.2662060546875,0.02176174995303154,0.010527330564800649,0.0011319266393780708
1772807148588138000,8.276137939453125,0.04151566721498966,0.014172189873177558,-0.004605973125225864
