time,seconds_elapsed,z,y,x
1772807140374582000,0.06258203125,-0.0029377329628914595,0.006629140581935644,0.00017017599020618945
1772807140384513000,0.072512939453125,-0.00044048685231246054,0.005164135713130236,0.0003486077766865492
1772807140394445000,0.082445068359375,-0.000723048229701817,0.006472546607255936,-0.0006229133578017354
1772807140404377000,0.092377197265625,-0.0008285093936137855,0.00836711935698986,0.00026312030968256295
1772807140414309000,0.10230908203125,-0.0032538501545786858,0.006647782865911722,0.00011398329661460593
1772807140424240000,0.112240234375,-0.002133458387106657,0.0057468353770673275,0.0011286477092653513
1772807140434172200,0.122172119140625,0.000675377668812871,0.005915147252380848,-0.0019118833588436246
1772807140444104200,0.132104248046875,-0.002228266792371869,0.006332464516162872,0.0005992112564854324
1772807140454036000,0.142035888671875,-0.00063383235828951,0.009070460684597492,0.00041971419705078006
1772807140463967000,0.151967041015625,-0.001651426195167005,0.0055090151727199554,-0.0009390306076966226
1772807140473899000,0.16189892578125,-0.0007076018955558538,0.004430168308317661,-0.001148355077020824
1772807140483831000,0.1718310546875,-0.0009747169679030776,0.00675244489684701,-0.0009704558760859072
1772807140493763300,0.181763427734375,-0.001535046030767262,0.006730873137712479,0.0005906891310587525
1772807140503694000,0.191694091796875,-0.00276169809512794,0.00612154183909297,-0.0019520970527082682
1772807140513626000,0.201626220703125,-0.0003294330381322652,0.007199323270469904,-0.0009286442655138671
1772807140523558100,0.21155810546875,0.00004660531703848392,0.0037001960445195436,-0.0004058657505083829
1772807140533490200,0.221490234375,-0.00033955302205868065,0.006625678390264511,0.001520398654974997
1772807140543421000,0.2314208984375,-0.001198955113068223,0.008894159458577633,0.0001411475386703387
1772807140553353000,0.24135302734375,0.0013781858142465353,0.006739129312336445,-0.002225337317213416
1772807140563285000,0.251284912109375,-0.002403502818197012,0.007213437929749489,0.0015595471486449242
1772807140573217300,0.26121728515625,-0.0008050735923461616,0.005781722720712423,-0.00012383698776829988
1772807140583148000,0.27114794921875,-0.001418932224623859,0.005310609471052885,-0.0019230686593800783
1772807140593080000,0.281080078125,-0.0034879420418292284,0.0068091703578829765,-0.00008974852971732616
1772807140603012000,0.29101220703125,0.0002069276088150218,0.0038360171020030975,-0.000018908443962573074
1772807140612944100,0.300944091796875,0.0002383529208600521,0.005644037388265133,-0.00030413299100473523
1772807140622875000,0.310875,-0.0031092404387891293,0.004649080336093903,-0.00043835630640387535
1772807140632807000,0.320806884765625,-0.0005701828049495816,0.005110339727252722,0.001282312092371285
1772807140642739000,0.330739013671875,-0.00002663161103555467,0.0067545752972364426,-0.0009808422764763236
1772807140652671000,0.3406708984375,0.00007616640505148098,0.005391569808125496,0.003582484321668744
1772807140662602200,0.350602294921875,-0.0011369034182280302,0.006902380846440792,0.0000673779723001644
1772807140672534000,0.360533935546875,-0.0008101335843093693,0.0043563987128436565,-0.0024921861477196217
1772807140682466000,0.370466064453125,-0.0004756405542138964,0.005226986017078161,-0.0010210559703409672
1772807140692398000,0.380398193359375,-0.000431432097684592,0.007506652269512415,-0.0012492889072746038
1772807140702329000,0.3903291015625,0.000529702752828598,0.00401471508666873,-0.0002745719102676958
1772807140712261000,0.40026123046875,0.0011046791914850473,0.005358812864869833,-0.0020511667244136333
1772807140722193000,0.41019287109375,-0.0010404969798400998,0.006749249063432217,0.00011478224041638896
1772807140732125000,0.420125,-0.0016359798610210419,0.0065436530858278275,-0.0024607607629150152
1772807140742056200,0.43005615234375,-0.0001304948964389041,0.004894091282039881,0.0010213222121819854
1772807140751988200,0.43998828125,0.0002956108655780554,0.006243781186640263,-0.00152359448838979
1772807140761920000,0.449919921875,-0.0012452941155061126,0.005446430761367083,-0.0004340952436905354
1772807140771852000,0.45985205078125,0.00007456851017195731,0.00398621940985322,-0.0003046656202059239
1772807140781783000,0.469782958984375,-0.00029827404068782926,0.00669412175193429,0.0009510148083791137
1772807140791715000,0.479715087890625,-0.00005912217602599412,0.0068901302292943,0.00034647725988179445
1772807140801647000,0.489647216796875,0.00039254993316717446,0.004585164599120617,0.000630902883131057
1772807140811579000,0.499578857421875,-0.0016580841038376093,0.00891120359301567,0.0004966795677319169
1772807140821510100,0.50951025390625,0.00018722022650763392,0.001981391804292798,-0.0015912387752905488
1772807140831443000,0.51944287109375,-0.0011675298446789384,0.006795587949454784,-0.00001757686368364375
1772807140841375000,0.529375,-0.0003275688213761896,0.006375607568770647,-0.0009001484140753746
1772807140851307000,0.53930712890625,-0.000833036785479635,0.005753759294748306,-0.0008639294537715614
1772807140861237800,0.54923779296875,-0.0009600695921108127,0.006036853417754173,-0.00038242992013692856
1772807140871169800,0.559169677734375,-0.0007153250626288354,0.007570834364742041,0.0004934837343171239
1772807140881101800,0.569101806640625,-0.0013512879377231002,0.003866909770295024,-0.00036964676110073924
1772807140891033900,0.579033935546875,-0.001460477476939559,0.006837666034698486,0.0002822950773406774
1772807140900964900,0.58896484375,0.0003406183095648885,0.004603540059179068,-0.0014426343841478229
1772807140910897000,0.59889697265625,0.00005299690383253619,0.0074605792760849,-0.0019433086272329092
1772807140920829000,0.608828857421875,0.0002777676854748279,0.00669385539367795,-0.0009688580175861716
1772807140930761000,0.618760986328125,0.0011121360585093498,0.007930893450975418,-0.0019062906503677368
1772807140940691700,0.628691650390625,-0.0013017531018704176,0.005143895745277405,0.00014993596414569765
1772807140950623700,0.638623779296875,0.00047590688336640596,0.004232561681419611,-0.0009992180857807398
1772807140960555800,0.6485556640625,-0.00002956108801299706,0.0062794676050543785,0.000147272803587839
1772807140970487800,0.65848779296875,-0.003581951605156064,0.005697567015886307,-0.0014562164433300495
1772807140980418600,0.66841845703125,0.00006498113361885771,0.006481335032731295,0.0010841728653758764
1772807140990350800,0.678350830078125,-0.0025041704066097736,0.005561213009059429,0.00032091091270558536
1772807141000283000,0.688282958984375,-0.0012876383261755109,0.005035771057009697,-0.00033396040089428425
1772807141010215000,0.69821484375,-0.0032621060963720083,0.005155347287654877,0.0014144048327580094
1772807141020146000,0.70814599609375,-0.00276089902035892,0.007394000422209501,0.0005275722360238433
1772807141030077700,0.71807763671875,-0.001330249011516571,0.0049561429768800735,0.000003994741746282671
1772807141040009700,0.728009765625,-0.0005105279851704836,0.003960120491683483,0.0007632619817741215
1772807141049941800,0.737941650390625,-0.0000756337758502923,0.006479737348854542,-0.00041252365917898715
1772807141059872800,0.747872802734375,-0.002822417998686433,0.004868258256465197,-0.0014415690675377846
1772807141069804800,0.7578046875,0.00006338323146337643,0.008667790330946445,-0.0005331648280844092
1772807141079736800,0.76773681640625,0.00016724651504773647,0.0043982104398310184,0.0010373012628406286
1772807141089668900,0.7776689453125,0.00023329291434492916,0.005992378573864698,-0.001844505313783884
1772807141099600000,0.787599853515625,-0.00043888893560506403,0.006914365105330944,0.0007792409160174429
1772807141109532000,0.797531982421875,0.0007443535141646862,0.004862399306148291,-0.001383512164466083
1772807141119463700,0.807463623046875,0.0001179780374513939,0.0037705034483224154,-0.002436792477965355
1772807141129395700,0.817395751953125,-0.0016793893883004785,0.005161738954484463,0.0011150655336678028
1772807141139326700,0.82732666015625,-0.00008655273268232122,0.0062429821118712425,-0.0005544701125472784
1772807141149258800,0.8372587890625,-0.0013206616276875138,0.00740385428071022,0.0008498146780766547
1772807141159190800,0.847190673828125,0.0013054815353825688,0.008860070258378983,-0.0009395632077939808
1772807141169122800,0.857122802734375,-0.0005089300684630871,0.00884861871600151,0.00003408846168895252
1772807141179053800,0.8670537109375,-0.0014929680619388819,0.006595850922167301,-0.0003818972909357399
1772807141188985900,0.87698583984375,0.000494016392622143,0.006469883490353823,-0.0004213120846543461
1772807141198918000,0.88691796875,-0.0009446232579648495,0.005852562841027975,0.0005675196298398077
1772807141208850000,0.896849853515625,0.0011973571963608265,0.003971039317548275,0.00010626012954162434
1772807141218780700,0.90678076171875,-0.0010993528412654996,0.006732471287250519,-0.001041562296450138
1772807141228712700,0.916712646484375,-0.0015108112711459398,0.006286657880991697,0.0013550163712352514
1772807141238644700,0.926644775390625,-0.0035981968976557255,0.0067721521481871605,-0.0015712650492787361
1772807141248576800,0.93657666015625,-0.0015534218400716782,0.005379585549235344,0.0009246495319530368
1772807141258507800,0.9465078125,-0.0009502158500254154,0.007930094376206398,-0.0026290726382285357
1772807141268439800,0.956439697265625,-0.00019973708549514413,0.006927680689841509,-0.001347293145954609
1772807141278371800,0.966371826171875,-0.0032591766212135553,0.005544701125472784,-0.0004213120846543461
1772807141288303900,0.976303955078125,0.0006056028068996966,0.0070278155617415905,0.000022903184799361043
1772807141298234600,0.986234619140625,0.0005760417552664876,0.006839796435087919,0.0023483755066990852
1772807141308166700,0.996166748046875,-0.0024612934794276953,0.006271477788686752,0.0004958806093782187
1772807141318098700,1.0060986328125,-0.0012191950809210539,0.005799565929919481,0.002581934677436948
1772807141328030700,1.01603076171875,-0.00256355875171721,0.009890447370707989,0.00023995080846361816
1772807141337962000,1.0259619140625,-0.0000476705827168189,0.00680197961628437,-0.0006556702428497374
1772807141347893800,1.035893798828125,-0.0009443568997085094,0.004668521229177713,-0.00011185276525793597
1772807141357825800,1.04582568359375,-0.0010120011866092682,0.00788295641541481,0.0001584580895723775
1772807141367757800,1.0557578125,-0.0006087986403144896,0.005329784471541643,0.0011073424248024821
1772807141377688800,1.065688720703125,-0.000010918960470007733,0.005627791862934828,-0.0009289105655625463
1772807141387620600,1.07562060546875,0.0013872405979782343,0.006419549696147442,-0.0004772384709212929
1772807141397552600,1.085552734375,-0.002698581200093031,0.006986536551266909,-0.0015491608064621687
1772807141407484700,1.095484619140625,-0.0015092133544385433,0.004875182639807463,-0.0016548882704228163
1772807141417416000,1.105416015625,-0.001514539704658091,0.007953796535730362,-0.0007478156476281583
1772807141427348000,1.115347900390625,-0.003120958572253585,0.00567066902294755,0.0006996124284341931
1772807141437279700,1.12527978515625,0.000004261057711119065,0.00506826164200902,0.00009507485083304346
1772807141447211800,1.135211669921875,-0.00061279337387532,0.005835518706589937,0.001281779375858605
1772807141457142800,1.145142822265625,-0.0006641923682764173,0.008526642806828022,0.0026754115242511034
1772807141467074800,1.15507470703125,-0.0004945489927195013,0.0035004590172320604,0.0009914948605000973
1772807141477006800,1.1650068359375,-0.0026205505710095167,0.00669278996065259,0.0006761765689589083
1772807141486938600,1.174938720703125,0.00015419702685903758,0.005130046978592873,0.002615224104374647
1772807141496870000,1.184869873046875,0.0004492752777878195,0.006468551699072123,0.0003070624661631882
1772807141506802000,1.194802001953125,-0.001383778522722423,0.006897853687405586,-0.00005752427750849165
1772807141516734000,1.20473388671875,0.0002798982313834131,0.006069610361009836,-0.00043835630640387535
1772807141526665700,1.214665771484375,0.0005842975224368274,0.006658435333520174,0.001933454885147512
1772807141536596700,1.2245966796875,-0.0005699164466932416,0.005219529382884502,0.0021052288357168436
1772807141546528800,1.23452880859375,0.00005273058923194185,0.004278368316590786,-0.001201618229970336
1772807141556460800,1.244460693359375,-0.0024711471050977707,0.007363640237599611,-0.0007957525085657835
1772807141566392800,1.254392822265625,-0.00039760995423421264,0.005892510060220957,-0.00017976337403524667
1772807141576323800,1.26432373046875,-0.0023425165563821793,0.0065508438274264336,-0.003073554253205657
1772807141586256000,1.274255859375,-0.001401355373673141,0.007822503335773945,0.0015805860748514533
1772807141596188000,1.28418798828125,-0.001038632821291685,0.004765460267663002,0.001439971150830388
1772807141606118700,1.29411865234375,-0.0010812433902174234,0.008273376151919365,-0.0008127967594191432
1772807141616050700,1.30405078125,0.001315068919211626,0.0054427022114396095,0.00046152580762282014
1772807141625982700,1.313982666015625,-0.0036101811565458775,0.00561181316152215,0.0002873550693038851
1772807141635914800,1.323914794921875,-0.000996554852463305,0.007322094868868589,0.0007613977650180459
1772807141645846800,1.3338466796875,-0.002511360915377736,0.00631861574947834,-0.0008088020258583128
1772807141655777800,1.34377783203125,-0.0009478190331719816,0.00558251840993762,0.0003312972257845104
1772807141665709800,1.353709716796875,-0.0024141555186361074,0.007741276640444994,0.00007376955909421667
1772807141675641900,1.363641845703125,-0.0010338390711694956,0.00754899624735117,-0.001704689348116517
1772807141685572900,1.37357275390625,-0.002326537622138858,0.007453921716660261,-0.000943025341257453
1772807141695505000,1.3835048828125,-0.0011249192757532,0.006192914675921202,0.0015536881983280182
1772807141705436700,1.393436767578125,-0.0002463423879817128,0.004335093777626753,-0.0002961435238830745
1772807141715368700,1.40336865234375,-0.001758218975737691,0.005891977343708277,-0.0013555489713326097
1772807141725299700,1.4132998046875,-0.0004913532175123692,0.00549356872215867,-0.001466869143769145
1772807141735232000,1.42323193359375,-0.002326537622138858,0.006434463430196047,0.00015925703337416053
1772807141745163800,1.433163818359375,-0.00011984224693151191,0.006442452780902386,-0.0014562164433300495
1772807141755095800,1.443095703125,-0.0002364887041039765,0.005684250965714455,0.0007281082216650248
1772807141765026800,1.45302685546875,-0.002633067313581705,0.005411809775978327,0.00023622238950338215
1772807141774958800,1.462958740234375,-0.0010863033821806312,0.006610498297959566,0.0010586065473034978
1772807141784891000,1.472890869140625,-0.0015403723809868097,0.006366819143295288,0.00016831177345011383
1772807141794822700,1.48282275390625,-0.0005904228310100734,0.009576993063092232,-0.0004825647920370102
1772807141804753700,1.492753662109375,-0.0013190637109801173,0.007239803206175566,0.0016024239594116807
1772807141814685700,1.502685791015625,0.0012000204296782613,0.0037350833881646395,-0.00039787625428289175
1772807141824618000,1.512617919921875,0.000025300030756625347,0.0049153962172567844,0.0006788397440686822
1772807141834549500,1.522549560546875,-0.0010956244077533484,0.005635248962789774,0.0002985403698403388
1772807141844480500,1.53248046875,0.0001073253879440017,0.005546299275010824,-0.0004934837343171239
1772807141854412300,1.542412353515625,-0.0004934837343171239,0.0035092474427074194,-0.0002460760879330337
1772807141864344300,1.55234423828125,0.001814677962101996,0.005435245577245951,-0.0014516890514642
1772807141874276400,1.5622763671875,0.001005343277938664,0.007707986980676651,0.00027031084755435586
1772807141884207400,1.572207275390625,0.0007499461644329131,0.005662412848323584,0.00020346550445538014
1772807141894139600,1.5821396484375,0.00033209618413820863,0.007745005190372467,-0.0005749764968641102
1772807141904071400,1.592071533203125,-0.001282312092371285,0.006145243998616934,0.0006671218434348702
1772807141914003500,1.60200341796875,-0.002804841147735715,0.005626993253827095,-0.0009238505735993385
1772807141923934500,1.6119345703125,-0.00005832322858623229,0.007407582364976406,0.0005672533297911286
1772807141933866500,1.621866455078125,0.0008069378091022372,0.008636897429823875,0.003736414946615696
1772807141943798300,1.63179833984375,-0.0015595471486449242,0.005288239102810621,0.0014817827614024282
1772807141953730300,1.641730224609375,0.0006199838826432824,0.007152185309678316,0.0009435579413548112
1772807141963661300,1.651661376953125,-0.002133192028850317,0.00754979532212019,-0.00040772996726445854
1772807141973593600,1.661593505859375,0.0015193333383649588,0.004658667836338282,0.0015747271245345473
1772807141983525600,1.671525634765625,-0.0035515916533768177,0.006428604479879141,0.0010468886466696858
1772807141993457400,1.68145751953125,-0.0005877596559002995,0.007695470005273819,0.0002897519152611494
1772807142003388400,1.691388427734375,-0.000013582121027866378,0.002712962217628956,0.0008074704091995955
1772807142013320400,1.701320556640625,-0.0008942894637584686,0.0062304651364684105,-0.002189118415117264
1772807142023252500,1.71125244140625,0.0003193130251020193,0.008615326136350632,0.0029768813401460648
1772807142033184500,1.7211845703125,-0.002098038326948881,0.005316202063113451,-0.00043010051012970507
1772807142043115300,1.731115234375,-0.0014476943761110306,0.006405967753380537,0.0016144082183018327
1772807142053047300,1.74104736328125,-0.002630137838423252,0.006317018065601587,-0.0009392969077453017
1772807142062979600,1.7509794921875,-0.0025856629945337772,0.0049529471434652805,0.0022178804501891136
1772807142072911600,1.76091162109375,0.00039468047907575965,0.0039145806804299355,0.001401355373673141
1772807142082842400,1.77084228515625,0.0004037352045997977,0.006489058490842581,-0.0021105550695210695
1772807142092774400,1.7807744140625,-0.00005965480886516161,0.005702094174921513,0.0006138586322776973
1772807142102706400,1.79070654296875,-0.0024927188642323017,0.006309827324002981,0.0023228090722113848
1772807142112638500,1.800638427734375,-0.0013859090395271778,0.00555135915055871,-0.0013662016717717052
1772807142122569200,1.8105693359375,-0.001466336427256465,0.005973736755549908,-0.0007930893916636705
1772807142132501200,1.820501220703125,-0.002427204977720976,0.005222458858042955,0.00003062635369133204
1772807142142433300,1.830433349609375,0.0003294330381322652,0.005572398193180561,-0.0014804512029513717
1772807142152365600,1.840365478515625,-0.0008333030855283141,0.0057255299761891365,0.0012040151050314307
1772807142162296600,1.850296630859375,-0.00009507485083304346,0.004689826630055904,0.0015068164793774486
1772807142172228400,1.860228271484375,-0.003232811111956835,0.006452572997659445,0.0005470133037306368
1772807142182160400,1.870160400390625,-0.0010420948965474963,0.006740460637956858,0.001306280493736267
1772807142192092400,1.880092529296875,-0.0016607472207397223,0.006989998742938042,-0.00011078749957960099
1772807142202023400,1.8900234375,0.0014514228096231818,0.005815012380480766,0.0034996599424630404
1772807142211955200,1.899955078125,-0.000016777914424892515,0.008133027702569962,-0.0013185309944674373
1772807142221887200,1.90988720703125,-0.00040080572944134474,0.007435013074427843,0.001982190879061818
1772807142231819300,1.9198193359375,-0.0002972087822854519,0.005261607468128204,-0.00020959076937288046
1772807142241750500,1.92975048828125,0.0005997438565827906,0.004089017398655415,0.0014868428697809577
1772807142251682600,1.9396826171875,0.0004034689045511186,0.005702626891434193,-0.0004082625964656472
1772807142261614300,1.9496142578125,-0.0017307883827015758,0.005840844940394163,-0.0020716730505228043
1772807142271546400,1.95954638671875,-0.0007009439868852496,0.006555637344717979,-0.0009736517095007002
1772807142281477400,1.969477294921875,-0.0008370315190404654,0.005208876915276051,-0.0014026869321241975
1772807142291409400,1.979409423828125,-0.0013129384024068713,0.006502640433609486,-0.0022027005907148123
1772807142301341400,1.989341552734375,-0.0025569009594619274,0.005776662845164537,-0.0006237123161554337
1772807142311273200,1.999273193359375,0.001145159243606031,0.006169745232909918,0.0006740460521541536
1772807142321204500,2.00920458984375,-0.0009422263829037547,0.007260842248797417,-0.0020365193486213684
1772807142331136500,2.019136474609375,-0.0035891421139240265,0.007843808270990849,0.0016596820205450058
1772807142341068500,2.029068603515625,-0.00005805691034765914,0.006111688446253538,-0.0003126551164314151
1772807142351000300,2.039000244140625,-0.0033305492252111435,0.007905594073235989,-0.0009126652730628848
1772807142360931300,2.048931396484375,-0.000313986703986302,0.005910885985940695,0.0023883229587227106
1772807142370863400,2.05886328125,-0.0011800467036664486,0.0067599015310406685,-0.0020548950415104628
1772807142380795400,2.06879541015625,-0.0008780442294664681,0.003942809998989105,0.0018967032665386796
1772807142390727400,2.0787275390625,0.00010572749306447804,0.004776645917445421,-0.001990979304537177
1772807142400658400,2.088658447265625,-0.0005099953268654644,0.0057066213339567184,0.0025651566684246063
1772807142410590500,2.098590576171875,0.0013763216556981206,0.006786799523979425,0.0007344998302869499
1772807142420522500,2.1085224609375,0.0013219931861385703,0.0044109937734901905,0.0030178942251950502
1772807142430454500,2.11845458984375,-0.0006343649583868682,0.004973985720425844,-0.0028091021813452244
1772807142440385300,2.12838525390625,-0.0009017463307827711,0.007165767718106508,0.0014879080699756742
1772807142450317300,2.1383173828125,-0.0011030812747776508,0.004808870144188404,-0.002394448034465313
1772807142460249300,2.148249267578125,-0.0010351707460358739,0.0062400526367127895,0.0004415521107148379
1772807142470181400,2.158181396484375,-0.0011171960504725575,0.005393433850258589,0.000830107310321182
1772807142480112400,2.1681123046875,0.0004985437262803316,0.00495054991915822,-0.00042583944741636515
1772807142490044400,2.17804443359375,0.0012751214671880007,0.007882158271968365,-0.002238120650872588
1772807142499976400,2.1879765625,-0.0033968619536608458,0.00746271014213562,-0.0020447750575840473
1772807142509908500,2.197908447265625,-0.0007781756576150656,0.00621208967640996,0.0014274542918428779
1772807142519839500,2.207839599609375,-0.0003038666909560561,0.00595429539680481,-0.0003379551344551146
1772807142529771300,2.217771240234375,-0.0027475832030177116,0.006487460341304541,-0.00010412959818495438
1772807142539703300,2.227703369140625,0.00036245622322894633,0.0059745353646576405,-0.0010753844399005175
1772807142549635300,2.23763525390625,-0.000969656917732209,0.005365736782550812,0.00019148127466905862
1772807142559566600,2.247566650390625,-0.0010128001449629664,0.005142297595739365,0.00033928672201000154
1772807142569498600,2.25749853515625,-0.0010213222121819854,0.004171042703092098,-0.0003989415417890996
1772807142579430400,2.267430419921875,-0.001288171042688191,0.006586796138435602,0.00037630466977134347
1772807142589362400,2.277362548828125,-0.0026993800420314074,0.008835835382342339,-0.000477504770969972
1772807142599293400,2.28729345703125,-0.0009741843095980585,0.005151618737727404,-0.0015821839915588498
1772807142609225500,2.2972255859375,-0.004628307651728392,0.0055228634737432,-0.002034655073657632
1772807142619157200,2.3071572265625,-0.0013049489352852106,0.006158826407045126,0.00039974047103896737
1772807142629088500,2.317088623046875,0.001032507512718439,0.004637895151972771,0.002210423583164811
1772807142639020500,2.3270205078125,-0.0030210898257791996,0.007939415983855724,0.0013542174128815532
1772807142648952600,2.33695263671875,0.00020639497961383313,0.004110589157789946,0.0011030812747776508
1772807142658884600,2.346884521484375,0.00247594085521996,0.006773750297725201,0.0003755057114176452
1772807142668815400,2.3568154296875,-0.0007997472421266139,0.00675244489684701,0.0025688852183520794
1772807142678747400,2.366747314453125,-0.00355878216214478,0.005884254351258278,-0.002499643014743924
1772807142688679400,2.376679443359375,-0.0010684601729735732,0.006448045372962952,0.0006471481174230576
1772807142698611500,2.386611572265625,-0.0006580671179108322,0.004978513345122337,-0.0007590008899569511
1772807142708542500,2.39654248046875,-0.0019433086272329092,0.005016862880438566,0.00037923414492979646
1772807142718474500,2.406474609375,-0.0017931063193827868,0.004604605492204428,-0.000743554555810988
1772807142728406500,2.416406494140625,-0.0017507621087133884,0.004575044382363558,-0.0004719121498055756
1772807142738338600,2.426338623046875,-0.000143544384627603,0.007200122345238924,-0.001359543763101101
1772807142748269300,2.436269287109375,-0.0025502429343760014,0.007798002101480961,0.0008077367674559355
1772807142758201300,2.446201416015625,0.00005725796290789731,0.007095726206898689,0.0002378202771069482
1772807142768133400,2.45613330078125,-0.0017190704820677638,0.00421391986310482,-0.0014817827614024282
1772807142778065400,2.4660654296875,-0.002554770326241851,0.008562595583498478,-0.0000023968450477696024
1772807142787996400,2.475996337890625,-0.0015214639715850353,0.007000118959695101,-0.00037470675306394696
1772807142797928400,2.485928466796875,-0.001499625970609486,0.007173490710556507,0.0005616606795229018
1772807142807860500,2.495860595703125,-0.0004319647268857807,0.007791876792907715,-0.0006607302348129451
1772807142817792500,2.50579248046875,0.00023968449386302382,0.005254683084785938,0.0013198626693338156
1772807142827723500,2.5157236328125,-0.002502039773389697,0.005859220866113901,-0.0002463423879817128
1772807142837655600,2.525655517578125,0.001904160133562982,0.005904760677367449,0.0008729841792955995
1772807142847587300,2.53558740234375,-0.0003384877636563033,0.007529022637754679,0.0006317017832770944
1772807142857519400,2.545519287109375,0.0002402171230642125,0.006317284423857927,-0.0010783139150589705
1772807142867450400,2.555450439453125,-0.0023238742724061012,0.006900250446051359,-0.00043649208964779973
1772807142877382400,2.56538232421875,0.0004290352517273277,0.005021922755986452,-0.0006852313526906073
1772807142887314400,2.575314453125,-0.0015140071045607328,0.004803011193871498,0.0018362496048212051
1772807142897246500,2.58524658203125,0.000150202278746292,0.00387383415363729,-0.0012783173006027937
1772807142907177500,2.595177490234375,-0.0014447649009525776,0.007375890854746103,0.0011552792275324464
1772807142917109500,2.605109619140625,0.0005155879771336913,0.004749215207993984,0.0011427623685449362
1772807142927041500,2.61504150390625,-0.0016373114194720984,0.005635248962789774,0.00018908442871179432
1772807142936973600,2.6249736328125,-0.00145222176797688,0.008045942522585392,0.00022796659322921187
1772807142946904300,2.634904296875,-0.0026325348298996687,0.008006527088582516,-0.00039228363311849535
1772807142956836400,2.64483642578125,-0.0008711199625395238,0.005972671322524548,-0.0008905610884539783
1772807142966768400,2.654768310546875,-0.0010463559301570058,0.00506826164200902,-0.0011954930378124118
1772807142976700700,2.66470068359375,0.0004141215467825532,0.006931409239768982,0.0010634001810103655
1772807142986631400,2.67463134765625,-0.0011763182701542974,0.006163087207823992,-0.0011906992876902223
1772807142996563500,2.6845634765625,-0.001142496126703918,0.0052352421917021275,-0.000248472933890298
1772807143006495500,2.69449560546875,-0.0013946974650025368,0.005586779210716486,0.0010327738709747791
1772807143016427500,2.704427490234375,0.000371777277905494,0.005792641546577215,0.00233266269788146
1772807143026358300,2.714358154296875,-0.0014056164072826505,0.006226470693945885,0.0015017564874142408
1772807143036290300,2.724290283203125,-0.0016769925132393837,0.009006810374557972,0.0007313040550798178
1772807143046222300,2.734222412109375,-0.001659948262386024,0.006207828409969807,0.002719087526202202
1772807143056154400,2.744154296875,-0.0009406284661963582,0.006022472400218248,-0.0007494135061278939
1772807143066085600,2.754085693359375,-0.0006924218614585698,0.006047772243618965,0.0007752461824566126
1772807143076017400,2.764017333984375,-0.00012863067968282849,0.00751916877925396,0.0024674187880009413
1772807143085949400,2.773949462890625,0.000008788431841821875,0.006677077617496252,0.0016879114555194974
1772807143095881500,2.783881591796875,-0.002377936616539955,0.004098871257156134,0.0016226640436798334
1772807143105812500,2.7938125,-0.0024381240364164114,0.003959587775170803,-0.00006684534309897572
1772807143115744300,2.803744140625,-0.0012658004416152835,0.007865113206207752,-0.00013156015484128147
1772807143125676300,2.81367626953125,-0.00005832322858623229,0.005496231839060783,0.0014482269762083888
1772807143135608300,2.8236083984375,-0.000966727442573756,0.007670170161873102,-0.00008602010348113254
1772807143145539600,2.83353955078125,-0.0013851100811734796,0.006117547396570444,-0.0021054951939731836
1772807143155471600,2.8434716796875,-0.00005406216951087117,0.00851226132363081,-0.0022362563759088516
1772807143165403400,2.8534033203125,-0.000687361869495362,0.0076035913079977036,0.0012807141756638885
1772807143175335400,2.86333544921875,-0.00041571943438611925,0.005012335255742073,0.001278849900700152
1772807143185266400,2.873266357421875,0.0005448827287182212,0.007229683455079794,0.0015550197567790747
1772807143195198500,2.883198486328125,-0.0026051041204482317,0.00675217853859067,-0.00036485306918621063
1772807143205130500,2.893130615234375,0.0002263686910737306,0.0062549663707613945,-0.0007938882918097079
1772807143215062300,2.903062255859375,-0.0004471447318792343,0.005455485545098782,0.000017310547264060006
1772807143224993500,2.91299365234375,-0.0022714100778102875,0.003915379289537668,0.001264468883164227
1772807143234925600,2.922925537109375,-0.002787264296784997,0.005005411338061094,0.0009134642314165831
1772807143244857600,2.932857666015625,-0.0010958907660096884,0.005852296482771635,-0.0009739180095493793
1772807143254789400,2.942789306640625,-0.0009776464430615306,0.005914880894124508,-0.00006764429417671636
1772807143264720400,2.952720458984375,-0.001514539704658091,0.007527158595621586,-0.0000929443194763735
1772807143274652400,2.96265234375,-0.001564873498864472,0.00854315422475338,0.0005062668933533132
1772807143284584400,2.97258447265625,-0.0003046656202059239,0.00481472909450531,-0.00021385183208622038
1772807143294516500,2.9825166015625,-0.000016245283404714428,0.0046850331127643585,0.0001661812566453591
1772807143304447500,2.992447509765625,-0.0005182511522434652,0.004388090688735247,0.0014048174489289522
1772807143314379500,3.002379638671875,-0.0010908307740464807,0.007413707673549652,0.000028495824153651483
1772807143324311600,3.0123115234375,-0.0013579458463937044,0.005826197564601898,-0.00007882956560933962
1772807143334242600,3.02224267578125,-0.001044491771608591,0.004681038204580545,0.000024767397917457856
1772807143344174300,3.03217431640625,-0.0006431533838622272,0.00669305631890893,0.0020780644845217466
1772807143354106400,3.0421064453125,-0.000723048229701817,0.007231014780700207,0.002597114769741893
1772807143364038400,3.052038330078125,-0.0035268242936581373,0.005025118589401245,-0.00046046054922044277
1772807143373969700,3.0619697265625,-0.003037335118278861,0.004478904418647289,-0.0002460760879330337
1772807143383901400,3.0719013671875,-0.00026285400963388383,0.003941478207707405,0.00006444849714171141
1772807143393833500,3.08183349609375,-0.0008604673203080893,0.007051517721265554,0.0012889700010418892
1772807143403765500,3.091765625,-0.002323608146980405,0.005598763469606638,-0.00011105381418019533
1772807143413696500,3.101696533203125,-0.0018847191240638494,0.006171875633299351,0.0011906992876902223
1772807143423628500,3.111628662109375,-0.0041396175511181355,0.005784652195870876,0.0013145363191142678
1772807143433560300,3.121560302734375,0.00046072687837295234,0.006681604776531458,0.00033928672201000154
1772807143443492400,3.131492431640625,-0.0015712650492787361,0.007638212293386459,-0.0001174454009742476
1772807143453423600,3.141423583984375,0.00018429075134918094,0.005877862684428692,0.000313986703986302
1772807143463355600,3.151355712890625,0.00145195540972054,0.004566255956888199,0.00202240445651114
1772807143473287700,3.16128759765625,-0.002019741339609027,0.006870422977954149,0.0010458233300596476
1772807143483219500,3.171219482421875,-0.0006578007596544921,0.005905559752136469,-0.00016325176693499088
1772807143493150500,3.181150390625,-0.0014642059104517102,0.006617955397814512,-0.0006407565670087934
1772807143503082500,3.19108251953125,-0.0007949535502120852,0.004017644561827183,0.0009688580175861716
1772807143513014500,3.2010146484375,-0.003290601773187518,0.005533249583095312,-0.0014809839194640517
1772807143522946300,3.2109462890625,-0.0004114583716727793,0.004914331249892712,0.00031185615807771683
1772807143532877600,3.220877685546875,-0.0005573995877057314,0.007808920927345753,0.00043010051012970507
1772807143542809600,3.2308095703125,-0.00019414443522691727,0.007286142557859421,0.001568069215863943
1772807143552741600,3.24074169921875,0.0014231932582333684,0.0057678744196891785,0.0010229201288893819
1772807143562673700,3.250673583984375,-0.0005954828229732811,0.005145227070897818,-0.0006817692192271352
1772807143572604400,3.2606044921875,0.0004620584368240088,0.0062371231615543365,0.0013811152894049883
1772807143582536400,3.270536376953125,-0.002174204681068659,0.006274673622101545,0.0006785734440200031
1772807143592468500,3.280468505859375,-0.00025779398856684566,0.006147641222923994,-0.0024708807468414307
1772807143602400500,3.290400390625,-0.00040480049210600555,0.0037792918737977743,-0.0017574200173839927
1772807143612331300,3.300331298828125,-0.0009129316313192248,0.00577879324555397,0.00021198761533014476
1772807143622263600,3.310263671875,-0.0021470405627042055,0.004942027851939201,0.0013672668719664216
1772807143632195600,3.320195556640625,-0.0017931063193827868,0.0068214209750294685,0.0012652678415179253
1772807143642127600,3.330127685546875,-0.0012093414552509785,0.004735899157822132,-0.00010173275222769007
1772807143652058400,3.340058349609375,-0.0004362257895991206,0.0060179452411830425,0.0003057308786083013
1772807143661990400,3.349990478515625,-0.000728907180018723,0.005379585549235344,0.0006801713607273996
1772807143671922400,3.35992236328125,-0.0022748722694814205,0.005561745725572109,0.0013795174891129136
1772807143681854500,3.3698544921875,-0.0003123887872789055,0.007710383739322424,-0.0028184233233332634
1772807143691785500,3.379785400390625,-0.0021281319204717875,0.009765544906258583,-0.001654089312069118
1772807143701717500,3.389717529296875,-0.0015182681381702423,0.004874117206782103,-0.00016591492749284953
1772807143711649500,3.3996494140625,-0.0021851237397640944,0.004489823244512081,-0.0012253203894942999
1772807143721581600,3.40958154296875,-0.003126284806057811,0.004224305972456932,0.00018801917030941695
1772807143731512600,3.4195126953125,-0.0017736653098836541,0.006042712368071079,-0.0007976167253218591
1772807143741444400,3.4294443359375,-0.0014005564153194427,0.004899683874100447,0.0003632551815826446
1772807143751376400,3.43937646484375,0.00045327001134864986,0.002800047630444169,0.000025566347176209092
1772807143761308400,3.449308349609375,-0.0012719257501885295,0.007381217088550329,0.0009238505735993385
1772807143771239400,3.459239501953125,-0.0014980280539020896,0.006476807873696089,0.0013590110465884209
1772807143781171500,3.46917138671875,-0.000026897927455138415,0.004908738657832146,0.0001310275256400928
1772807143791103500,3.479103515625,-0.0014476943761110306,0.007385478354990482,-0.00015632755821570754
1772807143801035500,3.489035400390625,-0.0031196267809718847,0.005034972447901964,0.0004974784678779542
1772807143810966500,3.498966552734375,-0.0014287859667092562,0.003826429834589362,0.0004601942200679332
1772807143820898600,3.508898681640625,-0.0013065468519926071,0.006070143077522516,0.00242134602740407
1772807143830830600,3.51883056640625,-0.0017800568602979183,0.006178000941872597,-0.00019201391842216253
1772807143840762600,3.5287626953125,-0.001190166687592864,0.005633917171508074,-0.0011004181578755379
1772807143850693600,3.538693603515625,-0.00009986854274757206,0.0054573495872318745,0.0006048039067536592
1772807143860625700,3.548625732421875,0.002892192918807268,0.0075577846728265285,0.00009454221435589716
1772807143870557700,3.5585576171875,0.0016311861108988523,0.006353769451379776,0.001213602488860488
1772807143880489500,3.568489501953125,-0.0032466596458107233,0.007053382229059935,-0.0020847225096076727
1772807143890420700,3.578420654296875,-0.002014681464061141,0.007789213676005602,0.0005075985100120306
1772807143900352800,3.588352783203125,-0.0012423646403476596,0.005343632772564888,-0.0014282532501965761
1772807143910284800,3.598284912109375,-0.0008343683439306915,0.005681321490556002,-0.0026082999538630247
1772807143920216600,3.608216552734375,-0.0018559569725766778,0.00526586826890707,0.0022738068364560604
1772807143930147600,3.618147705078125,0.0004324973560869694,0.0068057081662118435,-0.0015014902455732226
1772807143940079600,3.62807958984375,0.0000018642127770363004,0.004860801622271538,-0.0007006776868365705
1772807143950011600,3.63801171875,-0.0013145363191142678,0.005254683084785938,-0.0009424926829524338
1772807143959943700,3.647943603515625,-0.004652009811252356,0.004807804711163044,0.0005358280031941831
1772807143969874700,3.657874755859375,-0.0006567355012521148,0.005539907608181238,-0.0002668487431947142
1772807143979806700,3.667806640625,-0.0015867113834246993,0.005963616538792849,-0.00048363005043938756
1772807143989738800,3.67773876953125,-0.0015622102655470371,0.006354035809636116,-0.00025060345069505274
1772807143999670800,3.6876708984375,-0.0025209481827914715,0.006393983494490385,0.0017174725653603673
1772807144009601500,3.6976015625,0.0003043993201572448,0.004545749630779028,-0.00014327807002700865
1772807144019533600,3.707533447265625,-0.00040480049210600555,0.006195577792823315,0.0014929680619388819
1772807144029465600,3.717465576171875,-0.0016871124971657991,0.006227003410458565,-0.0013819142477586865
1772807144039397600,3.727397705078125,-0.002329200739040971,0.007466970942914486,-0.0007339671719819307
1772807144049328600,3.73732861328125,-0.0009653958841226995,0.0032858080230653286,-0.0008546083699911833
1772807144059260700,3.7472607421875,-0.0017781927017495036,0.005890379659831524,0.0002002697146963328
1772807144069192700,3.757192626953125,0.000984570593573153,0.00830773077905178,-0.0009867012267932296
1772807144079124700,3.767124755859375,-0.002404035534709692,0.0049124667420983315,-0.00031372037483379245
1772807144089055700,3.7770556640625,-0.0025065671652555466,0.0054911719635128975,-0.00017230652156285942
1772807144098987500,3.786987548828125,-0.000005592638444795739,0.004253867082297802,-0.0009334379574283957
1772807144108919600,3.79691943359375,-0.0028818065766245127,0.008411860093474388,-0.0012916331179440022
1772807144118851600,3.8068515625,-0.001178182428702712,0.003790477057918906,0.0007166566210798919
1772807144128782800,3.816782958984375,-0.0021339908707886934,0.006484797224402428,-0.0008759136544540524
1772807144138715000,3.82671484375,0.0003259709046687931,0.004543086513876915,0.0015755260828882456
1772807144148646700,3.836646728515625,-0.0015731292078271508,0.00637800432741642,-0.00007776429993100464
1772807144158578700,3.84657861328125,0.001555552356876433,0.004452006425708532,-0.00033928672201000154
1772807144168509700,3.856509765625,-0.0019118833588436246,0.005694371182471514,-0.00205223192460835
1772807144178441700,3.866441650390625,0.0006282397080212831,0.0072957295924425125,-0.00001757686368364375
1772807144188373500,3.87637353515625,0.0015161376213654876,0.005050152540206909,-0.00011691277177305892
1772807144198305500,3.886305419921875,0.0011081412667408586,0.006129265297204256,0.0021576930303126574
1772807144208236800,3.89623681640625,-0.0012069445801898837,0.003828826593235135,0.0012716593919321895
1772807144218168800,3.9061689453125,-0.000648479734081775,0.007696269080042839,0.0005677859298884869
1772807144228100900,3.916100830078125,-0.0010748518398031592,0.005751096177846193,-0.000892425247002393
1772807144238032600,3.92603271484375,0.0011150655336678028,0.006463225465267897,-0.00019387812062632293
1772807144247963600,3.935963623046875,0.001107076066546142,0.004266916774213314,0.00031318774563260376
1772807144257895700,3.945895751953125,0.0001174454009742476,0.0037491980474442244,0.0013395700370892882
1772807144267827700,3.95582763671875,-0.0005542038124985993,0.007034739945083857,-0.0023068301379680634
1772807144277759700,3.965759765625,-0.0003579288604669273,0.005929794628173113,0.0017797905020415783
1772807144287690800,3.975690673828125,-0.0019355855183675885,0.0070613715797662735,-0.00013768543431069702
1772807144297621800,3.985621826171875,0.00007137271313695237,0.0067543089389801025,-0.00034461304312571883
1772807144307552500,3.995552490234375,-0.0013638047967106104,0.00606348505243659,-0.001421861699782312
1772807144317484500,4.005484619140625,0.0016029566759243608,0.006590791046619415,0.0013289173366501927
1772807144327416600,4.01541650390625,-0.00009241169027518481,0.004260525107383728,0.0006388923502527177
1772807144337348600,4.0253486328125,0.0011795139871537685,0.0046480149030685425,-0.0009664611425250769
1772807144347280000,4.03527978515625,0.0004005394293926656,0.005786782596260309,0.0003802994033321738
1772807144357211600,4.045211669921875,0.0003611246356740594,0.007148456759750843,0.0001984054979402572
1772807144367143700,4.055143798828125,0.0002516687090974301,0.004475175868719816,-0.0036823528353124857
1772807144377075700,4.06507568359375,-0.0010996191995218396,0.005400890484452248,-0.0003020024741999805
1772807144387006700,4.0750068359375,-0.0011699266033247113,0.007405185606330633,-0.0004985437262803316
1772807144396938500,4.0849384765625,-0.0021230720449239016,0.005083175376057625,-0.0005502090789377689
1772807144406870500,4.09487060546875,-0.0010151970200240612,0.006819290108978748,0.0009158611064776778
1772807144416802600,4.104802490234375,-0.001820270554162562,0.006055229343473911,0.0015595471486449242
1772807144426733800,4.11473388671875,-0.00017550231132190675,0.005638444796204567,0.0005073322099633515
1772807144436665900,4.124665771484375,-0.0036658411845564842,0.0075663067400455475,-0.0018247979460284114
1772807144446597600,4.13459765625,-0.0018399780383333564,0.0038695731200277805,0.0011864382540807128
1772807144456529700,4.14452978515625,-0.0024668860714882612,0.004048004746437073,-0.0024865935556590557
1772807144466460700,4.154460693359375,0.0007997472421266139,0.005212604999542236,0.0008314388687722385
1772807144476392700,4.164392822265625,-0.0008279767935164273,0.005449360236525536,0.0008050735923461616
1772807144486324700,4.17432470703125,-0.0001536643976578489,0.00560968229547143,0.0018663433147594333
1772807144496256500,4.184256591796875,0.0008407599525526166,0.004777444526553154,-0.0008713863207958639
1772807144506187800,4.194187744140625,-0.003169161733239889,0.006795854307711124,0.0009867012267932296
1772807144516119800,4.204119873046875,0.0009171926649287343,0.006432066671550274,0.0007723167072981596
1772807144526051800,4.2140517578125,-0.0017070862231776118,0.0061535001732409,-0.00013369068619795144
1772807144535983600,4.223983642578125,-0.0008042746339924634,0.005447496194392443,-0.0006508765509352088
1772807144545914600,4.23391455078125,-0.0005198490689508617,0.0041247038170695305,-0.0014080132823437452
1772807144555846700,4.2438466796875,-0.0013084110105410218,0.006333795841783285,0.0009526127250865102
1772807144565778700,4.25377880859375,0.0006122607155703008,0.004588626325130463,-0.0031457259319722652
1772807144575710700,4.263710693359375,-0.00029081720276735723,0.0036250948905944824,0.00030067088664509356
1772807144585641700,4.273641845703125,0.0005078648100607097,0.006104764062911272,0.0010671286145225167
1772807144595573800,4.28357373046875,-0.0009749832679517567,0.007521831896156073,-0.0012391688069328666
1772807144605505800,4.293505859375,0.00011211907985853031,0.007119694724678993,0.00048416267964057624
1772807144615437800,4.303437744140625,-0.0006210491410456598,0.006368683185428381,-0.0013603427214547992
1772807144625368600,4.31336865234375,0.0002966761530842632,0.005203284323215485,0.00047617321251891553
1772807144635300600,4.323300537109375,-0.00041758365114219487,0.006843524985015392,-0.0003683151735458523
1772807144645232600,4.333232666015625,-0.00014993596414569765,0.006324741058051586,-0.002484462922438979
1772807144655164700,4.34316455078125,0.000222373942960985,0.005951632279902697,-0.0024461133871227503
1772807144665096700,4.3530966796875,-0.0012980246683582664,0.00427357479929924,0.0005046690348535776
1772807144675028500,4.363028564453125,0.0015712650492787361,0.007815312594175339,0.0013845774810761213
1772807144684959700,4.372959716796875,-0.0015646071406081319,0.006237922236323357,-0.0013883059145882726
1772807144694891800,4.382891845703125,-0.0029944581910967827,0.007922371849417686,-0.0003760383406188339
1772807144704823800,4.39282373046875,0.0013768542557954788,0.007704524789005518,-0.0006697850185446441
1772807144714755800,4.402755859375,-0.0012977584265172482,0.006198507267981768,-0.001184307737275958
1772807144724686600,4.4126865234375,0.0013424995122477412,0.005819273181259632,-0.002561428351327777
1772807144734618600,4.42261865234375,-0.001067661214619875,0.006388124544173479,-0.0005760417552664876
1772807144744550700,4.432550537109375,-0.0019108180422335863,0.0057284594513475895,0.0002271676348755136
1772807144754482700,4.442482666015625,-0.0017725999932736158,0.006079730577766895,0.0010266485624015331
1772807144764413700,4.45241357421875,0.0006133259739726782,0.003942543640732765,-0.0008269115351140499
1772807144774345700,4.462345703125,-0.001731853699311614,0.003760383464396,0.000461259507574141
1772807144784277800,4.47227783203125,-0.0006969492533244193,0.006579339504241943,0.002039981307461858
1772807144794209800,4.482209716796875,-0.001324123702943325,0.006858705077320337,-0.0003206445835530758
1772807144804140500,4.492140625,-0.001207743538543582,0.004226702731102705,-0.0004346278728917241
1772807144814072600,4.502072509765625,-0.001838912721723318,0.006287456955760717,-0.0016263924771919847
1772807144824004600,4.512004638671875,-0.002609365154057741,0.007947937585413456,0.0014655375853180885
1772807144833936600,4.5219365234375,-0.00046685212873853743,0.007553790230304003,-0.0014333132421597838
1772807144843867400,4.531867431640625,-0.0012626046082004905,0.007137005217373371,0.0011938951211050153
1772807144853799400,4.54179931640625,-0.000365918327588588,0.0059479037299752235,0.0007070692372508347
1772807144863731500,4.5517314453125,-0.00020532972121145576,0.003805657150223851,0.0006578007596544921
1772807144873663500,4.56166357421875,-0.003166498616337776,0.007071491796523333,-0.0012825783342123032
1772807144883594200,4.57159423828125,-0.0013542174128815532,0.003991812001913786,0.0005558017292059958
1772807144893526300,4.5815263671875,-0.00031798143754713237,0.006733004003763199,-0.00004873584839515388
1772807144903458300,4.591458251953125,0.00006657902849838138,0.006234992761164904,0.0008277104352600873
1772807144913390300,4.601390380859375,-0.00018482338055036962,0.005244829226285219,-0.0015006912872195244
1772807144923321300,4.6113212890625,-0.003600061172619462,0.006473878398537636,-0.0021907163318246603
1772807144933253400,4.62125341796875,-0.0025750105269253254,0.004446147475391626,0.00148151651956141
1772807144943185400,4.631185302734375,-0.000931041082367301,0.006163087207823992,-0.0030024477746337652
1772807144953117400,4.641117431640625,-0.00063356600003317,0.0062879896722733974,-0.0004069310089107603
1772807144963048400,4.65104833984375,-0.0027718180790543556,0.00515880947932601,-0.0013731258222833276
1772807144972980200,4.660980224609375,-0.0022303974255919456,0.006827812176197767,0.0016341155860573053
1772807144982912300,4.670912353515625,0.001219461439177394,0.004801679402589798,-0.0023257385473698378
1772807144992844300,4.68084423828125,0.00010918960470007733,0.006726878695189953,-0.0008860336965881288
1772807145002775600,4.690775634765625,0.0011667308863252401,0.004254666157066822,0.0009174589649774134
1772807145012707300,4.700707275390625,-0.0010615360224619508,0.003805390791967511,0.0015595471486449242
1772807145022639400,4.710639404296875,0.00015206649550236762,0.004948685877025127,-0.00008335694292327389
1772807145032571400,4.7205712890625,-0.0022240057587623596,0.00390259618870914,-0.00033902039285749197
1772807145042502400,4.73050244140625,0.0015425028977915645,0.005490372888743877,-0.00005725796290789731
1772807145052434400,4.740434326171875,-0.001847434788942337,0.006391054019331932,-0.0018184063956141472
1772807145062366200,4.7503662109375,-0.0008732505375519395,0.004881574306637049,0.000070307454734575
1772807145072298200,4.76029833984375,0.0015909724170342088,0.006175337824970484,0.00020373181905597448
1772807145082229200,4.770229248046875,0.00041199102997779846,0.0051873051561415195,-0.0015478292480111122
1772807145092161500,4.78016162109375,-0.001216531964018941,0.0039023298304528,0.0009329052991233766
1772807145102093600,4.790093505859375,-0.00017896443023346364,0.005495965480804443,0.0002663161139935255
1772807145112025300,4.800025390625,0.00101120222825557,0.004315918777137995,-0.0013097425689920783
1772807145121956400,4.809956298828125,-0.0033305492252111435,0.00896712951362133,0.0005555353709496558
1772807145131888400,4.819888427734375,-0.0013630058383569121,0.006490656174719334,-0.0012130698887631297
1772807145141820400,4.8298203125,0.001210939371958375,0.004449876025319099,-0.0004546015989035368
1772807145151752200,4.839752197265625,0.0013851100811734796,0.006930344272404909,-0.0002996056282427162
1772807145161683200,4.84968310546875,0.001475391210988164,0.00418435875326395,0.00044341632747091353
1772807145171615500,4.859615478515625,0.000441818410763517,0.0031736891251057386,-0.001794171635992825
1772807145181547500,4.869547607421875,0.0006530070677399635,0.002971288748085499,0.0006556702428497374
1772807145191479600,4.8794794921875,-0.0016098808264359832,0.003870638320222497,-0.00047084689140319824
1772807145201410300,4.889410400390625,-0.0014527543680742383,0.004512992687523365,-0.0008862999966368079
1772807145211342300,4.89934228515625,0.00253426400013268,0.003739877138286829,0.00045087316539138556
1772807145221274400,4.9092744140625,0.0005811017472296953,0.003918841481208801,-0.0004575310740619898
1772807145231206400,4.919206298828125,-0.001642637769691646,0.005932990461587906,-0.0006460828590206802
1772807145241137200,4.92913720703125,-0.0034698324743658304,0.007047256920486689,-0.002004827605560422
1772807145251069200,4.939069091796875,-0.00020985709852539003,0.0057218014262616634,-0.0017206683987751603
1772807145261001500,4.94900146484375,-0.0004239752306602895,0.006396113894879818,0.0008831042214296758
1772807145270933500,4.95893359375,0.0004913532175123692,0.006749515421688557,-0.0008141283178701997
1772807145280864300,4.9688642578125,-0.0007571366732008755,0.006177734583616257,-0.0013757890556007624
1772807145290796300,4.97879638671875,0.00024820660473778844,0.005014998838305473,0.000574177538510412
1772807145300728300,4.988728271484375,-0.001306014135479927,0.0054693338461220264,-0.0010921623324975371
1772807145310660400,4.998660400390625,-0.000964064325671643,0.0073529877699911594,-0.0006207828409969807
1772807145320591400,5.00859130859375,-0.0008631304954178631,0.005426457151770592,-0.000009321063771494664
1772807145330523100,5.018523193359375,-0.0008498146780766547,0.008860336616635323,0.0012514194240793586
1772807145340455200,5.028455078125,-0.0035899411886930466,0.0057351174764335155,-0.00012170646368758753
1772807145350387500,5.038387451171875,-0.0003203782835043967,0.005646434146910906,-0.0003611246356740594
1772807145360318500,5.048318359375,-0.0001395496365148574,0.0076302229426801205,-0.0011310444679111242
1772807145370250200,5.058250244140625,-0.0025798040442168713,0.006384129635989666,0.0012399677652865648
1772807145380182300,5.068182373046875,-0.00015339808305725455,0.006509298458695412,0.00006231796578504145
1772807145390114300,5.0781142578125,-0.002123604528605938,0.006049104034900665,-0.00242081331089139
1772807145400045300,5.08804541015625,0.0013733921805396676,0.006431800313293934,0.0006958839949220419
1772807145409977300,5.097977294921875,-0.0005837649223394692,0.00446984963491559,-0.00019281286222394556
1772807145419909000,5.1079091796875,-0.00044528054422698915,0.0060120862908661366,0.00012676646292675287
1772807145429841200,5.117841064453125,-0.002511893631890416,0.004435760900378227,-0.0013590110465884209
1772807145439772400,5.1277724609375,-0.0022245384752750397,0.005862150341272354,-0.0004237089306116104
1772807145449704400,5.137704345703125,-0.002269812161102891,0.005852829199284315,-0.0006018743733875453
1772807145459636500,5.147636474609375,-0.0011270497925579548,0.005310609471052885,-0.0005526058957912028
1772807145469568300,5.157568359375,-0.0035065840929746628,0.006850981619209051,-0.0011076086666435003
1772807145479499300,5.167499267578125,-0.002840261207893491,0.007815845310688019,-0.002624545246362686
1772807145489431300,5.177431396484375,-0.0015592807903885841,0.007091199047863483,-0.0035744947381317616
1772807145499363300,5.18736328125,-0.0008913599886000156,0.006080795545130968,0.00013981595111545175
1772807145509295000,5.197295166015625,-0.0011225224006921053,0.005143895745277405,-0.00042344260145910084
1772807145519226400,5.207226318359375,-0.001734783174470067,0.006170011591166258,-0.0019768644124269485
1772807145529158400,5.217158447265625,-0.00017656758427619934,0.004816593136638403,-0.0008673915872350335
1772807145539090400,5.22709033203125,-0.0016823188634589314,0.0056392434053123,0.00010705907334340736
1772807145549022500,5.2370224609375,-0.0005174521938897669,0.005403287708759308,-0.00044581317342817783
1772807145558953200,5.246953125,-0.00033662354690022767,0.004992894362658262,-0.0007107976707629859
1772807145568885200,5.25688525390625,-0.0022770026698708534,0.0067628310061991215,-0.0020937772933393717
1772807145578817300,5.2668173828125,0.000031691615731688216,0.00811811350286007,0.0016186692519113421
1772807145588749300,5.276749267578125,-0.0013670006301254034,0.0065231467597186565,0.0003249056462664157
1772807145598680300,5.286680419921875,-0.0014913701452314854,0.005109274294227362,-0.001455151243135333
1772807145608612400,5.2966123046875,-0.0001978728687390685,0.006633135490119457,0.0003094593121204525
1772807145618544400,5.30654443359375,-0.0016263924771919847,0.006482933182269335,-0.0016935041639953852
1772807145628476400,5.316476318359375,-0.00042743736412376165,0.008299475535750389,-0.0017291904659941792
1772807145638407200,5.3264072265625,-0.0011592740193009377,0.0046663908287882805,-0.0009350358741357923
1772807145648339200,5.336339111328125,-0.0014540859265252948,0.006326871924102306,-0.00019707392493728548
1772807145658271200,5.346271240234375,0.000004793690095539205,0.0054909056052565575,-0.0003374225052539259
1772807145668203300,5.356203369140625,-0.0012354403734207153,0.006833937484771013,-0.001148355077020824
1772807145678134500,5.366134521484375,-0.0032059133518487215,0.0057106162421405315,0.00011238539445912465
1772807145688066300,5.37606640625,0.00024208133982028812,0.006909305229783058,0.00038988678716123104
1772807145697998300,5.385998291015625,-0.001752093667164445,0.003858654061332345,-0.001151018193922937
1772807145707930400,5.395930419921875,-0.0014093448407948017,0.007758587133139372,0.0002942793071269989
1772807145717861400,5.405861328125,-0.0008503473363816738,0.006225138902664185,-0.0012825783342123032
1772807145727793400,5.41579345703125,-0.0028397287242114544,0.00812077708542347,-0.00162426196038723
1772807145737725200,5.42572509765625,-0.00166580721270293,0.006203034892678261,-0.00007856325100874528
1772807145747657200,5.4356572265625,0.0003352919884491712,0.007056045345962048,0.0011379687348380685
1772807145757588500,5.44558837890625,-0.003090598387643695,0.007154315710067749,0.0006231797160580754
1772807145767520500,5.4555205078125,-0.0004982774262316525,0.004984372295439243,0.0003328951424919069
1772807145777452300,5.465452392578125,-0.0024719461798667908,0.0073652383871376514,-0.0010021475609391928
1772807145787384300,5.47538427734375,-0.00008388957212446257,0.006898918654769659,-0.0014988270122557878
1772807145797315300,5.4853154296875,-0.0012892362428829074,0.006117281038314104,0.0005824333056807518
1772807145807247400,5.495247314453125,-0.0007720504072494805,0.005811816547065973,-0.0010277138790115714
1772807145817179400,5.505179443359375,-0.00012729909212794155,0.005091165192425251,-0.0008764463127590716
1772807145827111200,5.515111083984375,0.0003787015157286078,0.006900516804307699,-0.00025060345069505274
1772807145837043500,5.52504345703125,0.000978711643256247,0.006148173473775387,0.0009110674145631492
1772807145846974700,5.534974609375,0.001609614584594965,0.0046304380521178246,-0.00023941817926242948
1772807145856906800,5.54490673828125,-0.0022714100778102875,0.006284793838858604,-0.0014966964954510331
1772807145866838800,5.5548388671875,-0.003020557342097163,0.007635815534740686,0.0004040015337523073
1772807145876770600,5.5647705078125,-0.0003099919413216412,0.008550344966351986,-0.0012341088149696589
1772807145886701600,5.57470166015625,-0.001669003046117723,0.005879727192223072,-0.001270061475224793
1772807145896633600,5.584633544921875,0.00013608753215521574,0.005081044975668192,-0.0014455638593062758
1772807145906565600,5.594565673828125,-0.0018895127577707171,0.006518086884170771,0.0013989584986120462
1772807145916497700,5.60449755859375,0.000014647385796706658,0.0032959282398223877,0.00016644757124595344
1772807145926428700,5.6144287109375,-0.001246892032213509,0.0071098413318395615,0.0006530070677399635
1772807145936360700,5.624360595703125,-0.0005118595436215401,0.005175320897251368,-0.000737695605494082
1772807145946292700,5.634292724609375,-0.0008852347382344306,0.005278118886053562,0.0023033679462969303
1772807145956224800,5.644224853515625,0.0001334243715973571,0.005111405160278082,0.00041518680518493056
1772807145966155500,5.654155517578125,-0.000538491178303957,0.006761499680578709,-0.0007374293054454029
1772807145976087600,5.664087646484375,0.0002721750643104315,0.003463441040366888,0.0003989415417890996
1772807145986019600,5.67401953125,-0.002435727044939995,0.005638178437948227,-0.0006412891671061516
1772807145995951600,5.68395166015625,-0.0023758059833198786,0.006943659856915474,0.0024370586033910513
1772807146005882600,5.693882568359375,-0.0005121259018778801,0.005771602503955364,0.0011576761025935411
1772807146015814700,5.703814697265625,-0.001918807509355247,0.00390339526347816,-0.0017068199813365936
1772807146025746700,5.71374658203125,-0.00018695391190703958,0.004525509662926197,0.0012650014832615852
1772807146035678700,5.7236787109375,0.00020453077740967274,0.003921504598110914,-0.001514273346401751
1772807146045609500,5.733609375,-0.001329716295003891,0.006716225761920214,-0.0013824469642713666
1772807146055541500,5.74354150390625,-0.002008289797231555,0.006759635638445616,-0.0008274441352114081
1772807146065473500,5.7534736328125,-0.0024234766606241465,0.006970291491597891,-0.0008072041091509163
1772807146075405600,5.763405517578125,-0.002588059986010194,0.007439540233463049,0.0014152037911117077
1772807146085336600,5.773336669921875,-0.0013480921043083072,0.006514891050755978,-0.00026498452643863857
1772807146095268600,5.7832685546875,0.0001257012045243755,0.007269897032529116,-0.0005600627628155053
1772807146105200600,5.79320068359375,-0.0015342470724135637,0.004335892386734486,-0.0016231966437771916
1772807146115132700,5.803132568359375,0.0015062838792800903,0.004512726329267025,-0.001186970854178071
1772807146125063700,5.813063720703125,-0.0005539375124499202,0.005505552981048822,-0.0016306535108014941
1772807146134995700,5.82299560546875,-0.002609098795801401,0.004768922459334135,0.0002836266648955643
1772807146144927500,5.832927490234375,0.00022397184511646628,0.004948153160512447,0.00138058268930763
1772807146154859500,5.842859619140625,-0.000713993504177779,0.005652825813740492,-0.00011930961773032323
1772807146164790500,5.85279052734375,-0.0022916500456631184,0.00618119677528739,0.0023465112317353487
1772807146174722600,5.86272265625,-0.0002271676348755136,0.004759601317346096,0.0018024274613708258
1772807146184654600,5.872654541015625,0.0013789847726002336,0.006060289219021797,-0.00047936898772604764
1772807146194586600,5.882586669921875,-0.0001203748834086582,0.005516471806913614,0.0005848301807418466
1772807146204517600,5.892517578125,-0.0014692660188302398,0.008388158865272999,-0.001987250754609704
1772807146214449700,5.90244970703125,0.001107076066546142,0.0049590724520385265,0.0014556838432326913
1772807146224381700,5.912381591796875,-0.0010956244077533484,0.0044378917664289474,-0.0017278589075431228
1772807146234313500,5.9223134765625,-0.0017835189355537295,0.005794506054371595,-0.000022370553779182956
1772807146244244500,5.932244384765625,-0.00010173275222769007,0.005577990785241127,-0.0009747169679030776
1772807146254176500,5.942176513671875,-0.0003201119543518871,0.006461627781391144,0.0018839201657101512
1772807146264108500,5.952108642578125,-0.0014178669080138206,0.006707437336444855,0.00011052118497900665
1772807146274040600,5.96204052734375,-0.0026490462478250265,0.005305283237248659,-0.0000066579027588886674
1772807146283971600,5.9719716796875,0.0020562265999615192,0.004659200087189674,0.0009765811264514923
1772807146293903600,5.981903564453125,0.00045912896166555583,0.005349491722881794,-0.0004822984628845006
1772807146303835600,5.991835693359375,-0.0013856426812708378,0.00535375252366066,0.0022029669489711523
1772807146313767700,6.001767578125,-0.0013970943400636315,0.004436293616890907,0.00048176583368331194
1772807146323698400,6.011698486328125,0.0016117451013997197,0.007673632353544235,-0.0014298511669039726
1772807146333630500,6.02163037109375,0.0006655239267274737,0.00566853815689683,0.0010159959783777595
1772807146343562500,6.0315625,-0.000031957933970261365,0.004215517546981573,-0.00009214537567459047
1772807146353494500,6.04149462890625,0.0005142564186826348,0.0037710361648350954,-0.0017134778900071979
1772807146363425500,6.051425537109375,-0.0003102582704741508,0.0063154203817248344,0.0005185174522921443
1772807146373357600,6.061357666015625,-0.0013885721564292908,0.007275223266333342,0.0027955202385783195
1772807146383289600,6.07128955078125,-0.0019291938515380025,0.005576659459620714,-0.0006021407316438854
1772807146393221600,6.0812216796875,-0.001017327536828816,0.003947070799767971,-0.0004463458026293665
1772807146403152600,6.091152587890625,0.00034221619716845453,0.005798234138637781,0.0007454187725670636
1772807146413084400,6.10108447265625,0.00035206988104619086,0.00634791050106287,-0.00005326322207110934
1772807146423016400,6.111016357421875,-0.0015837819082662463,0.005178516730666161,0.002058889716863632
1772807146432948500,6.120948486328125,-0.00023409185814671218,0.002778742229565978,0.0006056028068996966
1772807146442879700,6.130879638671875,-0.001365668955259025,0.00714739179238677,-0.0003832288784906268
1772807146452811500,6.1408115234375,-0.001258876291103661,0.007111971732228994,-0.0003382214636076242
1772807146462743600,6.15074365234375,-0.002528138691559434,0.006159891374409199,0.0008735168376006186
1772807146472675600,6.160675537109375,0.0002878876985050738,0.005075718741863966,0.0008074704091995955
1772807146482606600,6.170606689453125,-0.0002788329729810357,0.007876564748585224,0.0025124261155724525
1772807146492538600,6.18053857421875,-0.0030916635878384113,0.010089918039739132,-0.0025350630749017
1772807146502470400,6.190470458984375,0.00024820660473778844,0.0046722497791051865,0.0007803061744198203
1772807146512402400,6.20040234375,-0.003516437951475382,0.005923136603087187,0.0001978728687390685
1772807146522333700,6.210333740234375,-0.0006948187365196645,0.004018976353108883,-0.002129463478922844
1772807146532265700,6.220265625,0.0028458540327847004,0.004457599017769098,-0.0014234596164897084
1772807146542197800,6.23019775390625,-0.0009499495499767363,0.003582217963412404,0.0006253102328628302
1772807146552129500,6.240129638671875,-0.0021470405627042055,0.006881341803818941,-0.0013765880139544606
1772807146562060500,6.250060546875,-0.0006274407496675849,0.0056831855326890945,0.0003126551164314151
1772807146571992600,6.25999267578125,-0.0004655205411836505,0.006508765742182732,-0.0012455604737624526
1772807146581924600,6.269924560546875,0.00021784658019896597,0.005350823048502207,-0.000060453756304923445
1772807146591856400,6.2798564453125,-0.00022530343267135322,0.0052237906493246555,-0.002490321872755885
1772807146601787600,6.28978759765625,-0.0029734193813055754,0.005916478578001261,0.0002263686910737306
1772807146611719700,6.2997197265625,-0.002817358123138547,0.005386775825172663,-0.0000045273736759554595
1772807146621651700,6.309651611328125,0.0011411645682528615,0.0067902617156505585,-0.00037736992817372084
1772807146631583700,6.319583740234375,-0.00004340952364145778,0.005886917468160391,0.00018482338055036962
1772807146641514500,6.329514404296875,-0.002469282830134034,0.005440305452793837,-0.0007968177669681609
1772807146651446500,6.339446533203125,0.0001179780374513939,0.0049276468344032764,0.0004577973741106689
1772807146661378600,6.349378662109375,-0.00004900216299574822,0.005219529382884502,-0.00018482338055036962
1772807146671310600,6.359310546875,-0.0026253440883010626,0.005281847435981035,-0.0006846986943855882
1772807146681241600,6.36924169921875,-0.0013110742438584566,0.005763879511505365,0.0010980212828144431
1772807146691173600,6.379173583984375,-0.0023129554465413094,0.007209709845483303,-0.0035292210523039103
1772807146701105700,6.389105712890625,-0.0023486416321247816,0.006913832388818264,-0.00047936898772604764
1772807146711037700,6.39903759765625,0.002555835759267211,0.004954012110829353,0.0022863238118588924
1772807146720968400,6.408968505859375,-0.001362473238259554,0.007355118170380592,0.00025779398856684566
1772807146730900500,6.418900390625,-0.0014562164433300495,0.006909571588039398,-0.0018524948973208666
1772807146740832500,6.42883251953125,-0.0018759306985884905,0.007654457353055477,0.0003398193512111902
1772807146750764500,6.4387646484375,-0.00017683389887679368,0.006874151527881622,0.000028762138754245825
1772807146760695800,6.44869580078125,0.00023409185814671218,0.005668005906045437,-0.001287904684431851
1772807146770627600,6.458627685546875,-0.002704440150409937,0.006047772243618965,0.000494016392622143
1772807146780559600,6.4685595703125,-0.0009685916593298316,0.006789196282625198,-0.0007989483419805765
1772807146790491600,6.47849169921875,-0.0015776565996930003,0.00558225205168128,-0.0003259709046687931
1772807146800422700,6.488422607421875,-0.0008748483960516751,0.0056954361498355865,-0.0008711199625395238
1772807146810354400,6.4983544921875,-0.001294029993005097,0.004430701024830341,0.0010761833982542157
1772807146820286500,6.508286376953125,-0.00020932445477228612,0.006203301250934601,0.0012487561907619238
1772807146830218500,6.518218505859375,-0.0010663296561688185,0.005943642929196358,0.0011550129856914282
1772807146840149500,6.5281494140625,0.001323857344686985,0.0060357884503901005,-0.00012117382721044123
1772807146850081300,6.538081298828125,-0.0013459615875035524,0.005653624422848225,0.0021558289881795645
1772807146860013300,6.548013427734375,-0.001255414099432528,0.005597165785729885,-0.00041731735109351575
1772807146869945300,6.5579453125,-0.00041039311327040195,0.0032357405871152878,-0.0012921657180413604
1772807146879876400,6.56787646484375,0.001586178783327341,0.006506368983536959,0.000859934720210731
1772807146889808400,6.577808349609375,-0.0004980111261829734,0.006966030225157738,0.0012072109384462237
1772807146899740200,6.587740234375,-0.0008109325426630676,0.005893575493246317,0.002374208066612482
1772807146909672200,6.597672119140625,0.0014266553334891796,0.0041153826750814915,0.00010359696898376569
1772807146919603500,6.607603515625,-0.003439738880842924,0.00839588139206171,0.0017259946325793862
1772807146929535500,6.617535400390625,-0.0017624800093472004,0.006551376078277826,0.000627707049716264
1772807146939467300,6.62746728515625,-0.0010394317796453834,0.00552233075723052,-0.00018269284919369966
1772807146949399300,6.6373994140625,-0.001535046030767262,0.005001949146389961,-0.002755306428298354
1772807146959330300,6.647330322265625,-0.0003110571997240186,0.006193447392433882,-0.001651159836910665
1772807146969262300,6.657262451171875,-0.0003235740587115288,0.006548712961375713,-0.0002615224220789969
1772807146979194400,6.6671943359375,-0.001674595638178289,0.007739412598311901,0.0013435647124424577
1772807146989126100,6.677126220703125,-0.0003171824791934341,0.006405168678611517,-0.00018429075134918094
1772807146999057400,6.687057373046875,-0.0022367890924215317,0.00708773685619235,-0.0020540961995720863
1772807147008989400,6.696989501953125,-0.0004676510870922357,0.0038780951872467995,0.0005022721597924829
1772807147018921500,6.70692138671875,0.0009054747642949224,0.005299424286931753,-0.0012490225490182638
1772807147028853500,6.716853515625,0.00018508969515096396,0.005871471017599106,-0.00034674355993047357
1772807147038784300,6.7267841796875,-0.0019036275334656239,0.006417685654014349,-0.000046072687837295234
1772807147048716300,6.73671630859375,0.00023995080846361816,0.004752943757921457,-0.002627474721521139
1772807147058648300,6.7466484375,-0.00133877107873559,0.005504753906279802,-0.0014825817197561264
1772807147068580400,6.756580322265625,-0.0007219829712994397,0.006666158325970173,0.00011478224041638896
1772807147078511400,6.766511474609375,0.0009629990672692657,0.006625678390264511,-0.0003475425182841718
1772807147088443400,6.776443359375,-0.0024780714884400368,0.004677043296396732,-0.00007403588097076863
1772807147098375400,6.78637548828125,-0.0002210423699580133,0.005362008698284626,-0.0006213154993019998
1772807147108307500,6.796307373046875,-0.0012024171883240342,0.005468002520501614,-0.001883387565612793
1772807147118238200,6.80623828125,-0.0023086944129318,0.007330616936087608,0.00009161273919744417
1772807147128170200,6.816170166015625,0.00033103092573583126,0.0064983791671693325,0.0015355786308646202
1772807147138102300,6.826102294921875,-0.0012665993999689817,0.006710899528115988,0.000037550569686573
1772807147148034300,6.836034423828125,-0.002025067573413253,0.005577458068728447,0.0006543386843986809
1772807147157965000,6.845965087890625,0.00022157499915920198,0.006742058787494898,-0.000019707391402334906
1772807147167897300,6.8558974609375,-0.0005291700945235789,0.006386260036379099,-0.00020426444825716317
1772807147177829400,6.865829345703125,-0.002561161993071437,0.007127950433641672,0.0016524913953617215
1772807147187761400,6.875761474609375,-0.0000804274677648209,0.007565774489194155,-0.0000351537273672875
1772807147197692400,6.8856923828125,-0.0005054679932072759,0.005593170877546072,0.0007981493836268783
1772807147207624200,6.895624267578125,0.0012604740913957357,0.00740225613117218,-0.0012144014472141862
1772807147217556200,6.90555615234375,-0.003072488820180297,0.004317782819271088,-0.00010972223390126601
1772807147227487200,6.9154873046875,-0.0002508697798475623,0.007839014753699303,-0.001814677962101996
1772807147237419300,6.925419189453125,0.0005283711361698806,0.0065045044757425785,-0.00040187101694755256
1772807147247351300,6.935351318359375,-0.0021137509029358625,0.005402488633990288,-0.0006178533658385277
1772807147257283300,6.945283447265625,-0.0005512743373401463,0.005065598525106907,-0.0015638081822544336
1772807147267214300,6.95521435546875,-0.0014215953415259719,0.0049095372669398785,0.0026141589041799307
1772807147277146400,6.965146484375,-0.0006207828409969807,0.005943110212683678,-0.0006026733317412436
1772807147287078400,6.975078369140625,0.00006285060226218775,0.004634965676814318,-0.0035260252188891172
1772807147297010200,6.98501025390625,-0.00047590688336640596,0.004987301770597696,0.0024165522772818804
1772807147306942200,6.994942138671875,-0.0002998719282913953,0.008227569982409477,-0.00005326322207110934
1772807147316873200,7.004873291015625,0.00119602563790977,0.0049585397355258465,0.0011294466676190495
1772807147326805200,7.01480517578125,-0.0013853764394298196,0.006804909091442823,-0.0020237360149621964
1772807147336737300,7.0247373046875,-0.002211222657933831,0.005350024439394474,0.0002359560749027878
1772807147346668300,7.034668212890625,-0.00195129809435457,0.005801163613796234,0.0009382316493429244
1772807147356600300,7.044600341796875,-0.0015699334908276796,0.006205431651324034,-0.00046845004544593394
1772807147366532400,7.054532470703125,-0.0016647420125082135,0.006200371775776148,0.002005360322073102
1772807147376464400,7.06446435546875,-0.00041278995922766626,0.006702111102640629,-0.0003203782835043967
1772807147386396400,7.074396484375,-0.0023550332989543676,0.005264270585030317,0.00019494339358061552
1772807147396327200,7.0843271484375,-0.00195156445261091,0.007032609544694424,0.00007643271965207532
1772807147406259200,7.09425927734375,-0.0015819176333025098,0.005285575985908508,-0.0009534116834402084
1772807147416191200,7.104191162109375,-0.0002282329078298062,0.005535646807402372,-0.0010317085543647408
1772807147426123300,7.114123291015625,-0.00017097493400797248,0.006786533165723085,0.0006362291751429439
1772807147436054300,7.12405419921875,0.00020719393796753138,0.006127400789409876,-0.0007637945818714797
1772807147445986300,7.133986328125,0.0005864280392415822,0.007404652889817953,-0.0018157431622967124
1772807147455918300,7.14391845703125,0.0002990729990415275,0.0029920614324510098,-0.0005550027708522975
1772807147465850400,7.153850341796875,-0.002254632068797946,0.006943127140402794,-0.00063383235828951
1772807147475781000,7.163781005859375,-0.00027750138542614877,0.0019233349012210965,0.00017710021347738802
1772807147485713200,7.173713134765625,-0.000773381965700537,0.00657587731257081,-0.0007970841252245009
1772807147495645200,7.183645263671875,-0.00014381069922819734,0.007000651676207781,-0.00017124126316048205
1772807147505577200,7.1935771484375,-0.0014884406700730324,0.004995024763047695,0.0005715143634006381
1772807147515508500,7.203508544921875,0.00070520507870242,0.005917544011026621,-0.001088433898985386
1772807147525440300,7.213440185546875,-0.0012415656819939613,0.007571367081254721,-0.000107858024421148
1772807147535372300,7.223372314453125,0.0005558017292059958,0.004024302586913109,-0.0001603222917765379
1772807147545304300,7.23330419921875,-0.001282045734114945,0.005648830905556679,0.00003941478280466981
1772807147555235300,7.2432353515625,-0.0008740494376979768,0.0057191383093595505,-0.0013382384786382318
1772807147565167000,7.2531669921875,-0.0024405207950621843,0.007062170654535294,-0.00202293717302382
1772807147575099100,7.26309912109375,-0.0009142631897702813,0.005501824431121349,-0.0002772350562736392
1772807147585031200,7.27303125,-0.0024884575977921486,0.004719121381640434,-0.0009563411585986614
1772807147594962400,7.28296240234375,0.0002713761059567332,0.007102384231984615,-0.0003171824791934341
1772807147604894500,7.29289453125,-0.0005515406373888254,0.005892776418477297,-0.0014112089993432164
1772807147614826200,7.302826171875,-0.00016937704640440643,0.0075194351375103,-0.002091380301862955
1772807147624758300,7.31275830078125,-0.0020306603983044624,0.0073655047453939915,0.00048070057528093457
1772807147634689300,7.322689208984375,0.0026232136879116297,0.002831739140674472,0.002359294332563877
1772807147644621300,7.332621337890625,-0.0011318434262648225,0.007536479737609625,0.0008295746520161629
1772807147654553300,7.34255322265625,-0.003555852686986327,0.005953230429440737,-0.0015448997728526592
1772807147664485000,7.352485107421875,-0.0014397049089893699,0.003805124433711171,0.0005877596559002995
1772807147674416400,7.36241650390625,-0.002555303042754531,0.006682137493044138,-0.0006370281334966421
1772807147684348400,7.372348388671875,-0.0003784351865760982,0.003044259501621127,-0.0001155811914941296
1772807147694280400,7.382280517578125,-0.001829591696150601,0.006610231939703226,0.0007030745036900043
1772807147704212200,7.392212158203125,-0.0014679343439638615,0.005562278442084789,-0.0021582257468253374
1772807147714143200,7.402143310546875,-0.0030248183757066727,0.008686432614922523,0.0005291700945235789
1772807147724075300,7.4120751953125,0.000319845654303208,0.0068296766839921474,0.0009693906176835299
1772807147734007300,7.42200732421875,-0.001222390914335847,0.005601692944765091,-0.001184041379019618
1772807147743939300,7.431939208984375,0.00025539714260958135,0.006153766065835953,-0.00020240024605300277
1772807147753871000,7.44187109375,0.0007198524544946849,0.007309045642614365,0.00021971078240312636
1772807147763802400,7.45180224609375,-0.0015398397808894515,0.007840080186724663,-0.0015566176734864712
1772807147773734400,7.461734375,-0.0005693838465958834,0.005346295889467001,0.0009241168736480176
1772807147783666400,7.47166650390625,0.0011310444679111242,0.005438707303255796,0.0020900487434118986
1772807147793598500,7.481598388671875,-0.001579787116497755,0.006624080706387758,0.0013363742036744952
1772807147803529200,7.491529296875,-0.0009779128013178706,0.005569202359765768,-0.00063383235828951
1772807147813461200,7.501461181640625,-0.003192331176251173,0.005540173966437578,-0.0031012510880827904
1772807147823393300,7.511393310546875,-0.0004159857635386288,0.006539658177644014,0.0003515372518450022
1772807147833325300,7.5213251953125,-0.003206978552043438,0.00944996066391468,-0.0012953615514561534
1772807147843256000,7.531256103515625,-0.001044758129864931,0.005399825517088175,0.00003302319601061754
1772807147853188000,7.54118798828125,0.00041305628838017583,0.004570250865072012,0.000556334329303354
1772807147863120100,7.5511201171875,-0.0026964505668729544,0.005341768264770508,-0.0008103998843580484
1772807147873052000,7.561052001953125,-0.00035926041891798377,0.003911118488758802,0.0021497036796063185
1772807147882983000,7.57098291015625,-0.0019198728259652853,0.003540406236425042,-0.0012394351651892066
1772807147892915000,7.5809150390625,-0.00007270430069183931,0.007246194873005152,-0.0017805894603952765
1772807147902847000,7.590846923828125,-0.0006535397260449827,0.007378287613391876,0.0010402307379990816
1772807147912778800,7.60077880859375,-0.0009177253232337534,0.0037739656399935484,-0.0018152105621993542
1772807147922710000,7.6107099609375,-0.00017363809456583112,0.004683967679738998,0.0005560680292546749
1772807147932642000,7.62064208984375,0.0000958738019107841,0.004826446995139122,0.0005020058597438037
1772807147942574000,7.630573974609375,-0.0018319884547963738,0.004096474498510361,0.00037816885742358863
1772807147952506000,7.640506103515625,-0.00216568261384964,0.005787048954516649,-0.0034288198221474886
1772807147962436900,7.650436767578125,0.0013054815353825688,0.006156429648399353,-0.0002759034978225827
1772807147972369000,7.660368896484375,-0.0006442186422646046,0.00509995361790061,-0.000015978966985130683
1772807147982301000,7.670301025390625,-0.0006705839768983424,0.003739078063517809,-0.000955009541939944
1772807147992233000,7.68023291015625,-0.0007584682898595929,0.005533249583095312,0.0013608753215521574
1772807148002165000,7.6901650390625,-0.002273540711030364,0.007267766632139683,0.0004396878939587623
1772807148012096000,7.700095947265625,0.0015984292840585113,0.007588677573949099,-0.000045806369598722085
1772807148022028000,7.710028076171875,-0.0010237190872430801,0.004071440547704697,0.0009289105655625463
1772807148031960000,7.7199599609375,-0.0007134608458727598,0.008824650198221207,-0.0022327941842377186
1772807148041892000,7.72989208984375,-0.001847701147198677,0.0056861150078475475,-0.0008263788768090308
1772807148051822800,7.73982275390625,-0.0006428870838135481,0.009003082290291786,-0.00048709215479902923
1772807148061755000,7.7497548828125,-0.00034647725988179445,0.005341236013919115,0.0007331682136282325
1772807148071687000,7.75968701171875,-0.003483947366476059,0.007075486239045858,-0.0014503574930131435
1772807148081619000,7.769618896484375,-0.002499909373000264,0.006993194576352835,0.0003020024741999805
1772807148091550000,7.779550048828125,-0.0008783105295151472,0.005162005312740803,0.0002873550693038851
1772807148101482000,7.78948193359375,-0.0007294398383237422,0.003853061469271779,-0.0015749934827908874
1772807148111414000,7.7994140625,-0.00014887070574332029,0.005632585845887661,-0.0006580671179108322
1772807148121346000,7.809345947265625,0.0010197244118899107,0.007558583747595549,-0.0006644586683250964
1772807148131276800,7.81927685546875,-0.00041012681322172284,0.006284793838858604,0.00010120012302650139
1772807148141208800,7.829208740234375,-0.0003408846096135676,0.006535930093377829,0.0021526331547647715
1772807148151140900,7.839140869140625,-0.0010751180816441774,0.005371063016355038,-0.0002162486780434847
1772807148161073000,7.849072998046875,-0.0011965582380071282,0.004263188224285841,-0.0006135923322290182
1772807148171004200,7.859004150390625,0.00037151097785681486,0.004228567238897085,-0.000559263804461807
1772807148180936000,7.86893603515625,-0.001141963410191238,0.007208378054201603,-0.0005986785981804132
1772807148190868000,7.878867919921875,-0.0017206683987751603,0.00520727876573801,0.0018421085551381111
1772807148200800000,7.888800048828125,-0.0021734058391302824,0.006037386134266853,0.00024767397553659976
1772807148210731000,7.89873095703125,-0.0036418726667761803,0.008616657927632332,0.00014381069922819734
1772807148220663000,7.9086630859375,-0.001193096162751317,0.006845655385404825,-0.0012175972806289792
1772807148230594800,7.9185947265625,-0.0017992316279560328,0.006905576679855585,0.00014674017438665032
1772807148240526800,7.92852685546875,-0.002258626976981759,0.006105296779423952,-0.0008902947301976383
1772807148250458000,7.9384580078125,-0.00027803401462733746,0.0049404301680624485,-0.00017736652807798237
1772807148260390100,7.94839013671875,-0.0011062771081924438,0.009284311905503273,-0.00017976337403524667
1772807148270322000,7.958322021484375,-0.0009121326729655266,0.0057617491111159325,-0.0015190670965239406
1772807148280254000,7.96825390625,-0.0019020296167582273,0.0072989254258573055,-0.0006623281515203416
1772807148290185000,7.97818505859375,0.0014500912511721253,0.0062696137465536594,0.0025268071331083775
1772807148300117000,7.988116943359375,-0.00024501082953065634,0.002870887517929077,-0.00222027744166553
1772807148310049000,7.998049072265625,-0.0010551444720476866,0.005402222275733948,-0.00027750138542614877
1772807148319980800,8.007980712890625,0.00003328951424919069,0.002710032742470503,0.001955026527866721
1772807148329912000,8.017912109375,-0.0026019082870334387,0.005631520412862301,-0.001642637769691646
1772807148339844000,8.027843994140625,-0.0009502158500254154,0.00708667142316699,-0.0012335762148723006
1772807148349776100,8.037776123046875,-0.0016700683627277613,0.00609411159530282,0.0005699164466932416
1772807148359708200,8.047708251953125,0.00001864212754298933,0.005944708362221718,0.00029294771957211196
1772807148369639000,8.057638916015625,0.0014383733505383134,0.005373726598918438,-0.0026109630707651377
1772807148379571000,8.067571044921875,-0.0006223807577043772,0.005801962688565254,-0.0002812298189383
1772807148389503000,8.0775029296875,-0.000003994741746282671,0.0046762446872889996,0.0007707187905907631
1772807148399435000,8.08743505859375,0.0023782027419656515,0.005995574407279491,-0.0015640745405107737
1772807148409366000,8.097365966796875,-0.0013134710025042295,0.007647267077118158,-0.0015036207623779774
1772807148419298000,8.107298095703126,0.0008870989549905062,0.007758853491395712,-0.0012540825409814715
1772807148429230000,8.11722998046875,-0.0025158883072435856,0.005071457475423813,0.001463939668610692
1772807148439162000,8.127162109375,-0.001026382320560515,0.006514891050755978,0.0018823222490027547
1772807148449094100,8.13709423828125,0.0006239786162041128,0.005170261021703482,0.00044022052315995097
1772807148459025000,8.14702490234375,-0.0008580705034546554,0.006422745529562235,-0.0023672839161008596
1772807148468957000,8.15695703125,-0.0068174260668456554,0.07868362963199615,0.013013270683586597
1772807148478889000,8.166888916015624,-0.0028658276423811913,0.020136959850788116,0.002773682354018092
1772807148488821000,8.176821044921875,-0.0006434197421185672,0.011024687439203262,-0.000041811628761934116
1772807148498752000,8.186751953125,-0.001954760169610381,0.02177693508565426,0.0011289139511063695
1772807148508684000,8.19668408203125,0.00015712650201749057,-0.00953811127692461,-0.0005882922559976578
1772807148518616000,8.206615966796875,-0.0007350324303843081,-0.0004751079250127077,0.00007297061529243365
1772807148528548000,8.216548095703125,0.002523345174267888,-0.013496100902557373,-0.0038213697262108326
1772807148538478800,8.226478759765625,0.0001627191377338022,-0.02022218145430088,-0.005592105444520712
1772807148548411000,8.236410888671875,-0.000011717908819264267,0.006893059704452753,0.0005225121858529747
1772807148558343000,8.246343017578125,-0.0004034689045511186,-0.015095329843461514,-0.004501807503402233
1772807148568274000,8.25627392578125,-0.00043569316039793193,0.010299509391188622,-0.0005850964807905257
1772807148578206000,8.2662060546875,-0.0010546117555350065,0.0022714100778102875,-0.0021459751296788454
1772807148588138000,8.276137939453125,-0.002189118415117264,0.008244081400334835,0.0004900216590613127
