time,seconds_elapsed,z,y,x
1772807498941051400,0.061051513671875,-0.058319091796875,0.9738922119140625,0.2052459716796875
1772807498950983400,0.0709833984375,-0.0606231689453125,0.9734344482421875,0.20758056640625
1772807498960916500,0.08091650390625,-0.0566558837890625,0.9720001220703125,0.2071990966796875
1772807498970848300,0.09084814453125,-0.0552978515625,0.968505859375,0.208892822265625
1772807498980780300,0.1007802734375,-0.0559844970703125,0.9692535400390625,0.209320068359375
1772807498990712300,0.11071240234375,-0.05548095703125,0.9709625244140625,0.2089691162109375
1772807499000644400,0.120644287109375,-0.0562286376953125,0.97308349609375,0.2088165283203125
1772807499010576400,0.130576416015625,-0.0565948486328125,0.97039794921875,0.2138214111328125
1772807499020508400,0.14050830078125,-0.054046630859375,0.9717864990234375,0.232940673828125
1772807499030440400,0.1504404296875,-0.0509185791015625,0.974395751953125,0.2127838134765625
1772807499040372700,0.160372802734375,-0.0415191650390625,0.963897705078125,0.19830322265625
1772807499050304800,0.1703046875,-0.0680389404296875,0.969451904296875,0.207489013671875
1772807499060236500,0.180236572265625,-0.076934814453125,0.9769744873046875,0.21771240234375
1772807499070168600,0.19016845703125,-0.0763397216796875,0.9753265380859375,0.2093505859375
1772807499080100600,0.2001005859375,-0.0726318359375,0.96990966796875,0.2050323486328125
1772807499090032600,0.21003271484375,-0.0624847412109375,0.9650421142578125,0.2077484130859375
1772807499099965700,0.219965576171875,-0.05621337890625,0.964813232421875,0.210052490234375
1772807499109897700,0.229897705078125,-0.0550994873046875,0.967559814453125,0.2120819091796875
1772807499119829800,0.239829833984375,-0.0589752197265625,0.968414306640625,0.2087249755859375
1772807499129761500,0.249761474609375,-0.066497802734375,0.9680023193359375,0.205047607421875
1772807499139693600,0.259693603515625,-0.071380615234375,0.9712677001953125,0.202728271484375
1772807499149625600,0.26962548828125,-0.0738525390625,0.9730682373046875,0.201324462890625
1772807499159557600,0.2795576171875,-0.0657806396484375,0.9719085693359375,0.205352783203125
1772807499169489700,0.28948974609375,-0.0620574951171875,0.9706268310546875,0.2053375244140625
1772807499179421700,0.299421630859375,-0.0657806396484375,0.972625732421875,0.2052001953125
1772807499189353500,0.309353515625,-0.0683746337890625,0.971954345703125,0.2044525146484375
1772807499199285500,0.319285400390625,-0.067047119140625,0.9695281982421875,0.202911376953125
1772807499209217500,0.329217529296875,-0.069061279296875,0.9709014892578125,0.2036895751953125
1772807499219149600,0.339149658203125,-0.069244384765625,0.973236083984375,0.2031097412109375
1772807499229082600,0.34908251953125,-0.069366455078125,0.970062255859375,0.2011260986328125
1772807499239014700,0.3590146484375,-0.0686187744140625,0.968719482421875,0.2006072998046875
1772807499248946700,0.36894677734375,-0.070281982421875,0.9693756103515625,0.1997222900390625
1772807499258878500,0.37887841796875,-0.07183837890625,0.972564697265625,0.2001953125
1772807499268810500,0.388810546875,-0.07269287109375,0.975616455078125,0.1989593505859375
1772807499278742500,0.398742431640625,-0.07440185546875,0.9746246337890625,0.1961517333984375
1772807499288674600,0.408674560546875,-0.0744171142578125,0.972564697265625,0.198272705078125
1772807499298606600,0.418606689453125,-0.0726165771484375,0.971435546875,0.198028564453125
1772807499308538400,0.428538330078125,-0.0663299560546875,0.9700927734375,0.198516845703125
1772807499318470400,0.438470458984375,-0.060882568359375,0.9698486328125,0.199951171875
1772807499328402400,0.44840234375,-0.060546875,0.971435546875,0.20123291015625
1772807499338334500,0.45833447265625,-0.0607452392578125,0.975341796875,0.2050628662109375
1772807499348266500,0.4682666015625,-0.0633544921875,0.97198486328125,0.20648193359375
1772807499358199600,0.478199462890625,-0.066864013671875,0.972137451171875,0.2039031982421875
1772807499368131600,0.488131591796875,-0.06878662109375,0.972930908203125,0.2039642333984375
1772807499378063400,0.4980634765625,-0.0669708251953125,0.9730224609375,0.203704833984375
1772807499387995400,0.507995361328125,-0.0644683837890625,0.968902587890625,0.2088623046875
1772807499397927400,0.517927490234375,-0.0581817626953125,0.9658966064453125,0.21063232421875
1772807499407859500,0.527859375,-0.0519561767578125,0.966766357421875,0.2149505615234375
1772807499417791500,0.53779150390625,-0.0461578369140625,0.970001220703125,0.2224273681640625
1772807499427723500,0.5477236328125,-0.047210693359375,0.9739532470703125,0.2302703857421875
1772807499437655600,0.557655517578125,-0.05218505859375,0.974884033203125,0.2238006591796875
1772807499447587600,0.567587646484375,-0.0594940185546875,0.9788665771484375,0.2180938720703125
1772807499457519600,0.57751953125,-0.06463623046875,0.9740142822265625,0.215087890625
1772807499467451600,0.58745166015625,-0.0608062744140625,0.9696044921875,0.2021331787109375
1772807499477383700,0.5973837890625,-0.059539794921875,0.974639892578125,0.199493408203125
1772807499487316700,0.607316650390625,-0.0548553466796875,0.9679718017578125,0.1939849853515625
1772807499497248800,0.617248779296875,-0.0492401123046875,0.966552734375,0.19061279296875
1772807499507180500,0.6271806640625,-0.0524444580078125,0.964508056640625,0.1905364990234375
1772807499517112600,0.637112548828125,-0.0518798828125,0.9650115966796875,0.1922454833984375
1772807499527044600,0.647044677734375,-0.0496368408203125,0.9649658203125,0.1991729736328125
1772807499536976600,0.6569765625,-0.0504913330078125,0.96636962890625,0.2015228271484375
1772807499546908700,0.66690869140625,-0.0566864013671875,0.974945068359375,0.211883544921875
1772807499556840700,0.6768408203125,-0.0585479736328125,0.9688720703125,0.214935302734375
1772807499566772500,0.6867724609375,-0.049530029296875,0.973724365234375,0.2096405029296875
1772807499576704500,0.69670458984375,-0.044830322265625,0.9762420654296875,0.21026611328125
1772807499586636500,0.706636474609375,-0.036712646484375,0.974334716796875,0.2052001953125
1772807499596568600,0.716568603515625,-0.0382080078125,0.972503662109375,0.1985321044921875
1772807499606500600,0.72650048828125,-0.0455780029296875,0.971893310546875,0.1925506591796875
1772807499616433700,0.73643359375,-0.042327880859375,0.9728851318359375,0.1902008056640625
1772807499626365700,0.74636572265625,-0.0397796630859375,0.9774627685546875,0.1918182373046875
1772807499636297500,0.75629736328125,-0.0350341796875,0.9789276123046875,0.19970703125
1772807499646229500,0.7662294921875,-0.0295257568359375,0.9771270751953125,0.20849609375
1772807499656161500,0.77616162109375,-0.0279388427734375,0.9744873046875,0.214569091796875
1772807499666093600,0.786093505859375,-0.018402099609375,0.9775848388671875,0.2153167724609375
1772807499676025600,0.796025634765625,-0.0261383056640625,0.9796600341796875,0.2208251953125
1772807499685957600,0.80595751953125,-0.032257080078125,0.96917724609375,0.214447021484375
1772807499695889400,0.815889404296875,-0.0189208984375,0.9702911376953125,0.208831787109375
1772807499705821400,0.825821533203125,-0.025726318359375,0.9747314453125,0.2096710205078125
1772807499715753500,0.83575341796875,-0.0150299072265625,0.9788665771484375,0.213134765625
1772807499725685500,0.845685546875,-0.0185699462890625,0.982391357421875,0.215423583984375
1772807499735618600,0.85561865234375,-0.00787353515625,0.9783935546875,0.217376708984375
1772807499745550600,0.865550537109375,0.0027923583984375,0.9906005859375,0.222808837890625
1772807499755482400,0.875482421875,-0.002044677734375,0.9983673095703125,0.22589111328125
1772807499765414400,0.885414306640625,-0.0085906982421875,0.990997314453125,0.225830078125
1772807499775346400,0.895346435546875,-0.0074310302734375,0.9807281494140625,0.2239990234375
1772807499785278500,0.905278564453125,-0.004180908203125,0.9758758544921875,0.215667724609375
1772807499795210500,0.91521044921875,-0.0047149658203125,0.974639892578125,0.2103271484375
1772807499805142500,0.925142578125,-0.0036163330078125,0.97247314453125,0.2061614990234375
1772807499815074600,0.935074462890625,-0.001556396484375,0.9735107421875,0.206512451171875
1772807499825006600,0.945006591796875,-0.0035247802734375,0.970947265625,0.2055511474609375
1772807499834938600,0.954938720703125,-0.00439453125,0.971527099609375,0.2041015625
1772807499844870700,0.96487060546875,-0.0092620849609375,0.9685516357421875,0.2085418701171875
1772807499854802700,0.974802734375,-0.0083465576171875,0.9716949462890625,0.2177886962890625
1772807499864735500,0.984735595703125,-0.0094146728515625,0.966156005859375,0.2264862060546875
1772807499874667500,0.99466748046875,-0.0054473876953125,0.9641876220703125,0.2247161865234375
1772807499884599600,1.004599609375,-0.0099029541015625,0.962249755859375,0.226806640625
1772807499894531600,1.014531494140625,-0.009490966796875,0.962738037109375,0.2311553955078125
1772807499904463600,1.024463623046875,-0.0028228759765625,0.9647979736328125,0.2291717529296875
1772807499914395600,1.034395751953125,-0.0040740966796875,0.9687652587890625,0.2291259765625
1772807499924327700,1.04432763671875,-0.007415771484375,0.9675140380859375,0.232421875
1772807499934259700,1.054259765625,-0.008026123046875,0.9671478271484375,0.2362823486328125
1772807499944191500,1.06419140625,-0.009490966796875,0.9686431884765625,0.23876953125
1772807499954123500,1.07412353515625,-0.0133209228515625,0.9695892333984375,0.24310302734375
1772807499964055600,1.0840556640625,-0.012176513671875,0.967437744140625,0.24896240234375
1772807499973987600,1.093987548828125,-0.0118408203125,0.966461181640625,0.2594451904296875
1772807499983920600,1.103920654296875,-0.0150299072265625,0.9610137939453125,0.26068115234375
1772807499993852700,1.113852783203125,-0.0191192626953125,0.958160400390625,0.2559051513671875
1772807500003784700,1.12378466796875,-0.0213165283203125,0.9556121826171875,0.2497711181640625
1772807500013716500,1.133716552734375,-0.0240631103515625,0.959381103515625,0.244171142578125
1772807500023648500,1.1436484375,-0.016143798828125,0.9608612060546875,0.2390594482421875
1772807500033580500,1.15358056640625,-0.015167236328125,0.961669921875,0.2394866943359375
1772807500043512300,1.16351220703125,-0.016632080078125,0.9666595458984375,0.236297607421875
1772807500053444400,1.1734443359375,-0.0138702392578125,0.9693603515625,0.2411346435546875
1772807500063376400,1.18337646484375,-0.0093994140625,0.9635162353515625,0.243682861328125
1772807500073308400,1.193308349609375,-0.0196075439453125,0.9607086181640625,0.2471160888671875
1772807500083240400,1.203240478515625,-0.0230560302734375,0.9650115966796875,0.2429351806640625
1772807500093172200,1.213172119140625,-0.0224456787109375,0.9671478271484375,0.2429351806640625
1772807500103105500,1.22310546875,-0.0165557861328125,0.9693756103515625,0.241180419921875
1772807500113037300,1.233037353515625,-0.013946533203125,0.967742919921875,0.23583984375
1772807500122969300,1.24296923828125,-0.018310546875,0.9610595703125,0.233856201171875
1772807500132901400,1.2529013671875,-0.02032470703125,0.959991455078125,0.2300872802734375
1772807500142833400,1.26283349609375,-0.0219573974609375,0.9631195068359375,0.2293701171875
1772807500152765400,1.272765380859375,-0.018798828125,0.9642791748046875,0.2295379638671875
1772807500162697200,1.282697265625,-0.0159149169921875,0.97119140625,0.2310028076171875
1772807500172629200,1.292629150390625,-0.0191650390625,0.976470947265625,0.233489990234375
1772807500182561300,1.302561279296875,-0.0225830078125,0.97467041015625,0.23193359375
1772807500192493300,1.312493408203125,-0.02099609375,0.978668212890625,0.2348480224609375
1772807500202425600,1.322425537109375,-0.023590087890625,0.984222412109375,0.239990234375
1772807500212357600,1.332357666015625,-0.0137176513671875,0.9803466796875,0.2374420166015625
1772807500222289400,1.342289306640625,-0.0109710693359375,0.9795379638671875,0.2437286376953125
1772807500232222200,1.35222216796875,-0.013580322265625,0.980133056640625,0.2510833740234375
1772807500242154200,1.362154296875,-0.0140838623046875,0.972900390625,0.2533416748046875
1772807500252086500,1.37208642578125,-0.0157470703125,0.9674072265625,0.25537109375
1772807500262018600,1.3820185546875,-0.0138702392578125,0.967987060546875,0.2592620849609375
1772807500271950600,1.39195068359375,-0.0136871337890625,0.9691314697265625,0.261627197265625
1772807500281882600,1.401882568359375,-0.010711669921875,0.9696197509765625,0.256561279296875
1772807500291814400,1.411814453125,-0.0171966552734375,0.969757080078125,0.2524261474609375
1772807500301746400,1.421746337890625,-0.014892578125,0.9671783447265625,0.2446746826171875
1772807500311678500,1.431678466796875,-0.0136260986328125,0.970123291015625,0.2415618896484375
1772807500321610500,1.441610595703125,-0.014862060546875,0.973297119140625,0.2470245361328125
1772807500331542500,1.45154248046875,-0.016021728515625,0.96807861328125,0.2507781982421875
1772807500341475600,1.4614755859375,-0.0113067626953125,0.9575347900390625,0.249755859375
1772807500351407600,1.47140771484375,-0.0073089599609375,0.95318603515625,0.2458648681640625
1772807500361339400,1.48133935546875,-0.012908935546875,0.9561004638671875,0.251678466796875
1772807500371271400,1.491271484375,-0.0147857666015625,0.94976806640625,0.2528533935546875
1772807500381203500,1.501203369140625,-0.00927734375,0.94970703125,0.252471923828125
1772807500391135500,1.511135498046875,-0.0111846923828125,0.9560699462890625,0.25152587890625
1772807500401067500,1.521067626953125,-0.017974853515625,0.953277587890625,0.250213623046875
1772807500410999600,1.53099951171875,-0.0074462890625,0.954742431640625,0.2456207275390625
1772807500420931300,1.540931396484375,-0.0118560791015625,0.9602203369140625,0.2498779296875
1772807500430863400,1.55086328125,-0.01068115234375,0.9535369873046875,0.251220703125
1772807500440795400,1.56079541015625,-0.001007080078125,0.953033447265625,0.2492828369140625
1772807500450727400,1.5707275390625,-0.0066375732421875,0.9565277099609375,0.25262451171875
1772807500460659500,1.580659423828125,-0.0187835693359375,0.958831787109375,0.255401611328125
1772807500470592500,1.590592529296875,-0.0174407958984375,0.9633941650390625,0.2541046142578125
1772807500480524500,1.600524658203125,-0.0143280029296875,0.9675750732421875,0.2530364990234375
1772807500490456300,1.610456298828125,-0.0094757080078125,0.9717864990234375,0.250885009765625
1772807500500388400,1.620388427734375,-0.0050811767578125,0.9705657958984375,0.2463226318359375
1772807500510320400,1.6303203125,-0.0059661865234375,0.970428466796875,0.2426605224609375
1772807500520252400,1.64025244140625,-0.0184783935546875,0.97003173828125,0.2337188720703125
1772807500530184400,1.650184326171875,-0.02264404296875,0.96649169921875,0.233245849609375
1772807500540116200,1.6601162109375,-0.0234222412109375,0.9629364013671875,0.2423248291015625
1772807500550048300,1.67004833984375,-0.0258026123046875,0.9632568359375,0.2454681396484375
1772807500559980300,1.679980224609375,-0.027618408203125,0.9669189453125,0.2459564208984375
1772807500569912300,1.689912353515625,-0.028228759765625,0.9703521728515625,0.247222900390625
1772807500579844400,1.69984423828125,-0.0303497314453125,0.97076416015625,0.2539215087890625
1772807500589777400,1.70977734375,-0.0290985107421875,0.969970703125,0.2516326904296875
1772807500599709400,1.71970947265625,-0.0316162109375,0.9662322998046875,0.24139404296875
1772807500609641200,1.72964111328125,-0.0306549072265625,0.9689178466796875,0.238861083984375
1772807500619573200,1.7395732421875,-0.02972412109375,0.9676971435546875,0.238677978515625
1772807500629505300,1.74950537109375,-0.031341552734375,0.96478271484375,0.23883056640625
1772807500639437300,1.759437255859375,-0.0302276611328125,0.96221923828125,0.2409515380859375
1772807500649369600,1.76936962890625,-0.0318756103515625,0.9640655517578125,0.2447357177734375
1772807500659301600,1.779301513671875,-0.0329437255859375,0.968353271484375,0.2433929443359375
1772807500669233400,1.7892333984375,-0.034515380859375,0.97406005859375,0.240814208984375
1772807500679165400,1.79916552734375,-0.0353546142578125,0.974822998046875,0.2369537353515625
1772807500689097500,1.809097412109375,-0.03607177734375,0.971923828125,0.234222412109375
1772807500699029500,1.819029541015625,-0.0351409912109375,0.9700469970703125,0.232452392578125
1772807500708962600,1.828962646484375,-0.040008544921875,0.9642333984375,0.22552490234375
1772807500718894600,1.83889453125,-0.041595458984375,0.9631500244140625,0.22747802734375
1772807500728826600,1.84882666015625,-0.039459228515625,0.9595489501953125,0.2319183349609375
1772807500738758400,1.85875830078125,-0.0424041748046875,0.9597015380859375,0.2381134033203125
1772807500748690400,1.8686904296875,-0.045867919921875,0.9641571044921875,0.2417449951171875
1772807500758622500,1.87862255859375,-0.044281005859375,0.96539306640625,0.2454071044921875
1772807500768554500,1.888554443359375,-0.0437774658203125,0.9678802490234375,0.246124267578125
1772807500778486500,1.898486572265625,-0.0413665771484375,0.970794677734375,0.246337890625
1772807500788418600,1.90841845703125,-0.038909912109375,0.9699249267578125,0.24639892578125
1772807500798350300,1.918350341796875,-0.0368194580078125,0.9721527099609375,0.248809814453125
1772807500808282400,1.928282470703125,-0.03485107421875,0.9693450927734375,0.2478485107421875
1772807500818215400,1.93821533203125,-0.032806396484375,0.968231201171875,0.2404022216796875
1772807500828147500,1.9481474609375,-0.0352325439453125,0.965972900390625,0.2411041259765625
1772807500838079500,1.95807958984375,-0.0347442626953125,0.9638671875,0.2417144775390625
1772807500848011500,1.968011474609375,-0.0354461669921875,0.9669342041015625,0.2494659423828125
1772807500857943600,1.977943603515625,-0.0400848388671875,0.9601287841796875,0.2563629150390625
1772807500867875300,1.987875244140625,-0.028778076171875,0.960845947265625,0.254608154296875
1772807500877807400,1.997807373046875,-0.024444580078125,0.9642181396484375,0.2542724609375
1772807500887739400,2.007739501953125,-0.0294189453125,0.9637908935546875,0.25079345703125
1772807500897671400,2.01767138671875,-0.0311737060546875,0.9626007080078125,0.2482757568359375
1772807500907603500,2.027603515625,-0.031158447265625,0.9630279541015625,0.2482757568359375
1772807500917535500,2.037535400390625,-0.0300445556640625,0.9632415771484375,0.2469940185546875
1772807500927467300,2.04746728515625,-0.0267486572265625,0.96173095703125,0.2473907470703125
1772807500937400300,2.057400390625,-0.029571533203125,0.9614105224609375,0.2483367919921875
1772807500947332400,2.067332275390625,-0.029083251953125,0.96307373046875,0.249603271484375
1772807500957264400,2.077264404296875,-0.0289306640625,0.9634552001953125,0.25323486328125
1772807500967196400,2.087196533203125,-0.02655029296875,0.963104248046875,0.25421142578125
1772807500977128400,2.09712841796875,-0.024261474609375,0.964324951171875,0.2522125244140625
1772807500987060500,2.107060546875,-0.0206451416015625,0.9638671875,0.251861572265625
1772807500996992300,2.1169921875,-0.020263671875,0.961517333984375,0.2470703125
1772807501006924300,2.12692431640625,-0.0267486572265625,0.95947265625,0.243377685546875
1772807501016856300,2.136856201171875,-0.0339508056640625,0.96270751953125,0.2408599853515625
1772807501026788400,2.146788330078125,-0.033416748046875,0.9654998779296875,0.2391357421875
1772807501036720600,2.156720703125,-0.034332275390625,0.965789794921875,0.2429351806640625
1772807501046652700,2.166652587890625,-0.0340728759765625,0.9646453857421875,0.2464752197265625
1772807501056585700,2.176585693359375,-0.0307769775390625,0.962127685546875,0.2473907470703125
1772807501066517800,2.186517822265625,-0.028961181640625,0.96356201171875,0.24542236328125
1772807501076449500,2.196449462890625,-0.0299530029296875,0.962921142578125,0.243194580078125
1772807501086381600,2.206381591796875,-0.029754638671875,0.96575927734375,0.2415313720703125
1772807501096313600,2.216313720703125,-0.0272064208984375,0.969146728515625,0.2406463623046875
1772807501106245600,2.22624560546875,-0.0271759033203125,0.970550537109375,0.2385406494140625
1772807501116178000,2.236177978515625,-0.028778076171875,0.9697723388671875,0.241973876953125
1772807501126110000,2.24610986328125,-0.0281219482421875,0.9699554443359375,0.24078369140625
1772807501136041700,2.256041748046875,-0.023895263671875,0.9713897705078125,0.2438201904296875
1772807501145973800,2.265973876953125,-0.02362060546875,0.9716033935546875,0.24298095703125
1772807501155905800,2.27590576171875,-0.0275726318359375,0.968414306640625,0.2425079345703125
1772807501165838600,2.285838623046875,-0.0286865234375,0.9662017822265625,0.240814208984375
1772807501175771000,2.29577099609375,-0.030120849609375,0.9659423828125,0.2375335693359375
1772807501185703000,2.305702880859375,-0.026458740234375,0.9667205810546875,0.235687255859375
1772807501195634700,2.315634765625,-0.0240936279296875,0.9676361083984375,0.2341461181640625
1772807501205566700,2.325566650390625,-0.028564453125,0.966949462890625,0.2336883544921875
1772807501215498800,2.335498779296875,-0.029205322265625,0.964508056640625,0.2346954345703125
1772807501225430800,2.3454306640625,-0.02862548828125,0.963226318359375,0.2367095947265625
1772807501235362800,2.35536279296875,-0.023193359375,0.9658050537109375,0.23828125
1772807501245294800,2.365294921875,-0.0249786376953125,0.9677581787109375,0.237884521484375
1772807501255226600,2.3752265625,-0.027862548828125,0.9662933349609375,0.23651123046875
1772807501265158700,2.38515869140625,-0.0288238525390625,0.965545654296875,0.2362060546875
1772807501275091700,2.395091796875,-0.0261688232421875,0.96514892578125,0.235382080078125
1772807501285023700,2.405023681640625,-0.0233917236328125,0.9662017822265625,0.2360992431640625
1772807501294955800,2.414955810546875,-0.0226898193359375,0.964630126953125,0.2379608154296875
1772807501304887800,2.4248876953125,-0.024658203125,0.9635772705078125,0.23638916015625
1772807501314819800,2.43481982421875,-0.0286712646484375,0.962646484375,0.2335662841796875
1772807501324751600,2.444751708984375,-0.0263214111328125,0.9658203125,0.22882080078125
1772807501334683600,2.45468359375,-0.02557373046875,0.9695892333984375,0.2301025390625
1772807501344615700,2.46461572265625,-0.026153564453125,0.9711456298828125,0.233978271484375
1772807501354547700,2.474547607421875,-0.0306549072265625,0.9678192138671875,0.235137939453125
1772807501364479700,2.484479736328125,-0.03106689453125,0.9660491943359375,0.2374420166015625
1772807501374411800,2.494411865234375,-0.029266357421875,0.9683380126953125,0.2376708984375
1772807501384344800,2.5043447265625,-0.0276031494140625,0.9695587158203125,0.2393035888671875
1772807501394276600,2.514276611328125,-0.0269927978515625,0.96929931640625,0.23974609375
1772807501404208600,2.524208740234375,-0.0303955078125,0.9681243896484375,0.2376861572265625
1772807501414140700,2.534140625,-0.031097412109375,0.96527099609375,0.2376251220703125
1772807501424072700,2.54407275390625,-0.0261688232421875,0.9651947021484375,0.236297607421875
1772807501434004700,2.554004638671875,-0.0252227783203125,0.9679718017578125,0.238494873046875
1772807501443936800,2.563936767578125,-0.0272064208984375,0.9651641845703125,0.2409820556640625
1772807501453868500,2.57386865234375,-0.027618408203125,0.9647979736328125,0.2393798828125
1772807501463800600,2.583800537109375,-0.027008056640625,0.966796875,0.2389068603515625
1772807501473732600,2.593732666015625,-0.025238037109375,0.968505859375,0.23974609375
1772807501483664600,2.60366455078125,-0.028076171875,0.9659881591796875,0.2382049560546875
1772807501493597700,2.61359765625,-0.0332489013671875,0.9637908935546875,0.2373199462890625
1772807501503529700,2.62352978515625,-0.0345001220703125,0.962860107421875,0.23602294921875
1772807501513461800,2.633461669921875,-0.0313720703125,0.964141845703125,0.23443603515625
1772807501523393500,2.6433935546875,-0.027984619140625,0.9645538330078125,0.235870361328125
1772807501533325600,2.65332568359375,-0.0301666259765625,0.9649658203125,0.2374725341796875
1772807501543257600,2.663257568359375,-0.0348968505859375,0.9628143310546875,0.2357940673828125
1772807501553189600,2.673189697265625,-0.0334625244140625,0.9648895263671875,0.235809326171875
1772807501563122000,2.683121826171875,-0.029510498046875,0.9686279296875,0.2395782470703125
1772807501573054000,2.693053955078125,-0.027557373046875,0.969573974609375,0.2417144775390625
1772807501582985700,2.70298583984375,-0.028564453125,0.9686431884765625,0.241943359375
1772807501592917800,2.712917724609375,-0.02911376953125,0.969970703125,0.2408294677734375
1772807501602850600,2.7228505859375,-0.0251312255859375,0.9718017578125,0.2420806884765625
1772807501612782600,2.732782470703125,-0.0220947265625,0.975311279296875,0.2430267333984375
1772807501622715000,2.74271484375,-0.0252685546875,0.972564697265625,0.2443389892578125
1772807501632647000,2.75264697265625,-0.028564453125,0.9683685302734375,0.244110107421875
1772807501642578700,2.76257861328125,-0.0272216796875,0.9666900634765625,0.24224853515625
1772807501652510700,2.7725107421875,-0.024169921875,0.968536376953125,0.24334716796875
1772807501662442800,2.78244287109375,-0.023162841796875,0.96868896484375,0.2469482421875
1772807501672374800,2.792374755859375,-0.0260162353515625,0.9644927978515625,0.247100830078125
1772807501682306800,2.802306884765625,-0.02532958984375,0.9627685546875,0.2461090087890625
1772807501692238800,2.81223876953125,-0.0233154296875,0.9637908935546875,0.2426605224609375
1772807501702170600,2.822170654296875,-0.025909423828125,0.9632720947265625,0.241058349609375
1772807501712103700,2.832103759765625,-0.025390625,0.9652252197265625,0.2378082275390625
1772807501722035700,2.84203564453125,-0.0244598388671875,0.9668121337890625,0.236175537109375
1772807501731967700,2.8519677734375,-0.0231170654296875,0.9668731689453125,0.2391510009765625
1772807501741899800,2.861899658203125,-0.0228271484375,0.9653778076171875,0.2416534423828125
1772807501751831800,2.871831787109375,-0.022705078125,0.9618377685546875,0.2434844970703125
1772807501761763800,2.881763916015625,-0.0206756591796875,0.9637451171875,0.246917724609375
1772807501771695600,2.891695556640625,-0.0191497802734375,0.9644775390625,0.2468719482421875
1772807501781627600,2.901627685546875,-0.0255279541015625,0.962646484375,0.246124267578125
1772807501791559700,2.9115595703125,-0.0306549072265625,0.9617767333984375,0.2440338134765625
1772807501801491700,2.92149169921875,-0.0284271240234375,0.96417236328125,0.240753173828125
1772807501811423700,2.931423828125,-0.024200439453125,0.9667510986328125,0.242279052734375
1772807501821356800,2.941356689453125,-0.0232696533203125,0.9665985107421875,0.2417144775390625
1772807501831288800,2.951288818359375,-0.0242156982421875,0.968017578125,0.241302490234375
1772807501841220600,2.961220703125,-0.022064208984375,0.96820068359375,0.243865966796875
1772807501851152600,2.971152587890625,-0.019256591796875,0.970733642578125,0.2454833984375
1772807501861084700,2.981084716796875,-0.019439697265625,0.9742584228515625,0.249420166015625
1772807501871016700,2.9910166015625,-0.02398681640625,0.9691314697265625,0.2488250732421875
1772807501880948700,3.00094873046875,-0.0299530029296875,0.96588134765625,0.247283935546875
1772807501890880800,3.010880859375,-0.0179901123046875,0.9613800048828125,0.2412109375
1772807501900812500,3.0208125,-0.019805908203125,0.9625701904296875,0.2404632568359375
1772807501910744600,3.03074462890625,-0.0238037109375,0.964385986328125,0.24176025390625
1772807501920677600,3.040677734375,-0.0292510986328125,0.9629058837890625,0.240478515625
1772807501930609700,3.050609619140625,-0.0275726318359375,0.9631500244140625,0.2401275634765625
1772807501940541700,3.060541748046875,-0.023223876953125,0.96722412109375,0.2409515380859375
1772807501950473700,3.0704736328125,-0.024200439453125,0.9697418212890625,0.24029541015625
1772807501960405800,3.08040576171875,-0.0269622802734375,0.9658660888671875,0.2416229248046875
1772807501970337500,3.090337646484375,-0.02630615234375,0.96429443359375,0.240570068359375
1772807501980269600,3.10026953125,-0.0250396728515625,0.9654998779296875,0.2430572509765625
1772807501990201600,3.11020166015625,-0.0262908935546875,0.962982177734375,0.244873046875
1772807502000133600,3.120133544921875,-0.0257415771484375,0.96441650390625,0.243804931640625
1772807502010066000,3.13006591796875,-0.0273590087890625,0.9679107666015625,0.2427978515625
1772807502019998000,3.139998046875,-0.031280517578125,0.96881103515625,0.2387847900390625
1772807502029930800,3.1499306640625,-0.0314788818359375,0.96697998046875,0.235687255859375
1772807502039862300,3.1598623046875,-0.0280914306640625,0.965423583984375,0.2353057861328125
1772807502049794300,3.169794189453125,-0.0254364013671875,0.969268798828125,0.2373199462890625
1772807502059726300,3.179726318359375,-0.0248260498046875,0.9686126708984375,0.237579345703125
1772807502069658400,3.189658447265625,-0.0273895263671875,0.96539306640625,0.2384796142578125
1772807502079590400,3.19959033203125,-0.026275634765625,0.9666290283203125,0.23980712890625
1772807502089522200,3.209522216796875,-0.0263671875,0.969635009765625,0.2427520751953125
1772807502099454200,3.2194541015625,-0.030670166015625,0.96826171875,0.243377685546875
1772807502109386200,3.22938623046875,-0.03173828125,0.9644775390625,0.241668701171875
1772807502119318300,3.239318359375,-0.0321197509765625,0.963409423828125,0.2413787841796875
1772807502129251300,3.249251220703125,-0.0296478271484375,0.9624481201171875,0.2389068603515625
1772807502139183400,3.259183349609375,-0.03009033203125,0.96368408203125,0.238739013671875
1772807502149115400,3.269115478515625,-0.0308074951171875,0.9638824462890625,0.23663330078125
1772807502159047200,3.279047119140625,-0.0305023193359375,0.9670562744140625,0.2363739013671875
1772807502168979200,3.288979248046875,-0.0289154052734375,0.967803955078125,0.23870849609375
1772807502178911200,3.2989111328125,-0.0261383056640625,0.9680328369140625,0.2407073974609375
1772807502188843300,3.30884326171875,-0.02288818359375,0.9667816162109375,0.240509033203125
1772807502198775300,3.318775390625,-0.0232696533203125,0.969085693359375,0.241485595703125
1772807502208707300,3.328707275390625,-0.026458740234375,0.9670257568359375,0.24212646484375
1772807502218639000,3.33863916015625,-0.0311279296875,0.9645233154296875,0.24127197265625
1772807502228571100,3.348571044921875,-0.03277587890625,0.9639434814453125,0.2416839599609375
1772807502238504200,3.358504150390625,-0.03033447265625,0.9644317626953125,0.241546630859375
1772807502248436200,3.368436279296875,-0.03216552734375,0.9654083251953125,0.2425537109375
1772807502258368300,3.3783681640625,-0.0321044921875,0.9644317626953125,0.24078369140625
1772807502268300300,3.38830029296875,-0.0316314697265625,0.9619293212890625,0.2400665283203125
1772807502278232300,3.398232421875,-0.030670166015625,0.9648284912109375,0.2379302978515625
1772807502288164000,3.4081640625,-0.0284881591796875,0.9678497314453125,0.239471435546875
1772807502298096000,3.41809619140625,-0.030120849609375,0.9662017822265625,0.2374114990234375
1772807502308028200,3.428028076171875,-0.033203125,0.9641265869140625,0.239227294921875
1772807502317960200,3.437960205078125,-0.0315704345703125,0.9632720947265625,0.238311767578125
1772807502327892200,3.447892333984375,-0.02850341796875,0.9673919677734375,0.2392730712890625
1772807502337825300,3.4578251953125,-0.0259552001953125,0.9688720703125,0.2399749755859375
1772807502347757300,3.46775732421875,-0.0283050537109375,0.966064453125,0.244659423828125
1772807502357689000,3.477689208984375,-0.03271484375,0.9648284912109375,0.242340087890625
1772807502367621000,3.48762109375,-0.032958984375,0.966033935546875,0.24017333984375
1772807502377553200,3.49755322265625,-0.0294342041015625,0.9675140380859375,0.23980712890625
1772807502387485200,3.507485107421875,-0.0266265869140625,0.9680328369140625,0.2406158447265625
1772807502397417200,3.517417236328125,-0.0287322998046875,0.9671630859375,0.2412109375
1772807502407349000,3.527348876953125,-0.030364990234375,0.9665069580078125,0.2409515380859375
1772807502417281000,3.537281005859375,-0.03125,0.9674072265625,0.24285888671875
1772807502427213300,3.54721337890625,-0.03265380859375,0.969146728515625,0.2423858642578125
1772807502437146000,3.55714599609375,-0.0364837646484375,0.9698333740234375,0.2398681640625
1772807502447078100,3.567078125,-0.036163330078125,0.968780517578125,0.2373504638671875
1772807502457010200,3.57701025390625,-0.0315704345703125,0.96685791015625,0.237945556640625
1772807502466942200,3.586942138671875,-0.026824951171875,0.9680938720703125,0.240264892578125
1772807502476874200,3.596874267578125,-0.03021240234375,0.9657440185546875,0.2392425537109375
1772807502486806300,3.60680615234375,-0.032958984375,0.9638519287109375,0.240020751953125
1772807502496738300,3.61673828125,-0.0340423583984375,0.9655303955078125,0.238616943359375
1772807502506670300,3.62667041015625,-0.0351715087890625,0.966796875,0.240081787109375
1772807502516602400,3.636602294921875,-0.032623291015625,0.9648284912109375,0.239898681640625
1772807502526534400,3.646534423828125,-0.030303955078125,0.9642333984375,0.24090576171875
1772807502536467200,3.65646728515625,-0.0286712646484375,0.96441650390625,0.24267578125
1772807502546399200,3.666399169921875,-0.02618408203125,0.9677734375,0.24591064453125
1772807502556331300,3.676331298828125,-0.029541015625,0.9660797119140625,0.2467803955078125
1772807502566263300,3.68626318359375,-0.0341949462890625,0.96246337890625,0.2449188232421875
1772807502576195300,3.6961953125,-0.0329742431640625,0.9617767333984375,0.2430267333984375
1772807502586127400,3.70612744140625,-0.0316162109375,0.9628448486328125,0.242828369140625
1772807502596059400,3.716059326171875,-0.0302886962890625,0.965667724609375,0.24072265625
1772807502605991200,3.7259912109375,-0.0288543701171875,0.9644012451171875,0.2413482666015625
1772807502615923200,3.735923095703125,-0.02587890625,0.9674835205078125,0.242034912109375
1772807502625855200,3.745855224609375,-0.0263519287109375,0.9690704345703125,0.2438201904296875
1772807502635788300,3.755788330078125,-0.0269775390625,0.9669189453125,0.2462005615234375
1772807502645720300,3.76572021484375,-0.0259857177734375,0.965057373046875,0.2450408935546875
1772807502655652400,3.77565234375,-0.0271148681640625,0.9661407470703125,0.24407958984375
1772807502665584400,3.78558447265625,-0.0275726318359375,0.966644287109375,0.24383544921875
1772807502675516200,3.79551611328125,-0.030548095703125,0.9668426513671875,0.2420654296875
1772807502685448200,3.8054482421875,-0.0308074951171875,0.9654693603515625,0.243438720703125
1772807502695380200,3.815380126953125,-0.0292205810546875,0.964752197265625,0.2407379150390625
1772807502705312300,3.825312255859375,-0.027862548828125,0.964996337890625,0.23992919921875
1772807502715244300,3.835244384765625,-0.0255584716796875,0.965789794921875,0.241973876953125
1772807502725176300,3.84517626953125,-0.0251617431640625,0.9656219482421875,0.2415008544921875
1772807502735109400,3.855109375,-0.0245819091796875,0.964935302734375,0.2401885986328125
1772807502745041200,3.865041259765625,-0.023223876953125,0.9673919677734375,0.24188232421875
1772807502754973200,3.87497314453125,-0.0243682861328125,0.9684906005859375,0.2409515380859375
1772807502764905200,3.8849052734375,-0.0259552001953125,0.965972900390625,0.2415924072265625
1772807502774837200,3.894837158203125,-0.0276641845703125,0.9641876220703125,0.24200439453125
1772807502784769300,3.904769287109375,-0.027130126953125,0.964752197265625,0.2423858642578125
1772807502794701300,3.914701416015625,-0.0272216796875,0.966278076171875,0.2428131103515625
1772807502804633000,3.924633056640625,-0.0294342041015625,0.9652252197265625,0.2412872314453125
1772807502814565000,3.934565185546875,-0.0291748046875,0.9657745361328125,0.2420196533203125
1772807502824498200,3.944498291015625,-0.0291595458984375,0.966796875,0.2398834228515625
1772807502834430200,3.95443017578125,-0.026702880859375,0.9669189453125,0.2390594482421875
1772807502844362200,3.9643623046875,-0.0258941650390625,0.96685791015625,0.2404022216796875
1772807502854294300,3.974294189453125,-0.027435302734375,0.9659271240234375,0.2364959716796875
1772807502864224300,3.984224365234375,-0.0277252197265625,0.9660797119140625,0.2386322021484375
1772807502874157300,3.9941572265625,-0.025421142578125,0.96514892578125,0.240081787109375
1772807502884089300,4.00408935546875,-0.02667236328125,0.965667724609375,0.2383270263671875
1772807502894021400,4.014021484375,-0.02911376953125,0.9646759033203125,0.238067626953125
1772807502903953400,4.023953369140625,-0.02838134765625,0.966796875,0.239959716796875
1772807502913885200,4.03388525390625,-0.02691650390625,0.967132568359375,0.2396240234375
1772807502923817200,4.043817138671875,-0.02935791015625,0.964202880859375,0.24151611328125
1772807502933749200,4.053749267578125,-0.027313232421875,0.965423583984375,0.2401123046875
1772807502943681300,4.063681396484375,-0.028564453125,0.9656982421875,0.2418975830078125
1772807502953613300,4.07361328125,-0.0269012451171875,0.9681396484375,0.2405548095703125
1772807502963545300,4.08354541015625,-0.0251007080078125,0.9667816162109375,0.2413177490234375
1772807502973478400,4.093478515625,-0.023712158203125,0.9677886962890625,0.2413177490234375
1772807502983410200,4.10341015625,-0.0262603759765625,0.9684600830078125,0.2410736083984375
1772807502993342200,4.11334228515625,-0.0277862548828125,0.967437744140625,0.242340087890625
1772807503003274200,4.123274169921875,-0.0307464599609375,0.9662933349609375,0.24029541015625
1772807503013206300,4.133206298828125,-0.0306549072265625,0.965850830078125,0.240081787109375
1772807503023138300,4.14313818359375,-0.0300750732421875,0.966522216796875,0.239044189453125
1772807503033070300,4.1530703125,-0.0319366455078125,0.9661865234375,0.2386474609375
1772807503043003000,4.1630029296875,-0.0300750732421875,0.965057373046875,0.238433837890625
1772807503052935000,4.172934814453125,-0.028045654296875,0.96514892578125,0.2371826171875
1772807503062868000,4.182867919921875,-0.028106689453125,0.9677581787109375,0.2370147705078125
1772807503072800000,4.192800048828125,-0.027923583984375,0.968353271484375,0.2364654541015625
1772807503082731800,4.202731689453125,-0.027740478515625,0.9686279296875,0.2359771728515625
1772807503092663800,4.212663818359375,-0.0284881591796875,0.968536376953125,0.2379913330078125
1772807503102595800,4.222595947265625,-0.032073974609375,0.967041015625,0.2384033203125
1772807503112528000,4.23252783203125,-0.030975341796875,0.9655914306640625,0.24041748046875
1772807503122460000,4.2424599609375,-0.0314483642578125,0.965789794921875,0.240936279296875
1772807503132391700,4.2523916015625,-0.0316925048828125,0.96490478515625,0.24127197265625
1772807503142323700,4.26232373046875,-0.0296173095703125,0.9647369384765625,0.238739013671875
1772807503152255700,4.272255859375,-0.0317535400390625,0.9648590087890625,0.238037109375
1772807503162188800,4.282188720703125,-0.0325164794921875,0.964874267578125,0.2385101318359375
1772807503172120800,4.292120849609375,-0.0301361083984375,0.967041015625,0.2393646240234375
1772807503182052900,4.302052978515625,-0.028564453125,0.9678802490234375,0.2411346435546875
1772807503191985000,4.31198486328125,-0.028045654296875,0.9691009521484375,0.2441558837890625
1772807503201916700,4.321916748046875,-0.0300140380859375,0.9675750732421875,0.2480926513671875
1772807503211848700,4.3318486328125,-0.026153564453125,0.965789794921875,0.246917724609375
1772807503221780700,4.34178076171875,-0.0244903564453125,0.9683380126953125,0.2447052001953125
1772807503231712800,4.351712646484375,-0.02862548828125,0.967620849609375,0.246246337890625
1772807503241644800,4.361644775390625,-0.0335540771484375,0.96612548828125,0.24591064453125
1772807503251577900,4.371577880859375,-0.03466796875,0.9664459228515625,0.2423095703125
1772807503261510000,4.381510009765625,-0.03656005859375,0.9667816162109375,0.23785400390625
1772807503271441700,4.391441650390625,-0.034027099609375,0.9650115966796875,0.237884521484375
1772807503281373700,4.401373779296875,-0.03253173828125,0.9644622802734375,0.2377471923828125
1772807503291305700,4.4113056640625,-0.029937744140625,0.963104248046875,0.2350616455078125
1772807503301237800,4.42123779296875,-0.0310516357421875,0.9651641845703125,0.2358856201171875
1772807503311169800,4.431169677734375,-0.032440185546875,0.9636077880859375,0.2360992431640625
1772807503321101800,4.441101806640625,-0.0328216552734375,0.965240478515625,0.2371673583984375
1772807503331033600,4.45103369140625,-0.0352783203125,0.967376708984375,0.2354583740234375
1772807503340965600,4.460965576171875,-0.035369873046875,0.9665679931640625,0.2387542724609375
1772807503350898700,4.470898681640625,-0.033721923828125,0.9688873291015625,0.2389068603515625
1772807503360830700,4.480830810546875,-0.0327911376953125,0.968597412109375,0.23779296875
1772807503370762800,4.4907626953125,-0.0329742431640625,0.9665985107421875,0.238555908203125
1772807503380694800,4.50069482421875,-0.03271484375,0.9655914306640625,0.2377166748046875
1772807503390626800,4.510626708984375,-0.0343170166015625,0.9684295654296875,0.237335205078125
1772807503400558600,4.52055859375,-0.035369873046875,0.966796875,0.2378997802734375
1772807503410490600,4.53049072265625,-0.0338592529296875,0.968780517578125,0.2385711669921875
1772807503420423000,4.5404228515625,-0.03369140625,0.9701080322265625,0.239105224609375
1772807503430355000,4.55035498046875,-0.0324249267578125,0.967864990234375,0.2397003173828125
1772807503440287700,4.560287841796875,-0.032867431640625,0.966888427734375,0.2415924072265625
1772807503450219800,4.5702197265625,-0.032318115234375,0.96807861328125,0.2413177490234375
1772807503460151800,4.58015185546875,-0.0348358154296875,0.9663238525390625,0.2396087646484375
1772807503470083800,4.590083740234375,-0.0379180908203125,0.966278076171875,0.24066162109375
1772807503480016000,4.600015869140625,-0.038787841796875,0.9664764404296875,0.2381744384765625
1772807503489948000,4.609947998046875,-0.0356903076171875,0.9654998779296875,0.23858642578125
1772807503499880000,4.6198798828125,-0.03515625,0.9661407470703125,0.2367401123046875
1772807503509812000,4.62981201171875,-0.031768798828125,0.965728759765625,0.240509033203125
1772807503519744000,4.639743896484375,-0.0307769775390625,0.9659881591796875,0.239959716796875
1772807503529676800,4.6496767578125,-0.03070068359375,0.9642181396484375,0.2397003173828125
1772807503539608800,4.65960888671875,-0.0304412841796875,0.9631500244140625,0.240875244140625
1772807503549540900,4.669540771484375,-0.032073974609375,0.966094970703125,0.2389678955078125
1772807503559473000,4.679472900390625,-0.0335845947265625,0.9667205810546875,0.236083984375
1772807503569405000,4.689405029296875,-0.034332275390625,0.9654998779296875,0.2356109619140625
1772807503579337000,4.6993369140625,-0.035491943359375,0.96490478515625,0.234100341796875
1772807503589269000,4.70926904296875,-0.03399658203125,0.9660186767578125,0.2339630126953125
1772807503599200800,4.71920068359375,-0.032958984375,0.967041015625,0.236663818359375
1772807503609132800,4.7291328125,-0.034912109375,0.9674224853515625,0.240966796875
1772807503619065900,4.73906591796875,-0.033905029296875,0.9682159423828125,0.2387542724609375
1772807503628998000,4.748997802734375,-0.0327301025390625,0.967315673828125,0.2391510009765625
1772807503638930000,4.758929931640625,-0.032562255859375,0.9683837890625,0.2388458251953125
1772807503648862000,4.768862060546875,-0.031768798828125,0.9699554443359375,0.23919677734375
1772807503658793700,4.778793701171875,-0.03326416015625,0.9694366455078125,0.239288330078125
1772807503668725800,4.788725830078125,-0.0329132080078125,0.968475341796875,0.23822021484375
1772807503678657800,4.79865771484375,-0.0345306396484375,0.968658447265625,0.2380828857421875
1772807503688589800,4.80858984375,-0.0337371826171875,0.9685821533203125,0.237701416015625
1772807503698521900,4.81852197265625,-0.0342254638671875,0.9702301025390625,0.23992919921875
1772807503708455000,4.828454833984375,-0.0358734130859375,0.969635009765625,0.23663330078125
1772807503718387000,4.838386962890625,-0.0302734375,0.971282958984375,0.2366943359375
1772807503728318700,4.848318603515625,-0.0283355712890625,0.9715576171875,0.2376861572265625
1772807503738250800,4.858250732421875,-0.028594970703125,0.97357177734375,0.23529052734375
1772807503748182800,4.868182861328125,-0.0248870849609375,0.974700927734375,0.23699951171875
1772807503758114800,4.87811474609375,-0.026885986328125,0.97454833984375,0.2400360107421875
1772807503768046800,4.888046875,-0.0291900634765625,0.9729461669921875,0.2418212890625
1772807503777979000,4.897978759765625,-0.02984619140625,0.972991943359375,0.2421875
1772807503787912000,4.907911865234375,-0.02960205078125,0.972503662109375,0.2415924072265625
1772807503797843700,4.91784375,-0.0311279296875,0.9687042236328125,0.2433319091796875
1772807503807775700,4.927775634765625,-0.0287017822265625,0.96563720703125,0.24359130859375
1772807503817707800,4.937707763671875,-0.023345947265625,0.9683990478515625,0.2398681640625
1772807503827639800,4.947639892578125,-0.0258636474609375,0.9688873291015625,0.2406463623046875
1772807503837571800,4.95757177734375,-0.0271148681640625,0.964996337890625,0.2421875
1772807503847504000,4.96750390625,-0.028564453125,0.962127685546875,0.2451019287109375
1772807503857435600,4.977435546875,-0.0262298583984375,0.965423583984375,0.246795654296875
1772807503867367700,4.98736767578125,-0.025787353515625,0.9681549072265625,0.2453155517578125
1772807503877300700,4.99730078125,-0.023681640625,0.9676055908203125,0.243316650390625
1772807503887232800,5.007232666015625,-0.02569580078125,0.9676666259765625,0.24444580078125
1772807503897164800,5.017164794921875,-0.0256500244140625,0.966064453125,0.245147705078125
1772807503907096800,5.027096923828125,-0.0262298583984375,0.963165283203125,0.2471771240234375
1772807503917028900,5.03702880859375,-0.03118896484375,0.9645538330078125,0.2490234375
1772807503926960600,5.046960693359375,-0.0343017578125,0.9630889892578125,0.248809814453125
1772807503936892700,5.056892578125,-0.033905029296875,0.9635772705078125,0.248260498046875
1772807503946824700,5.06682470703125,-0.0323944091796875,0.9654083251953125,0.2445831298828125
1772807503956756700,5.0767568359375,-0.034332275390625,0.965179443359375,0.241424560546875
1772807503966689800,5.086689697265625,-0.034881591796875,0.9634857177734375,0.2371063232421875
1772807503976621800,5.096621826171875,-0.0374908447265625,0.9638214111328125,0.238067626953125
1772807503986553900,5.106553955078125,-0.043212890625,0.9641876220703125,0.2385711669921875
1772807503996485600,5.116485595703125,-0.0487060546875,0.96624755859375,0.23480224609375
1772807504006417700,5.126417724609375,-0.0489349365234375,0.9669342041015625,0.234344482421875
1772807504016349700,5.136349609375,-0.0487060546875,0.969085693359375,0.234893798828125
1772807504026281700,5.14628173828125,-0.0433807373046875,0.9686126708984375,0.2323760986328125
1772807504036213800,5.1562138671875,-0.044708251953125,0.965789794921875,0.2339324951171875
1772807504046146000,5.16614599609375,-0.0475921630859375,0.965423583984375,0.235382080078125
1772807504056079000,5.1760791015625,-0.0568695068359375,0.9660491943359375,0.2363433837890625
1772807504066011100,5.18601123046875,-0.060394287109375,0.96087646484375,0.2288665771484375
1772807504075943200,5.195943115234375,-0.065704345703125,0.9748382568359375,0.2302093505859375
1772807504085875200,5.205875244140625,-0.0807342529296875,0.9733123779296875,0.2279815673828125
1772807504095807000,5.215806884765625,-0.0768585205078125,0.972686767578125,0.222564697265625
1772807504105739000,5.225739013671875,-0.076507568359375,0.9705963134765625,0.2144927978515625
1772807504115671000,5.235671142578125,-0.0653076171875,0.97027587890625,0.2120208740234375
1772807504125603000,5.24560302734375,-0.066925048828125,0.9708709716796875,0.21612548828125
1772807504135536000,5.2555361328125,-0.0673828125,0.9645538330078125,0.22216796875
1772807504145468200,5.26546826171875,-0.0576934814453125,0.9700775146484375,0.2255859375
1772807504155400200,5.275400146484375,-0.07269287109375,0.97320556640625,0.224761962890625
1772807504165332000,5.28533203125,-0.063323974609375,0.97064208984375,0.21820068359375
1772807504175264000,5.295263916015625,-0.0537872314453125,0.9795684814453125,0.219573974609375
1772807504185196300,5.3051962890625,-0.0585479736328125,0.9792327880859375,0.2188568115234375
1772807504195128300,5.31512841796875,-0.050933837890625,0.9717559814453125,0.220458984375
1772807504205060400,5.325060302734375,-0.04736328125,0.967193603515625,0.2258148193359375
1772807504214992400,5.334992431640625,-0.04931640625,0.969879150390625,0.2298431396484375
1772807504224925200,5.34492529296875,-0.0529327392578125,0.9658050537109375,0.2270660400390625
1772807504234857000,5.35485693359375,-0.0554962158203125,0.9609222412109375,0.225128173828125
1772807504244789200,5.364789306640625,-0.054840087890625,0.9563751220703125,0.2274627685546875
1772807504254721300,5.37472119140625,-0.05657958984375,0.9555816650390625,0.2300567626953125
1772807504264653300,5.3846533203125,-0.0512237548828125,0.9621734619140625,0.2317657470703125
1772807504274585300,5.39458544921875,-0.0532073974609375,0.969390869140625,0.2352752685546875
1772807504284517400,5.404517333984375,-0.0504608154296875,0.9722747802734375,0.2348785400390625
1772807504294449200,5.41444921875,-0.0493316650390625,0.97003173828125,0.234710693359375
1772807504304381200,5.424381103515625,-0.0522003173828125,0.9699249267578125,0.2295989990234375
1772807504314314200,5.434314208984375,-0.0501861572265625,0.9723358154296875,0.2305908203125
1772807504324246300,5.444246337890625,-0.048431396484375,0.969573974609375,0.2305450439453125
1772807504334178300,5.45417822265625,-0.0474090576171875,0.966705322265625,0.229705810546875
1772807504344110300,5.4641103515625,-0.0494537353515625,0.9666595458984375,0.2254791259765625
1772807504354042400,5.47404248046875,-0.0514678955078125,0.9633026123046875,0.2250518798828125
1772807504363974100,5.48397412109375,-0.06005859375,0.959075927734375,0.2241363525390625
1772807504373906200,5.49390625,-0.0660552978515625,0.94891357421875,0.2235107421875
1772807504383838200,5.503838134765625,-0.0620574951171875,0.95587158203125,0.222625732421875
1772807504393770200,5.513770263671875,-0.0787353515625,0.965911865234375,0.2247772216796875
1772807504403703300,5.523703369140625,-0.080291748046875,0.9664459228515625,0.2109222412109375
1772807504413635300,5.53363525390625,-0.07891845703125,0.966796875,0.201904296875
1772807504423567400,5.5435673828125,-0.088043212890625,0.9678955078125,0.1950531005859375
1772807504433499100,5.5534990234375,-0.0888519287109375,0.967254638671875,0.1860504150390625
1772807504443431200,5.56343115234375,-0.0876312255859375,0.966888427734375,0.18438720703125
1772807504453363200,5.57336328125,-0.0821380615234375,0.9679718017578125,0.18023681640625
1772807504463295200,5.583295166015625,-0.079620361328125,0.9669189453125,0.177703857421875
1772807504473227300,5.593227294921875,-0.0858154296875,0.968719482421875,0.185272216796875
1772807504483160300,5.603160400390625,-0.0946044921875,0.97247314453125,0.190032958984375
1772807504493092000,5.613092041015625,-0.0977935791015625,0.9718170166015625,0.18927001953125
1772807504503024000,5.623024169921875,-0.0976715087890625,0.971466064453125,0.18450927734375
1772807504512956200,5.6329560546875,-0.0962066650390625,0.9855499267578125,0.185150146484375
1772807504522888200,5.64288818359375,-0.098052978515625,0.9872589111328125,0.1869964599609375
1772807504532820200,5.6528203125,-0.0868072509765625,0.984375,0.192535400390625
1772807504542752300,5.662752197265625,-0.0839691162109375,0.9759979248046875,0.2017059326171875
1772807504552684000,5.67268408203125,-0.0882415771484375,0.972137451171875,0.2115020751953125
1772807504562616000,5.682615966796875,-0.0962371826171875,0.96636962890625,0.2151947021484375
1772807504572549000,5.692549072265625,-0.09564208984375,0.963836669921875,0.2185821533203125
1772807504582481200,5.702481201171875,-0.1066131591796875,0.956329345703125,0.2269439697265625
1772807504592413200,5.7124130859375,-0.0964202880859375,0.9570159912109375,0.2227783203125
1772807504602345200,5.72234521484375,-0.097381591796875,0.97210693359375,0.2266693115234375
1772807504612277200,5.73227734375,-0.0967559814453125,0.9769287109375,0.2225341796875
1772807504622209000,5.742208984375,-0.0799560546875,0.9857940673828125,0.218963623046875
1772807504632141000,5.75214111328125,-0.082244873046875,0.988983154296875,0.218109130859375
1772807504642073000,5.762072998046875,-0.0782318115234375,0.9895782470703125,0.216064453125
1772807504652006100,5.772006103515625,-0.08184814453125,0.9755859375,0.2200469970703125
1772807504661938200,5.781938232421875,-0.0860137939453125,0.9644775390625,0.2251434326171875
1772807504671870200,5.7918701171875,-0.0904693603515625,0.952911376953125,0.2255401611328125
1772807504681802200,5.80180224609375,-0.0980224609375,0.9459991455078125,0.229644775390625
1772807504691734000,5.811734130859375,-0.1022491455078125,0.9485321044921875,0.2287750244140625
1772807504701666000,5.821666015625,-0.10137939453125,0.9574737548828125,0.22979736328125
1772807504711598000,5.83159814453125,-0.0928955078125,0.968658447265625,0.228424072265625
1772807504721530000,5.841530029296875,-0.08636474609375,0.97705078125,0.22650146484375
1772807504731463200,5.851463134765625,-0.0785064697265625,0.9868316650390625,0.2187652587890625
1772807504741395200,5.861395263671875,-0.07501220703125,0.9867706298828125,0.2111053466796875
1772807504751327200,5.8713271484375,-0.0743560791015625,0.9733734130859375,0.2034759521484375
1772807504761259000,5.881259033203125,-0.07537841796875,0.9590301513671875,0.201751708984375
1772807504771191000,5.89119091796875,-0.0842437744140625,0.9476776123046875,0.20599365234375
1772807504781123000,5.901123046875,-0.0973968505859375,0.944366455078125,0.2083892822265625
1772807504791055000,5.91105517578125,-0.1084442138671875,0.9478912353515625,0.21038818359375
1772807504800987100,5.920987060546875,-0.1023101806640625,0.9593963623046875,0.2062225341796875
1772807504810919200,5.930919189453125,-0.1009979248046875,0.9799041748046875,0.2030029296875
1772807504820852200,5.940852294921875,-0.093536376953125,0.9842071533203125,0.1975860595703125
1772807504830784000,5.950783935546875,-0.076995849609375,0.9900054931640625,0.1952972412109375
1772807504840716000,5.960716064453125,-0.079620361328125,0.9850006103515625,0.2018280029296875
1772807504850648000,5.97064794921875,-0.07952880859375,0.971710205078125,0.20831298828125
1772807504860580000,5.980580078125,-0.083740234375,0.9582061767578125,0.21002197265625
1772807504870512000,5.99051220703125,-0.0904693603515625,0.9514617919921875,0.2123870849609375
1772807504880444400,6.0004443359375,-0.0951385498046875,0.9476470947265625,0.2132568359375
1772807504890376200,6.010376220703125,-0.096221923828125,0.9525146484375,0.209747314453125
1772807504900309000,6.02030908203125,-0.094146728515625,0.9638519287109375,0.2085113525390625
1772807504910241000,6.030240966796875,-0.083587646484375,0.9693756103515625,0.205810546875
1772807504920173000,6.040173095703125,-0.0753631591796875,0.9757080078125,0.2042694091796875
1772807504930105000,6.05010498046875,-0.0755767822265625,0.9796142578125,0.2020111083984375
1772807504940037400,6.060037353515625,-0.078582763671875,0.9826507568359375,0.197662353515625
1772807504949969400,6.069969482421875,-0.0786285400390625,0.9829254150390625,0.192840576171875
1772807504959901200,6.079901123046875,-0.0813140869140625,0.98040771484375,0.196533203125
1772807504969833200,6.089833251953125,-0.082244873046875,0.976318359375,0.205291748046875
1772807504979766000,6.09976611328125,-0.0870513916015625,0.9703826904296875,0.2101593017578125
1772807504989698000,6.109697998046875,-0.082489013671875,0.966033935546875,0.2120819091796875
1772807504999630300,6.11963037109375,-0.0770263671875,0.9607086181640625,0.2138671875
1772807505009562400,6.129562255859375,-0.0828094482421875,0.9628448486328125,0.2137298583984375
1772807505019494400,6.139494384765625,-0.0810699462890625,0.9705810546875,0.2068328857421875
1772807505029426200,6.14942626953125,-0.078216552734375,0.9798126220703125,0.2034912109375
1772807505039358200,6.159358154296875,-0.0794219970703125,0.980865478515625,0.201751708984375
1772807505049290000,6.1692900390625,-0.0797576904296875,0.97772216796875,0.1971893310546875
1772807505059222000,6.179221923828125,-0.077423095703125,0.9750823974609375,0.198028564453125
1772807505069155000,6.189155029296875,-0.0750885009765625,0.9757843017578125,0.2008819580078125
1772807505079087000,6.199087158203125,-0.0758056640625,0.975555419921875,0.2049102783203125
1772807505089019100,6.20901904296875,-0.0782470703125,0.97149658203125,0.20733642578125
1772807505098951000,6.218950927734375,-0.0778961181640625,0.9677276611328125,0.205780029296875
1772807505108883000,6.228883056640625,-0.0743408203125,0.968017578125,0.207733154296875
1772807505118815000,6.23881494140625,-0.0727996826171875,0.9690704345703125,0.208343505859375
1772807505128747000,6.2487470703125,-0.0743255615234375,0.967742919921875,0.20281982421875
1772807505138680000,6.25868017578125,-0.07135009765625,0.9676361083984375,0.200927734375
1772807505148612000,6.268612060546875,-0.0650787353515625,0.9678192138671875,0.201171875
1772807505158544100,6.278544189453125,-0.0626068115234375,0.975311279296875,0.200531005859375
1772807505168476000,6.288475830078125,-0.06878662109375,0.97613525390625,0.2005767822265625
1772807505178408000,6.298407958984375,-0.0741729736328125,0.9751434326171875,0.1990814208984375
1772807505188340000,6.308340087890625,-0.0753173828125,0.9713134765625,0.2003936767578125
1772807505198272000,6.31827197265625,-0.0755615234375,0.968170166015625,0.20013427734375
1772807505208204000,6.3282041015625,-0.07421875,0.967132568359375,0.1993408203125
1772807505218136000,6.338135986328125,-0.072265625,0.9683074951171875,0.2043914794921875
1772807505228069000,6.348069091796875,-0.0722198486328125,0.96826171875,0.20428466796875
1772807505238001000,6.3580009765625,-0.0728759765625,0.966339111328125,0.20361328125
1772807505247933000,6.367932861328125,-0.0739898681640625,0.970458984375,0.2003326416015625
1772807505257865000,6.377864990234375,-0.074981689453125,0.9730987548828125,0.199462890625
1772807505267797000,6.387796875,-0.07568359375,0.9732666015625,0.19818115234375
1772807505277729000,6.39772900390625,-0.075103759765625,0.9730224609375,0.1962127685546875
1772807505287661000,6.4076611328125,-0.0724029541015625,0.975555419921875,0.1939849853515625
1772807505297592800,6.4175927734375,-0.0738372802734375,0.976409912109375,0.197021484375
1772807505307526000,6.42752587890625,-0.0783538818359375,0.9741363525390625,0.1980743408203125
1772807505317458000,6.4374580078125,-0.07952880859375,0.9691619873046875,0.20208740234375
1772807505327390000,6.447389892578125,-0.0755767822265625,0.973663330078125,0.2068634033203125
1772807505337322000,6.457322021484375,-0.07513427734375,0.9780120849609375,0.2085113525390625
1772807505347254000,6.46725390625,-0.077972412109375,0.9733428955078125,0.2060546875
1772807505357186000,6.47718603515625,-0.079742431640625,0.968719482421875,0.203094482421875
1772807505367117800,6.487117919921875,-0.0760345458984375,0.9688262939453125,0.201416015625
1772807505377049900,6.4970498046875,-0.072540283203125,0.974365234375,0.2002105712890625
1772807505386983000,6.50698291015625,-0.0756378173828125,0.975738525390625,0.203216552734375
1772807505396915000,6.5169150390625,-0.080291748046875,0.973541259765625,0.2033233642578125
1772807505406847000,6.526846923828125,-0.0822601318359375,0.9734039306640625,0.2004852294921875
1772807505416779000,6.536779052734375,-0.0782623291015625,0.9742584228515625,0.20159912109375
1772807505426711000,6.5467109375,-0.0746917724609375,0.976226806640625,0.204437255859375
1772807505436642800,6.556642822265625,-0.0732269287109375,0.9738006591796875,0.2068939208984375
1772807505446574800,6.566574951171875,-0.0733642578125,0.9696502685546875,0.2082061767578125
1772807505456507000,6.5765068359375,-0.074127197265625,0.9672088623046875,0.2088470458984375
1772807505466440000,6.58643994140625,-0.06878662109375,0.9709930419921875,0.2088775634765625
1772807505476372000,6.5963720703125,-0.0684051513671875,0.9750823974609375,0.2109527587890625
1772807505486304000,6.606303955078125,-0.0701446533203125,0.9754486083984375,0.209564208984375
1772807505496236000,6.616236083984375,-0.0747528076171875,0.97332763671875,0.20452880859375
1772807505506167800,6.626167724609375,-0.0787506103515625,0.97100830078125,0.2014617919921875
1772807505516099800,6.636099853515625,-0.0802459716796875,0.972137451171875,0.1996612548828125
1772807505526032000,6.646031982421875,-0.0800933837890625,0.9735260009765625,0.202301025390625
1772807505535964000,6.6559638671875,-0.0773773193359375,0.97674560546875,0.2039947509765625
1772807505545897000,6.66589697265625,-0.0741119384765625,0.97601318359375,0.205902099609375
1772807505555829000,6.6758291015625,-0.0729217529296875,0.97320556640625,0.20751953125
1772807505565761000,6.685760986328125,-0.0744781494140625,0.971710205078125,0.206939697265625
1772807505575692800,6.69569287109375,-0.0773773193359375,0.9691925048828125,0.2071990966796875
1772807505585624800,6.705624755859375,-0.0751190185546875,0.9723052978515625,0.207427978515625
1772807505595556900,6.715556884765625,-0.0745086669921875,0.9732666015625,0.210174560546875
1772807505605489000,6.725489013671875,-0.074310302734375,0.971923828125,0.2088623046875
1772807505615422000,6.735421875,-0.0748291015625,0.9712982177734375,0.2069854736328125
1772807505625354000,6.74535400390625,-0.0712890625,0.9727783203125,0.2064208984375
1772807505635285800,6.75528564453125,-0.07244873046875,0.9736785888671875,0.206329345703125
1772807505645217800,6.7652177734375,-0.0752105712890625,0.9695587158203125,0.2032928466796875
1772807505655149800,6.77514990234375,-0.07769775390625,0.9685821533203125,0.2033233642578125
1772807505665081900,6.785081787109375,-0.0755767822265625,0.97418212890625,0.204986572265625
1772807505675014100,6.79501416015625,-0.0705718994140625,0.9791107177734375,0.206939697265625
1772807505684946200,6.8049462890625,-0.0717620849609375,0.972869873046875,0.2097625732421875
1772807505694879000,6.81487890625,-0.0734100341796875,0.9681549072265625,0.2082366943359375
1772807505704810800,6.824810791015625,-0.06903076171875,0.9690704345703125,0.2069091796875
1772807505714742800,6.83474267578125,-0.0674591064453125,0.97003173828125,0.2074127197265625
1772807505724674800,6.8446748046875,-0.069061279296875,0.967529296875,0.2077178955078125
1772807505734607000,6.854607177734375,-0.0707855224609375,0.966644287109375,0.20849609375
1772807505744539100,6.8645390625,-0.0689697265625,0.9674072265625,0.2074432373046875
1772807505754471200,6.87447119140625,-0.067962646484375,0.9698486328125,0.20989990234375
1772807505764403000,6.88440283203125,-0.0692291259765625,0.9691925048828125,0.20916748046875
1772807505774335700,6.894335693359375,-0.0717926025390625,0.9694061279296875,0.2089691162109375
1772807505784267800,6.904267822265625,-0.0744171142578125,0.96978759765625,0.2071990966796875
1772807505794200000,6.914199951171875,-0.0729522705078125,0.9717559814453125,0.206573486328125
1772807505804132000,6.924132080078125,-0.072967529296875,0.9732208251953125,0.204925537109375
1772807505814064000,6.934064208984375,-0.0748138427734375,0.970703125,0.2048492431640625
1772807505823996200,6.94399609375,-0.0727386474609375,0.973114013671875,0.203887939453125
1772807505833928000,6.953927978515625,-0.072784423828125,0.9766387939453125,0.2076873779296875
1772807505843860000,6.96385986328125,-0.0749969482421875,0.9779205322265625,0.2059783935546875
1772807505853793000,6.97379296875,-0.0736236572265625,0.9721832275390625,0.204986572265625
1772807505863725000,6.98372509765625,-0.073760986328125,0.9690704345703125,0.2064971923828125
1772807505873657000,6.993656982421875,-0.075347900390625,0.971435546875,0.2057037353515625
1772807505883589000,7.003589111328125,-0.075653076171875,0.9737701416015625,0.2059478759765625
1772807505893521200,7.013521240234375,-0.0762481689453125,0.97320556640625,0.2061614990234375
1772807505903453000,7.023452880859375,-0.075347900390625,0.9727325439453125,0.2065887451171875
1772807505913385000,7.033385009765625,-0.0727996826171875,0.9741058349609375,0.20843505859375
1772807505923317000,7.04331689453125,-0.0709991455078125,0.9745025634765625,0.2092437744140625
1772807505933250000,7.05325,-0.0724945068359375,0.9738616943359375,0.212677001953125
1772807505943182000,7.06318212890625,-0.0705718994140625,0.971221923828125,0.2127227783203125
1772807505953114000,7.073114013671875,-0.068817138671875,0.97076416015625,0.2123260498046875
1772807505963046100,7.083046142578125,-0.068511962890625,0.9718475341796875,0.2117156982421875
1772807505972978000,7.09297802734375,-0.0728759765625,0.9700164794921875,0.211761474609375
1772807505982910000,7.102909912109375,-0.07391357421875,0.968170166015625,0.2063446044921875
1772807505992842000,7.112842041015625,-0.073516845703125,0.971466064453125,0.2054901123046875
1772807506002775000,7.122775146484375,-0.076904296875,0.972564697265625,0.2075042724609375
1772807506012707000,7.13270703125,-0.0765838623046875,0.97003173828125,0.2065887451171875
1772807506022639000,7.14263916015625,-0.0718994140625,0.967926025390625,0.208740234375
1772807506032571100,7.152571044921875,-0.06927490234375,0.969390869140625,0.2068939208984375
1772807506042503400,7.16250341796875,-0.0712738037109375,0.971466064453125,0.2107086181640625
1772807506052435500,7.172435546875,-0.0715484619140625,0.9737548828125,0.2101593017578125
1772807506062367200,7.1823671875,-0.069915771484375,0.9741668701171875,0.209686279296875
1772807506072299300,7.19229931640625,-0.06951904296875,0.9728240966796875,0.2101287841796875
1772807506082232300,7.202232421875,-0.06866455078125,0.970672607421875,0.2089080810546875
1772807506092164400,7.212164306640625,-0.0711822509765625,0.969024658203125,0.2060546875
1772807506102096400,7.222096435546875,-0.0743865966796875,0.96868896484375,0.206512451171875
1772807506112028400,7.2320283203125,-0.0752716064453125,0.9695281982421875,0.206268310546875
1772807506121960400,7.24196044921875,-0.0738677978515625,0.9674530029296875,0.208343505859375
1772807506131892200,7.251892333984375,-0.074493408203125,0.9677581787109375,0.2085418701171875
1772807506141824300,7.26182421875,-0.074554443359375,0.9690704345703125,0.2089385986328125
1772807506151756300,7.27175634765625,-0.0731964111328125,0.9701690673828125,0.2092742919921875
1772807506161689300,7.281689453125,-0.0749664306640625,0.9720001220703125,0.2076873779296875
1772807506171621400,7.291621337890625,-0.073150634765625,0.9749908447265625,0.2061309814453125
1772807506181553400,7.301553466796875,-0.0711517333984375,0.97271728515625,0.20654296875
1772807506191485400,7.3114853515625,-0.0727386474609375,0.9733428955078125,0.20941162109375
1772807506201417200,7.321417236328125,-0.0748291015625,0.9719085693359375,0.207916259765625
1772807506211349200,7.331349365234375,-0.07452392578125,0.9685211181640625,0.207977294921875
1772807506221281300,7.34128125,-0.0734100341796875,0.9676666259765625,0.206451416015625
1772807506231214300,7.35121435546875,-0.0757293701171875,0.969329833984375,0.204498291015625
1772807506241146400,7.361146484375,-0.0794219970703125,0.9716033935546875,0.2041473388671875
1772807506251078400,7.371078369140625,-0.078826904296875,0.9699859619140625,0.2040252685546875
1772807506261010400,7.381010498046875,-0.0771331787109375,0.9709320068359375,0.2061614990234375
1772807506270942200,7.390942138671875,-0.0748443603515625,0.9730377197265625,0.2081298828125
1772807506280874200,7.400874267578125,-0.074188232421875,0.97406005859375,0.207855224609375
1772807506290806300,7.41080615234375,-0.0739593505859375,0.975555419921875,0.2080535888671875
1772807506300738300,7.42073828125,-0.0727691650390625,0.97393798828125,0.2093048095703125
1772807506310671400,7.43067138671875,-0.0733795166015625,0.9731903076171875,0.2099761962890625
1772807506320603400,7.440603271484375,-0.073455810546875,0.971038818359375,0.2100067138671875
1772807506330535400,7.450535400390625,-0.0765838623046875,0.9689483642578125,0.20697021484375
1772807506340467200,7.46046728515625,-0.0773773193359375,0.97003173828125,0.203826904296875
1772807506350399200,7.470399169921875,-0.079803466796875,0.9725341796875,0.2031402587890625
1772807506360331300,7.480331298828125,-0.0792236328125,0.9729766845703125,0.2044525146484375
1772807506370263300,7.49026318359375,-0.0795745849609375,0.9720001220703125,0.20440673828125
1772807506380195300,7.5001953125,-0.0798492431640625,0.9725494384765625,0.2028961181640625
1772807506390128400,7.51012841796875,-0.0774078369140625,0.9722747802734375,0.2014923095703125
1772807506400060400,7.520060302734375,-0.0782012939453125,0.9730987548828125,0.20208740234375
1772807506409992200,7.5299921875,-0.074615478515625,0.975860595703125,0.2020416259765625
1772807506419924200,7.53992431640625,-0.072174072265625,0.9780731201171875,0.2061920166015625
1772807506429856300,7.549856201171875,-0.072357177734375,0.9738616943359375,0.2090606689453125
1772807506439788300,7.559788330078125,-0.0717926025390625,0.969024658203125,0.2086944580078125
1772807506449720300,7.56972021484375,-0.07159423828125,0.968505859375,0.2090606689453125
1772807506459653400,7.5796533203125,-0.07421875,0.9676055908203125,0.208251953125
1772807506469585400,7.58958544921875,-0.0714111328125,0.967620849609375,0.2092132568359375
1772807506479517200,7.59951708984375,-0.06243896484375,0.9671783447265625,0.2057342529296875
1772807506489449200,7.60944921875,-0.072052001953125,0.9697113037109375,0.2091064453125
1772807506499381200,7.61938134765625,-0.0798797607421875,0.9700775146484375,0.20831298828125
1772807506509313300,7.629313232421875,-0.087310791015625,0.971923828125,0.2076568603515625
1772807506519245300,7.639245361328125,-0.084503173828125,0.9695281982421875,0.208953857421875
1772807506529177000,7.649177001953125,-0.0828399658203125,0.9691162109375,0.2054443359375
1772807506539110400,7.6591103515625,-0.078033447265625,0.97259521484375,0.20697021484375
1772807506549042200,7.669042236328125,-0.0761871337890625,0.9732208251953125,0.2036895751953125
1772807506558974200,7.67897412109375,-0.0830230712890625,0.971160888671875,0.2021026611328125
1772807506568906200,7.68890625,-0.0881195068359375,0.969696044921875,0.2036590576171875
1772807506578838300,7.69883837890625,-0.0886688232421875,0.9700469970703125,0.2054595947265625
1772807506588770300,7.708770263671875,-0.09112548828125,0.9691925048828125,0.2051239013671875
1772807506598702000,7.7187021484375,-0.0908660888671875,0.9709320068359375,0.2049713134765625
1772807506608634000,7.728634033203125,-0.086761474609375,0.9720916748046875,0.2074432373046875
1772807506618567200,7.738567138671875,-0.0876007080078125,0.971160888671875,0.2072601318359375
1772807506628499200,7.748499267578125,-0.087371826171875,0.967987060546875,0.2053070068359375
1772807506638431200,7.75843115234375,-0.087066650390625,0.9691009521484375,0.20611572265625
1772807506648363300,7.76836328125,-0.0898895263671875,0.9713897705078125,0.203826904296875
1772807506658295300,7.77829541015625,-0.0945281982421875,0.9760589599609375,0.204681396484375
1772807506668227000,7.78822705078125,-0.0894927978515625,0.9756927490234375,0.2031402587890625
1772807506678159400,7.798159423828125,-0.077056884765625,0.973541259765625,0.2045440673828125
1772807506688092200,7.808092041015625,-0.06365966796875,0.9722747802734375,0.2027435302734375
