time,seconds_elapsed,z,y,x
1772807498950983400,0.0709833984375,-0.08522687171287834,-0.029746903488039968,-0.017030629777908323
1772807498960916500,0.08091650390625,-0.04525193113386631,-0.043344051685929294,-0.022691578149050474
1772807498970848300,0.09084814453125,-0.0305342544734478,-0.0773158793926239,-0.007112754614651203
1772807498980780300,0.1007802734375,-0.035921792730689045,-0.06980185050070285,-0.0034299744486808773
1772807498990712300,0.11071240234375,-0.029619441183470187,-0.052951253464818,-0.006955518226325511
1772807499000644400,0.120644287109375,-0.03470244353618473,-0.03205518043041229,-0.008339812191575766
1772807499010576400,0.130576416015625,-0.03436462641656399,-0.058926236221194264,0.04422609521746635
1772807499020508400,0.14050830078125,-0.0020440365156158802,-0.046047465425729746,0.23704861457869408
1772807499030440400,0.1504404296875,0.04084003297574818,-0.02027297269999981,0.04168868569433689
1772807499040372700,0.160372802734375,0.14720953636262565,-0.12216507494449615,-0.10147300004959106
1772807499050304800,0.1703046875,-0.10260697251558304,-0.06665127751529216,-0.01347936703711748
1772807499060236500,0.180236572265625,-0.185745274451375,0.007636778488755226,0.08549684776067733
1772807499070168600,0.19016845703125,-0.1810134966891259,-0.008481412619352341,0.0029877836391329765
1772807499080100600,0.2001005859375,-0.1480529649168253,-0.06185176827907562,-0.03913505568876862
1772807499090032600,0.21003271484375,-0.05058682588841766,-0.10979776080250739,-0.012070230891555548
1772807499099965700,0.219965576171875,0.011888627246953547,-0.11202245111465453,0.010697335103154182
1772807499109897700,0.229897705078125,0.026031682357192037,-0.08491174134910107,0.030662995419651267
1772807499119829800,0.239829833984375,-0.008865991490148007,-0.07633271357417107,-0.0023230361200869084
1772807499129761500,0.249761474609375,-0.08140577905476093,-0.08026771493554115,-0.03853562849089503
1772807499139693600,0.259693603515625,-0.13081716795563697,-0.04829436756968498,-0.061478697182983155
1772807499149625600,0.26962548828125,-0.15800912626385688,-0.03069675155878067,-0.07577931747511028
1772807499159557600,0.2795576171875,-0.08229892850220202,-0.04203706074059009,-0.037377544496953484
1772807499169489700,0.28948974609375,-0.048354536791704594,-0.05443593906462192,-0.03902414266020059
1772807499179421700,0.299421630859375,-0.08564064014554024,-0.03458323760330677,-0.041749768231809134
1772807499189353500,0.309353515625,-0.11067637026794254,-0.04090075018703937,-0.05021145323738455
1772807499199285500,0.319285400390625,-0.09707092916574328,-0.06450666670203209,-0.06603329174742102
1772807499209217500,0.329217529296875,-0.1171387712150812,-0.050963294517993925,-0.05884235733002424
1772807499219149600,0.339149658203125,-0.12025887599699199,-0.02810381245613098,-0.06472659306302667
1772807499229082600,0.34908251953125,-0.1236567017417401,-0.059302083796262735,-0.08443477148711681
1772807499239014700,0.3590146484375,-0.11937807457447051,-0.07254676529467105,-0.0899867065258324
1772807499248946700,0.36894677734375,-0.13892397510893642,-0.06601765578687191,-0.09997545496821403
1772807499258878500,0.37887841796875,-0.15804894681759177,-0.034575638818740845,-0.09714242349937557
1772807499268810500,0.388810546875,-0.17095687064230441,-0.004460486540198326,-0.11133578402474521
1772807499278742500,0.398742431640625,-0.19244097269773483,-0.014036124137043951,-0.14080343217998742
1772807499288674600,0.408674560546875,-0.19748948825895785,-0.03417816393375397,-0.12154255913197994
1772807499298606600,0.418606689453125,-0.18459785798192024,-0.045292263144254684,-0.12497209518924354
1772807499308538400,0.428538330078125,-0.12736731976270674,-0.05856909334659576,-0.12080430798530578
1772807499318470400,0.438470458984375,-0.0780395905572921,-0.061117024263739585,-0.1070535766609013
1772807499328402400,0.44840234375,-0.07861001085639,-0.045704351076483726,-0.09475947388559579
1772807499338334500,0.45833447265625,-0.08457629884965717,-0.007470774272084236,-0.05785699955448508
1772807499348266500,0.4682666015625,-0.11459149788506329,-0.04041851962804794,-0.04489975669533014
1772807499358199600,0.478199462890625,-0.153463884049654,-0.03887947349250316,-0.07147460601851344
1772807499368131600,0.488131591796875,-0.17696688817944375,-0.031030513557791708,-0.07230988779887557
1772807499378063400,0.4980634765625,-0.16368300718180834,-0.030059622699022293,-0.07627294621095061
1772807499387995400,0.507995361328125,-0.14302191194705663,-0.07037643551826477,-0.027006080347299573
1772807499397927400,0.517927490234375,-0.08440843146946281,-0.09973404742777348,-0.01092003794312477
1772807499407859500,0.527859375,-0.02560903649833053,-0.0909445917725563,0.02970277208536863
1772807499417791500,0.53779150390625,0.028534678154066205,-0.05885960072576999,0.10072758850976825
1772807499427723500,0.5477236328125,0.01434482476003468,-0.019679682981967924,0.17480360919833182
1772807499437655600,0.557655517578125,-0.03910681597497314,-0.010249006813764571,0.10890402683317661
1772807499447587600,0.567587646484375,-0.11600479874908923,0.029013328516483305,0.05081555661037564
1772807499457519600,0.57751953125,-0.1723427720427513,-0.018406009784340857,0.019262480483204125
1772807499467451600,0.58745166015625,-0.14163202849123627,-0.06153846454620361,-0.10979162332266569
1772807499477383700,0.5973837890625,-0.1374742877572775,-0.01202887596786022,-0.13805048021003602
1772807499487316700,0.607316650390625,-0.10108487751483916,-0.0773199710458517,-0.19454247502163052
1772807499497248800,0.617248779296875,-0.05664952346086502,-0.09115911130607128,-0.23015096401944754
1772807499507180500,0.6271806640625,-0.09840247003044933,-0.11103694720864295,-0.23375921764448285
1772807499517112600,0.637112548828125,-0.10278408264815807,-0.10581307508051395,-0.22023601146563887
1772807499527044600,0.647044677734375,-0.09094397071804851,-0.10594809963703154,-0.15565964052826164
1772807499536976600,0.6569765625,-0.11009407686796038,-0.09187398157715797,-0.13600041581243275
1772807499546908700,0.66690869140625,-0.18176168470792473,-0.007341010412573814,-0.03833528361320496
1772807499556840700,0.6768408203125,-0.2113040785998106,-0.06647416738271712,-0.012277736162394285
1772807499566772500,0.6867724609375,-0.1346842917125672,-0.018509470158815385,-0.06790273888111115
1772807499576704500,0.69670458984375,-0.1005038627564907,0.006616203269362449,-0.06566285099983216
1772807499586636500,0.706636474609375,-0.032740824607014656,-0.011576456025242805,-0.11949439443051814
1772807499596568600,0.716568603515625,-0.05844163104202598,-0.02894552397727966,-0.18918401672840118
1772807499606500600,0.72650048828125,-0.14032905613388866,-0.03425765891075134,-0.2522549515388906
1772807499616433700,0.73643359375,-0.11697623759713023,-0.02381342178583145,-0.27970439173951744
1772807499626365700,0.74636572265625,-0.09956862773299216,0.02183013901412487,-0.2682322728715837
1772807499636297500,0.75629736328125,-0.059250645869970316,0.03701601770818233,-0.19534940749034285
1772807499646229500,0.7662294921875,-0.00953475759718567,0.020333178454637526,-0.11403978228643535
1772807499656161500,0.77616162109375,0.0037228199154138563,-0.004490297156572342,-0.05949234567135572
1772807499666093600,0.786093505859375,0.09488540182020515,0.026951135289669036,-0.057159957201033826
1772807499676025600,0.796025634765625,0.016816073711775244,0.048559740507602686,-0.008955021480470894
1772807499685957600,0.80595751953125,-0.04565408219397068,-0.053043023401498794,-0.07707140311226249
1772807499695889400,0.815889404296875,0.08248831359446049,-0.04104454257190227,-0.13717501254975795
1772807499705821400,0.825821533203125,0.013469137904047966,0.0035509704798460003,-0.1338107968136668
1772807499715753500,0.83575341796875,0.11660455474052578,0.04517009806931019,-0.10470818257853388
1772807499725685500,0.845685546875,0.08192362891640513,0.08083937734365462,-0.08705152985677123
1772807499735618600,0.85561865234375,0.1875000091642141,0.042729719179868696,-0.07257029230073093
1772807499745550600,0.865550537109375,0.29177053097784517,0.16356500682532787,-0.02421031214892864
1772807499755482400,0.875482421875,0.24349019193351268,0.240839385163784,0.0011265198118984698
1772807499765414400,0.885414306640625,0.17850421728193758,0.16960253342390058,-0.004039338518679142
1772807499775346400,0.895346435546875,0.18965689493715762,0.06999240463674068,-0.026729893754422664
1772807499785278500,0.905278564453125,0.22201135057508944,0.023504794228076935,-0.11308218930065632
1772807499795210500,0.91521044921875,0.21838435571696607,0.012442717465758323,-0.16979323369041086
1772807499805142500,0.925142578125,0.23121464772820471,-0.007826163581013679,-0.21458587674945592
1772807499815074600,0.935074462890625,0.25268062960505483,0.0032867665857076642,-0.21499109654948115
1772807499825006600,0.945006591796875,0.23257894008504226,-0.02095335617959499,-0.2283406997270882
1772807499834938600,0.954938720703125,0.22092530890405176,-0.014488544079661369,-0.24623364542275666
1772807499844870700,0.96487060546875,0.16856973804375155,-0.043021980124711985,-0.20596724761649965
1772807499854802700,0.974802734375,0.17211073511885477,-0.011626724907755851,-0.11831819025799631
1772807499864735500,0.984735595703125,0.15598434243798254,-0.06540040067136288,-0.03596037117540836
1772807499874667500,0.99466748046875,0.18961656292676923,-0.08428630292713642,-0.05565642077028751
1772807499884599600,1.004599609375,0.14156597751770167,-0.10301730688214301,-0.03677168755829334
1772807499894531600,1.014531494140625,0.1416957413772121,-0.09805705412626266,0.004740326394885778
1772807499904463600,1.024463623046875,0.2021522376392968,-0.07767477583289147,-0.01598258202970028
1772807499914395600,1.034395751953125,0.1839654235635884,-0.03855740193128586,-0.017914134614169595
1772807499924327700,1.04432763671875,0.14444412676990032,-0.050526656666398044,0.012480126866698265
1772807499934259700,1.054259765625,0.1317833826392889,-0.05378069002628326,0.04829086043834686
1772807499944191500,1.06419140625,0.11152911463975906,-0.03880173208117485,0.07082227958962321
1772807499954123500,1.07412353515625,0.06979834336936473,-0.02905541409254074,0.11098127149865031
1772807499964055600,1.0840556640625,0.07881989074740559,-0.049565118157863616,0.16577771443873643
1772807499973987600,1.093987548828125,0.08072424479769542,-0.05837853921055793,0.2652634861938655
1772807499983920600,1.103920654296875,0.04784839563416317,-0.11104279242753982,0.27408421377018094
1772807499993852700,1.113852783203125,0.005097049144376069,-0.13832359806299208,0.22409268689379094
1772807500003784700,1.12378466796875,-0.02053308494091034,-0.16275719757378102,0.16127850332334637
1772807500013716500,1.133716552734375,-0.05283374629868194,-0.12535130376517772,0.10407339180633425
1772807500023648500,1.1436484375,0.018556231909990308,-0.11046645384430885,0.051912265805900096
1772807500033580500,1.15358056640625,0.022651976791024205,-0.10214344665706157,0.05405658435821533
1772807500043512300,1.16351220703125,0.006249105256330221,-0.052739072018861764,0.020665917540341614
1772807500053444400,1.1734443359375,0.03503680832339451,-0.025592121896147728,0.06548530247583985
1772807500063376400,1.18337646484375,0.08185936804115772,-0.08200432946979999,0.08697627266347407
1772807500073308400,1.193308349609375,-0.01438506543887779,-0.10848492463827132,0.11658347541987896
1772807500083240400,1.203240478515625,-0.044018005424737924,-0.06531798308491707,0.07190905191302299
1772807500093172200,1.213172119140625,-0.034625907701253886,-0.04349544285535812,0.06858122266456484
1772807500103105500,1.22310546875,0.02420214710878208,-0.02081833162307739,0.04804492285326123
1772807500113037300,1.233037353515625,0.04879941274868324,-0.03598316752910614,-0.007887099988013506
1772807500122969300,1.24296923828125,0.003993471816647797,-0.10066635984182357,-0.031017654076218603
1772807500132901400,1.2529013671875,-0.018096194916497915,-0.11039748026132583,-0.07120601821020245
1772807500142833400,1.26283349609375,-0.03619123905552551,-0.07889233492910862,-0.08179185576289892
1772807500152765400,1.272765380859375,-0.007703413984179497,-0.0666933630913496,-0.08370733399540185
1772807500162697200,1.282697265625,0.017289006719458846,0.0019505495458841324,-0.07308832482546568
1772807500172629200,1.292629150390625,-0.01835048020482063,0.05469780487120151,-0.05293006454631686
1772807500182561300,1.302561279296875,-0.05535130034387111,0.03790390645861626,-0.0719455845311284
1772807500192493300,1.312493408203125,-0.04217385712908581,0.07802958061993122,-0.047265024521946905
1772807500202425600,1.322425537109375,-0.06740942067252471,0.13338731070458887,-0.00042260932624340057
1772807500212357600,1.332357666015625,0.031507501686085015,0.0959767407208681,-0.027681349260360002
1772807500222289400,1.342289306640625,0.061593975859414785,0.08844459165036678,0.03258431887105107
1772807500232222200,1.35222216796875,0.04038869074536487,0.09460545236766338,0.10371493375748396
1772807500242154200,1.362154296875,0.04028409785972908,0.02395195347368717,0.12511384174749254
1772807500252086500,1.37208642578125,0.028613533810246734,-0.029728783309459685,0.14461100776940583
1772807500262018600,1.3820185546875,0.0505091392760165,-0.023940847557783126,0.18263006504029033
1772807500271950600,1.39195068359375,0.05445521002067253,-0.012784078249335288,0.2062646231278777
1772807500281882600,1.401882568359375,0.08532381101502105,-0.008256371691823005,0.15777122585475445
1772807500291814400,1.411814453125,0.024676157828699797,-0.007153963407874107,0.11844459311664103
1772807500301746400,1.421746337890625,0.052065118280053134,-0.03267828076481819,0.04377732853665948
1772807500311678500,1.431678466796875,0.07004853700445965,-0.004032616516947746,0.014672960735857487
1772807500321610500,1.441610595703125,0.06336920537101104,0.026899697363376617,0.069500383336097
1772807500331542500,1.45154248046875,0.05685178630100563,-0.024396190109848975,0.10723273262009024
1772807500341475600,1.4614755859375,0.10675884976433589,-0.12795067260861395,0.09816811328530312
1772807500351407600,1.47140771484375,0.14830546010686083,-0.17085107218027115,0.06125979373529553
1772807500361339400,1.48133935546875,0.09451368243098258,-0.14236381336450576,0.11875395132675766
1772807500371271400,1.491271484375,0.07573882106794044,-0.2044026286482811,0.1299944533959031
1772807500381203500,1.501203369140625,0.12743042986048383,-0.20480010353326797,0.12522241668850181
1772807500391135500,1.511135498046875,0.10582883890522643,-0.14209902494847773,0.11445566961094736
1772807500401067500,1.521067626953125,0.037082068681716915,-0.16900690561830997,0.09946385218426584
1772807500410999600,1.53099951171875,0.13835516224503516,-0.1540741249024868,0.051951574902981516
1772807500420931300,1.540931396484375,0.09430091646313667,-0.09964812270998955,0.09077741851210594
1772807500430863400,1.55086328125,0.10560262893391772,-0.1644131480872631,0.10079875404983758
1772807500440795400,1.56079541015625,0.19977728866888209,-0.16860943073332307,0.07875029610991477
1772807500450727400,1.5707275390625,0.14307342293858527,-0.1336047528475523,0.10842208853513002
1772807500460659500,1.580659423828125,0.02273671419871971,-0.1101852988153696,0.13224194006174803
1772807500470592500,1.590592529296875,0.035452403386961664,-0.06455459749698639,0.11592252729311585
1772807500480524500,1.600524658203125,0.06656358096553013,-0.0226958159327507,0.10206512072384356
1772807500490456300,1.610456298828125,0.11542961094332858,0.019478022930026054,0.07758855885416269
1772807500500388400,1.620388427734375,0.1598708102161996,0.008365677285194396,0.02953939821720123
1772807500510320400,1.6303203125,0.15238018046617507,0.00793722274005413,-0.00992751977443695
1772807500520252400,1.64025244140625,0.030225042393803594,0.0048860184758901595,-0.1009048447728157
1772807500530184400,1.650184326171875,-0.010866828184854238,-0.029088731840252874,-0.10850552903488278
1772807500540116200,1.6601162109375,-0.019301515585649756,-0.06333528483510018,-0.021995850969851016
1772807500550048300,1.67004833984375,-0.04416939659416675,-0.05966565641164779,0.006603197657316923
1772807500559980300,1.679980224609375,-0.06309270825088024,-0.02332709957361221,0.00961333925873041
1772807500569912300,1.689912353515625,-0.06910800475133583,0.010686229187250137,0.020665771409869194
1772807500579844400,1.69984423828125,-0.08858778124703094,0.015146715727448462,0.08480988840982318
1772807500589777400,1.70977734375,-0.07437224542247131,0.007719196075201034,0.06113835931271314
1772807500599709400,1.71970947265625,-0.09653086747229099,-0.02881049942076206,-0.039565994451940055
1772807500609641200,1.72964111328125,-0.08498245023144409,-0.002463759765028953,-0.06425678359419107
1772807500619573200,1.7395732421875,-0.07465279766321181,-0.014380992051959036,-0.06615925621464848
1772807500629505300,1.74950537109375,-0.08949030131101608,-0.04296118984818458,-0.06457140250131488
1772807500639437300,1.759437255859375,-0.07726619503200054,-0.06815232972800732,-0.04344795045182109
1772807500649369600,1.76936962890625,-0.09207390632973983,-0.05013619604408741,-0.005858370639383792
1772807500659301600,1.779301513671875,-0.1015367129355669,-0.008221884900331497,-0.018406155914813278
1772807500669233400,1.7892333984375,-0.11588088010847568,0.04763035070300102,-0.04315086720138788
1772807500679165400,1.79916552734375,-0.12258008548617362,0.05502338356375694,-0.0805171596519649
1772807500689097500,1.809097412109375,-0.12745439525796098,0.026612112593650816,-0.10717939499765634
1772807500699029500,1.819029541015625,-0.11567511013699695,0.008292027527093886,-0.12462313562110065
1772807500708962600,1.828962646484375,-0.15968553504347802,-0.04866729253530502,-0.19240955464616416
1772807500718894600,1.83889453125,-0.17106033101677895,-0.05921440551280975,-0.17314955838099122
1772807500728826600,1.84882666015625,-0.1470768133610487,-0.09438742570281028,-0.12986571244969963
1772807500738758400,1.85875830078125,-0.17360479133520273,-0.09285188669860363,-0.06903247356340289
1772807500748690400,1.8686904296875,-0.20574059925377366,-0.04931786539852619,-0.0325993703097105
1772807500758622500,1.87862255859375,-0.18851061097886412,-0.03747779000103473,0.004593026878684759
1772807500768554500,1.888554443359375,-0.18189499223139136,-0.013467968860268593,0.013308102123439311
1772807500778486500,1.898486572265625,-0.15655483580231666,0.014798925203084946,0.016822832246124745
1772807500788418600,1.90841845703125,-0.13081658343374727,0.006010054069757461,0.01861936027407646
1772807500798350300,1.918350341796875,-0.10914251176416874,0.027639117553830146,0.04325198948830366
1772807500808282400,1.928282470703125,-0.08993629151284695,-0.0001356090784072876,0.03477320721745491
1772807500818215400,1.93821533203125,-0.07073471090402454,-0.011314005696773528,-0.03733122113719582
1772807500828147500,1.9481474609375,-0.0948398456454277,-0.03372515946924686,-0.02942731614485383
1772807500838079500,1.95807958984375,-0.08933891014158725,-0.05472060122489929,-0.021996143230795857
1772807500848011500,1.968011474609375,-0.09436349683795124,-0.02493745737969875,0.0553843258306384
1772807500857943600,1.977943603515625,-0.1365800057986751,-0.09198913238942623,0.12461816718503832
1772807500867875300,1.987875244140625,-0.022495909446477887,-0.08532908997833728,0.10923910400643944
1772807500877807400,1.997807373046875,0.02154659109869972,-0.052633273556828494,0.1076091647170484
1772807500887739400,2.007739501953125,-0.02705810279548168,-0.057115387406945224,0.07467121010273695
1772807500897671400,2.01767138671875,-0.044531252176500856,-0.06905249343812465,0.05101210209578275
1772807500907603500,2.027603515625,-0.04440143351806328,-0.06508183624148368,0.05188406262472271
1772807500917535500,2.037535400390625,-0.033004443979263304,-0.06316752705276012,0.040088557021319866
1772807500927467300,2.04746728515625,0.000367079746723175,-0.07807517332732677,0.044467648888379334
1772807500937400300,2.057400390625,-0.02605857036411762,-0.08125204979777335,0.05402151304483414
1772807500947332400,2.067332275390625,-0.020420856738090513,-0.06499006630480289,0.0667284344047308
1772807500957264400,2.077264404296875,-0.018472627013456075,-0.061359600847959515,0.10283508218303322
1772807500967196400,2.087196533203125,0.0048895621398463845,-0.06495850212275982,0.11304083437696098
1772807500977128400,2.09712841796875,0.027046430623997,-0.05311082794070243,0.09390066509917377
1772807500987060500,2.107060546875,0.0619289434348233,-0.05764671780467033,0.09058218820095061
1772807500996992300,2.1169921875,0.06482349583255127,-0.08067629573643208,0.04344298201575875
1772807501006924300,2.12692431640625,0.0002870185141451657,-0.10062427426576613,0.006712357120215892
1772807501016856300,2.136856201171875,-0.07109309588763862,-0.06868541369140148,-0.018919950655847787
1772807501026788400,2.146788330078125,-0.06700547951413319,-0.04111351615488529,-0.03670899758562445
1772807501036720600,2.156720703125,-0.07730828060805797,-0.03809329155087471,-0.00029927520751953123
1772807501046652700,2.166652587890625,-0.07596037313044071,-0.04919803841114044,0.03381298388317227
1772807501056585700,2.176585693359375,-0.04460544992387294,-0.07381693136096,0.042404725009202955
1772807501066517800,2.186517822265625,-0.02715922508239746,-0.05970131224691867,0.022861966279894112
1772807501076449500,2.196449462890625,-0.03678750618193298,-0.06610007337331772,0.0014801555551588535
1772807501086381600,2.206381591796875,-0.034601357781887054,-0.038463293907046316,-0.014023556916415691
1772807501096313600,2.216313720703125,-0.009692541974782943,-0.005420856004953384,-0.02200418040677905
1772807501106245600,2.22624560546875,-0.009815912626124917,0.008172785061597824,-0.04200768851563334
1772807501116178000,2.236177978515625,-0.025800248221494255,0.0003787701845169067,-0.007717734770476817
1772807501126110000,2.24610986328125,-0.01923603086769581,0.002013093388080597,-0.018731588476896283
1772807501136041700,2.256041748046875,0.022024803069699554,0.015977321332693098,0.011432517509907484
1772807501145973800,2.265973876953125,0.024087599084712565,0.01796060410439968,0.003580927226692438
1772807501155905800,2.27590576171875,-0.014927520018815994,-0.013439911809563635,-0.0005832067154347896
1772807501165838600,2.285838623046875,-0.025244952426292,-0.035246085426211354,-0.016692191603779792
1772807501175771000,2.29577099609375,-0.03779050921201706,-0.03785656018555164,-0.048435091214627024
1772807501185703000,2.305702880859375,-0.00041908392859622834,-0.030244916138052937,-0.0663004182510078
1772807501195634700,2.315634765625,0.02342592030558735,-0.021204700592160224,-0.08159063410237431
1772807501205566700,2.325566650390625,-0.02031619078721851,-0.027907413101196286,-0.08619301333129406
1772807501215498800,2.335498779296875,-0.026692740081809458,-0.05186579631567001,-0.07626227868646383
1772807501225430800,2.3454306640625,-0.020348339491151272,-0.06450666670203209,-0.05615267985463142
1772807501235362800,2.35536279296875,0.03416240010904148,-0.03934358387291431,-0.04010068585053086
1772807501245294800,2.365294921875,0.01807341682910919,-0.02027297269999981,-0.04350216485708952
1772807501255226600,2.3752265625,-0.009101590344309806,-0.034621231526136394,-0.05691577318161726
1772807501265158700,2.38515869140625,-0.01784368146015331,-0.04187281008958816,-0.06015490123331546
1772807501275091700,2.395091796875,0.008392583558429033,-0.0457096117734909,-0.06842720114663244
1772807501285023700,2.405023681640625,0.03506780624985695,-0.035360651716589926,-0.061552200810611246
1772807501294955800,2.414955810546875,0.04063539551543072,-0.050748774984478946,-0.043542789128422736
1772807501304887800,2.4248876953125,0.01961949549363926,-0.061035775721073146,-0.05929623857736587
1772807501314819800,2.43481982421875,-0.021270203576423227,-0.07015548624396324,-0.08717880949825048
1772807501324751600,2.444751708984375,0.0006476502537727355,-0.03907996450066566,-0.13364420807510613
1772807501334683600,2.45468359375,0.0066594761555083095,-0.0021913725644350053,-0.12092939566969871
1772807501344615700,2.46461572265625,-0.0007557320044375955,0.013017302483320236,-0.08289061078503727
1772807501354547700,2.474547607421875,-0.04651389562739059,-0.01965630210638046,-0.07147957445457577
1772807501364479700,2.484479736328125,-0.05165419939160347,-0.0370697937220335,-0.04878112817332148
1772807501374411800,2.494411865234375,-0.03467380196359009,-0.014610124632716178,-0.04666442828029394
1772807501384344800,2.5043447265625,-0.019205051207542418,-0.0026069676280021667,-0.030868162602931258
1772807501394276600,2.514276611328125,-0.013878303226828575,-0.0051221653193235395,-0.026713234880566594
1772807501404208600,2.524208740234375,-0.0471668065781705,-0.016627894195914268,-0.04697232518568635
1772807501414140700,2.534140625,-0.053481378286145624,-0.04461129514276981,-0.047506432062387464
1772807501424072700,2.54407275390625,-0.004483867415785789,-0.0453916318655014,-0.06032587388604879
1772807501434004700,2.554004638671875,0.004854454293847084,-0.01816810937523842,-0.03873027428016066
1772807501443936800,2.563936767578125,-0.01481003111898899,-0.045704351076483726,-0.014353081131726503
1772807501453868500,2.57386865234375,-0.019002222111821173,-0.04927285721302032,-0.03017053572759032
1772807501463800600,2.583800537109375,-0.013260463589429854,-0.029693711996078488,-0.03474105851352215
1772807501473732600,2.593732666015625,0.0031242877666838465,-0.012910334977507591,-0.026709289357811212
1772807501483664600,2.60366455078125,-0.026105313848983496,-0.03755319332480431,-0.0421579106412828
1772807501493597700,2.61359765625,-0.0780699126303196,-0.05899579432606697,-0.05138736514896154
1772807501503529700,2.62352978515625,-0.0912234087139368,-0.06798048029243946,-0.06477393933609128
1772807501513461800,2.633461669921875,-0.06142623634338379,-0.05522212100625038,-0.08117883843109011
1772807501523393500,2.6433935546875,-0.02979012157525867,-0.05092588511705398,-0.06829860633090137
1772807501533325600,2.65332568359375,-0.05319207648336887,-0.04668927046060562,-0.05357581510394811
1772807501543257600,2.663257568359375,-0.10127250904142857,-0.06768821934759617,-0.07060878296941518
1772807501553189600,2.673189697265625,-0.08877541277362033,-0.047326399320364,-0.07065919798240065
1772807501563122000,2.683121826171875,-0.05178049265239387,-0.010732990938425063,-0.033602994394302366
1772807501573054000,2.693053955078125,-0.03474222755730152,-0.0014788403809070586,-0.012773849116265773
1772807501582985700,2.70298583984375,-0.04662731114029884,-0.010588614031672477,-0.010798018998652697
1772807501592917800,2.712917724609375,-0.053313072514533995,0.0024409634113311766,-0.02189326737821102
1772807501602850600,2.7228505859375,-0.01460548499021679,0.020418518650531767,-0.009738134682178497
1772807501612782600,2.732782470703125,0.015144980428088456,0.0548334139496088,-0.0004582651615142822
1772807501622715000,2.74271484375,-0.015546528699994086,0.027933716586232185,0.01231105391010642
1772807501632647000,2.75264697265625,-0.046660026099812235,-0.01321136375069618,0.010164981792122125
1772807501642578700,2.76257861328125,-0.031492870372533795,-0.02969721912741661,-0.007794161007553338
1772807501652510700,2.7725107421875,0.0005248641243204474,-0.011643091520667075,0.0033978257447481153
1772807501662442800,2.78244287109375,0.012151643831003457,-0.010204583150148392,0.03911883520632982
1772807501672374800,2.792374755859375,-0.014534703042637556,-0.05138824193179607,0.04087883061617613
1772807501682306800,2.802306884765625,-0.00688212419655174,-0.06841653362214564,0.03172024938762188
1772807501692238800,2.81223876953125,0.013293196815252303,-0.05856324812769889,-0.0013650047428905962
1772807501702170600,2.822170654296875,-0.012222900702618061,-0.06369885745048523,-0.016894582308083772
1772807501712103700,2.832103759765625,-0.0072714340413920575,-0.04457797739505768,-0.048649026226252313
1772807501722035700,2.84203564453125,0.0020674539238214494,-0.02907061166167259,-0.06441986520141363
1772807501731967700,2.8519677734375,0.01596740272687748,-0.028517069432139396,-0.03498553479388356
1772807501741899800,2.861899658203125,0.019904157653916624,-0.0431564201593399,-0.010433569600433111
1772807501751831800,2.871831787109375,0.022588227372430263,-0.07783902648389339,0.007542378203570842
1772807501761763800,2.881763916015625,0.043647948269639164,-0.059123220098018646,0.041287849808484316
1772807501771695600,2.891695556640625,0.05862926256861537,-0.051984454259276384,0.041014293564110994
1772807501781627600,2.901627685546875,-0.004915281102992594,-0.07005845561027527,0.03404898459613323
1772807501791559700,2.9115595703125,-0.0563017329365015,-0.07879647333920002,0.014266864152997731
1772807501801491700,2.92149169921875,-0.035167156704794617,-0.05553250212967396,-0.017061755568534134
1772807501811423700,2.931423828125,0.005664565100334584,-0.030420272704958912,-0.0014525368958711623
1772807501821356800,2.941356689453125,0.014603110370039939,-0.0320025734603405,-0.006668956369906664
1772807501831288800,2.951288818359375,0.006135689743421971,-0.01809387509524822,-0.01059153664112091
1772807501841220600,2.961220703125,0.029102760365605353,-0.016249708533287048,0.014542758484929799
1772807501851152600,2.971152587890625,0.05829666961338371,0.008625789526104927,0.030434593491256236
1772807501861084700,2.981084716796875,0.05737959130108356,0.04325169722735882,0.06889379574507475
1772807501871016700,2.9910166015625,0.01328501350879669,-0.006962240228056907,0.06285407718941569
1772807501880948700,3.00094873046875,-0.04433304445696994,-0.03883329626321792,0.04782689618840814
1772807501890880800,3.010880859375,0.0734820003181696,-0.08307692713737487,-0.011276450165361166
1772807501900812500,3.0208125,0.05612929897904396,-0.07142974396348,-0.018462708407640457
1772807501910744600,3.03074462890625,0.017455010936129837,-0.05360591798126697,-0.00575520252585411
1772807501920677600,3.040677734375,-0.034600188738107676,-0.06806698953211307,-0.018393442563712597
1772807501930609700,3.050609619140625,-0.016449615019559858,-0.06563304038345813,-0.021815672097355125
1772807501940541700,3.060541748046875,0.027507618394959715,-0.025575755283236502,-0.014010112912952899
1772807501950473700,3.0704736328125,0.01859652738776058,-0.0007838438540697097,-0.020779607047885656
1772807501960405800,3.08040576171875,-0.008088613909482956,-0.03870937762260437,-0.00805076611712575
1772807501970337500,3.090337646484375,-0.0011748889982700348,-0.054065352186560625,-0.01855170186534524
1772807501980269600,3.10026953125,0.012001366906426846,-0.042184944778680795,0.005688420899957418
1772807501990201600,3.11020166015625,0.0005243161350488662,-0.06681552816629409,0.023339959055185315
1772807502000133600,3.120133544921875,0.0063794353714212776,-0.0527332267999649,0.012853051832318305
1772807502010066000,3.13006591796875,-0.009607786300778388,-0.018433482313156127,0.002830254989862442
1772807502019998000,3.139998046875,-0.0487380196839571,-0.009658639705181122,-0.036382103718817234
1772807502029930800,3.1499306640625,-0.051173722398281093,-0.02770458400547504,-0.06645487816035747
1772807502039862300,3.1598623046875,-0.018007365855574605,-0.04302314916849136,-0.06997779158949852
1772807502049794300,3.169794189453125,0.008327098840475082,-0.005345452681183815,-0.050068391504883764
1772807502059726300,3.179726318359375,0.01520752427028492,-0.011754735201597213,-0.047529812937974925
1772807502069658400,3.189658447265625,-0.008180365579854696,-0.043321255332231516,-0.03853723592609167
1772807502079590400,3.19959033203125,0.004796038637496531,-0.031208792734146118,-0.025260844115167855
1772807502089522200,3.209522216796875,0.005412690964806824,-0.0017506430596113203,0.0038696810401976107
1772807502099454200,3.2194541015625,-0.035737083813548086,-0.01525485227704048,0.010269026688486336
1772807502109386200,3.22938623046875,-0.04491879018936306,-0.05238134462237358,-0.006280249313265085
1772807502119318300,3.239318359375,-0.046775195178389545,-0.06285714592933654,-0.00890928264260292
1772807502129251300,3.249251220703125,-0.020299860706925393,-0.07226210313439368,-0.03298237827792763
1772807502139183400,3.259183349609375,-0.02219842433724552,-0.06008534312844276,-0.03457607721015811
1772807502149115400,3.269115478515625,-0.026844204316474496,-0.0580880318313837,-0.05515855425074696
1772807502159047200,3.279047119140625,-0.02216855892194435,-0.027004326781630516,-0.057343350943923
1772807502168979200,3.288979248046875,-0.005901917520165443,-0.01979483379423618,-0.03387655063867569
1772807502178911200,3.2989111328125,0.021203549814689904,-0.017637363499402998,-0.013938655111938715
1772807502188843300,3.30884326171875,0.05225567241609096,-0.03002045973241329,-0.015527823999524116
1772807502198775300,3.318775390625,0.04724043806996196,-0.007535656201839446,-0.0056529111951589585
1772807502208707300,3.328707275390625,0.014492051210999488,-0.02780979794561863,0.0007500877149403095
1772807502218639000,3.33863916015625,-0.03247136001586914,-0.052395957669615745,-0.007582710213959217
1772807502228571100,3.348571044921875,-0.049471631188131866,-0.05807341878414154,-0.003672989424318075
1772807502238504200,3.358504150390625,-0.026104163071513174,-0.05324702154099941,-0.005237023870646953
1772807502248436200,3.368436279296875,-0.044715888028405607,-0.04361351627707481,0.0043364217691123485
1772807502258368300,3.3783681640625,-0.044475101542472834,-0.05309972202479839,-0.013425591023266315
1772807502268300300,3.38830029296875,-0.03970772274388,-0.07753741318881512,-0.020853987458348273
1772807502278232300,3.398232421875,-0.02993276318265125,-0.04898702600896358,-0.04224178953245282
1772807502288164000,3.4081640625,-0.00852636600593105,-0.019229016605019567,-0.02764730086028576
1772807502298096000,3.41809619140625,-0.024688487587310372,-0.0352834948271513,-0.048288814611732955
1772807502308028200,3.428028076171875,-0.054648741565085944,-0.05553776282668113,-0.0308380597256124
1772807502317960200,3.437960205078125,-0.037812721043825145,-0.06385784740447997,-0.039960692857950925
1772807502327892200,3.447892333984375,-0.006985036581754684,-0.02343172899186611,-0.030545360389351843
1772807502337825300,3.4578251953125,0.017962321137450634,-0.008899345770478248,-0.023735826504975556
1772807502347757300,3.46775732421875,-0.005959200665354728,-0.03643266486227512,0.022100772649049756
1772807502357689000,3.477689208984375,-0.05013268891274929,-0.04860241060554981,-0.0005517886638641358
1772807502367621000,3.48762109375,-0.05304357139077037,-0.036810266003012654,-0.021742606861144303
1772807502377553200,3.49755322265625,-0.01849953328669071,-0.022307693397998807,-0.025286709208786486
1772807502387485200,3.507485107421875,0.008746201035380362,-0.017219430348277092,-0.017391133653372526
1772807502397417200,3.517417236328125,-0.012486556607484817,-0.025762217766046522,-0.011569149501621722
1772807502407349000,3.527348876953125,-0.028736849662661552,-0.03221417038440704,-0.014069441884756088
1772807502417281000,3.537281005859375,-0.03699439039826393,-0.023384967240691185,0.004681435814499855
1772807502427213300,3.54721337890625,-0.04991524676978588,-0.006281856748461723,-0.00004091653227806091
1772807502437146000,3.55714599609375,-0.08661916632149368,0.00045534255206584927,-0.024646511609107254
1772807502447078100,3.567078125,-0.08260408546123653,-0.009893617504835129,-0.049139147830754515
1772807502457010200,3.57701025390625,-0.03651102732811123,-0.028791210198402403,-0.043011897122114895
1772807502466942200,3.586942138671875,0.010253098466992377,-0.01675122831463814,-0.019916706608235836
1772807502476874200,3.596874267578125,-0.022690518703125415,-0.03987491427063942,-0.029594927796721456
1772807502486806300,3.60680615234375,-0.04903492027129978,-0.0584539425343275,-0.02179740578830242
1772807502496738300,3.61673828125,-0.05876019547190517,-0.04198386924862861,-0.03549976792633533
1772807502506670300,3.62667041015625,-0.0686368983745575,-0.029584990924596783,-0.020913608691096305
1772807502516602400,3.636602294921875,-0.04280219989418983,-0.048965398699045176,-0.02230170204862952
1772807502526534400,3.646534423828125,-0.019301479053031652,-0.05486205552220344,-0.012093465636670589
1772807502536467200,3.65646728515625,-0.0026683058938011526,-0.05312018029093742,0.005554711517691612
1772807502546399200,3.666399169921875,0.021526735620759425,-0.020216858598589897,0.03732318396121263
1772807502556331300,3.676331298828125,-0.012052841365337371,-0.03684709088206291,0.04585501159355044
1772807502566263300,3.68626318359375,-0.05819912752304226,-0.07235036593973636,0.027700200091302394
1772807502576195300,3.6961953125,-0.04667522366894409,-0.07913491151332855,0.009296090003103018
1772807502586127400,3.70612744140625,-0.0335620778620243,-0.06871697787344455,0.007553630249947309
1772807502596059400,3.716059326171875,-0.02057279589679092,-0.04107143057882785,-0.012951689901202917
1772807502605991200,3.7259912109375,-0.006578172813914716,-0.05353986700773239,-0.0066296472728252405
1772807502615923200,3.735923095703125,0.02257659173356369,-0.023349895927309988,0.0002495908468961716
1772807502625855200,3.745855224609375,0.01781505815386772,-0.007777648264169693,0.01770136864632368
1772807502635788300,3.755788330078125,0.011416881549358368,-0.028873043262958524,0.040999534386396405
1772807502645720300,3.76572021484375,0.020668694019317625,-0.04715045823156833,0.02965980972647667
1772807502655652400,3.77565234375,0.008956628915667533,-0.0365817179441452,0.020382570554316044
1772807502665584400,3.78558447265625,0.003809329155087471,-0.03167290311455726,0.018030016078799962
1772807502675516200,3.79551611328125,-0.025566384666692463,-0.02973638209402561,0.000682137045264244
1772807502685448200,3.8054482421875,-0.027591771280765533,-0.04316927964091301,0.014070172537118196
1772807502695380200,3.815380126953125,-0.011319850915670395,-0.05016659118235111,-0.012473697125911712
1772807502705312300,3.825312255859375,0.0027536460896953937,-0.04773556464314461,-0.0204639652274549
1772807502715244300,3.835244384765625,0.02619012432191521,-0.03991349271535873,-0.0004816460371017456
1772807502725176300,3.84517626953125,0.030907197705376893,-0.041534956437349314,-0.005121142406016588
1772807502735109400,3.855109375,0.0372007266253233,-0.04822480946481228,-0.018094167356193066
1772807502745041200,3.865041259765625,0.05032846721317619,-0.0241337397813797,-0.001503098039329052
1772807502754973200,3.87497314453125,0.03878825154509395,-0.013398995277285575,-0.010509411315619945
1772807502764905200,3.8849052734375,0.022989830443263054,-0.0380938760727644,-0.004235884004086256
1772807502774837200,3.894837158203125,0.006247954478859901,-0.055613166150450706,-0.00014759177714586256
1772807502784769300,3.904769287109375,0.011540836722590028,-0.05010872351527214,0.003728226742893457
1772807502794701300,3.914701416015625,0.010415632084943354,-0.03519932367503643,0.008110095088928937
1772807502804633000,3.924633056640625,-0.01149285112870857,-0.04554302303493023,-0.006803980926424265
1772807502814565000,3.934565185546875,-0.009485018437635153,-0.04023614879846572,0.0006377133816480637
1772807502824498200,3.944498291015625,-0.00969718161728233,-0.03027881840765476,-0.020079495954513547
1772807502834430200,3.95443017578125,0.014455829120147973,-0.02913374002575874,-0.02794321506693959
1772807502844362200,3.9643623046875,0.022955361918080598,-0.02973988922536373,-0.014678513693809509
1772807502854294300,3.974294189453125,0.008559775085188449,-0.03884615574479103,-0.05299129321426153
1772807502864224300,3.984224365234375,0.0065332011610269546,-0.0373357511818409,-0.031999504720419646
1772807502874157300,3.9941572265625,0.02935994999706745,-0.04649520919322967,-0.01763297958523035
1772807502884089300,4.00408935546875,0.017388320641778407,-0.0414355877161026,-0.03469429676234722
1772807502894021400,4.014021484375,-0.006467131921183317,-0.05118716640174389,-0.03712503104060888
1772807502903953400,4.023953369140625,0.0008054711639881133,-0.03045534401834011,-0.01828822862356901
1772807502913885200,4.03388525390625,0.01507014335989952,-0.027317045992612837,-0.0209770293161273
1772807502923817200,4.043817138671875,-0.008981142302416265,-0.05613222158849239,-0.0020937574088573455
1772807502933749200,4.053749267578125,0.011018237620592116,-0.044374563777446745,-0.015012129562348127
1772807502943681300,4.063681396484375,-0.0012403919825330375,-0.04183364712297916,0.003113894236832857
1772807502953613300,4.07361328125,0.0146352590739727,-0.01802256342470646,-0.00958309025093913
1772807502963545300,4.08354541015625,0.032309995441697534,-0.031472996628284455,-0.00156505735963583
1772807502973478400,4.093478515625,0.0462976042618975,-0.02172024889886379,-0.0010233516983687877
1772807502983410200,4.10341015625,0.021604513564705847,-0.015200491741299628,-0.00312573080509901
1772807502993342200,4.11334228515625,0.007002572238445281,-0.025355975052714346,0.009858838452398776
1772807503003274200,4.123274169921875,-0.021057346277032048,-0.03659399290382862,-0.010018559058755636
1772807503013206300,4.133206298828125,-0.019122049099206923,-0.04099310464560985,-0.01175005902647972
1772807503023138300,4.14313818359375,-0.012372611371614039,-0.03442132503986359,-0.021749182732403276
1772807503033070300,4.1530703125,-0.02969082591924816,-0.03774199389517307,-0.02540960493609309
1772807503043003000,4.1630029296875,-0.01052079122615978,-0.04884381814599037,-0.02728255920112133
1772807503052935000,4.172934814453125,0.0102326584671624,-0.04797814122736454,-0.03932064138874412
1772807503062868000,4.182867919921875,0.010432546687126159,-0.022429273951053617,-0.040711218964308495
1772807503072800000,4.192800048828125,0.012843736014701426,-0.016621464455127716,-0.0459114179559052
1772807503082731800,4.202731689453125,0.015332593688368796,-0.013940847069025038,-0.050563773806393146
1772807503092663800,4.212663818359375,0.00848491975069046,-0.014900632011890411,-0.030505028378963468
1772807503102595800,4.222595947265625,-0.02628715495560318,-0.029615970584750174,-0.026211861229687928
1772807503112528000,4.23252783203125,-0.015284662893414496,-0.04383095842003822,-0.006435439874976873
1772807503122460000,4.2424599609375,-0.01979832265926525,-0.04187456365525722,-0.0013768413111567496
1772807503132391700,4.2523916015625,-0.022201292147766796,-0.05053893162608147,0.0018571721740067004
1772807503142323700,4.26232373046875,-0.0020633440042845904,-0.052200142836570734,-0.02294876778051257
1772807503152255700,4.272255859375,-0.02341066793752834,-0.05111760829687118,-0.029419132838398216
1772807503162188800,4.282188720703125,-0.03092062344253063,-0.05107961437404156,-0.024334084659069777
1772807503172120800,4.292120849609375,-0.007172668108344078,-0.0299590849339962,-0.015390461355447768
1772807503182052900,4.302052978515625,0.009090484428405762,-0.021819033098220825,0.002432487843930721
1772807503191985000,4.31198486328125,0.015009937605261802,-0.009897709158062934,0.03236190829202532
1772807503201916700,4.321916748046875,-0.003579685117676854,-0.02486614570915699,0.07108049213439226
1772807503211848700,4.3318486328125,0.03469721937179565,-0.04241057022809982,0.05975581891313195
1772807503221780700,4.34178076171875,0.05121642902884632,-0.017495909202098845,0.03838452958241105
1772807503231712800,4.351712646484375,0.010902520552743225,-0.024552257454395293,0.053622138463705775
1772807503241644800,4.361644775390625,-0.036897359764575956,-0.039170565393567086,0.05020999193266034
1772807503251577900,4.371577880859375,-0.0467465170731768,-0.03588379880785942,0.014447335286438464
1772807503261510000,4.381510009765625,-0.06395955421328545,-0.03251286107003688,-0.029397067137062548
1772807503271441700,4.391441650390625,-0.03778057233989238,-0.04979834239184856,-0.029226094484329224
1772807503281373700,4.401373779296875,-0.021409264987241477,-0.05509177262485027,-0.030733138046413658
1772807503291305700,4.4113056640625,0.006075520521402359,-0.06835048264861106,-0.05704553704112768
1772807503301237800,4.42123779296875,-0.0027834932386875152,-0.04813362405002117,-0.04876666125655174
1772807503311169800,4.431169677734375,-0.014772621718049049,-0.06338263110816478,-0.04652063589543104
1772807503321101800,4.441101806640625,-0.017327566897869108,-0.047425183519721026,-0.035676001276075835
1772807503331033600,4.45103369140625,-0.040546529921889306,-0.026579963889718054,-0.051907005108892915
1772807503340965600,4.460965576171875,-0.04068973778486252,-0.034629999354481696,-0.019003975677490233
1772807503350898700,4.470898681640625,-0.023776596906781196,-0.012009002223610878,-0.016909926007688043
1772807503360830700,4.480830810546875,-0.014171696682833135,-0.014894786792993544,-0.027600539109110832
1772807503370762800,4.4907626953125,-0.015749321263097225,-0.034599604216217994,-0.019678221677243708
1772807503380694800,4.50069482421875,-0.013301380121707916,-0.044537645384669304,-0.027668782039731738
1772807503390626800,4.510626708984375,-0.028974713539145887,-0.016795651978254316,-0.031039427516609427
1772807503400558600,4.52055859375,-0.03881755070481449,-0.03291793473958969,-0.02499225630685687
1772807503410490600,4.53049072265625,-0.02343994883093983,-0.013646248036623,-0.017603315099328755
1772807503420423000,4.5404228515625,-0.02145019978582859,-0.0007008417457342147,-0.01202697627171874
1772807503430355000,4.55035498046875,-0.008716974940896034,-0.022740824118256567,-0.005973959843069315
1772807503440287700,4.560287841796875,-0.012394202148914336,-0.032362054422497746,0.012843553351610899
1772807503450219800,4.5702197265625,-0.006050386080145836,-0.020721885511279105,0.010404635766893624
1772807503460151800,4.58015185546875,-0.029238332911394535,-0.0379366396844387,-0.006128419752418995
1772807503470083800,4.590083740234375,-0.05728957493007183,-0.03841887024343014,0.004619184233248233
1772807503480016000,4.600015869140625,-0.06354574924800545,-0.036468320697546006,-0.019484598801285027
1772807503489948000,4.609947998046875,-0.030761670021153986,-0.04603986664116382,-0.01514203955233097
1772807503499880000,4.6198798828125,-0.023024317234754562,-0.039757425370812415,-0.032899230039119716
1772807503509812000,4.62981201171875,0.01245795156750828,-0.043752047964930534,0.004187514817714691
1772807503519744000,4.639743896484375,0.024304456705786286,-0.04117664451897144,-0.0010346037447452544
1772807503529676800,4.6496767578125,0.026587599206902086,-0.05850304237306118,-0.0034939795956015584
1772807503539608800,4.65960888671875,0.029900669277645647,-0.06895546280443668,0.008046966724842786
1772807503549540900,4.669540771484375,0.014114486602880059,-0.04006137675344944,-0.010682429794967174
1772807503559473000,4.679472900390625,-0.0007078194757923484,-0.03396890509724617,-0.03879384103566408
1772807503569405000,4.689405029296875,-0.007867080113291739,-0.045987844192981714,-0.04321224199980497
1772807503579337000,4.6993369140625,-0.018956008349917827,-0.051830725002288816,-0.05795929088518023
1772807503589269000,4.70926904296875,-0.003999262236617505,-0.04091068705916404,-0.05925313008800149
1772807503599200800,4.71920068359375,0.006115268009901046,-0.030908348482847212,-0.03268003433048725
1772807503609132800,4.7291328125,-0.013288484107516705,-0.027173838129639624,0.009507979188114404
1772807503619065900,4.73906591796875,-0.0037158056527376174,-0.0194324302226305,-0.012069354108721017
1772807503628998000,4.748997802734375,0.0076911755571141835,-0.028303718942403792,-0.008022855196893214
1772807503638930000,4.758929931640625,0.009373977544903754,-0.01793313157558441,-0.010589344684034585
1772807503648862000,4.768862060546875,0.017562581230141223,-0.002669511470198631,-0.006489800410717725
1772807503658793700,4.778793701171875,0.00339022696018219,-0.007956511962413787,-0.004714461301267147
1772807503668725800,4.788725830078125,0.007210114041902124,-0.01761515166759491,-0.014202128353714942
1772807503678657800,4.79865771484375,-0.008115465383790432,-0.015971476113796235,-0.01485620834827423
1772807503688589800,4.80858984375,0.0005413038024678826,-0.01689443617761135,-0.017765958315134046
1772807503698521900,4.81852197265625,-0.0027893019249662756,-0.0009521861582994461,0.005173603245615959
1772807503708455000,4.828454833984375,-0.01695464193224907,-0.007049918511509895,-0.025803426559269427
1772807503718387000,4.838386962890625,0.04054832002017647,0.008823357924818993,-0.0236686064876616
1772807503728318700,4.848318603515625,0.06220485603306442,0.011189502534270286,-0.012229951497912407
1772807503738250800,4.858250732421875,0.061803289494849735,0.030531331863999363,-0.033741233821213246
1772807503748182800,4.868182861328125,0.09964348306749016,0.04109539597630501,-0.01469561095908284
1772807503758114800,4.87811474609375,0.08067454217076302,0.03901625161468982,0.01754793165028095
1772807503768046800,4.888046875,0.058361003553867336,0.022688801670074463,0.0376044851206243
1772807503777979000,4.897978759765625,0.052207705088518554,0.022521628409624097,0.04375336313918233
1772807503787912000,4.907911865234375,0.055356013051606714,0.017052841609716415,0.04081058768555522
1772807503797843700,4.91784375,0.04243691024575382,-0.020757541346549988,0.06042670391201973
1772807503807775700,4.927775634765625,0.06936229003965855,-0.05127952086031436,0.06525982315689324
1772807503817707800,4.937707763671875,0.1262660439899191,-0.024608371555805204,0.031111908230930563
1772807503827639800,4.947639892578125,0.10701017591059207,-0.020261866784095764,0.04139408666193485
1772807503837571800,4.95757177734375,0.1006476551413536,-0.05885609359443188,0.05922974921241402
1772807503847504000,4.96750390625,0.09275894771814346,-0.08744798182845115,0.09071195206046104
1772807503857435600,4.977435546875,0.12240593449566513,-0.05564706842005253,0.11056699160933493
1772807503867367700,4.98736767578125,0.1340572093227878,-0.0294318461894989,0.099617435310781
1772807503877300700,4.99730078125,0.16216683046519756,-0.03541968842744827,0.08376403261870145
1772807503887232800,5.007232666015625,0.1503577347278595,-0.03538870876729488,0.09856368847414851
1772807503897164800,5.017164794921875,0.15861235285401343,-0.051608606684207914,0.10893179162293672
1772807503907096800,5.027096923828125,0.159864362209104,-0.0805050308227539,0.13201938335224986
1772807503917028900,5.03702880859375,0.11787176166474818,-0.0673427669107914,0.15323212112039328
1772807503926960600,5.046960693359375,0.09355912165250628,-0.08213584689497948,0.15408435403555631
1772807503936892700,5.056892578125,0.10404255827665328,-0.07773673515319823,0.1515662337347865
1772807503946824700,5.06682470703125,0.1257657297849655,-0.06018354280591011,0.11852189613655209
1772807503956756700,5.0767568359375,0.11400511283185333,-0.06279051043391227,0.09048501143679022
1772807503966689800,5.086689697265625,0.11623685393929481,-0.07972761670947075,0.0510286148391664
1772807503976621800,5.096621826171875,0.09828494459800421,-0.07665946131050587,0.06294789295271039
1772807503986553900,5.106553955078125,0.04984510414302349,-0.07322773329615592,0.0701424806319177
1772807503996485600,5.116485595703125,0.0037023616492748257,-0.053146483775973315,0.035309798312187196
1772807504006417700,5.126417724609375,0.008885828701779246,-0.046602761220932,0.0332116569891572
1772807504016349700,5.136349609375,0.017888050324842333,-0.025741759499907493,0.04107157670930028
1772807504026281700,5.14628173828125,0.07613339160978794,-0.030579262658953665,0.018541618862748147
1772807504036213800,5.1562138671875,0.06836268454305827,-0.05845335801243782,0.03578618365228176
1772807504046146000,5.16614599609375,0.044411388656497,-0.062225277766585346,0.0517354479342699
1772807504056079000,5.1760791015625,-0.04290339524634182,-0.056148588201403615,0.062248074120283124
1772807504066011100,5.18601123046875,-0.07522102600522339,-0.10697276650965214,-0.01015124552771449
1772807504075943200,5.195943115234375,-0.12577215952575205,0.02996025397777557,0.003305763547122478
1772807504085875200,5.205875244140625,-0.27129414466023444,0.01494680924117565,-0.017903613220155237
1772807504095807000,5.215806884765625,-0.2301047137249261,0.008592471778392792,-0.06935819838643073
1772807504105739000,5.225739013671875,-0.22221892891116438,-0.012271452552080155,-0.14593904150277376
1772807504115671000,5.235671142578125,-0.10779109715521334,-0.015807225462794304,-0.16743045008182525
1772807504125603000,5.24560302734375,-0.11931151214428246,-0.0102870007365942,-0.12480009962320326
1772807504135536000,5.2555361328125,-0.12064235888924449,-0.0726759446322918,-0.06292129720672965
1772807504145468200,5.26546826171875,-0.023974128772877155,-0.01896890436410904,-0.02704232070446014
1772807504155400200,5.275400146484375,-0.1692745435785502,0.011353753185272215,-0.03318184637278318
1772807504165332000,5.28533203125,-0.07542268605716526,-0.014193360525369644,-0.09530848607048392
1772807504175264000,5.295263916015625,0.021864041283726692,0.0729237819135189,-0.07912029846608638
1772807504185196300,5.3051962890625,-0.017854769109748304,0.06925298444628715,-0.0828077548071742
1772807504195128300,5.31512841796875,0.06622158086113632,-0.004499649506807327,-0.0628831571534276
1772807504205060400,5.325060302734375,0.11161332232449203,-0.04965747261643409,-0.005909954696148634
1772807504214992400,5.334992431640625,0.1019026601711288,-0.02370411619246006,0.03771203714832663
1772807504224925200,5.34492529296875,0.07390519416630267,-0.0642097295820713,0.014842472083866595
1772807504234857000,5.35485693359375,0.0546808537364006,-0.11290741725564002,0.0009440028518438339
1772807504244789200,5.364789306640625,0.06565525221526622,-0.15853168883323668,0.029545389566570518
1772807504254721300,5.37472119140625,0.05229483538269997,-0.1673673217177391,0.060576341515779494
1772807504264653300,5.3846533203125,0.10784662673473358,-0.1036930141866207,0.0823939133092761
1772807504274585300,5.39458544921875,0.09151216252744197,-0.03366787632405758,0.12096373633071779
1772807504284517400,5.404517333984375,0.12239888370037078,-0.005936404311656951,0.12059095749557018
1772807504294449200,5.41444921875,0.13942257228083907,-0.028286183285713196,0.12218114929646252
1772807504304381200,5.424381103515625,0.11981186288185416,-0.029556349352002142,0.07548398779034614
1772807504314314200,5.434314208984375,0.14995507221110163,-0.0060427872955799095,0.08882116987779735
1772807504324246300,5.444246337890625,0.17800035941302775,-0.03323708369135856,0.0920841171965003
1772807504334178300,5.45417822265625,0.19809388389289379,-0.06151566819250583,0.08755787194371223
1772807504344110300,5.4641103515625,0.18677578654289245,-0.0622229396790266,0.04994257316812872
1772807504354042400,5.47404248046875,0.1748398495554924,-0.09555413139462471,0.05001856101378798
1772807504363974100,5.48397412109375,0.09802439396567642,-0.13745441401302813,0.045390024430304765
1772807504373906200,5.49390625,0.04608955100178718,-0.23753099126815794,0.04331599463522434
1772807504383838200,5.503838134765625,0.09036533057987689,-0.16965572491586206,0.03787935653924942
1772807504393770200,5.513770263671875,-0.06850012025237083,-0.07137187629640102,0.06130450965985655
1772807504403703300,5.523703369140625,-0.0793769035756588,-0.06622106940448284,-0.0727361503869295
1772807504413635300,5.53363525390625,-0.06120404496006667,-0.06272445946037769,-0.1598576767399907
1772807504423567400,5.5435673828125,-0.14450250589363275,-0.05170739088356495,-0.2260588724002242
1772807504433499100,5.5534990234375,-0.14530162038207053,-0.057628597626090045,-0.31355683085024355
1772807504443431200,5.56343115234375,-0.12634667147807777,-0.060981415185332295,-0.32855010958164926
1772807504453363200,5.57336328125,-0.06680376466326415,-0.05022913502454757,-0.3678691435351968
1772807504463295200,5.583295166015625,-0.0382592957675457,-0.06051087506413459,-0.39156317672505975
1772807504473227300,5.593227294921875,-0.09710318746753037,-0.042944238713383674,-0.3162741269849241
1772807504483160300,5.603160400390625,-0.18298055897839366,-0.006498129847645759,-0.26784473485872146
1772807504493092000,5.613092041015625,-0.21514731002449988,-0.013561492362618445,-0.27282062357515097
1772807504503024000,5.623024169921875,-0.21647775491066276,-0.017714520388841627,-0.31719635639637705
1772807504512956200,5.6329560546875,-0.20528525670170783,0.11987258009314536,-0.3096476945824921
1772807504522888200,5.64288818359375,-0.22568455919511615,0.136384154433012,-0.29122108040153977
1772807504532820200,5.6528203125,-0.11601656225211918,0.10797872868180275,-0.23656141558364033
1772807504542752300,5.662752197265625,-0.0868926860332489,0.025713702449202538,-0.1456687001287937
1772807504552684000,5.67268408203125,-0.12666465138606725,-0.012293664383888243,-0.04819061493426561
1772807504562616000,5.682615966796875,-0.20310849718451499,-0.06916296807527542,-0.009916121597588062
1772807504572549000,5.692549072265625,-0.19657405391447244,-0.09454875374436378,0.02600610952451825
1772807504582481200,5.702481201171875,-0.3035514965992421,-0.16874620885550976,0.11082111250087619
1772807504592413200,5.7124130859375,-0.2040009890448302,-0.1626870549470186,0.07287424368336796
1772807504602345200,5.72234521484375,-0.2138438262104988,-0.015239070186018944,0.11334551641196011
1772807504612277200,5.73227734375,-0.20774192913882433,0.03158171769976616,0.0748848528534174
1772807504622209000,5.742208984375,-0.04240465194396675,0.1180102933526039,0.042392596179991957
1772807504632141000,5.75214111328125,-0.06288578750193119,0.14886486582159994,0.03661357438713312
1772807504642073000,5.762072998046875,-0.019961422532796858,0.15438976672291754,0.019240999303758142
1772807504652006100,5.772006103515625,-0.04908464116454124,0.01692541583776474,0.06168707923665642
1772807504661938200,5.781938232421875,-0.08190671431422233,-0.09232698604166507,0.11601488175168632
1772807504671870200,5.7918701171875,-0.1168072742383927,-0.20619418824017047,0.12514759788662194
1772807504681802200,5.80180224609375,-0.18307685895971954,-0.27464813126325605,0.17136399013847112
1772807504691734000,5.811734130859375,-0.21918226462900636,-0.25072306579649445,0.1690448995411396
1772807504701666000,5.821666015625,-0.20853505227789282,-0.16421616421043872,0.18532091155946254
1772807504711598000,5.83159814453125,-0.1261099401127547,-0.055818333333730694,0.17751242976561188
1772807504721530000,5.841530029296875,-0.06486307892426849,0.025238486152887343,0.1633620315991342
1772807504731463200,5.851463134765625,0.009000541122630238,0.12019465165436267,0.09075067663565277
1772807504741395200,5.861395263671875,0.04212072043605149,0.11902210074365138,0.01787087999433279
1772807504751327200,5.8713271484375,0.05119016207642853,-0.012590016981959343,-0.05487681469991803
1772807504761259000,5.881259033203125,0.04837262043766677,-0.15309680430293082,-0.06973813761472701
1772807504771191000,5.89119091796875,-0.028768413844704625,-0.2640899123698473,-0.02591930802389979
1772807504781123000,5.901123046875,-0.14898819994032383,-0.29619477716088294,-0.0007023030504584312
1772807504791055000,5.91105517578125,-0.25335107621252534,-0.26146365551948547,0.01969955672621727
1772807504800987100,5.920987060546875,-0.1961942608166486,-0.14895605123639105,-0.020843612194806335
1772807504810919200,5.930919189453125,-0.19067922372221946,0.05159516268074512,-0.05268383470028638
1772807504820852200,5.940852294921875,-0.12578275398500263,0.09320961409509182,-0.1062967669442296
1772807504830784000,5.950783935546875,0.03001234949119389,0.1496814429014921,-0.12939035002291202
1772807504840716000,5.960716064453125,0.0022953443955630063,0.10060030886828898,-0.06610168080851435
1772807504850648000,5.97064794921875,0.005220949518680572,-0.02939209870100021,-0.003327829248458147
1772807504860580000,5.980580078125,-0.03201082983203232,-0.16142799479663372,0.013160218085348604
1772807504870512000,5.99051220703125,-0.09398169444613158,-0.22739713526666164,0.037108664427697655
1772807504880444400,6.0004443359375,-0.13773673808574677,-0.26503216165602206,0.04748348957821726
1772807504890376200,6.010376220703125,-0.1491337458908558,-0.2178746891617775,0.01546250367835164
1772807504900309000,6.02030908203125,-0.13214293666668236,-0.10745850419998168,0.005622808317840099
1772807504910241000,6.030240966796875,-0.0340156668484211,-0.0540881485402584,-0.019217910689115523
1772807504920173000,6.040173095703125,0.04031922397203743,0.007344517543911934,-0.03362856722697615
1772807504930105000,6.05010498046875,0.03280395297110081,0.04514905528128147,-0.05547974902912974
1772807504940037400,6.060037353515625,0.00012801029384136198,0.07463760009407996,-0.09798092015013098
1772807504949969400,6.069969482421875,-0.0011344108574092389,0.07724573676586151,-0.14517404847964643
1772807504959901200,6.079901123046875,-0.027186624545976517,0.05254442622959613,-0.10880027419775724
1772807504969833200,6.089833251953125,-0.036000703185796734,0.012332827350497245,-0.022278905694931746
1772807504979766000,6.09976611328125,-0.08278459312729537,-0.04605915586352348,0.026445816116034984
1772807504989698000,6.109697998046875,-0.03772387371659278,-0.08908113598823547,0.047184945023059845
1772807504999630300,6.11963037109375,0.015503858602046965,-0.14181670087575912,0.066974225859344
1772807505009562400,6.129562255859375,-0.0424327089946717,-0.12140695005357265,0.06770560887381434
1772807505019494400,6.139494384765625,-0.027412834517285226,-0.04614332701563835,0.002140665290504694
1772807505029426200,6.14942626953125,-0.00222111011557281,0.043777182406187054,-0.028803777419030663
1772807505039358200,6.159358154296875,-0.016996142986416815,0.05362111555039882,-0.044703941862285136
1772807505049290000,6.1692900390625,-0.022293007285520434,0.02257423537969589,-0.0891528860501945
1772807505059222000,6.179221923828125,-0.00017703706733882427,-0.003331190249323845,-0.08112783889621496
1772807505069155000,6.189155029296875,0.023272227581217882,0.0037158056527376174,-0.05371171644330024
1772807505079087000,6.199087158203125,0.017406477352976797,0.0017097265273332595,-0.014896832619607447
1772807505089019100,6.20901904296875,-0.004990574828907847,-0.03785948279500007,0.008367869242280722
1772807505098951000,6.218950927734375,0.00023855799622833726,-0.07470306654572487,-0.006772709005326032
1772807505108883000,6.228883056640625,0.03670103347487747,-0.07188508651554584,0.013104250114411116
1772807505118815000,6.23881494140625,0.053042511944845314,-0.06169044023752212,0.020170681369304656
1772807505128747000,6.2487470703125,0.03917933322191238,-0.07491524799168109,-0.032602585180103776
1772807505138680000,6.25868017578125,0.06915186215937137,-0.07620528780221938,-0.04971270993500947
1772807505148612000,6.268612060546875,0.13036416349112986,-0.07471534150540829,-0.04597849184274673
1772807505158544100,6.278544189453125,0.1525134514570236,-0.0015513210952281952,-0.05159720850735902
1772807505168476000,6.288475830078125,0.08927636629939079,0.006354921984672546,-0.051321168044954533
1772807505178408000,6.298407958984375,0.03452120521776378,-0.00338847339451313,-0.06663651833757758
1772807505188340000,6.308340087890625,0.0225695592045784,-0.0408557420015335,-0.054477732379734516
1772807505198272000,6.31827197265625,0.0204774822961539,-0.07155716973543166,-0.05749240402579307
1772807505208204000,6.3282041015625,0.034354689544439314,-0.08162672832906245,-0.06550780656859279
1772807505218136000,6.338135986328125,0.05407353549301624,-0.07012742919325828,-0.01565773398950696
1772807505228069000,6.348069091796875,0.05430325259566307,-0.07070493682026863,-0.016177373949438332
1772807505238001000,6.3580009765625,0.04682319903858006,-0.08978197773396969,-0.022101649431884286
1772807505247933000,6.367932861328125,0.033665611301735045,-0.049671501141786575,-0.05373392827510833
1772807505257865000,6.377864990234375,0.020970307314395902,-0.024057167413830755,-0.06208630768731236
1772807505267797000,6.387796875,0.01115618478655815,-0.022619828087091443,-0.07476312616989016
1772807505277729000,6.39772900390625,0.014561024793982505,-0.025094109246134755,-0.09453516361042856
1772807505287661000,6.4076611328125,0.03911554727070033,-0.00020516718327999114,-0.11733020213395357
1772807505297592800,6.4175927734375,0.023471476480364798,0.008294365614652632,-0.08870616519600152
1772807505307526000,6.42752587890625,-0.021827873991802332,-0.013853168785572051,-0.07945493724793196
1772807505317458000,6.4374580078125,-0.03410568321943283,-0.06257657542228698,-0.040658611994236704
1772807505327390000,6.447389892578125,0.0030588030487298965,-0.018508885636925695,0.005952332533150911
1772807505337322000,6.457322021484375,0.004487959069013595,0.023965981999039647,0.02185673476010561
1772807505347254000,6.46725390625,-0.026533202138543127,-0.0219943896651268,-0.0025917700588703155
1772807505357186000,6.47718603515625,-0.0459836794745177,-0.06747779146730899,-0.03170782829746604
1772807505367117800,6.487117919921875,-0.010473390154168009,-0.06643558893799781,-0.048450142653286454
1772807505377049900,6.4970498046875,0.022965938111022113,-0.012048749712109565,-0.06089680564180016
1772807505386983000,6.50698291015625,-0.00885083045363426,0.0014946224719285964,-0.03230184866786003
1772807505396915000,6.5169150390625,-0.056181394492462275,-0.019946224963665007,-0.03236731511950493
1772807505406847000,6.526846923828125,-0.07658223135583102,-0.02116904475688934,-0.06118015262782573
1772807505416779000,6.536779052734375,-0.03773731772005558,-0.012666589349508284,-0.05096782456263899
1772807505426711000,6.5467109375,-0.0029319617986679077,0.006729600515961646,-0.023648878873884678
1772807505436642800,6.556642822265625,0.011063172740861773,-0.01703647499680519,0.00018836217895150183
1772807505446574800,6.566574951171875,0.009135492613911628,-0.057771220967173575,0.013004004610329866
1772807505456507000,6.5765068359375,0.0010964899998158217,-0.08175473862290382,0.01928673814162612
1772807505466440000,6.58643994140625,0.05251403109133243,-0.04469312820732593,0.019469401232153176
1772807505476372000,6.5963720703125,0.05436820759065449,-0.004642272847890853,0.03939180692881346
1772807505486304000,6.606303955078125,0.03461896650381386,-0.0010772738426923752,0.024940233858674762
1772807505496236000,6.616236083984375,-0.012986834279820322,-0.021882161462306975,-0.025275164901465176
1772807505506167800,6.626167724609375,-0.053919733170792454,-0.044542321559786796,-0.056363692256808276
1772807505516099800,6.636099853515625,-0.07009469596743584,-0.03336977016031742,-0.07502499197646975
1772807505526032000,6.646031982421875,-0.07003850880078971,-0.019615970095992086,-0.05028364169076085
1772807505535964000,6.6559638671875,-0.04419219294786453,0.012079144850373267,-0.034525954458117486
1772807505545897000,6.66589697265625,-0.012227686475589871,0.0050192894667387,-0.0164141053147614
1772807505555829000,6.6758291015625,-0.00021809973008930683,-0.02241524542570114,-0.0008987024053931236
1772807505565761000,6.685760986328125,-0.015312573813647031,-0.036973932132124895,-0.007024491809308528
1772807505575692800,6.69569287109375,-0.04361242029853165,-0.06163841778934002,-0.004554886825382709
1772807505585624800,6.705624755859375,-0.021325696623325348,-0.03110357879400253,-0.0023034546367824075
1772807505595556900,6.715556884765625,-0.015238412598893046,-0.021702713242173193,0.024792203690111637
1772807505605489000,6.725489013671875,-0.01298040453903377,-0.03488894255161285,0.012118746208399533
1772807505615422000,6.735421875,-0.017383096477389334,-0.041004795083403586,-0.006139964059740304
1772807505625354000,6.74535400390625,0.0181862295538187,-0.026394670450687406,-0.011823416523635387
1772807505635285800,6.75528564453125,0.007691723546385765,-0.017419336834549902,-0.013100450722128152
1772807505645217800,6.7652177734375,-0.01834938422627747,-0.05766951415836811,-0.04321998691484332
1772807505655149800,6.77514990234375,-0.041911388534307474,-0.067155135384202,-0.04306085083037615
1772807505665081900,6.785081787109375,-0.0212281545329839,-0.012194880184531211,-0.026990152125805616
1772807505675014100,6.79501416015625,0.0269482126802206,0.036106501647830004,-0.008011895411461592
1772807505684946200,6.8049462890625,0.014397943186759948,-0.025142040041089057,0.019582360087335108
1772807505694879000,6.81487890625,-0.001602612891048193,-0.07141688448190689,0.004847440031170845
1772807505704810800,6.824810791015625,0.04222586131095886,-0.06244856512844562,-0.007810966011881828
1772807505714742800,6.83474267578125,0.058280924054980275,-0.05305646740496158,-0.002481733813136816
1772807505724674800,6.8446748046875,0.042922099946811794,-0.07765724017620086,0.0009171148449182509
1772807505734607000,6.854607177734375,0.026239260693266986,-0.08635901754796504,0.008735679641366005
1772807505744539100,6.8645390625,0.0441717346817255,-0.07885667909383773,-0.0016407529443502424
1772807505754471200,6.87447119140625,0.05387136398442089,-0.05491466249227524,0.022388941940665243
1772807505764403000,6.88440283203125,0.04101655858643353,-0.06131985335946083,0.014915829581022262
1772807505774335700,6.894335693359375,0.015484569379687308,-0.059116205835342404,0.012321136912703513
1772807505784267800,6.904267822265625,-0.010600304469466209,-0.05525953040719032,-0.005702595555782318
1772807505794200000,6.914199951171875,0.0033546441901475188,-0.03585223462581634,-0.01247252808213234
1772807505804132000,6.924132080078125,0.0029991818159818646,-0.02139525472819805,-0.02913359389528632
1772807505814064000,6.934064208984375,-0.014935703325271606,-0.046020577418804165,-0.03012698884680867
1772807505823996200,6.94399609375,0.005853986725211143,-0.022373159849643706,-0.03942278658896684
1772807505833928000,6.953927978515625,0.005595116593316197,0.012153963652253151,-0.0019124094925820827
1772807505843860000,6.96385986328125,-0.016169702099636196,0.024613632252812385,-0.018177753986418247
1772807505853793000,6.97379296875,-0.003105491734668612,-0.03177519444525242,-0.027460692247003315
1772807505863725000,6.98372509765625,-0.00530862780213356,-0.06240940216183662,-0.012440525508671998
1772807505873657000,6.993656982421875,-0.022280220869183538,-0.03928396264016628,-0.02039543003588915
1772807505883589000,7.003589111328125,-0.026514424372836947,-0.01640285326838493,-0.018375614646077156
1772807505893521200,7.013521240234375,-0.032791678011417386,-0.021842998495697975,-0.01688990613296628
1772807505903453000,7.023452880859375,-0.023771409275010227,-0.026361352702975273,-0.013196604572981595
1772807505913385000,7.033385009765625,0.0019318448454141615,-0.012735562932491302,0.0044160628765821455
1772807505923317000,7.04331689453125,0.020477555361390114,-0.008715221375226973,0.01205006488636136
1772807505933250000,7.05325,0.00632511136829853,-0.014959084200859068,0.04570727368593216
1772807505943182000,7.06318212890625,0.02574234402179718,-0.04082417781949043,0.04625117130428552
1772807505953114000,7.073114013671875,0.04358955087959766,-0.04532324280440807,0.042632834676653145
1772807505963046100,7.083046142578125,0.04700958845615387,-0.03480067974627018,0.037274084122478957
1772807505972978000,7.09297802734375,0.004597337727621198,-0.0528641597032547,0.03835910288020968
1772807505982910000,7.102909912109375,-0.00526069700717926,-0.07103110003471375,-0.01436257961243391
1772807505992842000,7.112842041015625,-0.001084288105368614,-0.038739188238978386,-0.02250380049198866
1772807506002775000,7.122775146484375,-0.034027357286214824,-0.027938392761349677,-0.002777355758845806
1772807506012707000,7.13270703125,-0.03039798780791461,-0.052724458971619606,-0.011837298918515444
1772807506022639000,7.14263916015625,0.01620828054435551,-0.07328677000701427,0.00908507760092616
1772807506032571100,7.152571044921875,0.04258358870744705,-0.05883037463128567,-0.009222294114530086
1772807506042503400,7.16250341796875,0.023628201412037014,-0.038412440502643586,0.028100451455265282
1772807506052435500,7.172435546875,0.021611527827382085,-0.01591243940293789,0.022700345977395772
1772807506062367200,7.1823671875,0.0384861633259803,-0.011894435933232307,0.018473522062599657
1772807506072299300,7.19229931640625,0.04299458066113293,-0.025166005438566206,0.02351590014398098
1772807506082232300,7.202232421875,0.05181961908638477,-0.04638824168741703,0.012284896555542945
1772807506092164400,7.212164306640625,0.02737323315925896,-0.06266717631518841,-0.015058014530688524
1772807506102096400,7.222096435546875,-0.003978182915970683,-0.06604629735946654,-0.010134294392913579
1772807506112028400,7.2320283203125,-0.012760697373747824,-0.05784194811582565,-0.012443448118120431
1772807506121960400,7.24196044921875,0.0006242693781852722,-0.07821019788384437,0.007853782240301371
1772807506131892200,7.251892333984375,-0.006024082595109939,-0.07525017903447151,0.009767506907135248
1772807506141824300,7.26182421875,-0.007144537992402911,-0.06242050807774067,0.013657938474416731
1772807506151756300,7.27175634765625,0.006021159985661506,-0.051664136263728136,0.01698065315634012
1772807506161689300,7.281689453125,-0.011119871364161371,-0.033733342775702474,0.0016141571983695029
1772807506171621400,7.291621337890625,0.007435118436813354,-0.004427168792486191,-0.013275661158561707
1772807506181553400,7.301553466796875,0.02803651937358081,-0.026739538365602493,-0.008799100266396999
1772807506191485400,7.3114853515625,0.01368891813457012,-0.020610826352238654,0.019794395402818916
1772807506201417200,7.321417236328125,-0.00599134936928749,-0.03469838841557502,0.0055246086403727525
1772807506211349200,7.331349365234375,-0.0026940613895654678,-0.06798457194566726,0.006545914512127637
1772807506221281300,7.34128125,0.007865984134748578,-0.07640227167904376,-0.00836859989464283
1772807506231214300,7.35121435546875,-0.015776245802640913,-0.06010463235080242,-0.02778407898247242
1772807506241146400,7.361146484375,-0.05287351205348968,-0.03776303668320179,-0.031753421004861594
1772807506251078400,7.371078369140625,-0.04770341593921184,-0.053612347722053526,-0.03324775121584535
1772807506261010400,7.381010498046875,-0.031767011138796805,-0.04430208306312561,-0.012691723790764808
1772807506270942200,7.390942138671875,-0.010012933035567403,-0.02359948677420616,0.0061189212717115875
1772807506280874200,7.400874267578125,-0.0039016836136579513,-0.013513561567664145,0.0030276772581040857
1772807506290806300,7.41080615234375,-0.001443111480399966,0.001194178220629692,0.004843348377943039
1772807506300738300,7.42073828125,0.010647066220641136,-0.014701310047507285,0.017421382661163807
1772807506310671400,7.43067138671875,0.005028057295084,-0.022120646393299102,0.024544658669829366
1772807506320603400,7.440603271484375,0.004344166684150695,-0.04336684803962707,0.025563041932135818
1772807506330535400,7.450535400390625,-0.026324527823925015,-0.06401040761768817,-0.003541618129611015
1772807506340467200,7.46046728515625,-0.033950200396776195,-0.05348199934065342,-0.03385755367726087
1772807506350399200,7.470399169921875,-0.05732457317821681,-0.02902443443238735,-0.040052901186048984
1772807506360331300,7.480331298828125,-0.05114391178190708,-0.024719430714845655,-0.026846505871415138
1772807506370263300,7.49026318359375,-0.0543541060000658,-0.03431143492460251,-0.027141397164762018
1772807506380195300,7.5001953125,-0.05698788856975734,-0.028936171627044677,-0.041877340134233235
1772807506390128400,7.51012841796875,-0.03296520794741809,-0.031660628154873846,-0.055469666026532645
1772807506400060400,7.520060302734375,-0.04034355469569564,-0.02354804884791374,-0.049641690525412556
1772807506409992200,7.5299921875,-0.004648045001551509,0.0034819968968629834,-0.049644320873916147
1772807506419924200,7.53992431640625,0.020115736311674116,0.025022213053703307,-0.007908435036987066
1772807506429856300,7.549856201171875,0.019243045130372047,-0.016429741275310515,0.021271043826639652
1772807506439788300,7.559788330078125,0.025704277033731338,-0.0639963790923357,0.01863528849557042
1772807506449720300,7.56972021484375,0.02814472898840904,-0.0692202512204647,0.023045067761838435
1772807506459653400,7.5796533203125,0.002961114827916026,-0.07813596360385418,0.01572597692012787
1772807506469585400,7.58958544921875,0.034704745091125366,-0.07760229511857032,0.024864684404432773
1772807506479517200,7.59951708984375,0.13117029224224389,-0.08109189079999923,-0.010173749620467423
1772807506489449200,7.60944921875,0.046621538986638185,-0.05527648154199123,0.021884791810810565
1772807506499381200,7.61938134765625,-0.021887422159314156,-0.050856911534070966,0.013279022159427403
1772807506509313300,7.629313232421875,-0.08832001542262732,-0.03199029850065708,0.0056862289428710935
1772807506519245300,7.639245361328125,-0.0545539394211024,-0.05484159725606441,0.01775003009364009
1772807506529177000,7.649177001953125,-0.03165997056774795,-0.058281508576869964,-0.01697159306704998
1772807506539110400,7.6591103515625,0.023115502649545667,-0.023417115944623947,-0.0025726269669830797
1772807506549042200,7.669042236328125,0.05008242003023624,-0.016461889979243277,-0.03514627831354737
1772807506558974200,7.67897412109375,-0.008320084577798844,-0.03591770107746124,-0.05081102656573057
1772807506568906200,7.68890625,-0.05182487978339195,-0.049802434045076366,-0.03522913429141045
1772807506578838300,7.69883837890625,-0.05305296027362346,-0.04608429030478001,-0.017207155388593673
1772807506588770300,7.708770263671875,-0.07595511243343353,-0.05445698185265064,-0.020052607947587966
1772807506598702000,7.7187021484375,-0.07494104002006352,-0.03763502638936043,-0.02104717194288969
1772807506608634000,7.728634033203125,-0.03790982474274933,-0.026640169644355772,0.003678250121325254
1772807506618567200,7.738567138671875,-0.049977863677218556,-0.03614215748310089,0.002110562413185835
1772807506628499200,7.748499267578125,-0.0521276621222496,-0.0676432111620903,-0.017016162861138582
1772807506638431200,7.75843115234375,-0.05538169548213481,-0.05727145475149154,-0.00895809022039175
1772807506648363300,7.76836328125,-0.09241407980322837,-0.03578618365228176,-0.03053440060392022
1772807506658295300,7.77829541015625,-0.150623034600541,0.008563245683908462,-0.020273703352361918
1772807506668227000,7.78822705078125,-0.11576331814341247,0.003297287979722023,-0.03299611454233527
1772807506678159400,7.798159423828125,-0.006631985360383987,-0.01923603086769581,-0.017235650830715894
1772807506688092200,7.808092041015625,0.11799392673969268,-0.03242752087414264,-0.03373290438428521
