time,seconds_elapsed,z,y,x
1772807498941051400,0.061051513671875,0.02948652021586895,-0.0062853265553712845,0.005626993253827095
1772807498950983400,0.0709833984375,0.02406911738216877,-0.0015219965716823936,0.005886384751647711
1772807498960916500,0.08091650390625,0.014660435728728771,-0.003367567202076316,0.013320066034793854
1772807498970848300,0.09084814453125,0.00765765318647027,-0.0062341936863958836,0.012165852822363377
1772807498980780300,0.1007802734375,0.0010223875287920237,-0.005020325072109699,0.00977406743913889
1772807498990712300,0.11071240234375,-0.000859934720210731,-0.0025776736438274384,0.015798138454556465
1772807499000644400,0.120644287109375,-0.006358030717819929,0.0002468750171829015,0.0279711801558733
1772807499010576400,0.130576416015625,-0.05722387507557869,-0.0009835053933784366,0.05422675237059593
1772807499020508400,0.14050830078125,-0.048589106649160385,0.03164048492908478,0.10523880273103714
1772807499030440400,0.1504404296875,-0.003053047927096486,0.030426615849137306,0.157241553068161
1772807499040372700,0.160372802734375,0.019844811409711838,0.024385500699281693,0.14225435256958008
1772807499050304800,0.1703046875,0.017480989918112755,0.03231026977300644,0.08116702735424042
1772807499060236500,0.180236572265625,0.008359395898878574,0.004448544234037399,0.010184993036091328
1772807499070168600,0.19016845703125,-0.00036511936923488975,-0.015578693710267544,-0.034809645265340805
1772807499080100600,0.2001005859375,-0.004622715059667826,-0.020840566605329514,-0.04061507061123848
1772807499090032600,0.21003271484375,-0.0036962011363357306,-0.014390656724572182,-0.00968804769217968
1772807499099965700,0.219965576171875,0.000010652644050423987,-0.005786782596260309,0.025013474747538567
1772807499109897700,0.229897705078125,-0.0015355786308646202,-0.001017061178572476,0.036133237183094025
1772807499119829800,0.239829833984375,0.0006777744856663048,-0.004293015692383051,0.023544207215309143
1772807499129761500,0.249761474609375,0.0016636766958981752,-0.012460663914680481,-0.00698041170835495
1772807499139693600,0.259693603515625,0.006810768041759729,-0.019631758332252502,-0.029618078842759132
1772807499149625600,0.26962548828125,0.007099721115082502,-0.018247712403535843,-0.04141082242131233
1772807499159557600,0.2795576171875,0.013087838888168335,-0.0034932682756334543,-0.03620221093297005
1772807499169489700,0.28948974609375,0.01528867520391941,0.005495166406035423,-0.01702984981238842
1772807499179421700,0.299421630859375,0.013273194432258606,0.00899562519043684,0.0014136058744043112
1772807499189353500,0.309353515625,0.008400142192840576,0.008409730158746243,0.0062946476973593235
1772807499199285500,0.319285400390625,0.006470416206866503,0.009690976701676846,0.005110339727252722
1772807499209217500,0.329217529296875,0.0009440905996598303,0.015996810048818588,-0.008036620914936066
1772807499219149600,0.339149658203125,0.0005422196118161082,0.010819091461598873,-0.018742261454463005
1772807499229082600,0.34908251953125,0.0014183996245265007,0.01290701050311327,-0.027107784524559975
1772807499239014700,0.3590146484375,0.0059931776486337185,0.021929800510406494,-0.030277477577328682
1772807499248946700,0.36894677734375,0.01642158441245556,0.026792731136083603,-0.031329959630966187
1772807499258878500,0.37887841796875,0.018155833706259727,0.03581738471984863,-0.04109816625714302
1772807499268810500,0.388810546875,0.018725218251347542,0.03584987670183182,-0.04362763836979866
1772807499278742500,0.398742431640625,0.015202654525637627,0.038012631237506866,-0.04571449011564255
1772807499288674600,0.408674560546875,0.011180482804775238,0.043235089629888535,-0.04571235924959183
1772807499298606600,0.418606689453125,0.0059806606732308865,0.04455175623297691,-0.04128565266728401
1772807499308538400,0.428538330078125,0.002073537092655897,0.047201067209243774,-0.03585893288254738
1772807499318470400,0.438470458984375,-0.0009755159262567759,0.05182298272848129,-0.03111184574663639
1772807499328402400,0.44840234375,0.0017307883827015758,0.06085589528083801,-0.030699322000145912
1772807499338334500,0.45833447265625,0.0049159289337694645,0.06661684066057205,-0.03285781666636467
1772807499348266500,0.4682666015625,0.006674946751445532,0.07268459349870682,-0.034575555473566055
1772807499358199600,0.478199462890625,0.011547200381755829,0.07441884279251099,-0.03533428907394409
1772807499368131600,0.488131591796875,0.00839614775031805,0.06915563344955444,-0.03527490049600601
1772807499378063400,0.4980634765625,0.010262491181492805,0.058887552469968796,-0.0344218909740448
1772807499387995400,0.507995361328125,0.011572766117751598,0.0509774312376976,-0.025009479373693466
1772807499397927400,0.517927490234375,0.011060107499361038,0.05121232196688652,-0.01666606217622757
1772807499407859500,0.527859375,0.018097776919603348,0.05949235334992409,-0.012291553430259228
1772807499417791500,0.53779150390625,0.025193236768245697,0.06823418289422989,-0.021926337853074074
1772807499427723500,0.5477236328125,0.025121597573161125,0.07427822798490524,-0.03026496060192585
1772807499437655600,0.557655517578125,0.01974201388657093,0.055453404784202576,-0.03861423581838608
1772807499447587600,0.567587646484375,0.019267171621322632,0.04658055305480957,-0.04916301742196083
1772807499457519600,0.57751953125,0.019061041995882988,0.04525855928659439,-0.0584433376789093
1772807499467451600,0.58745166015625,0.01859126053750515,0.03705469146370888,-0.07286807894706726
1772807499477383700,0.5973837890625,0.02293088287115097,0.04069310054183006,-0.08434443920850754
1772807499487316700,0.607316650390625,0.023482156917452812,0.04595843702554703,-0.09958624839782715
1772807499497248800,0.617248779296875,0.023907197639346123,0.056902430951595306,-0.10160891711711884
1772807499507180500,0.6271806640625,0.028689701110124588,0.058635614812374115,-0.09390652179718018
1772807499517112600,0.637112548828125,0.03056083805859089,0.06320000439882278,-0.08918526768684387
1772807499527044600,0.647044677734375,0.03238030895590782,0.07166832685470581,-0.09477311372756958
1772807499536976600,0.6569765625,0.034506045281887054,0.06870369613170624,-0.10116097331047058
1772807499546908700,0.66690869140625,0.041605766862630844,0.05937011539936066,-0.10291066765785217
1772807499556840700,0.6768408203125,0.03521657735109329,0.05359851196408272,-0.11106180399656296
1772807499566772500,0.6867724609375,0.037163879722356796,0.042511772364377975,-0.11642008274793625
1772807499576704500,0.69670458984375,0.03995673730969429,0.04426493123173714,-0.11615803092718124
1772807499586636500,0.706636474609375,0.04484789818525314,0.05278678238391876,-0.11326184123754501
1772807499596568600,0.716568603515625,0.04394854977726936,0.04470861703157425,-0.09871646016836166
1772807499606500600,0.72650048828125,0.04336291924118996,0.052497029304504395,-0.08467627316713333
1772807499616433700,0.73643359375,0.044790640473365784,0.05573117360472679,-0.07197245955467224
1772807499626365700,0.74636572265625,0.04279380291700363,0.05722014605998993,-0.06215525045990944
1772807499636297500,0.75629736328125,0.046975232660770416,0.05579748377203941,-0.04626656323671341
1772807499646229500,0.7662294921875,0.050870638340711594,0.04596429690718651,-0.02093377709388733
1772807499656161500,0.77616162109375,0.05023680627346039,0.060508884489536285,-0.00938950665295124
1772807499666093600,0.786093505859375,0.049969423562288284,0.05592451989650726,-0.014455106109380722
1772807499676025600,0.796025634765625,0.06048944219946861,0.05132976546883583,-0.0088789789006114
1772807499685957600,0.80595751953125,0.05203710123896599,0.0326242558658123,-0.025346368551254272
1772807499695889400,0.815889404296875,0.04969005659222603,0.014062555506825447,-0.021749237552285194
1772807499705821400,0.825821533203125,0.051112450659275055,0.006425941362977028,-0.025951439514756203
1772807499715753500,0.83575341796875,0.05042668804526329,-0.002778209513053298,-0.010712831281125546
1772807499725685500,0.845685546875,0.049981940537691116,-0.010235060937702656,0.005130313336849213
1772807499735618600,0.85561865234375,0.0494125559926033,0.002375007141381502,0.0019289276096969843
1772807499745550600,0.865550537109375,0.050822433084249496,0.021075723692774773,-0.005287173669785261
1772807499755482400,0.875482421875,0.04926794767379761,0.0278548002243042,-0.005030711181461811
1772807499765414400,0.885414306640625,0.04651610180735588,0.03464346379041672,0.0010926949325948954
1772807499775346400,0.895346435546875,0.04813876748085022,0.04806739464402199,0.0094480961561203
1772807499785278500,0.905278564453125,0.0436398871243,0.05920260399580002,0.022942068055272102
1772807499795210500,0.91521044921875,0.04169631376862526,0.07492057979106903,0.038237400352954865
1772807499805142500,0.925142578125,0.03448633849620819,0.09391078352928162,0.04258207976818085
1772807499815074600,0.935074462890625,0.03742619976401329,0.10819118469953537,0.029456958174705505
1772807499825006600,0.945006591796875,0.03705175966024399,0.11965928971767426,0.004780906718224287
1772807499834938600,0.954938720703125,0.03319230675697327,0.12015117704868317,-0.01623835787177086
1772807499844870700,0.96487060546875,0.028182102367281914,0.12725701928138733,-0.026766899973154068
1772807499854802700,0.974802734375,0.027817782014608383,0.1434791386127472,-0.026369554921984673
1772807499864735500,0.984735595703125,0.023669110611081123,0.15537920594215393,-0.023721840232610703
1772807499874667500,0.99466748046875,0.016767527908086777,0.15440155565738678,-0.015335280448198318
1772807499884599600,1.004599609375,0.008440356701612473,0.15055622160434723,-0.006020075641572475
1772807499894531600,1.014531494140625,0.00811944529414177,0.15714327991008759,-0.009893643669784069
1772807499904463600,1.024463623046875,0.00860494002699852,0.16389253735542297,-0.02165469527244568
1772807499914395600,1.034395751953125,0.013302755542099476,0.16395831108093262,-0.028599420562386513
1772807499924327700,1.04432763671875,0.01731986738741398,0.1693754494190216,-0.03321680799126625
1772807499934259700,1.054259765625,0.013945909217000008,0.16149409115314484,-0.030954187735915184
1772807499944191500,1.06419140625,0.01877235621213913,0.15050934255123138,-0.020565729588270187
1772807499954123500,1.07412353515625,0.02136201411485672,0.1355397254228592,-0.0013004215434193611
1772807499964055600,1.0840556640625,0.02774561010301113,0.12564954161643982,0.012515791691839695
1772807499973987600,1.093987548828125,0.034153178334236145,0.11061013489961624,0.011748534627258778
1772807499983920600,1.103920654296875,0.03153129294514656,0.09773082286119461,0.0008796420879662037
1772807499993852700,1.113852783203125,0.030099311843514442,0.07689265161752701,-0.01918727718293667
1772807500003784700,1.12378466796875,0.02431679144501686,0.06361865997314453,-0.03614814952015877
1772807500013716500,1.133716552734375,0.019641079008579254,0.05547897145152092,-0.05241580307483673
1772807500023648500,1.1436484375,0.021412082016468048,0.05913549289107323,-0.05486271530389786
1772807500033580500,1.15358056640625,0.018132930621504784,0.05372794345021248,-0.034384071826934814
1772807500043512300,1.16351220703125,0.023916251957416534,0.022416092455387115,0.007727694697678089
1772807500053444400,1.1734443359375,0.02822870761156082,0.029628200456500053,0.031751006841659546
1772807500063376400,1.18337646484375,0.04063797369599342,0.03389564901590347,0.045647114515304565
1772807500073308400,1.193308349609375,0.04089789837598801,0.02111593820154667,0.0481339730322361
1772807500083240400,1.203240478515625,0.03337979316711426,-0.003935885615646839,0.039741821587085724
1772807500093172200,1.213172119140625,0.03622112050652504,-0.008902148343622684,0.02269173040986061
1772807500103105500,1.22310546875,0.03360003978013992,-0.007131945341825485,-0.005834453273564577
1772807500113037300,1.233037353515625,0.04069150239229202,-0.005823001731187105,-0.019538281485438347
1772807500122969300,1.24296923828125,0.03610873594880104,0.0010189254535362124,-0.026092853397130966
1772807500132901400,1.2529013671875,0.0330415740609169,0.0059753344394266605,-0.020956946536898613
1772807500142833400,1.26283349609375,0.037221137434244156,0.01360262744128704,-0.020354539155960083
1772807500152765400,1.272765380859375,0.035356923937797546,0.030340595170855522,-0.02534397318959236
1772807500162697200,1.282697265625,0.04073065146803856,0.04669932648539543,-0.029687320813536644
1772807500172629200,1.292629150390625,0.04409608989953995,0.05720975995063782,-0.02672348916530609
1772807500182561300,1.302561279296875,0.03500831872224808,0.06719101965427399,-0.02014947682619095
1772807500192493300,1.312493408203125,0.040824662894010544,0.07355331629514694,0.005534581374377012
1772807500202425600,1.322425537109375,0.02852405235171318,0.06542933732271194,0.028138959780335426
1772807500212357600,1.332357666015625,0.015454856678843498,0.06396566331386566,0.041125863790512085
1772807500222289400,1.342289306640625,0.009340238757431507,0.07165101915597916,0.0569961741566658
1772807500232222200,1.35222216796875,0.007829426787793636,0.073455311357975,0.06749222427606583
1772807500242154200,1.362154296875,0.00469621829688549,0.07899202406406403,0.0700073167681694
1772807500252086500,1.37208642578125,0.0004916195175610483,0.08088818937540054,0.06185378134250641
1772807500262018600,1.3820185546875,-0.0020442423410713673,0.08066795021295547,0.04652675613760948
1772807500271950600,1.39195068359375,-0.011240137740969658,0.08240512758493423,0.03786375746130943
1772807500281882600,1.401882568359375,-0.01678510569036007,0.08622889220714569,0.04062226042151451
1772807500291814400,1.411814453125,-0.01689908839762211,0.08987556397914886,0.06471188366413116
1772807500301746400,1.421746337890625,-0.019245333969593048,0.08911016583442688,0.0789768397808075
1772807500311678500,1.431678466796875,-0.01793772168457508,0.09339732676744461,0.07972119748592377
1772807500321610500,1.441610595703125,-0.013371732085943222,0.09458562731742859,0.07707614451646805
1772807500331542500,1.45154248046875,-0.011575429700314999,0.0845218077301979,0.06545384228229523
1772807500341475600,1.4614755859375,-0.015560051426291466,0.07826071977615356,0.049307096749544144
1772807500351407600,1.47140771484375,-0.01267211977392435,0.060499031096696854,0.031386952847242355
1772807500361339400,1.48133935546875,-0.004394481889903545,0.06437632441520691,0.019242404028773308
1772807500371271400,1.491271484375,0.005313272587954998,0.06795747578144073,0.0020682108588516712
1772807500381203500,1.501203369140625,0.008934639394283295,0.07746469974517822,-0.017468472942709923
1772807500391135500,1.511135498046875,0.014905712567269802,0.06647063791751862,-0.01200819294899702
1772807500401067500,1.521067626953125,0.02202700451016426,0.0720028206706047,-0.00814953912049532
1772807500410999600,1.53099951171875,0.025122396647930145,0.06024975702166557,-0.002298840554431081
1772807500420931300,1.540931396484375,0.03187883645296097,0.05775091424584389,0.010839065536856651
1772807500430863400,1.55086328125,0.030951524153351784,0.04801918938755989,0.007995874620974064
1772807500440795400,1.56079541015625,0.028206869959831238,0.02773389220237732,-0.008351140655577183
1772807500450727400,1.5707275390625,0.03287752345204353,0.012828713282942772,-0.014036457054316998
1772807500460659500,1.580659423828125,0.03644562512636185,0.012354936450719833,-0.008656605146825314
1772807500470592500,1.590592529296875,0.036310337483882904,-0.002644518855959177,-0.0011054781498387456
1772807500480524500,1.600524658203125,0.03331374749541283,-0.010762100107967854,0.006310892757028341
1772807500490456300,1.610456298828125,0.03623177483677864,-0.016703879460692406,0.011086739599704742
1772807500500388400,1.620388427734375,0.034690070897340775,-0.011568771675229073,0.008078166283667088
1772807500510320400,1.6303203125,0.03663257881999016,-0.0015550197567790747,0.00836765207350254
1772807500520252400,1.64025244140625,0.03266899660229683,0.010586864314973354,0.001654089312069118
1772807500530184400,1.650184326171875,0.027638552710413933,0.001927595934830606,-0.004840828012675047
1772807500540116200,1.6601162109375,0.023421702906489372,-0.006003564223647118,-0.01306227222084999
1772807500550048300,1.67004833984375,0.01907462440431118,-0.012720854952931404,-0.021892249584197998
1772807500559980300,1.679980224609375,0.013970410451292992,-0.008767925202846527,-0.010423346422612667
1772807500569912300,1.689912353515625,0.014858840964734554,-0.017316672950983047,0.003608316881582141
1772807500579844400,1.69984423828125,0.014217285439372063,-0.02744787000119686,0.009602826088666916
1772807500589777400,1.70977734375,0.00977646466344595,-0.04127739742398262,0.01116503681987524
1772807500599709400,1.71970947265625,0.0004069310089107603,-0.05462143197655678,0.013266004621982574
1772807500609641200,1.72964111328125,-0.0008855010382831097,-0.03831383213400841,0.005025118589401245
1772807500619573200,1.7395732421875,-0.00034940673504024744,-0.021809957921504974,0.004111654590815306
1772807500629505300,1.74950537109375,-0.004491687286645174,-0.01750948466360569,0.0059724049642682076
1772807500639437300,1.759437255859375,-0.004698348697274923,-0.01932336390018463,0.008775915019214153
1772807500649369600,1.76936962890625,-0.005642439238727093,-0.01884559355676174,0.006262423470616341
1772807500659301600,1.779301513671875,-0.008406001143157482,-0.019574234262108803,0.005470665637403727
1772807500669233400,1.7892333984375,-0.004296477884054184,-0.02287415601313114,0.007925833575427532
1772807500679165400,1.79916552734375,-0.0041153826750814915,-0.014605840668082237,0.014534201472997665
1772807500689097500,1.809097412109375,0.0008351673022843897,-0.010191917419433594,0.0221449825912714
1772807500699029500,1.819029541015625,-0.0013510215794667602,0.007829693146049976,0.032647423446178436
1772807500708962600,1.828962646484375,-0.003228283952921629,0.009297894313931465,0.047864459455013275
1772807500718894600,1.83889453125,-0.0013675332302227616,0.036064792424440384,0.04697975888848305
1772807500728826600,1.84882666015625,0.000919323181733489,0.04536162316799164,0.036675989627838135
1772807500738758400,1.85875830078125,-0.006907973438501358,0.039683230221271515,0.030253775417804718
1772807500748690400,1.8686904296875,-0.011788482777774334,0.031036745756864548,0.023360183462500572
1772807500758622500,1.87862255859375,-0.017349163070321083,0.026790069416165352,0.024774588644504547
1772807500768554500,1.888554443359375,-0.018159562721848488,0.026857446879148483,0.024108000099658966
1772807500778486500,1.898486572265625,-0.016569389030337334,0.029750438407063484,0.023996412754058838
1772807500788418600,1.90841845703125,-0.011234545148909092,0.026610039174556732,0.0233527272939682
1772807500798350300,1.918350341796875,-0.010165286250412464,0.03266260400414467,0.01366414688527584
1772807500808282400,1.928282470703125,-0.010262757539749146,0.04821626469492912,0.000943025341257453
1772807500818215400,1.93821533203125,-0.011110708117485046,0.05054759606719017,0.000767523015383631
1772807500828147500,1.9481474609375,-0.01522688940167427,0.046121690422296524,0.011608186177909374
1772807500838079500,1.95807958984375,-0.017067933455109596,0.035473037511110306,0.0193081833422184
1772807500848011500,1.968011474609375,-0.018861038610339165,0.026251310482621193,0.03433933109045029
1772807500857943600,1.977943603515625,-0.02056865766644478,0.01715341955423355,0.038719963282346725
1772807500867875300,1.987875244140625,-0.021447502076625824,0.014316621236503124,0.027756797149777412
1772807500877807400,1.997807373046875,-0.01543701346963644,0.021682126447558403,0.010923221707344055
1772807500887739400,2.007739501953125,-0.012430304661393166,0.017969945445656776,-0.0010426276130601764
1772807500897671400,2.01767138671875,-0.01050270814448595,0.01894226484000683,0.0015222628135234118
1772807500907603500,2.027603515625,-0.011091533116996288,0.019028285518288612,0.004530569538474083
1772807500917535500,2.037535400390625,-0.0078102522529661655,0.018307633697986603,0.011867045424878597
1772807500927467300,2.04746728515625,-0.004405667539685965,0.019461315125226974,0.01631559059023857
1772807500937400300,2.057400390625,-0.005411010701209307,0.01332565862685442,0.012410863302648067
1772807500947332400,2.067332275390625,-0.003981692250818014,0.005261607468128204,0.005983057431876659
1772807500957264400,2.077264404296875,-0.00887977797538042,-0.005136438645422459,-0.0007592672482132912
1772807500967196400,2.087196533203125,-0.007738080807030201,-0.01380848977714777,-0.005714078433811665
1772807500977128400,2.09712841796875,-0.004631237126886845,-0.011787417344748974,-0.010971425101161003
1772807500987060500,2.107060546875,-0.003239735495299101,-0.008868326433002949,-0.009848102927207947
1772807500996992300,2.1169921875,0.0038152446504682302,-0.0021582257468253374,-0.011723767966032028
1772807501006924300,2.12692431640625,0.006931675598025322,0.001050084363669157,-0.009680856950581074
1772807501016856300,2.136856201171875,0.008884305134415627,-0.00293267285451293,-0.009701362811028957
1772807501026788400,2.146788330078125,0.007582552265375853,-0.0010452907299622893,-0.01654116064310074
1772807501036720600,2.156720703125,0.006554571911692619,-0.00666456064209342,-0.015564844943583012
1772807501046652700,2.166652587890625,0.002919357270002365,-0.0101389205083251,-0.015503059141337872
1772807501056585700,2.176585693359375,0.0020690099336206913,-0.017600033432245255,-0.012504340149462223
1772807501066517800,2.186517822265625,-0.0009238505735993385,-0.025499766692519188,-0.0073473951779305935
1772807501076449500,2.196449462890625,-0.008955411612987518,-0.03239256143569946,-0.006315952632576227
1772807501086381600,2.206381591796875,-0.009066465310752392,-0.03338059410452843,-0.008564991876482964
1772807501096313600,2.216313720703125,-0.004795820452272892,-0.03190147504210472,-0.013398096896708012
1772807501106245600,2.22624560546875,-0.0059750680811703205,-0.03189428150653839,-0.015080415643751621
1772807501116178000,2.236177978515625,-0.008760201744735241,-0.031320370733737946,-0.00930108968168497
1772807501126110000,2.24610986328125,-0.007444866932928562,-0.029751770198345184,-0.008929313160479069
1772807501136041700,2.256041748046875,-0.003043460426852107,-0.021411282941699028,-0.013966947793960571
1772807501145973800,2.265973876953125,-0.004339620936661959,-0.02466406673192978,-0.012830311432480812
1772807501155905800,2.27590576171875,-0.00498037738725543,-0.026867300271987915,-0.00884781964123249
1772807501165838600,2.285838623046875,-0.004520183429121971,-0.02869369648396969,0.0034938009921461344
1772807501175771000,2.29577099609375,-0.004644020460546017,-0.021765483543276787,0.0099021652713418
1772807501185703000,2.305702880859375,-0.00046845004544593394,-0.009831591509282589,0.006358829792588949
1772807501195634700,2.315634765625,0.0026101642288267612,-0.007200655061751604,0.0005065332516096532
1772807501205566700,2.325566650390625,0.00046578687033616006,-0.009643039666116238,-0.004547347314655781
1772807501215498800,2.335498779296875,-0.001931058126501739,-0.012863600626587868,-0.0028091021813452244
1772807501225430800,2.3454306640625,-0.006542321294546127,-0.014884141273796558,0.005456284619867802
1772807501235362800,2.35536279296875,-0.00782383419573307,-0.016353406012058258,0.008204400539398193
1772807501245294800,2.365294921875,-0.0031494542490690947,-0.013996242545545101,0.00768774701282382
1772807501255226600,2.3752265625,0.0007920240750536323,-0.00923131499439478,0.002918824553489685
1772807501265158700,2.38515869140625,0.002095108851790428,-0.009259810671210289,0.0008588694618083537
1772807501275091700,2.395091796875,0.0043295007199049,-0.011225223541259766,-0.004240285139530897
1772807501285023700,2.405023681640625,0.0029113676864653826,-0.005321794655174017,-0.010373544879257679
1772807501294955800,2.414955810546875,0.004247741773724556,-0.0009440905996598303,-0.020499415695667267
1772807501304887800,2.4248876953125,0.003204315435141325,0.0007504787645302713,-0.01925305649638176
1772807501314819800,2.43481982421875,0.0014540859265252948,-0.0011768508702516556,-0.014518222771584988
1772807501324751600,2.444751708984375,0.00025513084256090224,-0.0001001348573481664,-0.013281450606882572
1772807501334683600,2.45468359375,-0.0017457021167501807,0.0014671353856101632,-0.017055682837963104
1772807501344615700,2.46461572265625,0.0009113337146118283,0.006102900020778179,-0.017964353784918785
1772807501354547700,2.474547607421875,0.00007243797881528735,0.008504538796842098,-0.013831659220159054
1772807501364479700,2.484479736328125,-0.0005406216951087117,0.0062762717716395855,-0.007138337008655071
1772807501374411800,2.494411865234375,0.00013022858183830976,0.010992730036377907,-0.006756706163287163
1772807501384344800,2.5043447265625,0.003314303932711482,0.009846505708992481,-0.008055795915424824
1772807501394276600,2.514276611328125,0.0025840650778263807,0.010801514610648155,-0.002852778183296323
1772807501404208600,2.524208740234375,0.0014405038673430681,0.004817658569663763,0.004626177251338959
1772807501414140700,2.534140625,0.00041998049709945917,0.005423261318355799,0.009584183804690838
1772807501424072700,2.54407275390625,-0.0009590042755007744,0.012541358359158039,0.004543619230389595
1772807501434004700,2.554004638671875,-0.0009004147723317146,0.011483550071716309,0.002040247665718198
1772807501443936800,2.563936767578125,0.002686863299459219,0.014602112583816051,-0.002141980454325676
1772807501453868500,2.57386865234375,-0.001755289500579238,0.01666606217622757,0.0035388083197176456
1772807501463800600,2.583800537109375,0.001094559207558632,0.019292205572128296,-0.0031443943735212088
1772807501473732600,2.593732666015625,0.0026288062799721956,0.021257085725665092,-0.010238789021968842
1772807501483664600,2.60366455078125,0.0059926449321210384,0.01805942691862583,-0.015267902053892612
1772807501493597700,2.61359765625,0.007672566920518875,0.01167609728872776,-0.0115546565502882
1772807501503529700,2.62352978515625,0.006760700605809689,0.009859022684395313,-0.00657561095431447
1772807501513461800,2.633461669921875,0.010850250720977783,0.016524381935596466,-0.011334680020809174
1772807501523393500,2.6433935546875,0.0101402522996068,0.01678137667477131,-0.0183518435806036
1772807501533325600,2.65332568359375,0.008420116268098354,0.01757659763097763,-0.01619175262749195
1772807501543257600,2.663257568359375,0.002344913315027952,0.014762434177100658,-0.01486603170633316
1772807501553189600,2.673189697265625,0.00011664645717246458,0.016470320522785187,-0.015201323665678501
1772807501563122000,2.683121826171875,-0.001350222621113062,0.020747622475028038,-0.01667351834475994
1772807501573054000,2.693053955078125,0.001094825565814972,0.02787131257355213,-0.019055983051657677
1772807501582985700,2.70298583984375,0.0012996225850656629,0.027704065665602684,-0.01587670110166073
1772807501592917800,2.712917724609375,0.0019473034190014005,0.024022778496146202,-0.0033340114168822765
1772807501602850600,2.7228505859375,0.00025353292585350573,0.02628912776708603,0.0032714270055294037
1772807501612782600,2.732782470703125,-0.0005169195355847478,0.026584206148982048,0.0032714270055294037
1772807501622715000,2.74271484375,-0.0009262474486604333,0.023076556622982025,0.011965849436819553
1772807501632647000,2.75264697265625,-0.0029936593491584063,0.021099958568811417,0.02213246561586857
1772807501642578700,2.76257861328125,-0.005554554983973503,0.013665478676557541,0.024955151602625847
1772807501652510700,2.7725107421875,-0.00490154791623354,0.012655873782932758,0.020667461678385735
1772807501662442800,2.78244287109375,-0.005233644042164087,0.012506471015512943,0.01631425879895687
1772807501672374800,2.792374755859375,-0.004268514458090067,0.013895043171942234,0.015139271505177021
1772807501682306800,2.802306884765625,-0.009754892438650131,0.016747022047638893,0.01173335500061512
1772807501692238800,2.81223876953125,-0.006076268386095762,0.019587017595767975,0.004281031433492899
1772807501702170600,2.822170654296875,-0.002049302449449897,0.021408086642622948,0.0017531589837744832
1772807501712103700,2.832103759765625,-0.0021028320770710707,0.02545582503080368,0.003314303932711482
1772807501722035700,2.84203564453125,-0.003204049076884985,0.024462731555104256,0.011235077865421772
1772807501731967700,2.8519677734375,-0.002073537092655897,0.022299179807305336,0.013574131764471531
1772807501741899800,2.861899658203125,-0.0021616879384964705,0.020174777135252953,0.018340392038226128
1772807501751831800,2.871831787109375,-0.0009022789890877903,0.014169881120324135,0.017906030640006065
1772807501761763800,2.881763916015625,-0.0028453213162720203,0.012554141692817211,0.008588427677750587
1772807501771695600,2.891695556640625,-0.0036221654154360294,0.008703210391104221,-0.006079996936023235
1772807501781627600,2.901627685546875,-0.0068033114075660706,0.002499110298231244,-0.013625530526041985
1772807501791559700,2.9115595703125,-0.008755408227443695,-0.0060416474007070065,-0.011360512115061283
1772807501801491700,2.92149169921875,-0.008778844028711319,-0.008812133222818375,-0.006867759861052036
1772807501811423700,2.931423828125,-0.007237939164042473,-0.00008096009696600959,-0.008142082020640373
1772807501821356800,2.941356689453125,-0.00242107966914773,0.004270378965884447,0.0024655545130372047
1772807501831288800,2.951288818359375,-0.0011078750248998404,0.0009755159262567759,0.016146745532751083
1772807501841220600,2.961220703125,-0.0026312030386179686,0.00044767739018425345,0.0191971305757761
1772807501851152600,2.971152587890625,-0.001933987601660192,0.000678307143971324,0.01369344163686037
1772807501861084700,2.981084716796875,-0.00002902845517382957,0.0031728900503367186,0.003319896524772048
1772807501871016700,2.9910166015625,0.001612544059753418,-0.013817278668284416,0.0028842033352702856
1772807501880948700,3.00094873046875,-0.006655772216618061,-0.013968812301754951,0.00239151855930686
1772807501890880800,3.010880859375,-0.0032671659719198942,-0.01775769144296646,0.0014849785948172212
1772807501900812500,3.0208125,0.00014674017438665032,-0.013905162923038006,-0.0008780442294664681
1772807501910744600,3.03074462890625,0.0007872303831391037,-0.01678537204861641,0.003867708845064044
1772807501920677600,3.040677734375,-0.0014362427173182368,-0.01781148836016655,0.008926649577915668
1772807501930609700,3.050609619140625,-0.00024767397553659976,-0.017651697620749474,0.013308614492416382
1772807501940541700,3.060541748046875,0.0034373418893665075,-0.011777829378843307,0.005477855913341045
1772807501950473700,3.0704736328125,0.0023158849216997623,-0.017043432220816612,-0.00027563716867007315
1772807501960405800,3.08040576171875,0.000666322885081172,-0.01501170638948679,-0.001957689644768834
1772807501970337500,3.090337646484375,-0.0022503710351884365,-0.012267052195966244,0.003485811408609152
1772807501980269600,3.10026953125,0.0021603561472147703,-0.010163155384361744,0.0037729002069681883
1772807501990201600,3.11020166015625,-0.0006636597099713981,-0.009278719313442707,0.0048799761570990086
1772807502000133600,3.120133544921875,0.00045540055725723505,-0.01040630228817463,-0.0009717874927446246
1772807502010066000,3.13006591796875,0.0008492820779792964,-0.01350355800241232,-0.010028932243585587
1772807502019998000,3.139998046875,-0.004781173076480627,-0.017006680369377136,-0.010847055353224277
1772807502029930800,3.1499306640625,-0.002130528911948204,-0.01948688179254532,-0.011276889592409134
1772807502039862300,3.1598623046875,-0.0046181874349713326,-0.009164470247924328,-0.0029206888284534216
1772807502049794300,3.169794189453125,-0.0033907366450875998,0.00014221279707271606,0.0027683558873832226
1772807502059726300,3.179726318359375,-0.0023459785152226686,0.0010985539993271232,0.012588496319949627
1772807502069658400,3.189658447265625,-0.0024410535115748644,0.001939580193720758,0.018995262682437897
1772807502079590400,3.19959033203125,-0.004192614462226629,0.003328418591991067,0.019338278099894524
1772807502089522200,3.209522216796875,-0.00350392097607255,0.004244812298566103,0.01101616583764553
1772807502099454200,3.2194541015625,-0.0018287927377969027,0.008824916556477547,0.011037737131118774
1772807502109386200,3.22938623046875,-0.003210174385458231,0.00944836251437664,0.016091885045170784
1772807502119318300,3.239318359375,-0.0010207896120846272,0.012010590173304081,0.02341584302484989
1772807502129251300,3.249251220703125,-0.0011486213188618422,0.01522822119295597,0.027352528646588326
1772807502139183400,3.259183349609375,-0.002641589380800724,0.01685274951159954,0.02996455691754818
1772807502149115400,3.269115478515625,-0.0035475967451930046,0.010736001655459404,0.02557513490319252
1772807502159047200,3.279047119140625,-0.005813147872686386,0.0093317162245512,0.015043930150568485
1772807502168979200,3.288979248046875,-0.006848052144050598,0.009560481645166874,0.004225637763738632
1772807502178911200,3.2989111328125,-0.005635248962789774,0.015059110708534718,-0.003940146882086992
1772807502188843300,3.30884326171875,-0.005577990785241127,0.018565429374575615,-0.009529589675366879
1772807502198775300,3.318775390625,-0.00498144282028079,0.021090904250741005,-0.012122442945837975
1772807502208707300,3.328707275390625,-0.0012032161466777325,0.021163076162338257,-0.012776515446603298
1772807502218639000,3.33863916015625,-0.0014426343841478229,0.020375579595565796,-0.007695204112678766
1772807502228571100,3.348571044921875,0.0003765709698200226,0.016629576683044434,-0.004767591133713722
1772807502238504200,3.358504150390625,0.004135356284677982,0.015282816253602505,-0.0038780951872467995
1772807502248436200,3.368436279296875,0.004605404566973448,0.012101669795811176,-0.005086371209472418
1772807502258368300,3.3783681640625,0.003899400355294347,0.007954062893986702,0.0024437166284769773
1772807502268300300,3.38830029296875,0.004217914305627346,0.01095491275191307,0.00504003232344985
1772807502278232300,3.398232421875,0.003832022426649928,0.010382333770394325,0.00430073868483305
1772807502288164000,3.4081640625,0.004171309061348438,0.015036207623779774,-0.0003502056933939457
1772807502298096000,3.41809619140625,0.0024029703345149755,0.009225456044077873,0.00004314320904086344
1772807502308028200,3.428028076171875,0.00004873584839515388,0.005529255140572786,0.004372644238173962
1772807502317960200,3.437960205078125,-0.0011733887949958444,0.00652714166790247,0.009067264385521412
1772807502327892200,3.447892333984375,-0.00367143377661705,0.007905327714979649,0.004860535264015198
1772807502337825300,3.4578251953125,0.0001627191377338022,0.006958573590964079,-0.00526533555239439
1772807502347757300,3.46775732421875,-0.001412806916050613,0.005441637244075537,-0.013332050293684006
1772807502357689000,3.477689208984375,0.0012263857061043382,0.0007970841252245009,-0.009290170855820179
1772807502367621000,3.48762109375,-0.0012154667638242245,-0.0010032127611339092,-0.003706587478518486
1772807502377553200,3.49755322265625,-0.0004146541759837419,0.0015100123127922416,-0.005382781382650137
1772807502387485200,3.507485107421875,0.0009100021561607718,0.0024549018125981092,-0.00845660176128149
1772807502397417200,3.517417236328125,0.0008349010022357106,0.0011262508342042565,-0.009007076732814312
1772807502407349000,3.527348876953125,-0.0005193164106458426,0.0014053500490263104,0.00019334549142513424
1772807502417281000,3.537281005859375,-0.0014048174489289522,0.00031798143754713237,0.0063798688352108
1772807502427213300,3.54721337890625,-0.00216488353908062,-0.000023968450477696024,0.00830799713730812
1772807502437146000,3.55714599609375,-0.002070873975753784,0.0009166600648313761,0.005548962391912937
1772807502447078100,3.567078125,-0.0023467775899916887,0.001341966912150383,0.009072324261069298
1772807502457010200,3.57701025390625,-0.0056712012737989426,0.003631486324593425,0.007019826211035252
1772807502466942200,3.586942138671875,-0.003817907767370343,0.005378253757953644,-0.000050866376113845035
1772807502476874200,3.596874267578125,-0.004736165516078472,0.0065593658946454525,0.004245611373335123
1772807502486806300,3.60680615234375,-0.0017467673169448972,0.0076512619853019714,0.00720598129555583
1772807502496738300,3.61673828125,-0.0014530207263305783,0.0002516687090974301,0.01167742908000946
1772807502506670300,3.62667041015625,-0.004144144710153341,-0.00015339808305725455,0.00806272029876709
1772807502516602400,3.636602294921875,-0.0029848709236830473,0.001871136948466301,0.006923952605575323
1772807502526534400,3.646534423828125,-0.0032778186723589897,0.004266384057700634,0.010006029158830643
1772807502536467200,3.65646728515625,-0.0022120214998722076,0.009681922383606434,0.0018764632986858487
1772807502546399200,3.666399169921875,-0.0022181468084454536,0.008135423995554447,-0.0041364217177033424
1772807502556331300,3.676331298828125,-0.0009574064170010388,0.008771386928856373,-0.006413957104086876
1772807502566263300,3.68626318359375,-0.0021313277538865805,0.0032048479188233614,-0.005945240613073111
1772807502576195300,3.6961953125,-0.0018064221367239952,0.002653573639690876,-0.005399026442319155
1772807502586127400,3.70612744140625,-0.003478354774415493,-0.0004410194815136492,-0.0030421288684010506
1772807502596059400,3.716059326171875,-0.0010892328573390841,0.001728924224153161,-0.0013904364313930273
1772807502605991200,3.7259912109375,-0.0035891421139240265,0.003716707695275545,-0.0013310478534549475
1772807502615923200,3.735923095703125,-0.0006375607335940003,0.0054456316865980625,-0.0024612934794276953
1772807502625855200,3.745855224609375,-0.0005454153870232403,0.0027238810434937477,-0.0009664611425250769
1772807502635788300,3.755788330078125,-0.0009329052991233766,0.00612393906340003,-0.00649784691631794
1772807502645720300,3.76572021484375,-0.004255465231835842,0.005826730281114578,-0.007101585157215595
1772807502655652400,3.77565234375,-0.0023121563717722893,0.0017526262672618032,-0.008673915639519691
1772807502665584400,3.78558447265625,-0.0016532903537154198,0.005170261021703482,-0.007251787465065718
1772807502675516200,3.79551611328125,-0.00010839065362233669,0.00686056911945343,-0.00027537086862139404
1772807502685448200,3.8054482421875,0.0012769857421517372,0.0023406522814184427,0.00515880947932601
1772807502695380200,3.815380126953125,-0.0005994775565341115,0.0022040321491658688,0.01008113007992506
1772807502705312300,3.825312255859375,-0.00021145498612895608,0.0026935210917145014,0.008082693442702293
1772807502715244300,3.835244384765625,-0.001686846255324781,0.001487375469878316,0.008144212886691093
1772807502725176300,3.84517626953125,-0.0009736517095007002,0.0031140341889113188,0.008687764406204224
1772807502735109400,3.855109375,-0.002429601736366749,0.004947354551404715,0.0009622001089155674
1772807502745041200,3.865041259765625,-0.00009347695595351979,0.004266916774213314,-0.0036400086246430874
1772807502754973200,3.87497314453125,-0.003388339886441827,0.0031135017052292824,-0.004551608581095934
1772807502764905200,3.8849052734375,-0.001936917076818645,0.003358512418344617,-0.0027084348257631063
1772807502774837200,3.894837158203125,-0.002427204977720976,0.004643487744033337,-0.00042557314736768603
1772807502784769300,3.904769287109375,-0.0019198728259652853,0.0021877868566662073,-0.002065015025436878
1772807502794701300,3.914701416015625,0.00032623723382130265,0.0024085629265755415,-0.002558498876169324
1772807502804633000,3.924633056640625,-0.0020479708909988403,0.00045300371129997075,-0.00692155584692955
1772807502814565000,3.934565185546875,-0.0017366473330184817,-0.0011198592837899923,-0.0057407100684940815
1772807502824498200,3.944498291015625,-0.003897269954904914,0.001832787413150072,-0.0017009610310196877
1772807502834430200,3.95443017578125,-0.0022682142443954945,0.0012144014472141862,0.0049734534695744514
1772807502844362200,3.9643623046875,-0.0005278385360725224,0.00452897185459733,0.00812024436891079
1772807502854294300,3.974294189453125,-0.003546265186741948,0.004530036821961403,0.009764480404555798
1772807502864224300,3.984224365234375,-0.003808586625382304,0.006444050930440426,0.00680197961628437
1772807502874157300,3.9941572265625,-0.0035148400347679853,0.0049430932849645615,0.00276089902035892
1772807502884089300,4.00408935546875,-0.00273693073540926,0.006905576679855585,-0.0002743055811151862
1772807502894021400,4.014021484375,-0.003522030543535948,0.008170045912265778,-0.00018615495355334133
1772807502903953400,4.023953369140625,-0.005025917664170265,0.007267500273883343,0.000493750034365803
1772807502913885200,4.03388525390625,-0.004781173076480627,0.005596100352704525,0.0007475492893718183
1772807502923817200,4.043817138671875,-0.003943875432014465,0.006906908005475998,0.000395745737478137
1772807502933749200,4.053749267578125,-0.0046573360450565815,0.008197209797799587,0.0012058793799951673
1772807502943681300,4.063681396484375,-0.006871222052723169,0.009975935332477093,0.0015278555219992995
1772807502953613300,4.07361328125,-0.004816326778382063,0.006768157705664635,0.000107858024421148
1772807502963545300,4.08354541015625,-0.0027957865968346596,0.004953745752573013,0.0024437166284769773
1772807502973478400,4.093478515625,-0.0027449200861155987,0.009018261916935444,0.00580702256411314
1772807502983410200,4.10341015625,-0.004618453793227673,0.006041913293302059,0.005257346201688051
1772807502993342200,4.11334228515625,-0.005530852824449539,0.004572647623717785,0.007849667221307755
1772807503003274200,4.123274169921875,-0.0021289309952408075,-0.002150502521544695,0.010903513990342617
1772807503013206300,4.133206298828125,-0.005107676610350609,0.0006000102148391306,0.006899185013025999
1772807503023138300,4.14313818359375,-0.0036661075428128242,0.0034916705917567015,0.01206704881042242
1772807503033070300,4.1530703125,-0.005589442327618599,0.004658401478081942,0.009500028565526009
1772807503043003000,4.1630029296875,-0.0038783615455031395,0.0031427964568138123,0.010323211550712585
1772807503052935000,4.172934814453125,-0.002916161436587572,0.008896023035049438,0.012113387696444988
1772807503062868000,4.182867919921875,-0.0035246936604380608,0.012944560497999191,0.01023000106215477
1772807503072800000,4.192800048828125,-0.0028391960076987743,0.016463661566376686,0.008332764729857445
1772807503082731800,4.202731689453125,-0.0031494542490690947,0.013941914774477482,0.009096292778849602
1772807503092663800,4.212663818359375,-0.005120459944009781,0.014458035118877888,0.007896006107330322
1772807503102595800,4.222595947265625,-0.0036791570018976927,0.014653244987130165,0.003959587775170803
1772807503112528000,4.23252783203125,0.001580053474754095,0.01392806600779295,0.003733485471457243
1772807503122460000,4.2424599609375,0.0008008125587366521,0.01458986196666956,0.0026088326703757048
1772807503132391700,4.2523916015625,0.0026253440883010626,0.014314224012196064,0.0006386260502040386
1772807503142323700,4.26232373046875,-0.0001917476038215682,0.012271846644580364,-0.0021347899455577135
1772807503152255700,4.272255859375,-0.00009321063407696784,0.009228119626641273,-0.00021731393644586205
1772807503162188800,4.282188720703125,-0.002931075170636177,0.005762547720223665,0.0032794165890663862
1772807503172120800,4.292120849609375,-0.0041057956404984,0.00771624268963933,0.006400907412171364
1772807503182052900,4.302052978515625,-0.0032029838766902685,0.0028040423057973385,0.008508799597620964
1772807503191985000,4.31198486328125,-0.004093012306839228,0.0034288198221474886,0.00766005041077733
1772807503201916700,4.321916748046875,-0.0013044163351878524,0.005897836294025183,0.00395665830001235
1772807503211848700,4.3318486328125,-0.004501274786889553,-0.0004588626616168767,0.001648230361752212
1772807503221780700,4.34178076171875,-0.003203782718628645,-0.0016729978378862143,0.00017496968212071806
1772807503231712800,4.351712646484375,-0.0019598202779889107,-0.000254331884207204,0.0025542378425598145
1772807503241644800,4.361644775390625,0.0037553233560174704,0.0010511496802791953,0.007134608458727598
1772807503251577900,4.371577880859375,0.0008623315370641649,-0.001392300589941442,0.010351973585784435
1772807503261510000,4.381510009765625,0.002406698651611805,-0.004463457968086004,0.011846539564430714
1772807503271441700,4.391441650390625,0.002229332225397229,-0.00458756135776639,0.013803163543343544
1772807503281373700,4.401373779296875,-0.000059388490626588464,-0.002986735198646784,0.017426660284399986
1772807503291305700,4.4113056640625,-0.0017683389596641064,-0.0019718045368790627,0.022884011268615723
1772807503301237800,4.42123779296875,0.0003299656673334539,-0.001823466387577355,0.01889912225306034
1772807503311169800,4.431169677734375,-0.004324440844357014,0.0012716593919321895,0.011707788333296776
1772807503321101800,4.441101806640625,-0.005638178437948227,-0.0015315839555114508,0.01016688346862793
1772807503331033600,4.45103369140625,-0.006549245677888393,-0.0029001825023442507,0.0062272693030536175
1772807503340965600,4.460965576171875,-0.007968178018927574,-0.0052139367908239365,0.006420082412660122
1772807503350898700,4.470898681640625,-0.003326288191601634,-0.00224903947673738,0.006069344002753496
1772807503360830700,4.480830810546875,-0.004211256746202707,0.0032431974541395903,0.0005954828229732811
1772807503370762800,4.4907626953125,-0.004486094694584608,0.0018277274211868644,0.00012650014832615852
1772807503380694800,4.50069482421875,-0.005044293589890003,0.003049585735425353,-0.0014178669080138206
1772807503390626800,4.510626708984375,-0.0036669063847512007,0.0028069717809557915,-0.0009869674686342478
1772807503400558600,4.52055859375,-0.0057348511181771755,0.001074052881449461,0.00199284334667027
1772807503410490600,4.53049072265625,-0.0054429685696959496,0.0046637277118861675,0.003525492735207081
1772807503420423000,4.5404228515625,-0.0024738102219998837,0.0046418895944952965,0.00199310970492661
1772807503430355000,4.55035498046875,-0.0013286510948091745,0.0016229304019361734,0.0033814155030995607
1772807503440287700,4.560287841796875,-0.0029933929909020662,0.0016881778137758374,0.008097074925899506
1772807503450219800,4.5702197265625,-0.0009110674145631492,0.0009086705395020545,0.01070750504732132
1772807503460151800,4.58015185546875,-0.0025622271932661533,0.0009456885163672268,0.01654568687081337
1772807503470083800,4.590083740234375,-0.0036128442734479904,-0.0025928535033017397,0.02069063112139702
1772807503480016000,4.600015869140625,-0.00273693073540926,-0.004304733593016863,0.017193101346492767
1772807503489948000,4.609947998046875,-0.004490355961024761,-0.002301770029589534,0.022783076390624046
1772807503499880000,4.6198798828125,-0.0025592977181077003,-0.004348675720393658,0.022485600784420967
1772807503509812000,4.62981201171875,-0.002286856295540929,-0.0031041805632412434,0.02081366814672947
1772807503519744000,4.639743896484375,-0.0034053840208798647,-0.007767908275127411,0.01763332262635231
1772807503529676800,4.6496767578125,-0.0018122810870409012,-0.0032796829473227262,0.010629741474986076
1772807503539608800,4.65960888671875,-0.0009592706337571144,-0.00253399764187634,0.0017504957504570484
1772807503549540900,4.669540771484375,-0.0017012272728607059,-0.002162486780434847,-0.0011821772204712033
1772807503559473000,4.679472900390625,-0.002258360618725419,-0.003388606244698167,-0.0029113676864653826
1772807503569405000,4.689405029296875,-0.0007669904152862728,-0.0017528926255181432,0.00040480049210600555
1772807503579337000,4.6993369140625,-0.002332130214199424,-0.000030892668291926384,0.003893541404977441
1772807503589269000,4.70926904296875,-0.002918025478720665,-0.000013848437447450124,-0.00018508969515096396
1772807503599200800,4.71920068359375,0.0011062771081924438,0.0020959076937288046,-0.0032048479188233614
1772807503609132800,4.7291328125,-0.0025688852183520794,0.0062728095799684525,-0.0033960631117224693
1772807503619065900,4.73906591796875,-0.002115348819643259,0.009097890928387642,-0.0005715143634006381
1772807503628998000,4.748997802734375,-0.0028447885997593403,0.00538517814129591,0.0000015978966985130683
1772807503638930000,4.758929931640625,-0.006897853687405586,0.004190484061837196,0.003153981640934944
1772807503648862000,4.768862060546875,-0.009456352330744267,0.003175020683556795,0.0046573360450565815
1772807503658793700,4.778793701171875,-0.008957542479038239,0.0028133634477853775,0.00503923324868083
1772807503668725800,4.788725830078125,-0.010901383124291897,0.0054211304523050785,0.004750546533614397
1772807503678657800,4.79865771484375,-0.00720518222078681,0.008706405758857727,0.00711836339905858
1772807503688589800,4.80858984375,-0.013333648443222046,0.00947765726596117,0.011422031559050083
1772807503698521900,4.81852197265625,-0.015398397110402584,0.007130081299692392,0.017841048538684845
1772807503708455000,4.828454833984375,-0.017064470797777176,0.007383880205452442,0.029438050463795662
1772807503718387000,4.838386962890625,-0.017645839601755142,0.010262491181492805,0.03020637109875679
1772807503728318700,4.848318603515625,-0.021494373679161072,0.01188329141587019,0.027961060404777527
1772807503738250800,4.858250732421875,-0.024952488020062447,0.010941064916551113,0.022000906988978386
1772807503748182800,4.868182861328125,-0.026398850604891777,0.012806076556444168,0.01338930893689394
1772807503758114800,4.87811474609375,-0.027308853343129158,0.010098706930875778,0.004368915688246489
1772807503768046800,4.888046875,-0.027161579579114914,0.010626012459397316,0.00458676228299737
1772807503777979000,4.897978759765625,-0.030963242053985596,0.011847072280943394,0.005367334932088852
1772807503787912000,4.907911865234375,-0.03157204017043114,0.002484196564182639,0.01281513087451458
1772807503797843700,4.91784375,-0.025138376280665398,0.011826565489172935,0.029944583773612976
1772807503807775700,4.927775634765625,-0.025858229026198387,0.01577390357851982,0.0431290939450264
1772807503817707800,4.937707763671875,-0.02815280854701996,0.006852846127003431,0.054368432611227036
1772807503827639800,4.947639892578125,-0.02907159924507141,0.0024317323695868254,0.06024949252605438
1772807503837571800,4.95757177734375,-0.030840735882520676,-0.002305232221260667,0.06247429549694061
1772807503847504000,4.96750390625,-0.033849574625492096,-0.006847786251455545,0.0682552233338356
1772807503857435600,4.977435546875,-0.03802355006337166,-0.013570137321949005,0.06980518251657486
1772807503867367700,4.98736767578125,-0.03825497627258301,-0.01732173189520836,0.07408355176448822
1772807503877300700,4.99730078125,-0.04085582122206688,-0.02352023869752884,0.07628624886274338
1772807503887232800,5.007232666015625,-0.03880838304758072,-0.02611229382455349,0.07578317821025848
1772807503897164800,5.017164794921875,-0.033613886684179306,-0.02514503337442875,0.06963953375816345
1772807503907096800,5.027096923828125,-0.0320170558989048,-0.031185882166028023,0.06446661055088043
1772807503917028900,5.03702880859375,-0.03081011027097702,-0.03504000976681709,0.05675861984491348
1772807503926960600,5.046960693359375,-0.028852419927716255,-0.04024862125515938,0.05525499954819679
1772807503936892700,5.056892578125,-0.029497971758246422,-0.04484683275222778,0.05915147066116333
1772807503946824700,5.06682470703125,-0.029638320207595825,-0.04521062225103378,0.06252116709947586
1772807503956756700,5.0767568359375,-0.03125139698386192,-0.045636992901563644,0.06497127562761307
1772807503966689800,5.086689697265625,-0.027332555502653122,-0.041974347084760666,0.07075832784175873
1772807503976621800,5.096621826171875,-0.025741050019860268,-0.044011667370796204,0.06929704546928406
1772807503986553900,5.106553955078125,-0.020261595025658607,-0.04361512139439583,0.06814496219158173
1772807503996485600,5.116485595703125,-0.023298131301999092,-0.05166612192988396,0.06665332615375519
1772807504006417700,5.126417724609375,-0.02617807500064373,-0.04939870908856392,0.061584003269672394
1772807504016349700,5.136349609375,-0.02461959235370159,-0.04848418012261391,0.054073087871074677
1772807504026281700,5.14628173828125,-0.0198618546128273,-0.042091526091098785,0.04881441220641136
1772807504036213800,5.1562138671875,-0.018788335844874382,-0.032705482095479965,0.04043903574347496
1772807504046146000,5.16614599609375,-0.014033260755240917,-0.02353462018072605,0.03526797518134117
1772807504056079000,5.1760791015625,-0.00974210910499096,-0.016689764335751534,0.031572308391332626
1772807504066011100,5.18601123046875,-0.007395331747829914,-0.00461579067632556,0.01107209175825119
1772807504075943200,5.195943115234375,-0.00481419637799263,-0.00535481795668602,0.014161624945700169
1772807504085875200,5.205875244140625,-0.012320315465331078,-0.009129848331212997,0.020774787291884422
1772807504095807000,5.215806884765625,-0.02412983775138855,-0.01919073797762394,0.036808080971241
1772807504105739000,5.225739013671875,-0.0297914519906044,-0.011011905036866665,0.04614512622356415
1772807504115671000,5.235671142578125,-0.02834535576403141,-0.009798568673431873,0.04513392224907875
1772807504125603000,5.24560302734375,-0.026264892891049385,-0.008111190050840378,0.04066593572497368
1772807504135536000,5.2555361328125,-0.026399116963148117,0.00063383235828951,0.02110927924513817
1772807504145468200,5.26546826171875,-0.0231695007532835,-0.0006764429272152483,0.014425012283027172
1772807504155400200,5.275400146484375,-0.02213619463145733,0.0011701929615810513,0.01978968270123005
1772807504165332000,5.28533203125,-0.027526965364813805,0.007698399480432272,0.025414280593395233
1772807504175264000,5.295263916015625,-0.03304024040699005,0.006389722228050232,0.056117065250873566
1772807504185196300,5.3051962890625,-0.04020654037594795,0.003822967642918229,0.08822227269411087
1772807504195128300,5.31512841796875,-0.04885169491171837,-0.0002271676348755136,0.10612829774618149
1772807504205060400,5.325060302734375,-0.04375573620200157,0.000441818410763517,0.10729370266199112
1772807504214992400,5.334992431640625,-0.0431663803756237,0.011058510281145573,0.09135255217552185
1772807504224925200,5.34492529296875,-0.049552105367183685,0.005084240809082985,0.06916921585798264
1772807504234857000,5.35485693359375,-0.058647334575653076,-0.015360847115516663,0.04932147637009621
1772807504244789200,5.364789306640625,-0.06021327152848244,-0.019940951839089394,0.03489033877849579
1772807504254721300,5.37472119140625,-0.055742356926202774,-0.0301352646201849,0.027513915672898293
1772807504264653300,5.3846533203125,-0.04693209007382393,-0.035227496176958084,0.02124936133623123
1772807504274585300,5.39458544921875,-0.034268759191036224,-0.04697816073894501,0.023423034697771072
1772807504284517400,5.404517333984375,-0.03250201791524887,-0.057615358382463455,0.036786243319511414
1772807504294449200,5.41444921875,-0.030708111822605133,-0.08243229240179062,0.0558835044503212
1772807504304381200,5.424381103515625,-0.031916387379169464,-0.09753508120775223,0.07783354818820953
1772807504314314200,5.434314208984375,-0.03405517339706421,-0.11418675631284714,0.08691944926977158
1772807504324246300,5.444246337890625,-0.032530777156353,-0.11269938200712204,0.08308876305818558
1772807504334178300,5.45417822265625,-0.031927838921546936,-0.10738105326890945,0.07330883294343948
1772807504344110300,5.4641103515625,-0.035895947366952896,-0.11333374679088593,0.06010647863149643
1772807504354042400,5.47404248046875,-0.035350535064935684,-0.1209072470664978,0.05004372447729111
1772807504363974100,5.48397412109375,-0.03568236529827118,-0.13796505331993103,0.04993107542395592
1772807504373906200,5.49390625,-0.030882548540830612,-0.14401443302631378,0.0276180449873209
1772807504383838200,5.503838134765625,-0.01534912921488285,-0.16246160864830017,0.011999404989182949
1772807504393770200,5.513770263671875,-0.012441223487257957,-0.16299371421337128,0.008229433558881283
1772807504403703300,5.523703369140625,-0.0025925873778760433,-0.171082004904747,0.0057465690188109875
1772807504413635300,5.53363525390625,0.0015592807903885841,-0.18057270348072052,0.014073474332690239
1772807504423567400,5.5435673828125,0.003585680155083537,-0.18216820061206818,0.031144337728619576
1772807504433499100,5.5534990234375,0.0032719597220420837,-0.17757079005241394,0.03618090599775314
1772807504443431200,5.56343115234375,-0.0052136704325675964,-0.15934038162231445,0.03122503124177456
1772807504453363200,5.57336328125,-0.004526042379438877,-0.12390223890542984,0.019841082394123077
1772807504463295200,5.583295166015625,-0.004470914602279663,-0.08745448291301727,0.011166101321578026
1772807504473227300,5.593227294921875,-0.008579906076192856,-0.061469484120607376,-0.002683134749531746
1772807504483160300,5.603160400390625,-0.022910907864570618,-0.04670438915491104,-0.01510145515203476
1772807504493092000,5.613092041015625,-0.02382277511060238,-0.03467888385057449,-0.023959927260875702
1772807504503024000,5.623024169921875,-0.01811162568628788,-0.02515062689781189,-0.04314267635345459
1772807504512956200,5.6329560546875,-0.00953731220215559,-0.012366654351353645,-0.03417687863111496
1772807504522888200,5.64288818359375,0.0006759102689102292,0.0011254518758505583,-0.017560617998242378
1772807504532820200,5.6528203125,-0.007335943635553122,0.011744540184736252,0.005432582460343838
1772807504542752300,5.662752197265625,-0.015509450808167458,0.02442385070025921,0.024455541744828224
1772807504552684000,5.67268408203125,-0.018863169476389885,0.023600134998559952,0.030897196382284164
1772807504562616000,5.682615966796875,-0.02955150045454502,0.02165096625685692,0.01528787612915039
1772807504572549000,5.692549072265625,-0.03196698799729347,0.01092455256730318,0.006728210020810366
1772807504582481200,5.702481201171875,-0.02965642884373665,0.009523464366793633,0.0029316076543182135
1772807504592413200,5.7124130859375,-0.029026059433817863,0.0036855486687272787,-0.0070547135546803474
1772807504602345200,5.72234521484375,-0.021732458844780922,0.006006493698805571,-0.0025036376900970936
1772807504612277200,5.73227734375,-0.024149810895323753,0.0031007183715701103,-0.0025419872254133224
1772807504622209000,5.742208984375,-0.028444956988096237,-0.011619637720286846,0.010404704138636589
1772807504632141000,5.75214111328125,-0.027406590059399605,-0.006469617132097483,0.02418603003025055
1772807504642073000,5.762072998046875,-0.030831947922706604,-0.0143520412966609,0.045880138874053955
1772807504652006100,5.772006103515625,-0.0402454249560833,-0.024539697915315628,0.07144142687320709
1772807504661938200,5.781938232421875,-0.04705405980348587,-0.03172197565436363,0.08251911401748657
1772807504671870200,5.7918701171875,-0.058224957436323166,-0.04439782351255417,0.07988417893648148
1772807504681802200,5.80180224609375,-0.061580006033182144,-0.04827405512332916,0.05951445922255516
1772807504691734000,5.811734130859375,-0.0623837485909462,-0.06029583141207695,0.024442225694656372
1772807504701666000,5.821666015625,-0.05751868709921837,-0.07831451296806335,-0.01306067407131195
1772807504711598000,5.83159814453125,-0.04856886714696884,-0.0869828388094902,-0.041494980454444885
1772807504721530000,5.841530029296875,-0.04000174626708031,-0.06719262152910233,-0.05188024044036865
1772807504731463200,5.851463134765625,-0.02407098188996315,-0.058220162987709045,-0.04199725016951561
1772807504741395200,5.861395263671875,-0.017727065831422806,-0.048887383192777634,-0.0049707903526723385
1772807504751327200,5.8713271484375,-0.020713534206151962,-0.04196369647979736,0.04219752177596092
1772807504761259000,5.881259033203125,-0.019458120688796043,-0.03203143551945686,0.08808857947587967
1772807504771191000,5.89119091796875,-0.021745508536696434,-0.017314808443188667,0.10107388347387314
1772807504781123000,5.901123046875,-0.012160525657236576,-0.005798500496894121,0.07129122316837311
1772807504791055000,5.91105517578125,-0.004069842863827944,-0.0008309062686748803,0.0037822213489562273
1772807504800987100,5.920987060546875,-0.0006591323763132095,-0.017258882522583008,-0.06916655600070953
1772807504810919200,5.930919189453125,0.008015848696231842,-0.0216514989733696,-0.09447537362575531
1772807504820852200,5.940852294921875,0.007029147353023291,-0.018670357763767242,-0.08627975732088089
1772807504830784000,5.950783935546875,0.010625746101140976,-0.019349463284015656,-0.05391409620642662
1772807504840716000,5.960716064453125,0.009153816848993301,-0.02155456133186817,-0.00464668357744813
1772807504850648000,5.97064794921875,0.008172974921762943,-0.020363595336675644,0.03044552356004715
1772807504860580000,5.980580078125,-0.0005608617211692035,-0.033310018479824066,0.039321571588516235
1772807504870512000,5.99051220703125,-0.010938934050500393,-0.049196839332580566,0.022000107914209366
1772807504880444400,6.0004443359375,-0.01913321390748024,-0.056059807538986206,-0.005447229836136103
1772807504890376200,6.010376220703125,-0.021565213799476624,-0.05265894904732704,-0.035232022404670715
1772807504900309000,6.02030908203125,-0.016700150445103645,-0.05747447907924652,-0.061950720846652985
1772807504910241000,6.030240966796875,-0.009076053276658058,-0.052499160170555115,-0.07662659883499146
1772807504920173000,6.040173095703125,-0.000559530162718147,-0.04596962034702301,-0.07525960355997086
1772807504930105000,6.05010498046875,0.0006242449744604528,-0.03723232448101044,-0.05684597045183182
1772807504940037400,6.060037353515625,0.0004918858758173883,-0.02959411032497883,-0.02653493732213974
1772807504949969400,6.069969482421875,0.0011941614793613553,-0.030486537143588066,-0.00794660672545433
1772807504959901200,6.079901123046875,-0.002242914168164134,-0.022099975496530533,-0.0034581145737320185
1772807504969833200,6.089833251953125,-0.008057127706706524,-0.021258417516946793,-0.0023816649336367846
1772807504979766000,6.09976611328125,-0.012035091407597065,-0.016867397353053093,-0.00004846953015658073
1772807504989698000,6.109697998046875,-0.022310364991426468,-0.03494253754615784,-0.009221727959811687
1772807504999630300,6.11963037109375,-0.021412614732980728,-0.02563798613846302,-0.014364824630320072
1772807505009562400,6.129562255859375,-0.02093484252691269,-0.026694728061556816,-0.022608639672398567
1772807505019494400,6.139494384765625,-0.019212311133742332,-0.02323075383901596,-0.0335257351398468
1772807505029426200,6.14942626953125,-0.016287893056869507,-0.023141272366046906,-0.03831276670098305
1772807505039358200,6.159358154296875,-0.006717291194945574,-0.018031731247901917,-0.033840786665678024
1772807505049290000,6.1692900390625,0.0004993426846340299,-0.008749016560614109,-0.01775183342397213
1772807505059222000,6.179221923828125,0.0036770266015082598,-0.001731320982798934,-0.0036370791494846344
1772807505069155000,6.189155029296875,0.006711432244628668,0.004027498420327902,0.01056529302150011
1772807505079087000,6.199087158203125,0.006420881487429142,0.006734068971127272,0.016464194282889366
1772807505089019100,6.20901904296875,0.003261040663346648,-0.002350772265344858,0.015731025487184525
1772807505098951000,6.218950927734375,-0.004081294406205416,-0.013133112341165543,0.014712367206811905
1772807505108883000,6.228883056640625,-0.009893910028040409,-0.014268684200942516,0.009288839064538479
1772807505118815000,6.23881494140625,-0.01270141452550888,-0.015389609150588512,0.006307164207100868
1772807505128747000,6.2487470703125,-0.01312192715704441,-0.025114940479397774,0.004067179746925831
1772807505138680000,6.25868017578125,-0.01353445090353489,-0.026617761701345444,-0.0009097357979044318
1772807505148612000,6.268612060546875,-0.010031594894826412,-0.016266854479908943,-0.018879681825637817
1772807505158544100,6.278544189453125,-0.0030455910600721836,0.0018548916559666395,-0.029989857226610184
1772807505168476000,6.288475830078125,0.0034996599424630404,0.0049497513100504875,-0.0279738437384367
1772807505178408000,6.298407958984375,0.007248591631650925,0.0032533176708966494,-0.014522483572363853
1772807505188340000,6.308340087890625,0.006734068971127272,0.0011920308461412787,-0.0008711199625395238
1772807505198272000,6.31827197265625,0.00279072648845613,-0.0009624664089642465,0.006461894139647484
1772807505208204000,6.3282041015625,-0.0024895230308175087,-0.00011132013605674729,0.007897337898612022
1772807505218136000,6.338135986328125,-0.004201669245958328,-0.00004261057620169595,0.0011153318919241428
1772807505228069000,6.348069091796875,-0.00600436283275485,-0.0013598100049421191,-0.008810802362859249
1772807505238001000,6.3580009765625,-0.006593720521777868,-0.0028477180749177933,-0.01607617177069187
1772807505247933000,6.367932861328125,-0.004274906124919653,-0.0017473000334575772,-0.03073767200112343
1772807505257865000,6.377864990234375,0.0015907060587778687,-0.004859469830989838,-0.0353127159178257
1772807505267797000,6.387796875,0.0029265477787703276,-0.0033870083279907703,-0.02846146933734417
1772807505277729000,6.39772900390625,0.009141034446656704,0.004008856136351824,-0.022770559415221214
1772807505287661000,6.4076611328125,0.009850766509771347,0.011372762732207775,-0.016274843364953995
1772807505297592800,6.4175927734375,0.009589510038495064,0.01840697042644024,-0.009691243059933186
1772807505307526000,6.42752587890625,0.0060115535743534565,0.01374936755746603,-0.004935103934258223
1772807505317458000,6.4374580078125,0.0018690064316615462,0.009726929478347301,-0.008706938475370407
1772807505327390000,6.447389892578125,0.001193096162751317,0.008361260406672955,-0.021793978288769722
1772807505337322000,6.457322021484375,0.0014884406700730324,0.013262275606393814,-0.035469576716423035
1772807505347254000,6.46725390625,0.0024373249616473913,0.008228901773691177,-0.028254007920622826
1772807505357186000,6.47718603515625,0.00011052118497900665,0.006637129932641983,-0.013646303676068783
1772807505367117800,6.487117919921875,0.004707403481006622,0.009543437510728836,-0.0036794233601540327
1772807505377049900,6.4970498046875,0.007322094868868589,0.018219217658042908,-0.009069128893315792
1772807505386983000,6.50698291015625,0.009639844298362732,0.016872456297278404,-0.015792544931173325
1772807505396915000,6.5169150390625,0.009445966221392155,0.011772236786782742,-0.015800267457962036
1772807505406847000,6.526846923828125,0.00678227236494422,0.007128216791898012,-0.005909554194658995
1772807505416779000,6.536779052734375,0.006325540132820606,0.006904777605086565,-0.0022027005907148123
1772807505426711000,6.5467109375,0.0034669029992073774,0.0037374801468104124,-0.0025473134592175484
1772807505436642800,6.556642822265625,-0.0012599414912983775,0.001885784324258566,-0.005898901727050543
1772807505446574800,6.566574951171875,-0.00006231796578504145,-0.000107858024421148,-0.008145011961460114
1772807505456507000,6.5765068359375,0.0012343751732259989,0.0010964233661070466,-0.006960703991353512
1772807505466440000,6.58643994140625,0.0005954828229732811,0.0012452941155061126,-0.016766462475061417
1772807505476372000,6.5963720703125,0.007800665218383074,0.00672288378700614,-0.02677701972424984
1772807505486304000,6.606303955078125,0.006618221756070852,0.014174141921103,-0.025718946009874344
1772807505496236000,6.616236083984375,0.00845367182046175,0.009337042458355427,-0.01799524575471878
1772807505506167800,6.626167724609375,0.009996174834668636,0.011642009019851685,-0.016437562182545662
1772807505516099800,6.636099853515625,0.008677643723785877,0.011508051306009293,-0.014483335427939892
1772807505526032000,6.646031982421875,0.010908840224146843,0.008524778299033642,-0.012572783045470715
1772807505535964000,6.6559638671875,0.006933805998414755,0.004804875236004591,-0.004721518140286207
1772807505545897000,6.66589697265625,0.0024234766606241465,0.002382730133831501,0.003546265186741948
1772807505555829000,6.6758291015625,0.0037113812286406755,0.003138801548629999,-0.0005036037764512002
1772807505565761000,6.685760986328125,0.002129463478922844,0.002305232221260667,0.0015694007743149996
1772807505575692800,6.69569287109375,-0.0008564725867472589,0.0019379822770133615,0.00021172130072955042
1772807505585624800,6.705624755859375,-0.0014389059506356716,0.0017414409667253494,0.0010498181218281388
1772807505595556900,6.715556884765625,-0.003906857222318649,0.003793406533077359,0.0005289037944748998
1772807505605489000,6.725489013671875,-0.001755289500579238,0.003620833856984973,0.0039047268219292164
1772807505615422000,6.735421875,-0.002213885774835944,0.001603222917765379,0.009885653853416443
1772807505625354000,6.74535400390625,0.0016189356101676822,0.012900618836283684,0.010039051994681358
1772807505635285800,6.75528564453125,0.003157443832606077,0.017528127878904343,0.013144830241799355
1772807505645217800,6.7652177734375,0.00018615495355334133,0.019511649385094643,0.011656123213469982
1772807505655149800,6.77514990234375,0.0007877630414441228,0.014485731720924377,0.00689172837883234
1772807505665081900,6.785081787109375,0.0008253136184066534,0.011871573515236378,-0.007003847509622574
1772807505675014100,6.79501416015625,0.00004900216299574822,0.00968431867659092,-0.010547981597483158
1772807505684946200,6.8049462890625,-0.0033870083279907703,0.002775280037894845,-0.00421285443007946
1772807505694879000,6.81487890625,-0.0020722055342048407,0.0003121224872302264,0.005630721338093281
1772807505704810800,6.824810791015625,-0.005905293393880129,0.0007057376787997782,0.009035306982696056
1772807505714742800,6.83474267578125,-0.005813680589199066,0.004065847955644131,0.0032794165890663862
1772807505724674800,6.8446748046875,-0.0029971215408295393,0.007525826804339886,0.00321922916918993
1772807505734607000,6.854607177734375,-0.0007536745979450643,0.009849967435002327,0.0010934938909485936
1772807505744539100,6.8645390625,-0.0010178601369261742,0.010771687142550945,0.001281779375858605
1772807505754471200,6.87447119140625,-0.0001608549355296418,0.011918711476027966,-0.002270344877615571
1772807505764403000,6.88440283203125,0.00541340745985508,0.011623899452388287,-0.0031182952225208282
1772807505774335700,6.894335693359375,0.0054613444954156876,0.016328107565641403,-0.002615224104374647
1772807505784267800,6.904267822265625,0.005927930120378733,0.010806309059262276,-0.00213638786226511
1772807505794200000,6.914199951171875,0.00501180300489068,0.007711981888860464,-0.004742557182908058
1772807505804132000,6.924132080078125,0.002120941411703825,0.0027326694689691067,-0.0010295780375599861
1772807505814064000,6.934064208984375,-0.001181111903861165,0.004502073861658573,0.004808603785932064
1772807505823996200,6.94399609375,-0.003507649526000023,0.009704559110105038,0.00749040674418211
1772807505833928000,6.953927978515625,-0.005918875336647034,0.009340771473944187,0.0013318468118086457
1772807505843860000,6.96385986328125,-0.0073018549010157585,0.005109274294227362,-0.003026682650670409
1772807505853793000,6.97379296875,-0.0067543089389801025,0.008988700807094574,-0.008197476156055927
1772807505863725000,6.98372509765625,-0.0029257487040013075,0.012881443835794926,-0.011473163962364197
1772807505873657000,6.993656982421875,0.0006841660942882299,0.01780669391155243,-0.012384497560560703
1772807505883589000,7.003589111328125,0.005828327964991331,0.02323528192937374,-0.005968144163489342
1772807505893521200,7.013521240234375,0.004947354551404715,0.022112492471933365,0.004474110435694456
1772807505903453000,7.023452880859375,0.0034751589410007,0.024868331849575043,0.00923424493521452
1772807505913385000,7.033385009765625,0.002394714392721653,0.018191520124673843,0.01441063079982996
1772807505923317000,7.04331689453125,-0.00003009372085216455,0.015672702342271805,0.009346896782517433
1772807505933250000,7.05325,-0.0006964165950194001,0.010371680371463299,0.006198773626238108
1772807505943182000,7.06318212890625,-0.003519633784890175,0.006419283337891102,0.006381999235600233
1772807505953114000,7.073114013671875,-0.005466138012707233,0.0046546729281544685,0.004367318004369736
1772807505963046100,7.083046142578125,-0.0062887887470424175,0.0011731224367395043,0.002094576135277748
1772807505972978000,7.09297802734375,-0.006818757392466068,-0.000006391586794052273,0.0012085424968972802
1772807505982910000,7.102909912109375,-0.0043742419220507145,0.0011877698125317693,0.003141731023788452
1772807505992842000,7.112842041015625,-0.0033963292371481657,0.003912982530891895,0.00250496924854815
1772807506002775000,7.122775146484375,-0.0008940231637097895,0.0031249532476067543,0.003154514357447624
1772807506012707000,7.13270703125,0.0004527373821474612,0.0019680759869515896,0.005961752496659756
1772807506022639000,7.14263916015625,0.002043177140876651,0.006286657880991697,0.007730624172836542
1772807506032571100,7.152571044921875,-0.0009294432238675654,0.0064989118836820126,0.00833729188889265
1772807506042503400,7.16250341796875,-0.0023752732668071985,0.004064250271767378,0.006585464812815189
1772807506052435500,7.172435546875,-0.0028666264843195677,-0.00652714166790247,0.007465639617294073
1772807506062367200,7.1823671875,-0.006337258033454418,-0.009505354799330235,0.006794256623834372
1772807506072299300,7.19229931640625,-0.007075486239045858,-0.011860121041536331,0.000606934423558414
1772807506082232300,7.202232421875,-0.007726629264652729,-0.009908556938171387,-0.00015925703337416053
1772807506092164400,7.212164306640625,-0.005516738165169954,-0.007598265074193478,0.0005392901366576552
1772807506102096400,7.222096435546875,-0.005086104851216078,0.0012053466634824872,-0.0035145736765116453
1772807506112028400,7.2320283203125,-0.0018200043123215437,0.003620833856984973,-0.000050866376113845035
1772807506121960400,7.24196044921875,-0.0011089402250945568,0.007626760751008987,-0.005828061606734991
1772807506131892200,7.251892333984375,-0.0007161240209825337,0.006157494615763426,-0.00469541922211647
1772807506141824300,7.26182421875,0.0000250337143370416,0.0014740596525371075,-0.0028972530271857977
1772807506151756300,7.27175634765625,-0.000666322885081172,0.000045273736759554595,0.0009249158320017159
1772807506161689300,7.281689453125,-0.004804342519491911,-0.001642637769691646,0.0031518512405455112
1772807506171621400,7.291621337890625,-0.004736698232591152,-0.003023220458999276,0.007113835774362087
1772807506181553400,7.301553466796875,-0.0055063520558178425,-0.003163302782922983,0.008577508851885796
1772807506191485400,7.3114853515625,-0.00580648984760046,-0.0057500312104821205,0.009394832886755466
1772807506201417200,7.321417236328125,-0.005501291714608669,-0.007340470794588327,0.002989931032061577
1772807506211349200,7.331349365234375,-0.002886333968490362,-0.001761148450896144,-0.0023161512799561024
1772807506221281300,7.34128125,-0.0004261057765688747,0.0023118900135159492,-0.008480303920805454
1772807506231214300,7.35121435546875,0.0020991035271435976,0.010186591185629368,-0.010163421742618084
1772807506241146400,7.361146484375,0.0037438718136399984,0.00669492082670331,-0.008945291861891747
1772807506251078400,7.371078369140625,0.0020716730505228043,0.007299458142369986,-0.005278917960822582
1772807506261010400,7.381010498046875,0.003453587181866169,0.010060623288154602,-0.0056770602241158485
1772807506270942200,7.390942138671875,0.0037228327710181475,0.0062823970802128315,-0.006570284720510244
1772807506280874200,7.400874267578125,0.003032275242730975,0.0012860405258834362,-0.0010684601729735732
1772807506290806300,7.41080615234375,-0.00221974472515285,-0.004583566449582577,0.0023427826818078756
1772807506300738300,7.42073828125,-0.004992628004401922,-0.007440872024744749,0.00101120222825557
1772807506310671400,7.43067138671875,-0.006167614832520485,-0.01011228933930397,-0.003451723139733076
1772807506320603400,7.440603271484375,-0.00791225116699934,-0.008846755139529705,-0.004211789462715387
1772807506330535400,7.450535400390625,-0.006143379956483841,-0.006880276836454868,-0.0036453348584473133
1772807506340467200,7.46046728515625,-0.006443251855671406,-0.0018700717482715845,0.001490304945036769
1772807506350399200,7.470399169921875,-0.005571865476667881,0.0024048343766480684,0.005090099759399891
1772807506360331300,7.480331298828125,-0.004512992687523365,0.008992163464426994,0.0032466596458107233
1772807506370263300,7.49026318359375,-0.0020540961995720863,0.008738630451261997,0.0017624800093472004
1772807506380195300,7.5001953125,-0.002493251347914338,0.009011338464915752,0.0020277309231460094
1772807506390128400,7.51012841796875,-0.0038860845379531384,0.010380202904343605,0.0028064390644431114
1772807506400060400,7.520060302734375,-0.001814411603845656,0.011087272316217422,0.006384928710758686
1772807506409992200,7.5299921875,-0.007927165366709232,0.003145193215459585,0.00768748065456748
1772807506419924200,7.53992431640625,-0.011916580609977245,0.0022154836915433407,0.009974070824682713
1772807506429856300,7.549856201171875,-0.012329637072980404,-0.0014378406340256333,0.007786284200847149
1772807506439788300,7.559788330078125,-0.011143730953335762,0.0013046825770288706,0.006145776715129614
1772807506449720300,7.56972021484375,-0.008125570602715015,0.004321245010942221,0.000179230744834058
1772807506459653400,7.5796533203125,-0.005636313930153847,0.04029975086450577,0.023023827001452446
1772807506469585400,7.58958544921875,0.0038048583082854748,0.05903961881995201,0.0821278914809227
1772807506479517200,7.59951708984375,0.0035305526107549667,0.07446864247322083,0.11602140963077545
1772807506489449200,7.60944921875,0.0049281795509159565,0.06398457288742065,0.11177260428667068
1772807506499381200,7.61938134765625,0.0022122878581285477,0.08677724003791809,0.0912470892071724
1772807506509313300,7.629313232421875,0.005662146955728531,0.06295312941074371,0.07865086942911148
1772807506519245300,7.639245361328125,-0.0027712853625416756,0.043718717992305756,0.07339645177125931
1772807506529177000,7.649177001953125,-0.001109739183448255,0.058459848165512085,0.08360887318849564
1772807506539110400,7.6591103515625,-0.0001294296234846115,0.06457659602165222,0.10195273160934448
1772807506549042200,7.669042236328125,-0.000963797967415303,0.05373353511095047,0.10589899867773056
1772807506558974200,7.67897412109375,-0.005328452680259943,0.04302603006362915,0.09027982503175735
1772807506568906200,7.68890625,-0.007170028518885374,0.04086354374885559,0.06506182253360748
1772807506578838300,7.69883837890625,-0.006470682565122843,0.020294087007641792,0.031449269503355026
1772807506588770300,7.708770263671875,-0.0059748017229139805,0.0031494542490690947,-0.0050701261498034
1772807506598702000,7.7187021484375,-0.004430168308317661,-0.004724713973701,-0.029955502599477768
1772807506608634000,7.728634033203125,-0.004297276493161917,-0.012122442945837975,-0.040710411965847015
1772807506618567200,7.738567138671875,-0.000565122754778713,-0.013365074060857296,-0.04595151171088219
1772807506628499200,7.748499267578125,0.0013243899447843432,-0.024470455944538116,-0.05902736634016037
1772807506638431200,7.75843115234375,0.00015233281010296196,-0.03821023553609848,-0.09038369357585907
1772807506648363300,7.76836328125,-0.011578092351555824,-0.055576443672180176,-0.13399988412857056
1772807506658295300,7.77829541015625,-0.01744796521961689,-0.07410245388746262,-0.16352102160453796
1772807506668227000,7.78822705078125,-0.021820610389113426,-0.06354168802499771,-0.1701405793428421
1772807506678159400,7.798159423828125,-0.013745106756687164,-0.02906467393040657,-0.1172238290309906
1772807506688092200,7.808092041015625,-0.008560464717447758,-0.013850301504135132,-0.03244262933731079
