time,seconds_elapsed,z,y,x
1772806917909583400,0.070583251953125,0.028034838873147963,-0.007113905392121523,-0.02239943593521602
1772806917919515100,0.08051513671875,0.04315291302800178,-0.02470426967833191,-0.0013287917851936071
1772806917929447200,0.090447265625,0.023547464326024056,-0.018262345263641327,0.0054289388467092066
1772806917939378200,0.100378173828125,0.03536532789170742,-0.01050499086882919,0.011229989808285608
1772806917949310200,0.110310302734375,0.02504033323228359,-0.016439568549580872,-0.014619065990997477
1772806917959242000,0.120241943359375,0.03985737861394882,-0.015576101854350417,-0.010202573856152593
1772806917969174300,0.13017431640625,0.029682606080174444,-0.00366012994274497,-0.011643950037192553
1772806917979105300,0.140105224609375,0.03431844918727875,0.0016031426140107213,-0.0016928210583049804
1772806917989037300,0.150037353515625,0.04404372438788414,0.019685875260736792,-0.0031392752732615917
1772806917998969300,0.15996923828125,0.022488310661911964,0.012228270997479557,0.009917710766475647
1772806918008901000,0.169901123046875,0.02981879968047142,0.011441157474089414,-0.0014183058327063918
1772806918018832100,0.17983203125,0.030116905844211575,0.0064021586598828435,0.029288994519552213
1772806918028764200,0.18976416015625,0.03715045774281025,0.0014946590045467017,-0.004488178264722227
1772806918038696200,0.1996962890625,0.051663551741838454,0.011704338454920797,-0.01503806772120297
1772806918048628200,0.209628173828125,0.05600070416331291,-0.019197050564177334,-0.02229899863488972
1772806918058559200,0.219559326171875,0.029660394248366355,-0.012427465097699314,-0.01243118229159154
1772806918068491300,0.2294912109375,0.03939093014597893,-0.00881322012329474,-0.015221333599928765
1772806918078423300,0.23942333984375,0.03325929552316666,-0.004981624337472021,-0.009139081943640485
1772806918088355300,0.249355224609375,0.04687631746530532,0.004787197743915021,0.011135105465911328
1772806918098286000,0.2592861328125,0.03281096723377704,-0.009862309051118791,0.009851751124486326
1772806918108218000,0.269218017578125,0.038648002824187275,-0.01513570114308968,0.008921767664840444
1772806918118150100,0.279150146484375,0.032066286346316336,0.0065335847535170615,0.0093072781173978
1772806918128082200,0.289082275390625,0.021440262913703916,0.003717139093298465,-0.020825528548844157
1772806918138013200,0.29901318359375,0.03908931685090065,-0.007815751784853636,-0.00033468444761820137
1772806918147945200,0.3089453125,0.03145546097159385,0.0026134156350977717,-0.008420065220398829
1772806918157877200,0.318877197265625,0.023525252494215963,0.013667966678086667,-0.014718845704197884
1772806918167809300,0.328809326171875,0.04043605528473854,0.00844582984931767,0.007540167980175465
1772806918177740000,0.338739990234375,0.025022213053703307,-0.00503103470345959,0.0009977697325404733
1772806918187672000,0.348672119140625,0.04672317273020744,-0.0018020627195946871,-0.007435675559239461
1772806918197604000,0.35860400390625,0.04029343194365501,0.008891235529258846,-0.01715059376261197
1772806918207536000,0.3685361328125,0.025477555605769156,0.014517496179509906,-0.01796813895688392
1772806918217467400,0.37846728515625,0.04463116888701915,-0.00012212854232639074,-0.014301707137515768
1772806918227399200,0.388399169921875,0.03475450251698494,-0.0014129172715358436,-0.021222281914623452
1772806918237331200,0.398331298828125,0.03504559441804886,-0.0030386918424628673,-0.004617321069724858
1772806918247263200,0.40826318359375,0.059872577160596845,-0.0029262444439344107,0.02178638207078911
1772806918257194200,0.4181943359375,0.0185872115701437,0.000676182228513062,0.0020609602509532123
1772806918267126300,0.428126220703125,-0.037972295519709584,0.007264328447170555,-0.03886116151767783
1772806918277058000,0.43805810546875,0.06347790817618369,-0.005063146874774247,0.010366577911982313
1772806918286990000,0.447989990234375,0.05794365492463111,0.004543671311624348,0.007519517917791381
1772806918296921300,0.45792138671875,0.008861936369538307,-0.008033303525671363,0.002629809647472575
1772806918306853400,0.467853271484375,0.03998305082023144,0.01063596030473709,0.02713406324167736
1772806918316785200,0.47778515625,0.04551788859367371,0.004877433310635388,0.011455396061995997
1772806918326717200,0.48771728515625,0.027260347369313237,0.008561693047638982,-0.012840183217590674
1772806918336648200,0.497648193359375,0.032795185142755506,0.008300978018529713,0.010147345670731738
1772806918346580200,0.507580322265625,0.030846389162540434,-0.0005332483601756394,-0.005996326938504353
1772806918356512300,0.51751220703125,0.038327684828639026,-0.004860683105234056,0.0035975861005485056
1772806918366444000,0.527444091796875,0.03698211543858051,-0.00008663710383698344,-0.015484523713914677
1772806918376375300,0.537375244140625,0.03279284705519676,-0.006074662004876882,0.0031820458359085022
1772806918386307300,0.547307373046875,0.04760755434930324,-0.0043156164431013165,0.0022962394447065887
1772806918396239400,0.5572392578125,0.045510289809107776,-0.0035240276739932595,0.007374118097731843
1772806918406171400,0.56717138671875,0.02860182510614395,-0.013103555994667112,0.010289959878660737
1772806918416102100,0.57710205078125,0.030546529433131218,-0.018915694605838505,-0.001379151999251917
1772806918426034200,0.5870341796875,0.027103695502877233,-0.01523446707613766,-0.005954031299892812
1772806918435966500,0.596966552734375,0.030244916138052937,0.003053304889705032,0.003381760525936261
1772806918445898500,0.6068984375,0.04969780462682247,-0.005463635700754821,0.0012486666205339134
1772806918455829500,0.61682958984375,0.03862345290482044,0.012112334733922033,0.0018379012179560957
1772806918465761500,0.626761474609375,0.03338496772944927,0.004148808508832007,0.003031540582468733
1772806918475693800,0.63669384765625,0.034281039786338806,-0.0016163126228377221,0.006180241271201521
1772806918485625600,0.64662548828125,0.020960954964160918,-0.005230374934151768,0.0063060596079565585
1772806918495556600,0.656556640625,0.02051028858721256,-0.00022295856829732656,0.01496354118026793
1772806918505488600,0.666488525390625,0.04085632652342319,-0.004620919532608241,-0.0009035155778285115
1772806918515420700,0.676420654296875,0.03666647361814976,-0.006173007812816649,0.0010322930566500873
1772806918525352400,0.6863525390625,0.03965922569334507,-0.008726509954221546,0.0004335508453659713
1772806918535283500,0.696283447265625,0.04190378974974155,-0.002757865607086569,0.008229027027171106
1772806918545215500,0.706215576171875,0.03471884668171406,0.0009131510558538138,-0.005036779457656666
1772806918555147500,0.7161474609375,0.025440730726718902,0.0018334625048562884,-0.0026397739190608263
1772806918565079800,0.726079833984375,0.03441723338663578,-0.009324165320117025,-0.009342751289578155
1772806918575010600,0.736010498046875,0.031571780827641484,0.0038928427200764417,0.001847947687935084
1772806918584942600,0.745942626953125,0.02483691961467266,0.0002707797653973102,0.006370548812067136
1772806918594874600,0.75587451171875,0.0526724365234375,-0.005499382867570966,0.0051209597429260605
1772806918604806700,0.765806640625,0.04145195432901382,0.009520911734923719,-0.00047967327572405336
1772806918614738700,0.77573876953125,0.04579378292560577,-0.005135353594459593,0.006502477229200303
1772806918624669400,0.78566943359375,0.03277881852984428,0.003124543495010584,-0.001987602753797546
1772806918634601500,0.7956015625,0.0417623354524374,0.008922032526321708,0.005129380511399358
1772806918644533800,0.80553369140625,0.039669747087359424,0.007489460706245153,-0.015562109861616043
1772806918654465800,0.8154658203125,0.04565817384719848,-0.006085749654471874,-0.007226124461786821
1772806918664396500,0.825396484375,0.059123220098018646,0.013898834558203815,-0.011671413432853295
1772806918674328600,0.83532861328125,0.05508125123083591,-0.0021818923500366507,-0.012578500074101611
1772806918684260600,0.845260498046875,0.03443067739009857,0.00014284253679215907,-0.0019158070260658858
1772806918694192600,0.855192626953125,0.03981880016922951,-0.012171608906798064,-0.0015291366628836839
1772806918704123400,0.865123291015625,0.033386136773228645,-0.017626677708607166,-0.0027217074483167378
1772806918714055400,0.875055419921875,0.03937164092361927,-0.009118998136837034,0.009581884674541652
1772806918723987500,0.884987548828125,0.03189268334507942,-0.00427729372670874,0.021378093530843034
1772806918733919700,0.894919677734375,0.02890285387933254,0.00011087649594992399,0.002313099247962236
1772806918743850800,0.904850830078125,0.04117605999708175,-0.00027333704866468905,-0.010068827941268682
1772806918753782500,0.914782470703125,0.040132103902101514,-0.006661174922250211,-0.005122274917177856
1772806918763714600,0.924714599609375,0.02442249359488487,0.002888542782049626,-0.005858936894964427
1772806918773646600,0.934646484375,0.02921265048086643,-0.018691274732816964,-0.013454168663779274
1772806918783577600,0.94457763671875,0.032954759618639945,-0.004904887573141605,-0.0016395108353346585
1772806918793509400,0.95450927734375,0.0316103592723608,-0.014364369710721074,-0.012583340646000578
1772806918803441400,0.96444140625,0.03131225310862064,-0.012266940773744135,0.0021141517429146914
1772806918813373400,0.97437353515625,0.04463292245268821,-0.0068438197464682155,0.004306035764003172
1772806918823304700,0.9843046875,0.028323592686653135,-0.007832721185963601,0.00309896152918227
1772806918833236700,0.99423681640625,0.02502864279448986,0.008810498443245888,0.013319281104579568
1772806918843168500,1.00416845703125,0.025778584378957747,0.0009917509837076067,0.00453031863970682
1772806918853100500,1.0141005859375,0.04687631746530532,-0.006744158764276653,-0.006959545947471633
1772806918863031600,1.024031494140625,0.0299678527623415,0.006649977674800902,-0.016151600187364966
1772806918872963600,1.033963623046875,0.03909516206979751,0.014002715057786554,-0.018875682255858554
1772806918882895600,1.0438955078125,0.027125907334685322,0.0038527847043238576,0.012851974120084195
1772806918892827400,1.053827392578125,0.03161503544747829,-0.01233954935222864,-0.00795167139051482
1772806918902758700,1.063758544921875,0.018600071051716804,-0.003995334980171174,0.00001562682739458978
1772806918912690700,1.073690673828125,0.044187516772747036,-0.008756338836904614,0.0030404545412864533
1772806918922622700,1.083622802734375,0.048231823727488514,-0.0023920097030699253,-0.0005849694142583757
1772806918932554500,1.093554443359375,0.03326806335151195,-0.00035224750377237796,-0.007966129174130037
1772806918942485500,1.103485595703125,0.031472412106394766,-0.004711319496110081,-0.003845569512248039
1772806918952417500,1.11341748046875,0.027284897288680075,-0.0036586869043298063,-0.010414755302108824
1772806918962349600,1.123349609375,0.034924013864994045,-0.0030812888751737774,0.00815328577668406
1772806918972281600,1.133281494140625,0.02864449520409107,-0.00029165815664455294,-0.010829875441640616
1772806918982212600,1.143212646484375,0.05543547149598598,-0.0018646978933364153,0.009028926966898143
1772806918992144600,1.15314453125,0.027155133429169653,0.001012464978173375,-0.007165589913586154
1772806919002076700,1.16307666015625,0.04541092108786106,0.005461681205686181,-0.017205895013269037
1772806919012008700,1.1730087890625,0.04496317732036113,0.009932250748481601,0.010355828189104795
1772806919021939500,1.182939453125,0.028950784674286842,0.033332598221395164,-0.002092761895013973
1772806919031871500,1.19287158203125,0.030299861195683477,0.00968934537069872,-0.01040527508771047
1772806919041803500,1.202803466796875,0.03553776184916496,0.010254925097897648,-0.01310523649509996
1772806919051735600,1.212735595703125,0.03688333123922348,0.00901425912072882,0.008180502577172592
1772806919061666600,1.22266650390625,0.027305940076708793,0.006738477942161262,-0.0051723794029094276
1772806919071598600,1.2325986328125,0.042866497302055356,0.014392792087607085,-0.009962399291573092
1772806919081530600,1.242530517578125,0.03448562244772911,0.0003229300777427852,-0.01270524085946381
1772806919091462700,1.252462646484375,0.024010990184545517,-0.008775828988663852,-0.01737101331395097
1772806919101393700,1.2623935546875,0.04346446319520473,0.00581615719916299,-0.02803837340394966
1772806919111325400,1.272325439453125,0.033435236611962314,-0.008794277960807085,0.015093021911988034
1772806919121257500,1.282257568359375,0.02310848838686943,-0.02371478371694684,-0.003659271426219493
1772806919131189500,1.292189453125,0.027447394374012946,-0.023124124347418545,0.0078018145910464225
1772806919141120800,1.302120849609375,0.03553074758648872,-0.01939450936503708,0.011183091059792786
1772806919151052500,1.312052490234375,0.033732758253812785,-0.017274357139598576,-0.007075564409419894
1772806919160984600,1.321984619140625,0.04106149370670319,-0.023904205341823397,-0.0035274982727132734
1772806919170916600,1.33191650390625,0.0436053329706192,-0.022333028768654912,-0.007283252343349159
1772806919180847600,1.34184765625,0.02026245130598545,-0.016339597040135413,0.00564586953301914
1772806919190779600,1.351779541015625,0.03417874845564365,-0.015268168416339904,0.031202034199796617
1772806919200711400,1.36171142578125,0.038218379235267635,-0.014920706685539334,0.01632810753174126
1772806919210643500,1.3716435546875,0.035223873594403265,-0.004553023661859334,0.0009574194558430463
1772806919220574700,1.38157470703125,0.04360357940495014,-0.00043976139044389124,-0.017348993278387934
1772806919230506800,1.3915068359375,0.03941606458723545,-0.0013209098728373646,-0.018809247689833865
1772806919240438800,1.401438720703125,0.028042437657713887,-0.009173139476869254,-0.013020517353713512
1772806919250370600,1.41137060546875,0.030433132186532017,-0.021605518211703745,-0.00983894644184038
1772806919260301600,1.421301513671875,0.03506839077174664,-0.0006369644629769026,0.00698727420461364
1772806919270233600,1.431233642578125,0.03641863633692265,-0.013845643066242336,0.013847396631911396
1772806919280165600,1.44116552734375,0.023550386935472487,-0.010444821646809578,0.0017161014691926537
1772806919290097400,1.451097412109375,0.04973930568099021,-0.0030457609040662643,-0.004439297621697187
1772806919300028700,1.461028564453125,0.026547815185785292,0.0005354951161891222,-0.011808776076929643
1772806919309960700,1.470960693359375,0.04330605776309967,-0.023189262005500495,-0.010210163507563992
1772806919319892700,1.480892822265625,0.04420446790754795,-0.020094346463773397,0.0022404541368596254
1772806919329824800,1.49082470703125,0.030887305694818495,-0.018347575861681252,0.009561901332437991
1772806919339755500,1.500755615234375,0.02879179472029209,-0.02780577935762703,0.024047906395141035
1772806919349687600,1.5106875,0.04435702812075615,-0.030252587987855076,0.03236134203644469
1772806919359619600,1.52061962890625,0.019370470902323723,-0.03938225364917889,0.01368333777715452
1772806919369551600,1.530551513671875,0.028951953718066213,-0.030659470022004098,-0.015285877602966501
1772806919379482600,1.540482666015625,0.048854924061894414,-0.024643680331204086,-0.011455998850194736
1772806919389414700,1.55041455078125,0.04465864141583442,-0.030466376869007942,-0.011237689057551323
1772806919399346700,1.5603466796875,0.05213526090681553,-0.038217118859943,0.019298538177274168
1772806919409278700,1.57027880859375,0.036276597517728805,-0.0280252855935134,-0.0018783428261987863
1772806919419210800,1.580210693359375,0.016518588602542877,-0.027466720128990707,-0.000913077990617603
1772806919429141500,1.5901416015625,0.04360416392683983,-0.013599230557121336,0.004323215227667242
1772806919439073500,1.600073486328125,0.02894084780216217,-0.0005986600128933787,-0.018967808385565877
1772806919449005600,1.610005615234375,0.028937925192713737,0.01899126232638955,-0.008979023410566151
1772806919458937600,1.6199375,0.03417874845564365,0.011274897529091686,-0.02631192407067865
1772806919468868600,1.62986865234375,0.03582710018455982,0.018678981506824493,-0.02502280670874752
1772806919478800600,1.639800537109375,0.020564649122953412,0.029282628710847348,-0.001990214835992083
1772806919488732700,1.649732666015625,0.04166296673119068,0.024943485261686146,0.008662157747428864
1772806919498664700,1.659664794921875,0.03448269983828067,0.031133024084195493,0.021240128098567946
1772806919508595700,1.669595703125,0.030893735435605047,0.04015216030944139,-0.014229418219439684
1772806919518527500,1.679527587890625,0.033738018950819966,0.032748916581925004,-0.01908877701726742
1772806919528459500,1.68945947265625,0.026704467052221296,0.03493437086222693,-0.029635853462154044
1772806919538391600,1.6993916015625,0.027899814316630363,0.028632037581317125,-0.027667083272989838
1772806919548322600,1.709322509765625,0.035381109982728955,0.021251772870589047,0.0026140275564510373
1772806919558254600,1.719254638671875,0.03972060049176216,-0.0033354097667150197,0.013342168789822608
1772806919568186600,1.7291865234375,0.031634909191727636,0.004913034346979111,0.01440582509911619
1772806919578118700,1.73911865234375,0.047045828813314435,-0.0014576514624059199,0.008108021862851455
1772806919588049700,1.749049560546875,0.02310673482120037,0.003747095840144902,-0.00870939442263916
1772806919597981700,1.758981689453125,0.02923895396590233,0.006217139215487987,-0.008884568326454609
1772806919607913500,1.76891357421875,0.04659750052392483,0.001960760412644595,-0.009109801050228997
1772806919617845500,1.778845458984375,0.03358253612816334,-0.016316197898238897,-0.0011256521622184663
1772806919627776500,1.788776611328125,0.02789455361962318,-0.005739639630541205,-0.008482435532659292
1772806919637708500,1.79870849609375,0.019962591576576233,-0.0003752265205606818,-0.005146167249418795
1772806919647640800,1.808640869140625,0.04300327542424202,-0.007621562653314322,0.008496290528075769
1772806919657572600,1.818572509765625,0.036866380104422565,-0.015871577669586984,0.0028697102174162865
1772806919667503600,1.828503662109375,0.04285188425481319,-0.015245828720368443,-0.004693190184375271
1772806919677435600,1.838435546875,0.028940263280272483,0.006949289414938539,-0.016114336916897443
1772806919687367700,1.84836767578125,0.03762216690778732,-0.010168470657151192,-0.0010200363632757216
1772806919697299500,1.858299560546875,0.030890812826156615,-0.0017907010753639041,0.01666056348965503
1772806919707230500,1.86823046875,0.03732289170026779,0.0014915719983167946,0.00596583133554086
1772806919717162500,1.87816259765625,0.03507598955631256,-0.00269623508034274,0.02114693338978104
1772806919727094500,1.888094482421875,0.04091068705916404,-0.005786036055535078,0.017496776851778847
1772806919737026800,1.89802685546875,0.04300678255558014,-0.015065942108817398,-0.011615902119642123
1772806919746957600,1.90795751953125,0.01726619209945202,-0.011162760657817124,-0.017115010992577298
1772806919756889600,1.9178896484375,0.02908931636214256,0.003293031929712742,-0.022655310392426325
1772806919766821600,1.927821533203125,0.047343934977054594,-0.01587031729426235,-0.017601588933123274
1772806919776753700,1.937753662109375,0.026843583261966703,-0.009382854971103369,-0.0017197455978486685
1772806919786684400,1.947684326171875,0.02938742252588272,-0.003996193496696651,-0.001412360149109736
1772806919796616400,1.957616455078125,0.0373135393500328,-0.009826379221212118,0.017733435151865706
1772806919806548500,1.967548583984375,0.03357318377792835,-0.014379348084144294,0.02003452430162579
1772806919816480500,1.97748046875,0.037762452161312104,-0.004945201317220926,0.004980309163220227
1772806919826411500,1.98741162109375,0.029085224708914757,0.002008727740217,-0.029312457593530416
1772806919836343600,1.997343505859375,0.02474631872177124,-0.010361746473237872,-0.0034570633850060403
1772806919846275600,2.007275634765625,0.045397477084398265,-0.015222539176326244,0.023346671923762188
1772806919856207600,2.01720751953125,0.034925182908773424,-0.0062075676695443685,0.015018093512253835
1772806919866138600,2.027138671875,0.04465396524071693,-0.007821323009114712,0.015500470201717688
1772806919876070400,2.0370703125,0.027293080595135688,-0.010445844560116529,-0.0045659379423595966
1772806919886002400,2.04700244140625,0.03312953166365623,-0.006089804775081574,-0.00674909980087541
1772806919895934500,2.0569345703125,0.03836684779524803,-0.00980924542332068,-0.01775588444569148
1772806919905865700,2.06686572265625,0.04151040651798248,-0.006953034008294344,-0.009883936361037194
1772806919915797500,2.076797607421875,0.038218379235267635,-0.008636767577845603,-0.008475110742729157
1772806919925729500,2.0867294921875,0.05138648836612701,-0.003326842867769301,-0.000187512795580551
1772806919935661600,2.09666162109375,0.03911620485782623,-0.002916928626317531,0.002452334188716486
1772806919945592600,2.106592529296875,0.03178396227359771,-0.008908698120713234,0.0036414252422749993
1772806919955524600,2.116524658203125,0.03552431784570217,0.0020552154967561362,-0.0007038100209552794
1772806919965456400,2.126456298828125,0.03058861500918865,0.003349620955158025,-0.010698924272041768
1772806919975388400,2.136388427734375,0.028042437657713887,0.0025407887903042136,-0.01595362992985174
1772806919985319700,2.146319580078125,0.022804537004232406,-0.006565258533414453,-0.015452292811591177
1772806919995251700,2.156251708984375,0.02624386380314827,-0.001462546833232045,-0.014201772160688414
1772806920005183700,2.166183837890625,0.03896306012272834,-0.012120061382651329,-0.006088233872503042
1772806920015115500,2.176115478515625,0.03926467341780662,-0.009931392231956123,0.004481702858163044
1772806920025046500,2.186046630859375,0.036270752298831935,-0.004960179690644145,0.004766529415221885
1772806920034978600,2.195978515625,0.023997546181082723,-0.020171558152139186,-0.015536116903834043
1772806920044910600,2.20591064453125,0.05153203431665897,-0.003786715464480221,-0.0023288356732111422
1772806920054842400,2.21584228515625,0.029085224708914757,-0.002101557122822851,-0.02352483236910775
1772806920064773600,2.225773681640625,0.033574352821707724,-0.007486519830487668,-0.013971114343125372
1772806920074705700,2.23570556640625,0.027585926061868667,0.0010106931461952627,0.00987573478827253
1772806920084637700,2.2456376953125,0.043296705412864685,-0.0069654368321411305,0.006469798802305013
1772806920094569700,2.25556982421875,0.03806289641261101,-0.00829617397924885,-0.00918742373054847
1772806920104500500,2.26550048828125,0.03671440441310406,0.006807451525144279,0.0028348307002801446
1772806920114432500,2.2754326171875,0.04045475998520851,0.018815905759483574,-0.0032931963264942166
1772806920124364500,2.285364501953125,0.02938216182887554,0.010687635693047195,-0.011166879710508509
1772806920134296600,2.295296630859375,0.041949382457137106,0.006439476729277521,-0.004147502467734739
1772806920144227600,2.3052275390625,0.041050387790799135,0.01785940875224769,-0.0017407609864138066
1772806920154159600,2.31515966796875,0.04359890322983265,0.016495207726955414,0.004614727253839373
1772806920164091600,2.325091552734375,0.027890461966395375,-0.0013198869595304132,0.002255012385174632
1772806920174023700,2.335023681640625,0.048096799170970914,0.009418510806374252,-0.0029410127548035233
1772806920183954400,2.344954345703125,0.0371744231402874,0.007420213128626346,-0.004711365161882713
1772806920193886500,2.354886474609375,0.04375964674949646,-0.011364146715123206,-0.0012450955571141093
1772806920203818500,2.364818603515625,0.03942015624046325,-0.0001387874161824584,-0.009156608467176556
1772806920213750500,2.37475048828125,0.027451486027240752,-0.016548764545097946,-0.007963900684425608
1772806920223681800,2.384681884765625,0.03194119866192341,-0.022645638381782917,0.008823202661192044
1772806920233613600,2.394613525390625,0.025510873353481293,-0.02575065519241616,0.0027234701471403238
1772806920243545600,2.404545654296875,0.03733633570373058,-0.0040861368024721735,0.0016458766440395265
1772806920253477600,2.4144775390625,0.030758710879087447,-0.023222689351066944,-0.00019512984645552933
1772806920263408600,2.42440869140625,0.0310614932179451,-0.01326603481369093,0.011375069967936724
1772806920273340700,2.434340576171875,0.03121346890926361,-0.003880165901593864,-0.010412901271739975
1772806920283272400,2.4442724609375,0.03076689418554306,0.0074118836916983125,-0.01136579068293795
1772806920293204500,2.45420458984375,0.027324644777178764,0.007541355290263891,-0.004695802266569808
1772806920303135700,2.4641357421875,0.029269933626055716,0.008429591100569815,0.005821518360869958
1772806920313067800,2.47406787109375,0.032114801663160324,0.010046890104096382,-0.005379108355613425
1772806920322999600,2.48399951171875,0.033310733449459076,-0.011521419636067003,0.0024313553327694535
1772806920332931600,2.493931640625,0.031363691034913065,-0.0008292356320656835,0.00874250210779719
1772806920342862600,2.503862548828125,0.033606501525640486,0.01405649107163772,0.004702642999310046
1772806920352794600,2.513794677734375,0.018190321207046507,0.0021896737976931035,-0.019862245607795193
1772806920362726700,2.5237265625,0.019836919370293617,-0.00040138387512415647,-0.014281723795412107
1772806920372658400,2.533658447265625,0.027169161954522132,0.0015485811488702892,0.00621412527449429
1772806920382589700,2.543589599609375,0.03794365394711494,0.010147427869122474,-0.006380650080973282
1772806920392521700,2.553521728515625,0.04362871384620666,-0.004068820341490209,0.019026214908761902
1772806920402453800,2.563453857421875,0.025071897414326666,-0.008913885752484202,0.023035605813749135
1772806920412385800,2.5733857421875,0.049612464430928226,-0.0014383257074281574,0.0025481866454705594
1772806920422316500,2.583316650390625,0.02447276247739792,-0.021476174477301536,-0.01973286534077488
1772806920432248800,2.593248779296875,0.04736322419941425,-0.006712576315924525,-0.021219706365047022
1772806920442180900,2.603180908203125,0.037034722408652306,-0.007741554037481546,-0.003687565938942134
1772806920452113000,2.61311279296875,0.02251987484395504,-0.011521182174049318,-0.0028532340066507456
1772806920462043600,2.623043701171875,0.029703064346313476,-0.010950250418297947,-0.004491977657005191
1772806920471975700,2.6329755859375,0.05185059874653816,-0.0014049166281707584,0.003825823632162064
1772806920481908000,2.642907958984375,0.03928337811827659,-0.0035093050288967785,-0.0032701533776242284
1772806920491840000,2.652840087890625,0.04152794217467308,-0.0022501718132756647,-0.005353087998367845
1772806920501770800,2.662770751953125,0.021921324428915975,-0.014390380934812128,-0.003746958842827007
1772806920511702800,2.672702880859375,0.030296354064345356,-0.0036751083161681887,-0.0015118658676743506
1772806920521634800,2.682634765625,0.045859249377250666,0.0011783778632991015,-0.010214446957036853
1772806920531566800,2.69256689453125,0.031492870372533795,0.0026444866267964244,-0.010352028796821832
1772806920541497900,2.702497802734375,0.04346212510764599,0.004389430597983301,-0.004901453507039696
1772806920551429600,2.7124296875,0.047054596641659736,-0.0060079169115982945,-0.0069183919531758875
1772806920561361700,2.722361572265625,0.052587680849432945,-0.0066261401414871215,-0.008213856857502833
1772806920571294000,2.7322939453125,0.04555354442894458,-0.006890581497643143,-0.00537536376225762
1772806920581225000,2.742224853515625,0.041516251736879346,-0.003122698597796261,-0.006542462179716676
1772806920591157000,2.752156982421875,0.03268821763694286,-0.01043241882296279,0.00366255936184898
1772806920601088800,2.7620888671875,0.03583002279400825,0.00092723438013345,0.002378985824715346
1772806920611020800,2.772020751953125,0.027002573215961456,0.0043281653974205254,0.0112292591559235
1772806920620951800,2.781951904296875,0.02849894925355911,-0.007538323082961142,0.012638002575840801
1772806920630883800,2.7918837890625,0.041518589824438096,0.0013974091751500963,0.018170365264406428
1772806920640815600,2.801815673828125,0.027452655071020123,-0.0005034012111835182,-0.007640797076746821
1772806920650748000,2.811747802734375,0.03239069599509239,0.0024176373346708716,-0.02477899714866653
1772806920660679000,2.821678955078125,0.035978491353988645,-0.010933189685642719,-0.01844111763034016
1772806920670611000,2.83161083984375,0.04106558535993099,-0.005471819007210433,-0.036685278783319515
1772806920680543000,2.84154296875,0.03059036857485771,-0.013910360599216073,-0.020325351341208442
1772806920690474800,2.851474853515625,0.034034371548891065,-0.011967537702061236,0.0002207574780564755
1772806920700405800,2.86140576171875,0.03388239585757255,0.003853460557758808,0.02622171590342186
1772806920710337800,2.871337890625,0.035978491353988645,-0.016389555395394564,0.023666012671776114
1772806920720269800,2.881269775390625,0.03537818737328052,-0.01175910084946081,0.005236768142320216
1772806920730201900,2.891201904296875,0.03822130184471607,-0.013750895721185952,0.00598942227368243
1772806920740132900,2.9011328125,0.03133972563743591,-0.01771548850322142,-0.00001708813211880624
1772806920750065000,2.91106494140625,0.031042788517475127,-0.00471563034504652,-0.015258322875760495
1772806920759997000,2.920996826171875,0.03777355807721615,-0.0074557958986610166,-0.0149434299740009
1772806920769929000,2.930928955078125,0.025050270104408263,-0.0017892397706396877,-0.02347743129711598
1772806920779859700,2.940859619140625,0.025049101060628888,0.009329809609614312,-0.00029674532371573147
1772806920789791700,2.950791748046875,0.040164252606034276,0.008422302843257784,0.0012279343597590923
1772806920799723800,2.960723876953125,0.03731938456892967,0.013295187842939048,-0.002396010024752468
1772806920809655800,2.97065576171875,0.03507131338119507,0.010048899398092179,-0.003860219092108309
1772806920819586800,2.9805869140625,0.029234277790784833,0.01822471666699275,-0.005880555071728304
1772806920829518800,2.990518798828125,0.044644612890481945,0.016994371154438703,-0.0032433201696258035
1772806920839451000,3.000450927734375,0.036862872973084444,0.008340871637500823,-0.0026686346873641014
1772806920849383000,3.0103828125,0.03551555001735687,-0.004825630058161914,-0.006338482306525111
1772806920859313700,3.020313720703125,0.03237199129462242,-0.009575747194699943,-0.013064374761749058
1772806920869245700,3.03024560546875,0.029379239219427106,-0.02488930738903582,-0.01982411468764767
1772806920879177700,3.040177734375,0.029824060377478596,-0.02083661619843915,-0.023572909294534473
1772806920889109800,3.05010986328125,0.028477906465530393,-0.03420054016234353,-0.00991560100778006
1772806920899041000,3.060041015625,0.027736732709407803,-0.04137976587563753,-0.00718918998488225
1772806920908972800,3.069972900390625,0.028335867646336554,-0.03856437966134399,0.007015303855855018
1772806920918904800,3.07990478515625,0.03372574399113655,-0.03195685288878158,0.02674239704296924
1772806920928836900,3.0898369140625,0.03313070070743561,-0.013375523070152847,0.022205438599921763
1772806920938768000,3.099767822265625,0.024156536135077476,0.002019614460412413,-0.0014702004167251289
1772806920948700000,3.109699951171875,0.038975335082411765,0.019998265678156168,0.0010694101966451852
1772806920958631700,3.119631591796875,0.04810965865254402,0.020008366947062314,-0.01628704486899078
1772806920968563700,3.129563720703125,0.04107902936339378,0.03544498726548627,-0.05017651892132125
1772806920978495000,3.139494873046875,0.03539455398619175,0.04029217156833038,-0.04477322597252205
1772806920988427000,3.149427001953125,0.03434533719420433,0.044229346620477734,-0.047257955460343504
1772806920998358800,3.15935888671875,0.038385552495718,0.03428699460308999,-0.03265289059523493
1772806921008290800,3.169290771484375,0.024926351463794707,0.03214189059948548,-0.02911356488741003
1772806921018221800,3.179221923828125,0.016106500670313835,0.026092509166337548,-0.024637442386662586
1772806921028153900,3.18915380859375,0.03991349271535873,0.03129645275129005,-0.007608657505968585
1772806921038086000,3.1990859375,0.03377952000498771,0.036842871364671737,-0.052601325782295316
1772806921048017700,3.209017578125,0.04798574001193046,0.06126631480762735,-0.09077854189011268
1772806921057949000,3.218948974609375,-0.0005149637848138809,0.015049027506634591,-0.08487406708667986
1772806921067881000,3.228880859375,0.08895429473817348,-0.004291358784679324,-0.013194622678449376
1772806921077813000,3.23881298828125,0.002757774275541305,-0.05277299255477264,-0.03371870232899673
1772806921087745000,3.2487451171875,0.024146599262952803,-0.07924335859017446,0.05322531203269027
1772806921097675800,3.25867578125,0.056466568109393114,-0.12045529361823573,0.14929648043820634
1772806921107607800,3.26860791015625,0.0356798006683588,-0.12365140451211482,0.17130900854822248
1772806921117539800,3.278539794921875,0.007861234894394874,-0.12120437668617814,0.19823588617946952
1772806921127471900,3.288471923828125,0.10616028108298778,-0.0957802683006972,0.17347139248019083
1772806921137403000,3.29840283203125,-0.016106500670313835,-0.09224723533634095,0.05663552233497612
1772806921147335000,3.3083349609375,0.005146715238690376,-0.07682212279262021,0.02222770523065701
1772806921157267000,3.318266845703125,0.10601181252300738,-0.04455172870894894,-0.02892894730181433
1772806921167199000,3.328198974609375,-0.014884849920868873,-0.028038693064358085,-0.10153473104103468
1772806921177129700,3.338129638671875,0.04378478119075298,0.03496171552687883,-0.10582160544684156
1772806921187061800,3.348061767578125,0.02164484557509422,0.09623831426650285,-0.07727334629199467
1772806921196993800,3.357993896484375,0.04738251342177391,0.1539307526427321,-0.08653919642046093
1772806921206925800,3.36792578125,0.056502223944664,0.16106051319111137,-0.0649616530610714
1772806921216856800,3.37785693359375,0.04197977759540081,0.15277383769256994,-0.07407482424532062
1772806921226788900,3.387788818359375,0.030004093119502067,0.08785954003771766,-0.03946840669582598
1772806921236721000,3.397720947265625,0.038082770156860346,0.05373889671117067,-0.009977140202978626
1772806921246653000,3.40765283203125,0.05559387692809105,0.0013009995959699153,0.02599153300989419
1772806921256584000,3.417583984375,-0.017124153280258177,-0.03434988550515845,0.025856974244257435
1772806921266515700,3.427515625,0.06428864003717899,-0.05159211220713332,0.0308412837291602
1772806921276447700,3.43744775390625,0.04019873939752579,-0.05998339885761961,-0.001297054073214531
1772806921286379800,3.4473798828125,0.01400748256444931,-0.05999311653403565,0.005781652141362429
1772806921296310800,3.457310791015625,0.05933832415342331,-0.07524086321685462,0.004943767411960289
1772806921306242800,3.467242919921875,0.0430213956028223,-0.08090568404551594,-0.020147446624189613
1772806921316174800,3.4771748046875,0.012346271353960037,-0.08124907238939777,-0.022666023582685737
1772806921326107000,3.48710693359375,0.02536883453428745,-0.08538560593854636,-0.03377837836067192
1772806921336038000,3.497037841796875,0.01609364118874073,-0.04066876806207001,-0.06882783610308542
1772806921345970000,3.506969970703125,0.05051087457537651,-0.012350509137660264,-0.023772258658381177
1772806921355902000,3.51690185546875,0.05514496411681175,0.021800894653331487,0.02877256029685959
1772806921365833700,3.526833740234375,0.02342471472918987,0.04315428300118074,0.023352508009504527
1772806921375764700,3.5367646484375,0.0374836352199316,0.06311555940350518,0.06050389733407646
1772806921385696800,3.54669677734375,0.026856442743539807,0.07042944434713572,0.036121425222326066
1772806921395629000,3.556629150390625,0.04002513639628887,0.07275070863524452,-0.010149154035327956
1772806921405560800,3.566560791015625,0.03164543058574199,0.06800733176674693,-0.023831414100248364
1772806921415491800,3.576491943359375,0.03269581642150879,0.05805982865020633,-0.07016901244581676
1772806921425424000,3.586423828125,0.04228022184669971,0.04394170705182478,-0.08214838671614415
1772806921435355100,3.596355224609375,0.013850246176123618,0.037553211591113356,-0.017111586059629917
1772806921445287000,3.606286865234375,0.027916765451431274,0.035977614571154115,0.00930792657136917
1772806921455218200,3.61621826171875,0.0576917259901762,0.013423252935707569,0.029525324026076123
1772806921465150200,3.626150146484375,0.029709494087100028,-0.037010409951303155,0.050468743333546444
1772806921475082200,3.636082275390625,0.04198094663918018,-0.029256818416155874,0.019010779877612367
1772806921485014300,3.64601416015625,0.025225042149424552,-0.0441403348964639,-0.006020730727398768
1772806921494945000,3.655945068359375,0.02792202614843845,-0.06167800088105723,-0.010939418497029691
1772806921504877000,3.665876953125,0.02957213144302368,-0.06197955937720835,-0.013695713201537727
1772806921514809000,3.67580908203125,0.043484336939454075,-0.04312582409167662,-0.004448659105086699
1772806921524741000,3.6857412109375,0.05156359849870205,-0.042475963614508505,0.0015204236334655434
1772806921534672100,3.695672119140625,0.010716624325513839,-0.03702315983502194,-0.01070255013438873
1772806921544604200,3.705604248046875,0.04034311630427837,-0.01592865988537669,-0.017002161735249682
1772806921554536200,3.7155361328125,0.0849275234401226,0.0016470000220462678,-0.023990358388470485
1772806921564468200,3.72546826171875,-0.0015700257956981658,0.012734795747511088,-0.04208447094573639
1772806921574399000,3.73539892578125,0.09194412420392035,0.016682199932727963,-0.02896714215404354
1772806921584331000,3.7453310546875,0.01217968261539936,0.015425770130846648,-0.016161491393717003
1772806921594263000,3.755262939453125,0.031181320205330848,0.01068962672073394,0.0033381588462274518
1772806921604195000,3.765195068359375,0.03207856130599975,-0.014749039913062005,0.03405565179893747
1772806921614126000,3.7751259765625,0.019359949508309365,-0.0066054078807123,0.03253838823693804
1772806921624058000,3.78505810546875,0.013826280778646468,-0.02524034931641072,-0.0000056808221153914924
1772806921633990100,3.794990234375,0.03702478553652763,-0.02498827425148338,-0.03023086021323688
1772806921643922200,3.804922119140625,0.015027473261952399,0.0023302878447808324,-0.021640589525084943
1772806921653853200,3.814853271484375,0.04674538456201553,0.007943597681913524,0.0011352328413166105
1772806921663785000,3.824784912109375,0.035216859331727024,0.017291363073326647,0.004305661304667592
1772806921673717000,3.834717041015625,0.03940378962755203,0.02751775619648397,-0.011869146228348835
1772806921683649000,3.84464892578125,0.0377536843329668,0.0238927340997383,0.0035492351804859933
1772806921693580000,3.854580078125,0.021889760246872902,0.03227545385127887,0.015112384199583903
1772806921703512000,3.864511962890625,0.031163784548640248,0.008771207612473518,0.011822092216229065
1772806921713444000,3.874444091796875,0.032357378247380254,0.004481657192390412,0.004372424664255231
1772806921723376000,3.884376220703125,0.02247837378978729,0.010345416392944753,-0.006825809165742248
1772806921733307100,3.89430712890625,0.02801438060700893,-0.0028871545425616205,0.018349950481858102
1772806921743239200,3.9042392578125,0.04297404932975769,-0.017344408434815703,0.004623029291303828
1772806921753171200,3.914171142578125,0.030252514922618864,-0.02636146230082959,-0.008706426147418097
1772806921763103000,3.92410302734375,0.013195581659674644,-0.048832894893176854,-0.021980781264882534
1772806921773034000,3.934033935546875,0.02696750190258026,-0.062021316159702834,-0.035275941708358
1772806921782966000,3.943966064453125,0.019640520015358924,-0.050187652236688876,-0.043976869696751235
1772806921792898300,3.953898193359375,0.04358078305125236,-0.04579149963697418,-0.051395922914752735
1772806921802830000,3.963830078125,0.028315409380197522,-0.03285539089739323,-0.060178994494955985
1772806921812761000,3.973760986328125,0.05076046542227268,0.009664357059914619,-0.07435850915806368
1772806921822693000,3.983693115234375,0.034601357781887054,0.02941853005019948,-0.059566141559928655
1772806921832625200,3.993625244140625,0.025776246291399,0.044306302580516786,-0.019192365255905314
1772806921842557200,4.00355712890625,0.038945524466037745,0.04323430770114064,-0.00010540573638863861
1772806921852488000,4.013488037109375,0.03131517571806908,0.05017344104824587,0.022148968305485323
1772806921862420000,4.023419921875,0.03535831362903118,0.05866553945839405,0.03409126196843572
1772806921872352000,4.03335205078125,0.03849836522042751,0.05565243871491402,0.01653348477757536
1772806921882284300,4.0432841796875,0.038790626165270806,0.059033733449969435,0.043634549931949
1772806921892215000,4.053215087890625,0.03833645265698433,0.03191630168268457,0.06569280774667859
1772806921902147000,4.06314697265625,0.037436873468756675,0.009946443670615554,0.05970797031656839
1772806921912079000,4.0730791015625,0.03504150276482105,-0.026020631240215152,0.06206004073489457
1772806921922011100,4.08301123046875,0.035492169141769406,-0.023494126703590152,0.0008921174009796232
1772806921931942000,4.09294189453125,0.027263854500651358,-0.010873641518130897,-0.0502585346489679
1772806921941874000,4.1028740234375,0.02951251021027565,-0.010457717661000787,-0.11050944360266439
1772806921951806000,4.112805908203125,0.043426469272375104,-0.012901950741652398,-0.13359794864743016
1772806921961738000,4.122738037109375,0.049259997731447215,-0.009935209890548139,-0.08299829067690298
1772806921971669200,4.132669189453125,0.024269348859786984,-0.0052379006534814835,-0.03440651106322184
1772806921981601000,4.14260107421875,0.03130406980216503,-0.018890432300418616,0.025494680270506068
1772806921991533000,4.152532958984375,0.035792613393068315,-0.005802512266300618,0.08015017123678699
1772806922001465000,4.162465087890625,0.05659282483756542,-0.014191022437810896,0.08185436307247727
1772806922011396000,4.17239599609375,0.04641337612867355,-0.0008440130760893226,0.05075220905058086
1772806922021328000,4.182327880859375,0.02037526403069496,0.005378222439624369,-0.0011021068898495285
1772806922031260000,4.192260009765625,0.06645546268224715,-0.004787197743915021,-0.04397447681026533
1772806922041192000,4.20219189453125,-0.023787118300795555,-0.01815806290525943,-0.04074826303906739
1772806922051123200,4.212123291015625,0.06688859340250491,-0.030219562501087784,-0.05174030677247792
1772806922061055200,4.22205517578125,0.007479542100429534,-0.0612056158626452,-0.049950546412030235
1772806922070987000,4.231987060546875,0.05835223572552204,-0.05876558403307572,-0.058708556616213166
1772806922080919000,4.2419189453125,0.020191139635443688,-0.04929969042101875,-0.03712630054908805
1772806922090850000,4.25185009765625,0.02482347561120987,-0.0634177754867822,-0.015410599961178377
1772806922100782000,4.261781982421875,0.03140577661097049,-0.04892260073693469,0.021826202624524012
1772806922110714000,4.271714111328125,0.037537411233782764,-0.04069799415655434,0.0591088901785668
1772806922120646000,4.28164599609375,0.0016255553752183914,0.008940024840738624,0.08097726057753897
1772806922130577200,4.2915771484375,0.05818272437751293,0.0329916210303083,0.09117745981351472
1772806922140509200,4.30150927734375,0.0017670096725225448,0.02234130340665579,0.04658896102444268
1772806922150441200,4.311441162109375,0.08586275846362114,0.03580163694974035,-0.05030581698995083
1772806922160373000,4.321373046875,0.042618075498938555,0.05191845808466896,-0.12892096981233916
1772806922170304000,4.331303955078125,-0.009157119923830032,0.07078395687323064,-0.14086530016874893
1772806922180236000,4.341236083984375,0.06087620124518871,0.06803922474235295,-0.12432413440821692
1772806922190168000,4.35116796875,0.010749942073225974,0.04956142836343497,-0.052828659131610764
1772806922200100000,4.36110009765625,0.039029695618152616,0.027952037694212048,0.043996615576837206
1772806922210031000,4.371031005859375,0.041277182283997536,0.02999939867807552,0.10914612849336117
1772806922219963100,4.380963134765625,0.024219664499163625,0.009490224335715175,0.10554138199966401
1772806922229895200,4.390895263671875,0.036190672799944874,-0.012483707063272594,0.05780736085963435
1772806922239827200,4.4008271484375,0.04068096995651722,-0.013382025876175612,-0.017275535316532475
1772806922249758000,4.410758056640625,0.020631284618377686,-0.01729090641560033,-0.06728636054843663
1772806922259690000,4.42068994140625,0.0435223308622837,-0.049240726775396614,-0.06346640953463502
1772806922269622000,4.4306220703125,0.03544774547815323,-0.045902759725414216,-0.05201855745827779
1772806922279554000,4.440553955078125,0.027521044132113454,-0.061871459360234436,-0.00812874499047175
1772806922289485000,4.450485107421875,0.04279986180663108,-0.07574245606344193,0.012918783145444467
1772806922299417000,4.4604169921875,0.003297287979722023,-0.06609366189884021,-0.028872760135168207
1772806922309349000,4.47034912109375,0.09294073402583598,-0.04310456210793927,0.015553552095824852
1772806922319281200,4.48028125,0.015433715975284576,-0.0034548714279197153,-0.023878093653032555
1772806922329212200,4.490212158203125,0.0428209045946598,0.029008871537074446,0.002478847736306488
1772806922339144000,4.50014404296875,0.03968552917838097,0.0623751528323628,0.007433748463634401
1772806922349076000,4.510075927734375,0.03833528361320496,0.06994001686237752,0.01780942299752496
1772806922359008000,4.520008056640625,0.07320026076734065,0.0729021911362186,0.03917033706470392
1772806922368939300,4.529939208984375,0.020232056167721748,0.07629473791765048,-0.0365997741906438
1772806922378871300,4.539871337890625,0.038490181913971896,0.06535811416590585,-0.06528797153914347
1772806922388803000,4.549802978515625,0.045371758121252055,0.05751516384687275,-0.05564610943882726
1772806922398735000,4.559735107421875,0.03804302266836166,0.03303029080657288,-0.06037218811265192
1772806922408666000,4.569666015625,0.026372458618879317,-0.0009978153983131051,-0.029019265066925433
1772806922418598100,4.57959814453125,0.03250409324169159,-0.04131267372248694,0.05161925594238564
1772806922428530000,4.589530029296875,0.029513094732165335,-0.06335318581797182,0.09946693919049575
1772806922438462500,4.59946240234375,0.016045125871896743,-0.07089302500458433,0.07409691734611988
1772806922448393500,4.6093935546875,0.04058978454172611,-0.09559119373569265,0.009325763622159138
1772806922458325500,4.619325439453125,0.032516368201375004,-0.08524475442944095,-0.031280214002542196
1772806922468257500,4.629257568359375,0.021297639572620392,-0.06888610562896355,-0.07631760733658448
1772806922478189600,4.639189453125,0.05976034895777702,-0.05076534252678975,-0.07484887735773808
1772806922488120300,4.649120361328125,0.026396424016356466,-0.028735607553645966,-0.052854222831130025
1772806922498052400,4.65905224609375,0.03612579087018966,-0.012191117324866354,0.010300517805293202
1772806922507984400,4.668984375,0.053341714087128636,0.012516769082657992,0.04807160079763271
1772806922517916400,4.67891650390625,0.01922843208312988,0.049406968454085286,0.0630001254634466
1772806922527847200,4.68884716796875,0.03644143269062042,0.07235655821850523,0.04665629063961096
1772806922537779500,4.698779541015625,0.03165653650164604,0.07409509071521461,0.015224073546286672
1772806922547711500,4.70871142578125,0.044381578040122986,0.0702872411311604,-0.031089184942468998
1772806922557643500,4.7186435546875,0.03555588202774525,0.08165564389629289,-0.04271082268315367
1772806922567574500,4.728574462890625,0.039001054045557974,0.07646298889033495,-0.03580128075671382
1772806922577506300,4.73850634765625,0.03242109113335609,0.03338493119683116,-0.019326312100188807
1772806922587438300,4.748438232421875,0.035414427730441095,0.010754618248343468,-0.014182108478993177
1772806922597370400,4.758370361328125,0.015814239725470542,-0.0003941321504302323,-0.006209723094012588
1772806922607301400,4.76830126953125,0.04319967477917671,-0.026105733974091706,-0.009215663444343953
1772806922617233200,4.778233154296875,0.020905425384640693,-0.040985122268553824,-0.014778859662590547
1772806922627165400,4.78816552734375,0.04873977324962616,-0.06805730838831514,-0.009730745960166678
1772806922637097500,4.798097412109375,0.034226679250597955,-0.06766838213596493,0.009818469909392297
1772806922647028500,4.808028564453125,0.037516368445754046,-0.05734046486709266,0.03314220848213881
1772806922656960500,4.81796044921875,0.03511865965425968,-0.05276278168801218,0.033571485011186446
1772806922666892300,4.827892333984375,0.021953473132848737,-0.04032695062076673,0.014596790227107703
1772806922676824300,4.83782421875,0.029733459484577177,-0.04586681162919849,-0.013541043229633941
1772806922686755300,4.84775537109375,0.02225041025280952,-0.025579591208137572,-0.06275739361559972
1772806922696687400,4.857687255859375,0.022996844705939292,-0.009918605815619229,-0.06400014195200056
1772806922706619400,4.867619384765625,0.041703298741579055,0.01779189647398889,-0.04168410085076466
1772806922716551400,4.877551513671875,0.04604395829439163,0.03205331726688891,-0.010310582541581242
1772806922726482400,4.887482421875,0.022996260184049606,0.05222798069156706,0.04168647547094151
1772806922736414500,4.89741455078125,0.030772154882550237,0.05777578754443675,0.04856845353702083
1772806922746346500,4.907346435546875,0.0324164149582386,0.056590157956443725,0.015074235013127326
1772806922756278300,4.9172783203125,0.040948680981993675,0.05327926157647744,-0.0018887728886678814
1772806922766209300,4.927209228515625,0.0346691623210907,0.033924079574830825,-0.025444804113637653
1772806922776141300,4.937141357421875,0.03976210154592991,0.028945487444661556,-0.030168325504194942
1772806922786073300,4.9470732421875,0.03886310687959194,0.006998352721054106,-0.034644356673397124
1772806922796005400,4.95700537109375,0.04678922370374203,0.008771755601745099,-0.0169324027009774
1772806922805936400,4.966936279296875,0.027478958556056022,-0.014642638662829994,-0.005870115876104682
1772806922815868400,4.976868408203125,0.03420972811579704,-0.01867107219500467,-0.036923608450684695
1772806922825800400,4.986800537109375,0.04438274708390236,-0.0387645966748707,-0.038298723595635964
1772806922835732500,4.996732421875,0.03675415190160274,-0.04887556499112397,0.022785987567389383
1772806922845663200,5.006663330078125,0.038249943417310715,-0.04526005964139476,0.03179308629496954
1772806922855595300,5.01659521484375,0.027926702323555944,-0.057013918060157445,0.03629753984105773
1772806922865527300,5.02652734375,0.04050093721449375,-0.049097427580878136,0.04654938706588
1772806922875459300,5.036459228515625,0.037062194937467575,-0.046420317326113576,0.03274587524146773
1772806922885390300,5.046390380859375,0.03362286813855171,-0.02963283038800582,0.007352353790495544
1772806922895322400,5.056322265625,0.036166122880578036,-0.020357454379368572,-0.029579081773618236
1772806922905254400,5.06625439453125,0.03407002738416195,0.005306180116720498,-0.05177254680795595
1772806922915186400,5.0761865234375,0.044696050816774364,0.011294077153597027,-0.057346392284380265
1772806922925117400,5.086117431640625,0.03901391352713108,0.0129711617866531,-0.03369196045254357
1772806922935049200,5.09604931640625,0.028244682231545446,0.01720896375318989,-0.0028160620677284893
1772806922944981200,5.105981201171875,0.052934886851906775,0.0339569589311257,0.02562884631049819
1772806922954913300,5.115913330078125,0.03542611816823482,0.04520778146488592,0.03538664467437193
1772806922964844500,5.125844482421875,0.050986675393581385,0.06112990201162174,0.030944177848054095
1772806922974776300,5.1357763671875,0.018361586120724676,0.04055781850088387,0.0039037111739628014
1772806922984708400,5.145708251953125,0.030779753667116164,0.008295388527959585,-0.010561981753073633
1772806922994640400,5.155640380859375,0.027789339679479597,-0.014869323558174073,-0.030137546773441135
1772806923004571400,5.1655712890625,0.0396142175078392,-0.048560325029492375,-0.034712042481591925
1772806923014503400,5.17550341796875,0.029437106886506078,-0.050685993680264795,-0.0292266424736008
1772806923024435200,5.185435302734375,0.03781213652193546,-0.05424792394554242,-0.03141216981913894
1772806923034367200,5.1953671875,0.027486557340621946,-0.05246416406761854,-0.03884481317107565
1772806923044298500,5.205298583984375,0.044990065327286714,-0.032960093380883335,-0.018899939914280548
1772806923054230500,5.21523046875,0.04004734822809696,-0.02553200747305527,0.0016358119077514856
1772806923064162600,5.22516259765625,0.03032148850560188,-0.03183916305955499,0.02093077902160585
1772806923074094300,5.23509423828125,0.04304477647840976,-0.009850052357744424,0.030471281372988594
1772806923084025300,5.245025390625,0.026736031234264372,-0.012478775159828363,0.037363698634691536
1772806923093957400,5.254957275390625,0.04230126463472843,0.02422907164832577,0.0247421814027708
1772806923103889400,5.264889404296875,0.04903612584769725,0.04419734404701739,-0.02964936139769852
1772806923113821200,5.2748212890625,0.03990823201835155,0.05261537257395684,-0.05127091742875054
1772806923123752400,5.28475244140625,0.05202770887911319,0.05250020349537953,-0.047973994775209576
1772806923133684500,5.2946845703125,0.032277883270382876,0.04769694966580718,-0.04188250949969515
1772806923143616500,5.304616455078125,0.018663783937692642,0.03576504953270778,-0.013933394414931535
1772806923153548500,5.314548583984375,0.03901683613657951,0.017176120929513126,-0.0006288907543756067
1772806923163479300,5.324479248046875,0.03362988240122795,0.009806030552927404,0.018894934945600107
1772806923173411300,5.334411376953125,0.03243453513681888,0.006574830079358071,0.02644677509726025
1772806923183343400,5.34434326171875,0.03752338270843029,-0.00529087294973433,-0.0005042323282454163
1772806923193275400,5.354275390625,0.03812193312346935,-0.010682868186384439,-0.013705750538362189
1772806923203207400,5.36420751953125,0.028693595042824743,-0.015144121911562978,-0.01602434794534929
1772806923213138400,5.374138427734375,0.029439444974064824,-0.029717531263083217,-0.03467981157926842
1772806923223070500,5.384070556640625,0.02779752298593521,-0.035851777968090026,-0.0027827260537073013
1772806923233002500,5.39400244140625,0.017922610181570053,-0.014607695213612168,-0.008678232099395245
1772806923242933200,5.403933349609375,0.03767477387785911,-0.008696790669392794,-0.008830582250049337
1772806923252865300,5.413865234375,0.03977086937427521,-0.002325081946700811,-0.007162612505210563
1772806923262797300,5.42379736328125,0.027348025652766225,0.02641690054880455,-0.009159476277697831
1772806923272729300,5.433729248046875,0.037516368445754046,0.026975045888219026,0.006202672298718243
1772806923282660600,5.44366064453125,0.050530748319625854,0.014860537463519721,0.011798126818751916
1772806923292592400,5.45359228515625,0.05008300455212593,0.012587678894400597,0.016539558325335383
1772806923302524400,5.4635244140625,0.04020575366020202,0.02430577188003808,0.026698238240834324
1772806923312456400,5.47345654296875,0.030329671812057493,0.011606120511144399,-0.0004393321321811527
1772806923322387500,5.483387451171875,0.028831542208790778,0.011700648660492152,-0.008712709757732227
1772806923332319500,5.493319580078125,0.03541325868666172,0.005826459397468716,-0.00948995947423391
1772806923342251300,5.503251220703125,0.03496434587538242,-0.013311189129669219,-0.038581513459235425
1772806923352183300,5.513183349609375,0.03810498198866844,-0.02281103981025517,-0.03391541221118532
1772806923362114300,5.5231142578125,0.043785950234532356,-0.026798940402641892,-0.018465110427280888
1772806923372046600,5.533046630859375,0.04662789566218853,-0.021897888754401355,-0.008765307594649493
1772806923381978400,5.542978271484375,0.02223696624934673,-0.029237529193796217,-0.006291300430241972
1772806923391910400,5.552910400390625,0.03779869251847267,-0.028028993654251096,0.02529150411491282
1772806923401842400,5.562842529296875,0.03540332181453704,-0.022471450858656317,0.018774148976989088
1772806923411773400,5.5727734375,0.04453004660010337,-0.004139017767179757,-0.007467066211346536
1772806923421705500,5.58270556640625,0.0416840095192194,0.0112240258583799,-0.01833889023172669
1772806923431637200,5.59263720703125,0.03973930519223213,0.020736388960666954,-0.024063834616634992
1772806923441569500,5.602569580078125,0.018490765458345413,0.01153922928739339,-0.019381111027346923
1772806923451500300,5.612500244140625,0.03450724975764751,0.02551302877794951,-0.01756561343744397
1772806923461432600,5.6224326171875,0.028075755405426023,0.024493421672936527,-0.0028795283585321156
1772806923471364600,5.632364501953125,0.03720189566910267,0.023530586256459353,-0.012495424900529906
1772806923481296600,5.642296630859375,0.02447860769629478,0.02609776986334473,0.015048369919508696
1772806923491227400,5.652227294921875,0.03285363733172417,0.015121910079754887,0.010503630028804764
1772806923501159400,5.662159423828125,0.05305529836118221,0.0036048012926243244,0.0020869258092716335
1772806923511091500,5.672091552734375,0.02477145316302776,-0.014534355982765555,-0.0027833471082150934
1772806923521022500,5.6820224609375,0.04781389057636261,-0.028991408945620058,-0.007357641886966302
1772806923530954200,5.691954345703125,0.04646890570819378,-0.05031644798181951,0.0024979086298029867
1772806923540886500,5.701886474609375,0.015196400088071823,-0.04662782259695231,-0.0058909851341973985
1772806923550818600,5.711818603515625,0.0351005394756794,-0.055465209047123785,-0.01834337461059913
1772806923560749600,5.72174951171875,0.037493572092056275,-0.047171117427106946,-0.020148369072796775
1772806923570681600,5.731681640625,0.011308160477876663,-0.03316800051052123,-0.020011709681618958
1772806923580613400,5.74161328125,0.05694412249326706,-0.02941418266864493,-0.015704495740681886
1772806923590545400,5.75154541015625,0.03180091340839863,-0.026856406210921703,-0.012950365593796595
1772806923600476400,5.761476318359375,0.04033025682270527,-0.018773710585571823,-0.015663926268275827
1772806923610408400,5.771408447265625,0.039438860940933226,0.01767630727030337,-0.00970754774766974
1772806923620340200,5.78134033203125,0.045130935102701185,0.02300195927247405,0.00023613771027885375
1772806923630272500,5.7912724609375,0.0355535439401865,0.04377995888516307,0.014704999841935932
1772806923640203500,5.80120361328125,0.04632335975766182,0.04093348341286182,0.008500190385058521
1772806923650135600,5.811135498046875,0.03434767528176307,0.047159006864205,-0.006376394030964002
1772806923660067600,5.821067626953125,0.043920974791049956,0.0383312102262862,-0.017320762697746975
1772806923669999400,5.830999267578125,0.03569090658426285,0.03975457582660019,-0.010517174496967345
1772806923679931400,5.840931396484375,0.03793547064065933,0.014222714484017341,-0.00003006634470075369
1772806923689862400,5.8508623046875,0.03239712573587894,0.0014162600060924886,0.011552782888710499
1772806923699794400,5.86079443359375,0.029102760365605353,-0.002558890702575445,0.019853687842004
1772806923709726500,5.8707265625,0.042720951351523394,-0.00995256288414821,-0.001650105294585228
1772806923719658500,5.880658447265625,0.027307693642377853,-0.02791457349434495,0.0015772409877739845
1772806923729589500,5.890589599609375,0.04227028497457504,-0.017993867053184658,-0.018643270872626454
1772806923739521500,5.900521484375,0.041972178810834884,-0.03930358065608889,-0.028203592169331385
1772806923749453600,5.91045361328125,0.04152034339010715,-0.046023335631471124,-0.015986344889365137
1772806923759384300,5.92038427734375,0.05064765269756317,-0.029070301134418695,-0.017259296567784622
1772806923769316400,5.93031640625,0.011890344280004501,-0.04859227280402556,-0.008680433189636096
1772806923779248400,5.940248291015625,0.009045476242899895,-0.04200679346648976,-0.010282278895704076
1772806923789180400,5.950180419921875,0.0534825838625431,-0.006804802910331636,-0.002506219800421968
1772806923799111400,5.960111328125,0.03567044831812381,0.01300329222427681,-0.009529843960050494
1772806923809043500,5.97004345703125,0.025790859338641167,0.02242454297700897,0.009334988108230755
1772806923818975500,5.9799755859375,0.04149754703640938,0.02757953285370022,0.035409441028069706
1772806923828907500,5.989907470703125,0.020098785176873205,0.035672822938300666,0.017908755186153574
1772806923838838500,5.999838623046875,0.022942484170198438,0.035736280095949764,0.01508155980305746
1772806923848770300,6.009770263671875,0.03431611109972,0.023993417995236813,-0.00520385225340724
1772806923858702300,6.019702392578125,0.0311702142894268,0.031160661009792236,-0.035052955740597094
1772806923868634400,6.02963427734375,0.030574586483836173,0.027011962098814544,-0.04397001069770194
1772806923878566400,6.03956640625,0.03326747882962227,0.015295202553737907,-0.04641229841643944
1772806923888497400,6.049497314453125,0.03371405355334282,0.01050466207526624,-0.0381158869751729
1772806923898429400,6.059429443359375,0.03610708616971969,-0.013262966073770074,-0.016826165847526862
1772806923908361500,6.069361572265625,0.03251695272326469,-0.025757103199511765,0.013737561315577476
1772806923918293500,6.07929345703125,0.0278764334410429,-0.02932442202595994,0.009821611714549362
1772806923928224500,6.089224609375,0.03191840230822563,-0.025355755857005714,0.032916984891518945
1772806923938156300,6.09915625,0.03760638481676578,-0.032961372022517026,0.02042545071481727
1772806923948088300,6.10908837890625,0.052719198274612425,-0.030712844177056102,0.009743614574894309
1772806923958020400,6.119020263671875,0.03715513391792774,-0.014947649491392075,0.001120364065747708
1772806923967951600,6.12895166015625,0.04778349543809891,-0.03545839473633095,-0.0029492051944136617
1772806923977883600,6.138883544921875,0.03326806335151195,-0.02365119869513437,0.00311661591688171
1772806923987815400,6.1488154296875,0.03461480178534984,-0.018681410925928503,-0.02331561006521806
1772806923997746400,6.158746337890625,0.037757775986194606,-0.01765296292733401,-0.026160806895885614
1772806924007678500,6.168678466796875,0.03790682906806469,0.0028704774023965,-0.03272636682339944
1772806924017610500,6.178610595703125,0.049127895784378046,-0.0004848426411859691,-0.015128622948331758
1772806924027542300,6.188542236328125,-0.017908581656217573,0.006257891350984573,-0.0016298479578457771
1772806924037473500,6.1984736328125,0.06140051738023757,0.03299744798289612,0.0041791214487049725
1772806924047405600,6.208405517578125,0.015163666862249374,0.010455617035459726,0.005665569747332483
1772806924057337600,6.218337646484375,0.04614157344996929,0.04110469352761283,-0.0025940716138109564
1772806924067269600,6.22826953125,0.04494914879500866,0.043422651613783086,-0.013186813831329344
1772806924077201400,6.238201416015625,0.028489596903324126,0.04379024281715974,-0.016173802886018527
1772806924087132400,6.24813232421875,0.02759527841210365,0.038230380200315266,-0.03331938254679553
1772806924097064400,6.258064453125,0.0479494996547699,0.037810620418284084,-0.022274841441167516
1772806924106996500,6.26799658203125,0.04375906222760677,0.022866843384411185,-0.01718216707780957
1772806924116928500,6.277928466796875,0.025354806008934975,0.006451623824797571,0.0028176421034615483
1772806924126859500,6.287859619140625,0.03657528820335865,-0.01818001900874078,0.018375048390496522
1772806924136791600,6.29779150390625,0.042263855233788485,-0.035058855758421124,0.016344949068687855
1772806924146723600,6.3077236328125,0.021014730978012083,-0.031808256464637814,0.016932667562458665
1772806924156655600,6.317655517578125,0.03956979384422302,-0.05502694549402222,0.00516628758884035
1772806924166586400,6.32758642578125,0.039269934114813804,-0.05889596894709393,-0.024904715020721776
1772806924176518400,6.337518310546875,0.027298341292142866,-0.050613805226888506,-0.02208393111210316
1772806924186450400,6.347450439453125,0.02954115178287029,-0.0698086273013614,-0.015146286469185723
1772806924196382500,6.357382568359375,0.03582534661889076,-0.062489646057505156,-0.014394326457567512
1772806924206313500,6.3673134765625,0.03762041334211826,-0.054375057456549254,0.0012564572013448923
1772806924216245500,6.37724560546875,0.050040918976068494,-0.034678806932270524,0.0054041788647882635
1772806924226177500,6.387177490234375,0.02220832467675209,-0.0005650134716182947,0.002730256080953404
1772806924236109600,6.397109619140625,0.04256079235374927,0.02793342432528734,0.004206027721939608
1772806924246040600,6.40704052734375,0.036275428473949434,0.03377922774404287,0.013098258765041827
1772806924255972400,6.416972412109375,0.04749532614648342,0.05497112365355715,0.0010288589905481785
1772806924265904400,6.426904296875,0.04973696759343147,0.054095162802934645,-0.004897864177310839
1772806924275836400,6.43683642578125,0.024452888733148572,0.04763773029185831,0.000703800887800753
1772806924285767700,6.446767578125,0.03657704176902771,0.05827091411761939,-0.008707321196561679
1772806924295699500,6.456699462890625,0.03134147920310497,0.04799836203148588,-0.03831826854632236
1772806924305631500,6.466631591796875,0.030296354064345356,0.037012711506243794,-0.024456213201396165
1772806924315563500,6.4765634765625,0.042864743736386296,0.01972447197176516,-0.02929624624424614
1772806924325494500,6.48649462890625,0.03133855659365654,0.0038329840253107247,-0.02397581840646453
1772806924335426600,6.496426513671875,0.036277766561508176,-0.00830541673162952,-0.0026264303802978244
1772806924345358300,6.5063583984375,0.0332879370957613,-0.027561467474047092,0.01888282438269816
1772806924355290400,6.516290283203125,0.019672668719291686,-0.05922226002570241,0.018151012109965083
1772806924365221400,6.526221435546875,0.033442835396528245,-0.052495070662535726,0.00844144593514502
1772806924375153700,6.536153564453125,0.024019758012890816,-0.05693502587135881,-0.01006630719061941
1772806924385085700,6.546085693359375,0.0313531696408987,-0.04339327938882634,-0.010431916499463841
1772806924395017500,6.556017578125,0.03434592171609401,-0.038730000285524875,-0.021892838119948282
1772806924404948500,6.565948486328125,0.016239771661162375,-0.03439388904366642,-0.02040263609481044
1772806924414880500,6.575880615234375,0.024320202264189718,-0.018971297250594942,-0.014737806132994592
1772806924424812500,6.5858125,0.035544191589951514,-0.01614427539743483,-0.0015029062430839985
1772806924434744300,6.595744384765625,0.029855040037631987,0.003448076360952109,0.0047487197638954965
1772806924444675300,6.60567529296875,0.02970072625875473,0.025324009011872112,-0.004335901179304346
1772806924454607400,6.615607421875,0.04586275650858879,0.03466191059639677,-0.00738614646224305
1772806924464539400,6.625539306640625,0.04181961859762669,0.0309160385989584,-0.0200175822999794
1772806924474471400,6.635471435546875,0.02311316456198692,0.058709195937030015,-0.020210556721966713
1772806924484402400,6.64540234375,0.032088498178124425,0.050271549394167954,-0.018813522006152196
1772806924494334500,6.65533447265625,0.040019291177392,0.036371326596476135,-0.015561890665907413
1772806924504266500,6.6652666015625,0.05094809694886207,0.014502481273468582,-0.004451106790499762
1772806924514198300,6.6751982421875,0.018026070556044577,-0.010835885057318955,-0.016969419376272707
1772806924524129300,6.68512939453125,0.0008177461236715316,0.0024969861811958254,-0.02777528375466354
1772806924534061300,6.695061279296875,0.12082593529522419,-0.013905227766372263,-0.012639573478419333
1772806924543993600,6.70499365234375,-0.036894437155127524,-0.02979457855466753,-0.004219700054265559
1772806924553925400,6.71492529296875,0.06725333506166935,-0.010188125205691904,0.008190092389425262
1772806924563856400,6.7248564453125,0.048397827944159505,-0.033084158151969315,0.008199727867450565
1772806924573788400,6.734788330078125,0.05423603257834911,-0.036109606920368964,0.012971408381825313
1772806924583720400,6.744720458984375,-0.011904372805356979,-0.03833261673208326,0.011093650077516212
1772806924593652500,6.754652587890625,0.07997954564392566,-0.027513171352911737,0.004895946214860305
1772806924603583200,6.764583251953125,-0.009050736939907074,-0.016139654021244496,-0.012532368510589002
1772806924613515300,6.774515380859375,0.10392916103005409,0.017586071703583003,-0.025960051026241854
1772806924623447300,6.784447265625,-0.04914952309429645,0.03605966683141887,-0.06587231076573953
1772806924633379600,6.794379638671875,0.058141807845234865,0.017234171259682626,-0.00798498000507243
1772806924643310300,6.804310302734375,0.07998889799416065,0.030703765821456907,-0.010560821842448786
1772806924653242400,6.814242431640625,-0.04196165741682052,0.011857099597528576,0.014922843843698502
1772806924663174400,6.82417431640625,0.10064590157568454,0.015614515902288257,0.034236707454267885
1772806924673106400,6.8341064453125,0.04258651131689548,0.008255677572079002,0.02820456028371118
1772806924683037200,6.844037109375,0.00951835445165634,0.00997767905909568,0.011460994685720653
1772806924692969200,6.85396923828125,0.07939794636368751,0.0016028138204477727,0.021544344342686234
1772806924702901200,6.8639013671875,0.006226327168941497,-0.011183839978463946,-0.005591993054468184
1772806924712833300,6.873833251953125,0.06578793868422508,-0.02355561109986156,-0.021451414495380593
1772806924722764500,6.8837646484375,0.014466916769742965,-0.03509737940421328,-0.02320537289008498
1772806924732696300,6.8936962890625,0.04065466647148132,-0.03925364056713879,-0.02049141035680659
1772806924742628400,6.90362841796875,0.06729249802827834,-0.03572985035516321,-0.03315546068935655
1772806924752560400,6.913560302734375,0.003846738556027412,-0.023919201981555668,-0.025579326346656307
1772806924762491400,6.923491455078125,0.061759413820505135,-0.012285389745887368,-0.03383963442808017
1772806924772423200,6.933423095703125,0.032877602729201316,-0.012651410046685485,-0.020294152485346422
1772806924782355200,6.943355224609375,0.054428340280056,-0.001962934103421867,0.0008757142554502934
1772806924792287200,6.953287353515625,0.04156009087860584,-0.0052892655145376916,0.0056713053683750325
1772806924802218500,6.963218505859375,0.05158697937428951,-0.0028127741320990024,0.03837154223667458
1772806924812150500,6.973150634765625,0.03258066560924053,0.011615125801507383,0.025562804470118133
1772806924822082300,6.983082275390625,0.03482932131886482,0.010423833657708019,0.015208318854728713
1772806924832014300,6.993014404296875,0.020310966622829437,0.019796751756686715,-0.03224109492395073
1772806924841945300,7.0029453125,0.05637362912893295,0.008576781018916516,-0.04081059681870974
1772806924851877400,7.01287744140625,0.019262334352731704,0.02076026302659884,-0.03768203473570756
1772806924861809400,7.022809326171875,0.053227147796750064,0.011963738309778272,-0.026792474129237232
1772806924871741200,7.0327412109375,0.01940495769381523,-0.0031370193840935825,-0.01009585294551216
1772806924881672400,7.04267236328125,0.04738835864067077,-0.013495185660757124,0.004041128616966307
1772806924891604500,7.0526044921875,0.020011106893420217,-0.010044935609027743,0.01773361781495623
1772806924901536500,7.06253662109375,0.03602349953949451,-0.01712815360194072,0.0017256547488272188
1772806924911468300,7.07246826171875,0.0436532637655735,-0.011732176309917122,-0.008317490761913359
1772806924921399300,7.0823994140625,0.03347556862235069,-0.013238270023930817,-0.019916615276690572
1772806924931331300,7.092331298828125,0.02000584619641304,-0.016585607690457253,-0.013049085861071943
1772806924941263400,7.102263427734375,0.0466378325343132,-0.013295352239720523,0.004944607662176713
1772806924951195400,7.1121953125,0.036009471014142036,-0.006279683057684451,0.0014410747869405894
1772806924961126400,7.12212646484375,0.042890462699532506,-0.004197926613874733,0.007176211772300303
1772806924971058400,7.132058349609375,0.030618425625562665,-0.01727843052651733,0.0023608473798260093
1772806924980990500,7.141990478515625,0.033307226318120955,-0.0058340764483436934,0.00845609551500529
1772806924990922500,7.151922607421875,0.021932430344820023,-0.013832582655269652,0.005186289197253063
1772806925000853200,7.161853271484375,0.021631986093521117,-0.02484406174151227,0.0021910255045630034
1772806925010785300,7.171785400390625,0.036594577425718304,0.003323153073340654,-0.006756123196706176
1772806925020717300,7.18171728515625,0.044075288569927214,-0.007365121940523385,-0.009822735092556104
1772806925030649300,7.1916494140625,0.03464578144550323,-0.010446611745096743,-0.025452832156466317
1772806925040580400,7.201580322265625,0.02327273903787136,-0.008335884935129434,-0.022694509891653433
1772806925050512400,7.211512451171875,0.022821488139033317,0.005961812747549265,-0.04393080206532031
1772806925060444400,7.2214443359375,0.04377016814351081,0.010518142611347139,-0.04104042351921089
1772806925070376400,7.23137646484375,0.04287234252095222,0.006183584005758166,-0.0236782419656869
1772806925080307500,7.241307373046875,0.036436756515502926,-0.004222458266932517,0.004373191849235445
1772806925090239200,7.2512392578125,0.05379413402974605,-0.006719060855638235,0.01298385687144473
1772806925100171300,7.261171142578125,0.013241758888959884,0.007044566482957452,0.02699865509266965
1772806925110103300,7.271103271484375,0.041076691275835034,0.007966759361792355,0.015511347788758576
1772806925120034600,7.28103466796875,0.028505378994345663,0.012363058091979472,0.015155401357403024
1772806925129966600,7.290966552734375,0.042866497302055356,0.012812975550256669,0.0026120821945369243
1772806925139898400,7.3008984375,0.035382863548398015,0.005367171322647482,-0.010140870264172553
1772806925149830400,7.310830322265625,0.029848610296845435,0.008895144519396126,-0.007213803836330771
1772806925159761400,7.320761474609375,0.035386370679736136,0.008170775767602025,-0.02018287413059734
1772806925169693400,7.330693359375,0.03014905454814434,-0.0038007257235236464,-0.0038563283682800827
1772806925179625200,7.340625244140625,0.031493454894423484,-0.004289660017937421,-0.010765294905984773
1772806925189557200,7.35055712890625,0.031192426121234892,0.00028024171348661184,0.003771627493202686
1772806925199488500,7.360488525390625,0.02371054593324661,0.006278641878068447,-0.023185937537252902
1772806925209420500,7.370420654296875,0.030444238102436065,0.0004384279498830437,-0.011236839674180373
1772806925219352600,7.3803525390625,0.026102994027733802,-0.00992454236606136,-0.008038363293278962
1772806925229284400,7.390284423828125,0.031043373039364813,-0.012238372266385704,-0.011424434668151661
1772806925239215400,7.40021533203125,0.015484569379687308,-0.029449582775589078,-0.020096483621932566
1772806925249147400,7.4101474609375,0.02536532740294933,-0.02106562091503292,-0.0013565017760265618
1772806925259079400,7.420079345703125,0.04811199674010277,-0.027576062254980205,-0.0022544095969758925
1772806925269011500,7.430011474609375,0.03135200059711933,-0.00910506094302982,-0.006130511244805529
1772806925278942500,7.4399423828125,0.036140988439321516,-0.016017014022264627,0.001094562904210761
1772806925288874500,7.44987451171875,0.041676995256543156,-0.012823643074743448,-0.006299255407834425
1772806925298806500,7.459806640625,0.029556933873891827,-0.0004281988168135285,0.027167810247652233
1772806925308738600,7.469738525390625,0.03928104003071785,0.008369294014386833,0.02073063507331535
1772806925318669300,7.47966943359375,0.02850245638489723,0.01260073930537328,0.016240821973932906
1772806925328601300,7.489601318359375,0.03478489765524864,0.00803982459800318,0.011491042764112353
1772806925338533400,7.499533447265625,0.035379356417059894,0.01802776932278648,-0.025410344721609725
1772806925348465400,7.50946533203125,0.04406126004457474,0.020771661203447728,-0.022485232788836584
1772806925358396400,7.519396484375,0.025358897662162778,0.024327125195320695,-0.03731216024369932
1772806925368328400,7.529328369140625,0.03642857320904731,0.018651454179082063,-0.018680378879467024
1772806925378260500,7.539260498046875,0.027001988694071766,0.0008216003148816526,-0.004121646507270634
1772806925388192500,7.549192626953125,0.04511106135845184,0.011600220493320375,0.006495307702897116
1772806925398123300,7.559123291015625,0.030465280890464783,0.009022935617528855,0.008592654441483319
1772806925408055300,7.56905517578125,-0.0064472764432430265,-0.005945300004165619,-0.04610337859774008
1772806925417987300,7.5789873046875,-0.0416010074108839,-0.000923014862742275,-0.056250002749264234
1772806925427919400,7.58891943359375,0.16760288403928278,-0.015216255566012114,0.07170373403269331
1772806925437849900,7.598849853515625,0.005104045140743255,-0.0058795960905030364,-0.05487491957035381
1772806925447782000,7.608781982421875,0.042055765441060065,-0.006707863608188927,0.0025373638573568313
1772806925457714000,7.6187138671875,0.08259995727539061,-0.033038949037063864,0.00711963644658681
1772806925467646000,7.62864599609375,0.021990298011898994,-0.05580810420066118,-0.01932358585356269
1772806925477576700,7.63857666015625,0.02991290770471096,-0.0512503860973753,0.00783474874626845
1772806925487508700,7.6485087890625,0.04754442598521709,-0.0515706858266145,0.001285354502266273
1772806925497440800,7.658440673828125,0.09360124376118183,-0.01932854972304776,0.03507802624977194
1772806925507372800,7.668372802734375,0.03479483452737331,0.009873908157367259,0.00346415071291849
1772806925517304000,7.678303955078125,-0.03940203606188297,0.023745251920446752,-0.06370867559160105
