time,seconds_elapsed,z,y,x
1772806917900894200,0.061894287109375,-0.996368408203125,-0.0234832763671875,-0.0124359130859375
1772806917910826200,0.071826171875,-0.9954986572265625,-0.025634765625,-0.010589599609375
1772806917920758300,0.08175830078125,-0.9969329833984375,-0.0253448486328125,-0.009552001953125
1772806917930689000,0.09168896484375,-0.9961395263671875,-0.024078369140625,-0.0086517333984375
1772806917940621000,0.10162109375,-0.997039794921875,-0.0237579345703125,-0.0107421875
1772806917950553000,0.111552978515625,-0.99591064453125,-0.0245361328125,-0.010955810546875
1772806917960485000,0.121485107421875,-0.99725341796875,-0.0235748291015625,-0.01104736328125
1772806917970416400,0.13141650390625,-0.9959716796875,-0.0223846435546875,-0.01031494140625
1772806917980348200,0.14134814453125,-0.9949188232421875,-0.0208587646484375,-0.009674072265625
1772806917990280200,0.1512802734375,-0.99652099609375,-0.0212554931640625,-0.0089874267578125
1772806918000212200,0.161212158203125,-0.996551513671875,-0.021575927734375,-0.010101318359375
1772806918010143200,0.171143310546875,-0.9962310791015625,-0.022064208984375,-0.007904052734375
1772806918020075300,0.1810751953125,-0.9967498779296875,-0.0224456787109375,-0.0096588134765625
1772806918030007000,0.191007080078125,-0.9945068359375,-0.0215606689453125,-0.01171875
1772806918039939000,0.20093896484375,-0.993896484375,-0.024871826171875,-0.0115814208984375
1772806918049870300,0.210870361328125,-0.996246337890625,-0.0237884521484375,-0.0114898681640625
1772806918059802400,0.22080224609375,-0.995697021484375,-0.0244293212890625,-0.0113525390625
1772806918069734100,0.230734130859375,-0.99652099609375,-0.0232086181640625,-0.0110015869140625
1772806918079666200,0.240666259765625,-0.9948577880859375,-0.022216796875,-0.0095672607421875
1772806918089597200,0.25059716796875,-0.9965057373046875,-0.023468017578125,-0.008819580078125
1772806918099529200,0.260529296875,-0.9964141845703125,-0.0246429443359375,-0.0091552734375
1772806918109461200,0.270461181640625,-0.99566650390625,-0.0225372314453125,-0.0087890625
1772806918119393000,0.28039306640625,-0.99761962890625,-0.023040771484375,-0.012359619140625
1772806918129325000,0.290324951171875,-0.99627685546875,-0.0238800048828125,-0.01043701171875
1772806918139256300,0.30025634765625,-0.996429443359375,-0.0230865478515625,-0.0105743408203125
1772806918149188400,0.310188232421875,-0.996337890625,-0.02099609375,-0.011474609375
1772806918159120400,0.320120361328125,-0.995208740234375,-0.022247314453125,-0.0093536376953125
1772806918169052200,0.33005224609375,-0.9976043701171875,-0.0228729248046875,-0.009765625
1772806918178983200,0.339983154296875,-0.9958038330078125,-0.023284912109375,-0.00958251953125
1772806918188915200,0.349915283203125,-0.99456787109375,-0.023040771484375,-0.012054443359375
1772806918198847200,0.35984716796875,-0.9969940185546875,-0.022613525390625,-0.0113677978515625
1772806918208779000,0.369779052734375,-0.9954376220703125,-0.0223236083984375,-0.010498046875
1772806918218710300,0.379710205078125,-0.9955902099609375,-0.024200439453125,-0.011749267578125
1772806918228642300,0.389642333984375,-0.9964447021484375,-0.0228271484375,-0.0102996826171875
1772806918238574300,0.39957421875,-0.9947662353515625,-0.023040771484375,-0.008575439453125
1772806918248505000,0.409505126953125,-0.9960174560546875,-0.0225677490234375,-0.009368896484375
1772806918258437000,0.41943701171875,-1.004180908203125,-0.0224609375,-0.0137481689453125
1772806918268369200,0.429369140625,-0.9942626953125,-0.024200439453125,-0.0086517333984375
1772806918278301200,0.43930126953125,-0.993408203125,-0.0227508544921875,-0.0091094970703125
1772806918288233200,0.449233154296875,-0.998504638671875,-0.0238037109375,-0.009979248046875
1772806918298164200,0.459164306640625,-0.99652099609375,-0.022216796875,-0.0074005126953125
1772806918308096300,0.46909619140625,-0.99468994140625,-0.0230865478515625,-0.0084228515625
1772806918318028300,0.4790283203125,-0.996978759765625,-0.02252197265625,-0.010772705078125
1772806918327960300,0.488960205078125,-0.9962615966796875,-0.021636962890625,-0.0087738037109375
1772806918337891000,0.49889111328125,-0.996612548828125,-0.023101806640625,-0.0102691650390625
1772806918347823000,0.508822998046875,-0.9958953857421875,-0.0231781005859375,-0.0103302001953125
1772806918357755100,0.518755126953125,-0.9962158203125,-0.02374267578125,-0.0111541748046875
1772806918367687200,0.528687255859375,-0.9965362548828125,-0.0238494873046875,-0.0096282958984375
1772806918377618400,0.538618408203125,-0.9949798583984375,-0.0234375,-0.00970458984375
1772806918387550200,0.54855029296875,-0.9945220947265625,-0.0232086181640625,-0.0093994140625
1772806918397482200,0.558482177734375,-0.996063232421875,-0.0241851806640625,-0.0088348388671875
1772806918407414300,0.568414306640625,-0.9973602294921875,-0.02496337890625,-0.010650634765625
1772806918417345300,0.57834521484375,-0.9971923828125,-0.0246429443359375,-0.010528564453125
1772806918427277600,0.588277587890625,-0.9964141845703125,-0.0236968994140625,-0.0089263916015625
1772806918437209600,0.598209716796875,-0.9952850341796875,-0.0232696533203125,-0.00970458984375
1772806918447141600,0.6081416015625,-0.996063232421875,-0.0224456787109375,-0.0101318359375
1772806918457072400,0.618072265625,-0.9962005615234375,-0.0222625732421875,-0.00958251953125
1772806918467004400,0.62800439453125,-0.9969940185546875,-0.0230560302734375,-0.0097198486328125
1772806918476936700,0.637936767578125,-0.997314453125,-0.0236053466796875,-0.0089874267578125
1772806918486868700,0.64786865234375,-0.99749755859375,-0.0233001708984375,-0.008636474609375
1772806918496799700,0.6577998046875,-0.9958953857421875,-0.02386474609375,-0.009735107421875
1772806918506731500,0.6677314453125,-0.99615478515625,-0.023773193359375,-0.0100860595703125
1772806918516663600,0.67766357421875,-0.995574951171875,-0.02374267578125,-0.0099029541015625
1772806918526595600,0.687595703125,-0.9957122802734375,-0.0236968994140625,-0.00909423828125
1772806918536526600,0.697526611328125,-0.9957733154296875,-0.023193359375,-0.00994873046875
1772806918546458400,0.707458251953125,-0.996826171875,-0.02301025390625,-0.01031494140625
1772806918556390400,0.717390380859375,-0.99609375,-0.0243377685546875,-0.010986328125
1772806918566322700,0.72732275390625,-0.9965057373046875,-0.0233154296875,-0.0104827880859375
1772806918576253700,0.737253662109375,-0.9975433349609375,-0.022979736328125,-0.009429931640625
1772806918586185700,0.747185791015625,-0.9946136474609375,-0.0238189697265625,-0.0095367431640625
1772806918596117500,0.757117431640625,-0.995513916015625,-0.0224609375,-0.0096588134765625
1772806918606049500,0.767049560546875,-0.9947357177734375,-0.02313232421875,-0.0096588134765625
1772806918615980500,0.77698046875,-0.996612548828125,-0.02276611328125,-0.0099334716796875
1772806918625912600,0.78691259765625,-0.9954071044921875,-0.022552490234375,-0.0095672607421875
1772806918635844600,0.7968447265625,-0.996185302734375,-0.0229339599609375,-0.011627197265625
1772806918645776400,0.8067763671875,-0.99505615234375,-0.023834228515625,-0.0111541748046875
1772806918655707600,0.816707763671875,-0.993988037109375,-0.0225067138671875,-0.0117340087890625
1772806918665639700,0.8266396484375,-0.993316650390625,-0.0231170654296875,-0.0109710693359375
1772806918675571700,0.83657177734375,-0.995758056640625,-0.0232391357421875,-0.0099639892578125
1772806918685503500,0.84650341796875,-0.995361328125,-0.0238494873046875,-0.0108642578125
1772806918695434500,0.8564345703125,-0.9962615966796875,-0.024444580078125,-0.010162353515625
1772806918705366500,0.866366455078125,-0.9954681396484375,-0.02392578125,-0.0089111328125
1772806918715298600,0.876298583984375,-0.996368408203125,-0.0233306884765625,-0.00799560546875
1772806918725230600,0.886230712890625,-0.99664306640625,-0.023101806640625,-0.00982666015625
1772806918735161600,0.89616162109375,-0.9956207275390625,-0.0228424072265625,-0.0109710693359375
1772806918745093600,0.90609375,-0.9954071044921875,-0.0231781005859375,-0.0101776123046875
1772806918755025700,0.916025634765625,-0.9967803955078125,-0.0227508544921875,-0.010772705078125
1772806918764957700,0.925957763671875,-0.9960479736328125,-0.0243072509765625,-0.0108795166015625
1772806918774888400,0.935888427734375,-0.99591064453125,-0.0240020751953125,-0.010009765625
1772806918784820500,0.945820556640625,-0.9957275390625,-0.024566650390625,-0.0112152099609375
1772806918794752500,0.95575244140625,-0.9964447021484375,-0.0243377685546875,-0.01019287109375
1772806918804684500,0.9656845703125,-0.9955902099609375,-0.023468017578125,-0.0096893310546875
1772806918814615600,0.975615478515625,-0.9958038330078125,-0.0239410400390625,-0.009857177734375
1772806918824547600,0.985547607421875,-0.9966278076171875,-0.0219573974609375,-0.0084686279296875
1772806918834479600,0.995479736328125,-0.997833251953125,-0.02215576171875,-0.0099639892578125
1772806918844411600,1.00541162109375,-0.99542236328125,-0.0240936279296875,-0.0103302001953125
1772806918854342700,1.0153427734375,-0.996429443359375,-0.0228729248046875,-0.011505126953125
1772806918864274400,1.0252744140625,-0.995849609375,-0.022491455078125,-0.011962890625
1772806918874206500,1.03520654296875,-0.996429443359375,-0.0228271484375,-0.008514404296875
1772806918884138500,1.045138427734375,-0.9966278076171875,-0.02398681640625,-0.01055908203125
1772806918894069800,1.05506982421875,-0.9969024658203125,-0.0234222412109375,-0.0101165771484375
1772806918904001500,1.06500146484375,-0.99603271484375,-0.0236968994140625,-0.0087890625
1772806918913933600,1.07493359375,-0.994354248046875,-0.0236358642578125,-0.0104522705078125
1772806918923865600,1.084865478515625,-0.9962310791015625,-0.0236358642578125,-0.010040283203125
1772806918933797600,1.094797607421875,-0.99652099609375,-0.0230255126953125,-0.0110931396484375
1772806918943728600,1.104728759765625,-0.9967803955078125,-0.0229339599609375,-0.010833740234375
1772806918953660400,1.114660400390625,-0.9962615966796875,-0.0236358642578125,-0.009307861328125
1772806918963592400,1.124592529296875,-0.997100830078125,-0.0236968994140625,-0.0112152099609375
1772806918973524500,1.1345244140625,-0.994842529296875,-0.02264404296875,-0.0090789794921875
1772806918983455700,1.144455810546875,-0.9955902099609375,-0.0231170654296875,-0.009918212890625
1772806918993387800,1.1543876953125,-0.995208740234375,-0.022308349609375,-0.011749267578125
1772806919003319600,1.164319580078125,-0.99560546875,-0.0219268798828125,-0.0087432861328125
1772806919013251600,1.17425146484375,-0.996551513671875,-0.0197296142578125,-0.00970458984375
1772806919023182600,1.1841826171875,-0.9968109130859375,-0.0223388671875,-0.0108795166015625
1772806919033114600,1.194114501953125,-0.996429443359375,-0.0225677490234375,-0.010894775390625
1772806919043046400,1.20404638671875,-0.996490478515625,-0.0214385986328125,-0.009429931640625
1772806919052978400,1.213978515625,-0.997406005859375,-0.022857666015625,-0.0099334716796875
1772806919062909700,1.22390966796875,-0.9956817626953125,-0.0213470458984375,-0.0115814208984375
1772806919072841700,1.233841796875,-0.9959564208984375,-0.0222625732421875,-0.011138916015625
1772806919082773800,1.243773681640625,-0.99700927734375,-0.0234222412109375,-0.0110931396484375
1772806919092705500,1.25370556640625,-0.9950714111328125,-0.0229644775390625,-0.01251220703125
1772806919102636500,1.263636474609375,-0.99609375,-0.0235595703125,-0.00830078125
1772806919112568600,1.273568603515625,-0.997222900390625,-0.0254364013671875,-0.0097503662109375
1772806919122500600,1.28350048828125,-0.9975738525390625,-0.0249786376953125,-0.00933837890625
1772806919132432600,1.2934326171875,-0.9962158203125,-0.0256805419921875,-0.008514404296875
1772806919142363600,1.30336376953125,-0.9961395263671875,-0.025482177734375,-0.0114288330078125
1772806919152295700,1.313295654296875,-0.99542236328125,-0.0252838134765625,-0.010101318359375
1772806919162227700,1.323227783203125,-0.995452880859375,-0.0250244140625,-0.0111846923828125
1772806919172159700,1.33315966796875,-0.9969024658203125,-0.0248565673828125,-0.0091705322265625
1772806919182090500,1.343090576171875,-0.9966583251953125,-0.0248260498046875,-0.0062103271484375
1772806919192022500,1.3530224609375,-0.996002197265625,-0.0250396728515625,-0.0082855224609375
1772806919201954600,1.36295458984375,-0.9962615966796875,-0.0242767333984375,-0.0090179443359375
1772806919211886600,1.372886474609375,-0.995574951171875,-0.0228729248046875,-0.011138916015625
1772806919221817600,1.382817626953125,-0.996185302734375,-0.02313232421875,-0.011383056640625
1772806919231749600,1.39274951171875,-0.997100830078125,-0.0239715576171875,-0.010467529296875
1772806919241681700,1.402681640625,-0.9967193603515625,-0.0245361328125,-0.0112457275390625
1772806919251613700,1.41261376953125,-0.995941162109375,-0.0236053466796875,-0.010345458984375
1772806919261544700,1.422544677734375,-0.9949798583984375,-0.0242767333984375,-0.0085906982421875
1772806919271476500,1.4324765625,-0.997589111328125,-0.0244140625,-0.010009765625
1772806919281408500,1.442408447265625,-0.9942474365234375,-0.023529052734375,-0.0098876953125
1772806919291340500,1.452340576171875,-0.996337890625,-0.0237274169921875,-0.0109405517578125
1772806919301271600,1.462271484375,-0.9956817626953125,-0.02508544921875,-0.0112762451171875
1772806919311203600,1.47220361328125,-0.9949188232421875,-0.0254669189453125,-0.009918212890625
1772806919321135600,1.482135498046875,-0.99615478515625,-0.024688720703125,-0.00885009765625
1772806919331067600,1.492067626953125,-0.9967803955078125,-0.026153564453125,-0.00836181640625
1772806919340998700,1.50199853515625,-0.995147705078125,-0.0261077880859375,-0.0063018798828125
1772806919350930700,1.5119306640625,-0.99658203125,-0.027069091796875,-0.0079193115234375
1772806919360862500,1.521862548828125,-0.9971466064453125,-0.026641845703125,-0.010101318359375
1772806919370794500,1.53179443359375,-0.9942474365234375,-0.025726318359375,-0.011138916015625
1772806919380725500,1.5417255859375,-0.995330810546875,-0.0257568359375,-0.0102996826171875
1772806919390657500,1.551657470703125,-0.99517822265625,-0.0277862548828125,-0.0085296630859375
1772806919400589800,1.56158984375,-0.99578857421875,-0.02606201171875,-0.009246826171875
1772806919410521600,1.571521484375,-0.998992919921875,-0.0260162353515625,-0.009490966796875
1772806919420452600,1.58145263671875,-0.9949188232421875,-0.0248870849609375,-0.0088653564453125
1772806919430384600,1.591384521484375,-0.9972076416015625,-0.0232086181640625,-0.0114593505859375
1772806919440316700,1.601316650390625,-0.9967193603515625,-0.021514892578125,-0.010833740234375
1772806919450248400,1.61124853515625,-0.9958343505859375,-0.0224609375,-0.011627197265625
1772806919460179500,1.621179443359375,-0.99603271484375,-0.02142333984375,-0.0119476318359375
1772806919470111500,1.631111572265625,-0.99688720703125,-0.0204315185546875,-0.0095367431640625
1772806919480043800,1.641043701171875,-0.9962921142578125,-0.02069091796875,-0.0094757080078125
1772806919489975800,1.650975830078125,-0.996246337890625,-0.020538330078125,-0.007049560546875
1772806919499906600,1.660906494140625,-0.9970245361328125,-0.0193023681640625,-0.010772705078125
1772806919509838600,1.670838623046875,-0.995880126953125,-0.02001953125,-0.0116424560546875
1772806919519770600,1.6807705078125,-0.996490478515625,-0.019439697265625,-0.0121917724609375
1772806919529702700,1.69070263671875,-0.996368408203125,-0.0200347900390625,-0.0124053955078125
1772806919539633400,1.70063330078125,-0.9960784912109375,-0.021514892578125,-0.0098876953125
1772806919549565400,1.7105654296875,-0.9949188232421875,-0.0227813720703125,-0.008697509765625
1772806919559497500,1.72049755859375,-0.9970550537109375,-0.0222930908203125,-0.0082244873046875
1772806919569429800,1.7304296875,-0.9944000244140625,-0.0232696533203125,-0.0085601806640625
1772806919579360500,1.740360595703125,-0.996063232421875,-0.0225982666015625,-0.010528564453125
1772806919589292500,1.75029248046875,-0.9974212646484375,-0.0229644775390625,-0.00994873046875
1772806919599224600,1.760224609375,-0.99468994140625,-0.0230560302734375,-0.010650634765625
1772806919609156600,1.770156494140625,-0.995635986328125,-0.024505615234375,-0.0102386474609375
1772806919619087600,1.780087646484375,-0.997100830078125,-0.0241851806640625,-0.0104522705078125
1772806919629019400,1.790019287109375,-0.9974365234375,-0.02301025390625,-0.0108642578125
1772806919638951400,1.799951416015625,-0.9953765869140625,-0.023773193359375,-0.0093536376953125
1772806919648883500,1.809883544921875,-0.9961395263671875,-0.0241546630859375,-0.0092620849609375
1772806919658814700,1.819814697265625,-0.9962615966796875,-0.0247039794921875,-0.010162353515625
1772806919668746500,1.82974658203125,-0.9966583251953125,-0.022491455078125,-0.011566162109375
1772806919678678500,1.839678466796875,-0.9962005615234375,-0.024139404296875,-0.01019287109375
1772806919688610600,1.849610595703125,-0.99652099609375,-0.023712158203125,-0.0082550048828125
1772806919698541600,1.85954150390625,-0.996368408203125,-0.0228424072265625,-0.0092010498046875
1772806919708473600,1.8694736328125,-0.9961700439453125,-0.0233306884765625,-0.0081634521484375
1772806919718405400,1.8794052734375,-0.99578857421875,-0.023193359375,-0.0074005126953125
1772806919728337400,1.88933740234375,-0.99530029296875,-0.0242462158203125,-0.01068115234375
1772806919738268700,1.8992685546875,-0.9971160888671875,-0.023773193359375,-0.011444091796875
1772806919748200700,1.90920068359375,-0.9969635009765625,-0.0232086181640625,-0.011627197265625
1772806919758132700,1.9191328125,-0.9952850341796875,-0.023895263671875,-0.011688232421875
1772806919768064500,1.929064453125,-0.996429443359375,-0.023834228515625,-0.010101318359375
1772806919777995500,1.93899560546875,-0.9973907470703125,-0.0239715576171875,-0.0099639892578125
1772806919787927600,1.948927490234375,-0.99591064453125,-0.0243988037109375,-0.0087432861328125
1772806919797859600,1.958859619140625,-0.996246337890625,-0.0251312255859375,-0.0073699951171875
1772806919807791400,1.968791259765625,-0.995361328125,-0.0236968994140625,-0.0088348388671875
1772806919817722600,1.97872265625,-0.9968109130859375,-0.02294921875,-0.0129852294921875
1772806919827654700,1.988654541015625,-0.9969024658203125,-0.02392578125,-0.010345458984375
1772806919837586700,1.998586669921875,-0.995635986328125,-0.0243682861328125,-0.0074310302734375
1772806919847518700,2.008518798828125,-0.995574951171875,-0.0236968994140625,-0.008331298828125
1772806919857449500,2.018449462890625,-0.9957275390625,-0.024139404296875,-0.0081329345703125
1772806919867381500,2.028381591796875,-0.9969024658203125,-0.0240631103515625,-0.0097808837890625
1772806919877313500,2.0383134765625,-0.9969024658203125,-0.0243682861328125,-0.0109710693359375
1772806919887245600,2.04824560546875,-0.9957122802734375,-0.023590087890625,-0.0115814208984375
1772806919897176600,2.058176513671875,-0.9953765869140625,-0.023773193359375,-0.01080322265625
1772806919907108600,2.068108642578125,-0.9954681396484375,-0.023681640625,-0.010406494140625
1772806919917040600,2.07804052734375,-0.9947357177734375,-0.0236968994140625,-0.00994873046875
1772806919926972700,2.08797265625,-0.9959716796875,-0.023101806640625,-0.00946044921875
1772806919936903400,2.0979033203125,-0.9964599609375,-0.02349853515625,-0.009521484375
1772806919946835500,2.10783544921875,-0.996551513671875,-0.0229339599609375,-0.0092315673828125
1772806919956767500,2.117767578125,-0.9962005615234375,-0.0224761962890625,-0.0108489990234375
1772806919966699500,2.127699462890625,-0.996429443359375,-0.02276611328125,-0.0115509033203125
1772806919976630800,2.137630859375,-0.9974822998046875,-0.0242919921875,-0.0112152099609375
1772806919986562600,2.1475625,-0.9967041015625,-0.0230560302734375,-0.0105743408203125
1772806919996494600,2.15749462890625,-0.9959869384765625,-0.02392578125,-0.0110931396484375
1772806920006426600,2.167426513671875,-0.995513916015625,-0.024139404296875,-0.0096588134765625
1772806920016357600,2.177357666015625,-0.995819091796875,-0.0243988037109375,-0.008819580078125
1772806920026289700,2.18728955078125,-0.997222900390625,-0.0245513916015625,-0.011505126953125
1772806920036221400,2.197221435546875,-0.9950714111328125,-0.0241546630859375,-0.00958251953125
1772806920046153500,2.207153564453125,-0.995697021484375,-0.023773193359375,-0.012542724609375
1772806920056084700,2.217084716796875,-0.99664306640625,-0.023895263671875,-0.0112457275390625
1772806920066016800,2.227016845703125,-0.9962615966796875,-0.0229644775390625,-0.00933837890625
1772806920075948500,2.236948486328125,-0.996307373046875,-0.0238494873046875,-0.0096588134765625
1772806920085880600,2.246880615234375,-0.9962615966796875,-0.023223876953125,-0.010040283203125
1772806920095811600,2.2568115234375,-0.9959564208984375,-0.022857666015625,-0.009307861328125
1772806920105743600,2.26674365234375,-0.9953765869140625,-0.0210418701171875,-0.0098419189453125
1772806920115675600,2.276675537109375,-0.9970245361328125,-0.0219268798828125,-0.0115509033203125
1772806920125607400,2.286607421875,-0.995758056640625,-0.022369384765625,-0.0103302001953125
1772806920135539500,2.29653955078125,-0.99609375,-0.0215301513671875,-0.0107879638671875
1772806920145470700,2.306470703125,-0.99530029296875,-0.0216827392578125,-0.008941650390625
1772806920155402800,2.31640283203125,-0.9971160888671875,-0.023223876953125,-0.009765625
1772806920165334800,2.326334716796875,-0.9949798583984375,-0.022247314453125,-0.00958251953125
1772806920175265500,2.336265625,-0.9955902099609375,-0.0223236083984375,-0.0105133056640625
1772806920185197600,2.346197509765625,-0.9954833984375,-0.0243682861328125,-0.0091705322265625
1772806920195129600,2.356129638671875,-0.9953155517578125,-0.0234832763671875,-0.0102691650390625
1772806920205061600,2.3660615234375,-0.996826171875,-0.0244140625,-0.01104736328125
1772806920214992600,2.37599267578125,-0.996124267578125,-0.025390625,-0.0090179443359375
1772806920224924700,2.385924560546875,-0.9982452392578125,-0.025848388671875,-0.0089569091796875
1772806920234856700,2.395856689453125,-0.995513916015625,-0.023223876953125,-0.0098876953125
1772806920244788700,2.405788818359375,-0.99615478515625,-0.0256195068359375,-0.0106353759765625
1772806920254719500,2.415719482421875,-0.9964752197265625,-0.024078369140625,-0.0083160400390625
1772806920264651500,2.425651611328125,-0.99658203125,-0.0231475830078125,-0.01123046875
1772806920274583600,2.43558349609375,-0.9962921142578125,-0.0222930908203125,-0.01068115234375
1772806920284515600,2.445515625,-0.9971923828125,-0.0231170654296875,-0.0107879638671875
1772806920294446600,2.455446533203125,-0.9966583251953125,-0.022369384765625,-0.0092620849609375
1772806920304378600,2.465378662109375,-0.9962158203125,-0.02203369140625,-0.0103607177734375
1772806920314310700,2.475310546875,-0.996978759765625,-0.0233917236328125,-0.0099029541015625
1772806920324242700,2.48524267578125,-0.996856689453125,-0.023162841796875,-0.008270263671875
1772806920334173700,2.495173583984375,-0.996490478515625,-0.0213623046875,-0.008819580078125
1772806920344105500,2.50510546875,-0.9973602294921875,-0.02252197265625,-0.0111541748046875
1772806920354037500,2.51503759765625,-0.9976959228515625,-0.0232086181640625,-0.0107879638671875
1772806920363969500,2.524969482421875,-0.99688720703125,-0.02294921875,-0.009124755859375
1772806920373901600,2.534901611328125,-0.9962921142578125,-0.0222625732421875,-0.009552001953125
1772806920383832600,2.54483251953125,-0.9960784912109375,-0.023223876953125,-0.0080718994140625
1772806920393764600,2.5547646484375,-0.99700927734375,-0.0238037109375,-0.0076446533203125
1772806920403696600,2.564696533203125,-0.994964599609375,-0.022979736328125,-0.0088348388671875
1772806920413628700,2.574628662109375,-0.9967803955078125,-0.0250701904296875,-0.0119476318359375
1772806920423559700,2.5845595703125,-0.9953765869140625,-0.02362060546875,-0.0118408203125
1772806920433492000,2.594491943359375,-0.99542236328125,-0.0237884521484375,-0.01031494140625
1772806920443423700,2.604423828125,-0.9967193603515625,-0.0236053466796875,-0.010528564453125
1772806920453355800,2.614355712890625,-0.9967193603515625,-0.024383544921875,-0.01104736328125
1772806920463286800,2.624286865234375,-0.99456787109375,-0.0227508544921875,-0.009674072265625
1772806920473218800,2.63421875,-0.9953765869140625,-0.0227203369140625,-0.0094757080078125
1772806920483150800,2.64415087890625,-0.995758056640625,-0.022735595703125,-0.01019287109375
1772806920493083000,2.654082763671875,-0.9976806640625,-0.024505615234375,-0.00970458984375
1772806920503014000,2.664013916015625,-0.9964752197265625,-0.0232086181640625,-0.0100555419921875
1772806920512946000,2.67394580078125,-0.9952392578125,-0.0229644775390625,-0.01043701171875
1772806920522878000,2.6838779296875,-0.9960174560546875,-0.02349853515625,-0.0108795166015625
1772806920532808700,2.69380859375,-0.9962005615234375,-0.0220489501953125,-0.0106658935546875
1772806920542740700,2.70374072265625,-0.9949188232421875,-0.02294921875,-0.0100555419921875
1772806920552672800,2.7136728515625,-0.9945526123046875,-0.023284912109375,-0.0108795166015625
1772806920562604800,2.723604736328125,-0.9951934814453125,-0.02313232421875,-0.0105743408203125
1772806920572536800,2.733536865234375,-0.9955902099609375,-0.0229949951171875,-0.01055908203125
1772806920582467800,2.7434677734375,-0.9959716796875,-0.023712158203125,-0.0097198486328125
1772806920592400000,2.75339990234375,-0.9953460693359375,-0.023101806640625,-0.0098114013671875
1772806920602332000,2.763331787109375,-0.9968109130859375,-0.0229644775390625,-0.0092315673828125
1772806920612264000,2.773263916015625,-0.9971466064453125,-0.0239105224609375,-0.0087127685546875
1772806920622194700,2.783194580078125,-0.995513916015625,-0.0232391357421875,-0.0082244873046875
1772806920632126700,2.793126708984375,-0.996490478515625,-0.0229339599609375,-0.0099334716796875
1772806920642058800,2.803058837890625,-0.9962005615234375,-0.0225830078125,-0.012939453125
1772806920651990800,2.81299072265625,-0.9955902099609375,-0.0238037109375,-0.01226806640625
1772806920661921800,2.822921875,-0.9955291748046875,-0.024078369140625,-0.0137176513671875
1772806920671853800,2.832853759765625,-0.99688720703125,-0.0245361328125,-0.0118408203125
1772806920681785900,2.842785888671875,-0.996429443359375,-0.024627685546875,-0.0095367431640625
1772806920691718000,2.8527177734375,-0.995880126953125,-0.0226593017578125,-0.0085296630859375
1772806920701649000,2.86264892578125,-0.9964752197265625,-0.024444580078125,-0.00677490234375
1772806920711580700,2.87258056640625,-0.995452880859375,-0.02423095703125,-0.0087890625
1772806920721512700,2.8825126953125,-0.9961090087890625,-0.0240325927734375,-0.009552001953125
1772806920731444700,2.89244482421875,-0.99615478515625,-0.0253448486328125,-0.009521484375
1772806920741376000,2.9023759765625,-0.99639892578125,-0.0230865478515625,-0.010894775390625
1772806920751307800,2.912307861328125,-0.996612548828125,-0.0243377685546875,-0.01068115234375
1772806920761239800,2.92223974609375,-0.9966888427734375,-0.023773193359375,-0.012420654296875
1772806920771171800,2.932171875,-0.9968109130859375,-0.0230865478515625,-0.0095062255859375
1772806920781102800,2.942102783203125,-0.9958648681640625,-0.022003173828125,-0.00982666015625
1772806920791035000,2.952034912109375,-0.9957427978515625,-0.021453857421875,-0.009429931640625
1772806920800966700,2.961966552734375,-0.99603271484375,-0.021759033203125,-0.009979248046875
1772806920810898700,2.971898681640625,-0.9972076416015625,-0.021209716796875,-0.010162353515625
1772806920820830000,2.981829833984375,-0.995391845703125,-0.02197265625,-0.0106353759765625
1772806920830762000,2.991761962890625,-0.9961395263671875,-0.0223236083984375,-0.0101318359375
1772806920840694000,3.001694091796875,-0.99676513671875,-0.0232086181640625,-0.01068115234375
1772806920850625800,3.011625732421875,-0.9959869384765625,-0.0233917236328125,-0.01092529296875
1772806920860556800,3.021556884765625,-0.996551513671875,-0.0259246826171875,-0.0117340087890625
1772806920870488800,3.03148876953125,-0.9972076416015625,-0.0248565673828125,-0.0121002197265625
1772806920880420900,3.0414208984375,-0.9969940185546875,-0.0268707275390625,-0.011322021484375
1772806920890352600,3.0513525390625,-0.997100830078125,-0.0274658203125,-0.0102386474609375
1772806920900284000,3.061283935546875,-0.9968109130859375,-0.0266571044921875,-0.0092620849609375
1772806920910216000,3.0712158203125,-0.9960784912109375,-0.0263519287109375,-0.0069580078125
1772806920920148000,3.08114794921875,-0.99609375,-0.02508544921875,-0.007537841796875
1772806920930080000,3.091080078125,-0.997039794921875,-0.0228729248046875,-0.0093536376953125
1772806920940010800,3.1010107421875,-0.9952545166015625,-0.021820068359375,-0.009796142578125
1772806920949942800,3.11094287109375,-0.9953155517578125,-0.021087646484375,-0.0105438232421875
1772806920959874800,3.120874755859375,-0.996490478515625,-0.01947021484375,-0.0146331787109375
1772806920969806800,3.130806884765625,-0.9959716796875,-0.01849365234375,-0.0146942138671875
1772806920979737900,3.14073779296875,-0.996063232421875,-0.0185394287109375,-0.0143585205078125
1772806920989670000,3.150669921875,-0.996551513671875,-0.019378662109375,-0.0135650634765625
1772806920999602000,3.160601806640625,-0.9970245361328125,-0.019317626953125,-0.0129547119140625
1772806921009534000,3.170533935546875,-0.998077392578125,-0.02069091796875,-0.0126800537109375
1772806921019464700,3.180464599609375,-0.995452880859375,-0.0192108154296875,-0.010986328125
1772806921029396700,3.190396728515625,-0.9961700439453125,-0.0189361572265625,-0.014312744140625
1772806921039328800,3.200328857421875,-0.995635986328125,-0.017578125,-0.0186004638671875
1772806921049260800,3.2102607421875,-0.99713134765625,-0.0200347900390625,-0.01873779296875
1772806921059192000,3.220192138671875,-0.995086669921875,-0.0234832763671875,-0.01055908203125
1772806921069123800,3.230123779296875,-0.9970703125,-0.0272064208984375,-0.013275146484375
1772806921079056000,3.240055908203125,-0.99609375,-0.031280517578125,-0.0058441162109375
1772806921088988000,3.24998779296875,-0.9967498779296875,-0.03521728515625,0.00384521484375
1772806921098919000,3.2599189453125,-0.995269775390625,-0.035308837890625,0.0079345703125
1772806921108851000,3.269850830078125,-0.9984588623046875,-0.0348052978515625,0.00982666015625
1772806921118782700,3.27978271484375,-0.9903717041015625,-0.033416748046875,0.0087890625
1772806921128714800,3.28971484375,-1.0031890869140625,-0.0330352783203125,-0.0025634765625
1772806921138645800,3.299645751953125,-0.9967193603515625,-0.0316925048828125,-0.00830078125
1772806921148578000,3.309578125,-0.9894256591796875,-0.0275726318359375,-0.0125274658203125
1772806921158509800,3.319509765625,-1.003143310546875,-0.027069091796875,-0.0195770263671875
1772806921168441900,3.32944189453125,-0.99346923828125,-0.0199737548828125,-0.020721435546875
1772806921178372900,3.339372802734375,-0.9979248046875,-0.014556884765625,-0.017730712890625
1772806921188305000,3.349304931640625,-0.994873046875,-0.00799560546875,-0.0184326171875
1772806921198237000,3.35923681640625,-0.994140625,-0.0060577392578125,-0.0169677734375
1772806921208168700,3.369168701171875,-0.9950714111328125,-0.0073089599609375,-0.017974853515625
1772806921218099700,3.379099609375,-0.996978759765625,-0.0122833251953125,-0.014801025390625
1772806921228032000,3.389031982421875,-0.9955596923828125,-0.0173797607421875,-0.0108642578125
1772806921237964000,3.398964111328125,-0.9933929443359375,-0.0219268798828125,-0.0074462890625
1772806921247896000,3.40889599609375,-1.0011444091796875,-0.0259246826171875,-0.00726318359375
1772806921257826800,3.418826904296875,-0.9945831298828125,-0.0276641845703125,-0.0070037841796875
1772806921267758800,3.4287587890625,-0.9948577880859375,-0.0289306640625,-0.0099029541015625
1772806921277691000,3.43869091796875,-0.998931884765625,-0.029083251953125,-0.009490966796875
1772806921287623000,3.448622802734375,-0.993865966796875,-0.030731201171875,-0.0097503662109375
1772806921297553700,3.4585537109375,-0.995025634765625,-0.0320587158203125,-0.011199951171875
1772806921307485700,3.468485595703125,-0.9988250732421875,-0.0317535400390625,-0.011383056640625
1772806921317418000,3.47841796875,-0.9967193603515625,-0.0317535400390625,-0.0128326416015625
1772806921327350000,3.48835009765625,-0.9974822998046875,-0.02825927734375,-0.017364501953125
1772806921337280800,3.49828076171875,-0.9963836669921875,-0.0243072509765625,-0.0128021240234375
1772806921347212800,3.508212890625,-0.99420166015625,-0.021148681640625,-0.0068359375
1772806921357144800,3.518144775390625,-0.9976959228515625,-0.0186614990234375,-0.007354736328125
1772806921367076900,3.528076904296875,-0.9954986572265625,-0.016876220703125,-0.003204345703125
1772806921377007600,3.538007568359375,-0.9972381591796875,-0.016143798828125,-0.0052337646484375
1772806921386939600,3.547939697265625,-0.995269775390625,-0.0157012939453125,-0.010284423828125
1772806921396871700,3.55787158203125,-0.9962310791015625,-0.01617431640625,-0.0114593505859375
1772806921406804000,3.567803955078125,-0.99664306640625,-0.017303466796875,-0.0167083740234375
1772806921416735000,3.57773486328125,-0.9951629638671875,-0.0181121826171875,-0.0184783935546875
1772806921426666800,3.587666748046875,-0.9976806640625,-0.019500732421875,-0.01190185546875
1772806921436598000,3.597597900390625,-0.997467041015625,-0.02001953125,-0.0084381103515625
1772806921446530000,3.607530029296875,-0.99365234375,-0.0217742919921875,-0.0073089599609375
1772806921456461300,3.61746142578125,-0.995880126953125,-0.0256500244140625,-0.0042572021484375
1772806921466393000,3.62739306640625,-0.99554443359375,-0.026885986328125,-0.007049560546875
1772806921476325000,3.6373251953125,-0.9964447021484375,-0.027191162109375,-0.0100860595703125
1772806921486257200,3.647257080078125,-0.9967193603515625,-0.028839111328125,-0.01068115234375
1772806921496188200,3.657188232421875,-0.9970855712890625,-0.029388427734375,-0.0110626220703125
1772806921506120200,3.6671201171875,-0.995361328125,-0.0272674560546875,-0.010650634765625
1772806921516052000,3.677052001953125,-0.9942169189453125,-0.0273284912109375,-0.0092010498046875
1772806921525984000,3.68698388671875,-0.9984283447265625,-0.0272674560546875,-0.0108795166015625
1772806921535915300,3.696915283203125,-0.99639892578125,-0.0247344970703125,-0.0111236572265625
1772806921545847300,3.706847412109375,-0.991851806640625,-0.02313232421875,-0.0119476318359375
1772806921555779000,3.716779052734375,-0.9981842041015625,-0.02166748046875,-0.0137481689453125
1772806921565711000,3.726711181640625,-0.993743896484375,-0.0209197998046875,-0.012939453125
1772806921575642000,3.73664208984375,-0.996002197265625,-0.0213623046875,-0.011444091796875
1772806921585574100,3.74657421875,-0.998260498046875,-0.0220794677734375,-0.009246826171875
1772806921595506200,3.756506103515625,-0.9964141845703125,-0.024658203125,-0.006134033203125
1772806921605438000,3.76643798828125,-0.995819091796875,-0.024261474609375,-0.0059814453125
1772806921615369000,3.776368896484375,-0.999359130859375,-0.025146484375,-0.009490966796875
1772806921625301200,3.78630126953125,-0.9940185546875,-0.0266265869140625,-0.011993408203125
1772806921635233300,3.7962333984375,-0.998809814453125,-0.0222015380859375,-0.012054443359375
1772806921645165300,3.806165283203125,-0.9950714111328125,-0.02215576171875,-0.010040283203125
1772806921655096000,3.816095947265625,-0.995513916015625,-0.022308349609375,-0.0094451904296875
1772806921665028000,3.826028076171875,-0.9959259033203125,-0.019989013671875,-0.01153564453125
1772806921674960100,3.835960205078125,-0.995574951171875,-0.0207061767578125,-0.009185791015625
1772806921684892200,3.84589208984375,-0.9982757568359375,-0.0190887451171875,-0.0076751708984375
1772806921694823000,3.855822998046875,-0.996826171875,-0.021820068359375,-0.0086822509765625
1772806921704755000,3.8657548828125,-0.996002197265625,-0.022735595703125,-0.0090789794921875
1772806921714687200,3.875687255859375,-0.99713134765625,-0.02264404296875,-0.0103607177734375
1772806921724619300,3.885619384765625,-0.9972686767578125,-0.023956298828125,-0.0075836181640625
1772806921734550000,3.895550048828125,-0.995880126953125,-0.025238037109375,-0.0081939697265625
1772806921744482000,3.90548193359375,-0.9960174560546875,-0.0265960693359375,-0.0102386474609375
1772806921754414000,3.9154140625,-0.9982147216796875,-0.027557373046875,-0.01171875
1772806921764346000,3.92534619140625,-0.996917724609375,-0.0296173095703125,-0.0129241943359375
1772806921774276900,3.93527685546875,-0.997711181640625,-0.0284271240234375,-0.0137939453125
1772806921784209000,3.945208984375,-0.9952239990234375,-0.0276336669921875,-0.0146942138671875
1772806921794141000,3.955140869140625,-0.9964141845703125,-0.0266571044921875,-0.0160675048828125
1772806921804073200,3.9650732421875,-0.9952239990234375,-0.0229034423828125,-0.0169219970703125
1772806921814004200,3.975004150390625,-0.99652099609375,-0.0205535888671875,-0.0160064697265625
1772806921823936000,3.98493603515625,-0.9962158203125,-0.0192718505859375,-0.0113983154296875
1772806921833866200,3.9948662109375,-0.9958953857421875,-0.0191650390625,-0.00946044921875
1772806921843798300,4.00479833984375,-0.9966278076171875,-0.0190277099609375,-0.0074615478515625
1772806921853730300,4.014730224609375,-0.9960479736328125,-0.0174713134765625,-0.00555419921875
1772806921863662000,4.024662109375,-0.9958038330078125,-0.017486572265625,-0.0076904296875
1772806921873593000,4.034593017578125,-0.9959259033203125,-0.0173492431640625,-0.00555419921875
1772806921883525000,4.044525146484375,-0.996124267578125,-0.019287109375,-0.0028839111328125
1772806921893457200,4.05445703125,-0.9958038330078125,-0.022430419921875,-0.0034027099609375
1772806921903389000,4.064388916015625,-0.9972991943359375,-0.0254974365234375,-0.0037689208984375
1772806921913320200,4.0743203125,-0.995391845703125,-0.0257720947265625,-0.0078277587890625
1772806921923252200,4.084252197265625,-0.996795654296875,-0.0254974365234375,-0.01470947265625
1772806921933184300,4.094184326171875,-0.9964141845703125,-0.0242156982421875,-0.019866943359375
1772806921943116300,4.1041162109375,-0.99591064453125,-0.0249481201171875,-0.0237884521484375
1772806921953047000,4.114047119140625,-0.9948272705078125,-0.0248260498046875,-0.0185546875
1772806921962979000,4.12397900390625,-0.9965057373046875,-0.0245208740234375,-0.0132904052734375
1772806921972911000,4.1339111328125,-0.9974365234375,-0.0254058837890625,-0.0075225830078125
1772806921982843100,4.143843017578125,-0.9953460693359375,-0.024261474609375,-0.0020294189453125
1772806921992774000,4.15377392578125,-0.99383544921875,-0.0248565673828125,-0.0015411376953125
1772806922002706200,4.1637060546875,-0.9951324462890625,-0.0240631103515625,-0.00372314453125
1772806922012638200,4.17363818359375,-0.9971466064453125,-0.022705078125,-0.0093841552734375
1772806922022570200,4.1835703125,-0.9932403564453125,-0.023529052734375,-0.0133209228515625
1772806922032501000,4.1935009765625,-1.0009613037109375,-0.0246734619140625,-0.013824462890625
1772806922042433000,4.20343310546875,-0.9944305419921875,-0.0267333984375,-0.014251708984375
1772806922052365000,4.213364990234375,-0.99871826171875,-0.028839111328125,-0.014739990234375
1772806922062297000,4.223297119140625,-0.9930419921875,-0.0293121337890625,-0.0153045654296875
1772806922072228000,4.23322802734375,-0.99786376953125,-0.029022216796875,-0.0134124755859375
1772806922082159900,4.243159912109375,-0.997039794921875,-0.0302276611328125,-0.0119781494140625
1772806922092092200,4.253092041015625,-0.9966278076171875,-0.028106689453125,-0.007537841796875
1772806922102024200,4.263024169921875,-0.9964447021484375,-0.0275726318359375,-0.0034942626953125
1772806922111955200,4.272955078125,-0.999298095703125,-0.0236358642578125,-0.0014495849609375
1772806922121887200,4.28288720703125,-0.993316650390625,-0.0202178955078125,-0.0000457763671875
1772806922131819000,4.292819091796875,-1.000091552734375,-0.0213165283203125,-0.0040435791015625
1772806922141751000,4.3027509765625,-0.9906005859375,-0.0209197998046875,-0.013916015625
1772806922151682000,4.31268212890625,-0.9962310791015625,-0.0182342529296875,-0.02130126953125
1772806922161614000,4.322614013671875,-0.99951171875,-0.01678466796875,-0.023773193359375
1772806922171545900,4.3325458984375,-0.9943695068359375,-0.016021728515625,-0.0217742919921875
1772806922181478100,4.34247802734375,-0.9983978271484375,-0.01837158203125,-0.0165252685546875
1772806922191409200,4.3524091796875,-0.996002197265625,-0.020111083984375,-0.005706787109375
1772806922201341200,4.362341064453125,-0.994415283203125,-0.020599365234375,0.0011138916015625
1772806922211274200,4.372274169921875,-0.9974212646484375,-0.0224151611328125,0.002044677734375
1772806922221206300,4.382206298828125,-0.9963836669921875,-0.0241851806640625,-0.0026702880859375
1772806922231138000,4.392137939453125,-0.9952850341796875,-0.025360107421875,-0.0103302001953125
1772806922241070000,4.402070068359375,-0.9975433349609375,-0.0254058837890625,-0.015625
1772806922251001000,4.4120009765625,-0.9953460693359375,-0.02862548828125,-0.015472412109375
1772806922260933000,4.42193310546875,-0.9960174560546875,-0.0282135009765625,-0.0146331787109375
1772806922270865200,4.431865234375,-0.9970245361328125,-0.029632568359375,-0.0109405517578125
1772806922280797000,4.441796875,-0.995330810546875,-0.03192138671875,-0.008270263671875
1772806922290728200,4.451728271484375,-0.99957275390625,-0.0302886962890625,-0.0121612548828125
1772806922300660200,4.46166015625,-0.9905853271484375,-0.0285186767578125,-0.00750732421875
1772806922310592300,4.47159228515625,-0.997589111328125,-0.0245513916015625,-0.0110321044921875
1772806922320524000,4.48152392578125,-0.9965057373046875,-0.0214691162109375,-0.010009765625
1772806922330455000,4.491455078125,-0.9947662353515625,-0.0178375244140625,-0.0084686279296875
1772806922340387000,4.501386962890625,-0.99639892578125,-0.0163726806640625,-0.0078125
1772806922350319000,4.511319091796875,-0.99188232421875,-0.01654052734375,-0.004241943359375
1772806922360251100,4.521251220703125,-0.9974517822265625,-0.0158538818359375,-0.01129150390625
1772806922370182100,4.53118212890625,-0.997161865234375,-0.0164031982421875,-0.016387939453125
1772806922380114200,4.5411142578125,-0.9947662353515625,-0.0178985595703125,-0.014190673828125
1772806922390046200,4.551046142578125,-0.996368408203125,-0.0197601318359375,-0.0154876708984375
1772806922399978200,4.560978271484375,-0.9971466064453125,-0.0229949951171875,-0.0123748779296875
1772806922409909000,4.570908935546875,-0.9961090087890625,-0.02716064453125,-0.00469970703125
1772806922419841000,4.580841064453125,-0.9959869384765625,-0.029510498046875,0.000396728515625
1772806922429773000,4.59077294921875,-0.99822998046875,-0.030364990234375,-0.000762939453125
1772806922439705300,4.600705322265625,-0.99566650390625,-0.0325927734375,-0.0069732666015625
1772806922449636400,4.61063623046875,-0.9965362548828125,-0.032073974609375,-0.0119476318359375
1772806922459568400,4.620568359375,-0.998321533203125,-0.030303955078125,-0.0166778564453125
1772806922469500400,4.63050048828125,-0.993377685546875,-0.0289459228515625,-0.0165863037109375
1772806922479432400,4.640432373046875,-0.9970245361328125,-0.026458740234375,-0.01422119140625
1772806922489363500,4.650363525390625,-0.9962921142578125,-0.02490234375,-0.00872802734375
1772806922499295500,4.66029541015625,-0.9951171875,-0.022613525390625,-0.0052642822265625
1772806922509227300,4.670227294921875,-0.997283935546875,-0.0189056396484375,-0.0023651123046875
1772806922519159300,4.6801591796875,-0.9966583251953125,-0.0169219970703125,-0.0035247802734375
1772806922529090300,4.69009033203125,-0.996307373046875,-0.0156402587890625,-0.0074462890625
1772806922539022300,4.700022216796875,-0.99530029296875,-0.0156402587890625,-0.01202392578125
1772806922548954400,4.709954345703125,-0.995086669921875,-0.0152587890625,-0.012786865234375
1772806922558886400,4.719886474609375,-0.9956207275390625,-0.01519775390625,-0.0125885009765625
1772806922568817400,4.7298173828125,-0.9956207275390625,-0.0201568603515625,-0.0114898681640625
1772806922578749400,4.73974951171875,-0.997283935546875,-0.022125244140625,-0.0096282958984375
1772806922588681500,4.749681396484375,-0.9971160888671875,-0.0225067138671875,-0.0102996826171875
1772806922598613500,4.759613525390625,-0.9945526123046875,-0.02593994140625,-0.0106048583984375
1772806922608544300,4.769544189453125,-0.9978179931640625,-0.0269622802734375,-0.0106964111328125
1772806922618476300,4.779476318359375,-0.9948272705078125,-0.029754638671875,-0.01043701171875
1772806922628408300,4.789408203125,-0.9957427978515625,-0.0303802490234375,-0.0074310302734375
1772806922638340400,4.79934033203125,-0.99639892578125,-0.0292510986328125,-0.0064239501953125
1772806922648271400,4.809271240234375,-0.9961395263671875,-0.0286865234375,-0.0050201416015625
1772806922658203400,4.819203369140625,-0.9964752197265625,-0.02813720703125,-0.006683349609375
1772806922668135400,4.829135498046875,-0.99639892578125,-0.0283050537109375,-0.010040283203125
1772806922678067500,4.8390673828125,-0.997283935546875,-0.0257415771484375,-0.0150604248046875
1772806922687998200,4.848998291015625,-0.9966583251953125,-0.024261474609375,-0.0150299072265625
1772806922697930200,4.85893017578125,-0.99578857421875,-0.0218963623046875,-0.013641357421875
1772806922707862300,4.8688623046875,-0.9947662353515625,-0.0201568603515625,-0.010162353515625
1772806922717794300,4.878794189453125,-0.99749755859375,-0.0181884765625,-0.005767822265625
1772806922727725300,4.888725341796875,-0.996795654296875,-0.0176239013671875,-0.0037078857421875
1772806922737657300,4.8986572265625,-0.99664306640625,-0.0174102783203125,-0.0064239501953125
1772806922747589400,4.90858935546875,-0.9954376220703125,-0.0171356201171875,-0.008575439453125
1772806922757521400,4.918521484375,-0.9958343505859375,-0.0194244384765625,-0.011810302734375
1772806922767452400,4.928452392578125,-0.9949493408203125,-0.0199127197265625,-0.0118255615234375
1772806922777384200,4.93838427734375,-0.99615478515625,-0.0221099853515625,-0.012420654296875
1772806922787316200,4.948316162109375,-0.9953155517578125,-0.022247314453125,-0.0105133056640625
1772806922797248300,4.958248291015625,-0.996917724609375,-0.024322509765625,-0.0098724365234375
1772806922807179500,4.968179443359375,-0.9960784912109375,-0.02459716796875,-0.012481689453125
1772806922817111600,4.978111572265625,-0.99505615234375,-0.0266876220703125,-0.012725830078125
1772806922827043300,4.988043212890625,-0.9951629638671875,-0.028289794921875,-0.0080718994140625
1772806922836975400,4.997975341796875,-0.995574951171875,-0.027801513671875,-0.0053863525390625
1772806922846906400,5.00790625,-0.9969940185546875,-0.028411865234375,-0.00518798828125
1772806922856838400,5.01783837890625,-0.9960479736328125,-0.0285797119140625,-0.0036468505859375
1772806922866770200,5.027770263671875,-0.996002197265625,-0.0283660888671875,-0.00531005859375
1772806922876702200,5.0377021484375,-0.9966583251953125,-0.026031494140625,-0.00787353515625
1772806922886633500,5.047633544921875,-0.9957733154296875,-0.0254669189453125,-0.01129150390625
1772806922896565500,5.0575654296875,-0.996978759765625,-0.0229949951171875,-0.01416015625
1772806922906497500,5.06749755859375,-0.995208740234375,-0.02252197265625,-0.0150146484375
1772806922916429300,5.07742919921875,-0.9952392578125,-0.0220947265625,-0.0131988525390625
1772806922926360300,5.0873603515625,-0.996368408203125,-0.02154541015625,-0.008636474609375
1772806922936292400,5.097292236328125,-0.99517822265625,-0.0201568603515625,-0.0070037841796875
1772806922946224400,5.107224365234375,-0.9966278076171875,-0.018402099609375,-0.004974365234375
1772806922956156400,5.117156494140625,-0.9951171875,-0.016876220703125,-0.0059661865234375
1772806922966087400,5.12708740234375,-0.9980010986328125,-0.0193939208984375,-0.008392333984375
1772806922976019500,5.13701953125,-0.996673583984375,-0.0216522216796875,-0.009765625
1772806922985951500,5.146951416015625,-0.9963836669921875,-0.024169921875,-0.0122222900390625
1772806922995883500,5.156883544921875,-0.996490478515625,-0.02734375,-0.0125274658203125
1772806923005814300,5.166814208984375,-0.9966278076171875,-0.0286865234375,-0.011444091796875
1772806923015746300,5.176746337890625,-0.99530029296875,-0.0285491943359375,-0.012115478515625
1772806923025678300,5.18667822265625,-0.99700927734375,-0.027984619140625,-0.0122833251953125
1772806923035610400,5.1966103515625,-0.9945068359375,-0.0259857177734375,-0.0111541748046875
1772806923045541400,5.206541259765625,-0.9955596923828125,-0.026153564453125,-0.00897216796875
1772806923055473400,5.216473388671875,-0.9962005615234375,-0.026214599609375,-0.00714111328125
1772806923065405400,5.226405517578125,-0.9947967529296875,-0.0242767333984375,-0.0055999755859375
1772806923075337500,5.23633740234375,-0.998016357421875,-0.0246124267578125,-0.0047454833984375
1772806923085268500,5.2462685546875,-0.9944305419921875,-0.0219268798828125,-0.0059661865234375
1772806923095200300,5.2562001953125,-0.9954071044921875,-0.018035888671875,-0.011260986328125
1772806923105132300,5.26613232421875,-0.995819091796875,-0.0179443359375,-0.013580322265625
1772806923115064300,5.276064208984375,-0.994293212890625,-0.0183563232421875,-0.0141448974609375
1772806923124995600,5.28599560546875,-0.9962615966796875,-0.0183563232421875,-0.0131378173828125
1772806923134927400,5.29592724609375,-0.9979705810546875,-0.0193634033203125,-0.0116729736328125
1772806923144859400,5.305859375,-0.99566650390625,-0.0208740234375,-0.00909423828125
1772806923154791400,5.31579150390625,-0.9959259033203125,-0.0228118896484375,-0.0071258544921875
1772806923164722400,5.325722412109375,-0.996612548828125,-0.0225677490234375,-0.0059356689453125
1772806923174654500,5.335654541015625,-0.996490478515625,-0.023956298828125,-0.0087738037109375
1772806923184586200,5.345586181640625,-0.9959259033203125,-0.02386474609375,-0.010284423828125
1772806923194518300,5.355518310546875,-0.9967041015625,-0.025360107421875,-0.01068115234375
1772806923204449500,5.365449462890625,-0.9969482421875,-0.0264739990234375,-0.01220703125
1772806923214381600,5.375381591796875,-0.9964599609375,-0.0270538330078125,-0.0094451904296875
1772806923224313600,5.385313720703125,-0.9979705810546875,-0.0255279541015625,-0.00933837890625
1772806923234245400,5.395245361328125,-0.996063232421875,-0.024688720703125,-0.0089263916015625
1772806923244176400,5.40517626953125,-0.9965057373046875,-0.0229339599609375,-0.0101165771484375
1772806923254108400,5.4151083984375,-0.996429443359375,-0.0208587646484375,-0.0102081298828125
1772806923264040400,5.42504052734375,-0.99627685546875,-0.0210723876953125,-0.00860595703125
1772806923273972200,5.43497216796875,-0.9949951171875,-0.021148681640625,-0.0070648193359375
1772806923283903500,5.444903564453125,-0.9946136474609375,-0.0217132568359375,-0.0077667236328125
1772806923293835500,5.45483544921875,-0.9959564208984375,-0.0206146240234375,-0.0057525634765625
1772806923303767600,5.464767578125,-0.996826171875,-0.021636962890625,-0.0085906982421875
1772806923313699600,5.474699462890625,-0.996368408203125,-0.022064208984375,-0.0091705322265625
1772806923323630300,5.48463037109375,-0.9966888427734375,-0.0227508544921875,-0.0095367431640625
1772806923333562400,5.494562255859375,-0.996826171875,-0.0245513916015625,-0.012908935546875
1772806923343494400,5.504494384765625,-0.995147705078125,-0.02581787109375,-0.011993408203125
1772806923353426400,5.514426513671875,-0.996002197265625,-0.025970458984375,-0.0113067626953125
1772806923363357200,5.524357177734375,-0.9950408935546875,-0.0255584716796875,-0.0103759765625
1772806923373289500,5.53428955078125,-0.997283935546875,-0.0266265869140625,-0.0100555419921875
1772806923383221500,5.544221435546875,-0.9957427978515625,-0.0264434814453125,-0.0065460205078125
1772806923393153500,5.554153564453125,-0.995880126953125,-0.02508544921875,-0.0069427490234375
1772806923403084300,5.564084228515625,-0.995208740234375,-0.0239715576171875,-0.009613037109375
1772806923413016300,5.574016357421875,-0.9953460693359375,-0.022705078125,-0.0108489990234375
1772806923422948400,5.5839482421875,-0.9961700439453125,-0.0211029052734375,-0.011810302734375
1772806923432880400,5.59388037109375,-0.9972381591796875,-0.02191162109375,-0.0113525390625
1772806923442811400,5.603811279296875,-0.996673583984375,-0.0213165283203125,-0.0107879638671875
1772806923452743400,5.613743408203125,-0.9974212646484375,-0.020050048828125,-0.0090179443359375
1772806923462675500,5.623675537109375,-0.9955596923828125,-0.0203399658203125,-0.0102996826171875
1772806923472607500,5.633607421875,-0.996978759765625,-0.0209197998046875,-0.0082550048828125
1772806923482538500,5.64353857421875,-0.9966583251953125,-0.0212554931640625,-0.0079193115234375
1772806923492470500,5.653470458984375,-0.9947357177734375,-0.0221710205078125,-0.0081634521484375
1772806923502402600,5.663402587890625,-0.9966278076171875,-0.024658203125,-0.0093994140625
1772806923512334300,5.673334228515625,-0.9958343505859375,-0.02606201171875,-0.009857177734375
1772806923522265300,5.683265380859375,-0.994598388671875,-0.028167724609375,-0.0090789794921875
1772806923532197400,5.693197265625,-0.9978179931640625,-0.028045654296875,-0.009002685546875
1772806923542129400,5.70312939453125,-0.99676513671875,-0.0286102294921875,-0.0110015869140625
1772806923552061400,5.7130615234375,-0.995758056640625,-0.0280914306640625,-0.0110931396484375
1772806923561992400,5.722992431640625,-0.9989471435546875,-0.0273284912109375,-0.0111083984375
1772806923571924500,5.732924560546875,-0.9942779541015625,-0.02691650390625,-0.01104736328125
1772806923581856500,5.7428564453125,-0.9957275390625,-0.02557373046875,-0.010650634765625
1772806923591788500,5.75278857421875,-0.99609375,-0.02532958984375,-0.0109710693359375
1772806923601719300,5.76271923828125,-0.9961700439453125,-0.0218353271484375,-0.0103759765625
1772806923611651300,5.7726513671875,-0.995697021484375,-0.0211029052734375,-0.00897216796875
1772806923621583400,5.782583251953125,-0.996917724609375,-0.0187835693359375,-0.0078887939453125
1772806923631515400,5.792515380859375,-0.995025634765625,-0.01934814453125,-0.0078277587890625
1772806923641446400,5.8024462890625,-0.9960479736328125,-0.019195556640625,-0.0093536376953125
1772806923651378400,5.81237841796875,-0.99444580078125,-0.0193023681640625,-0.0110931396484375
1772806923661310500,5.822310546875,-0.9963226318359375,-0.0196990966796875,-0.009765625
1772806923671242500,5.832242431640625,-0.9963531494140625,-0.0222930908203125,-0.0093536376953125
1772806923681173500,5.842173583984375,-0.9965972900390625,-0.0233612060546875,-0.007537841796875
1772806923691105300,5.852105224609375,-0.9969024658203125,-0.023040771484375,-0.00665283203125
1772806923701037300,5.862037353515625,-0.9962158203125,-0.024932861328125,-0.0093536376953125
1772806923710969300,5.87196923828125,-0.996612548828125,-0.0267181396484375,-0.0090179443359375
1772806923720900600,5.881900634765625,-0.9958343505859375,-0.0255126953125,-0.011138916015625
1772806923730832600,5.89183251953125,-0.9954376220703125,-0.02685546875,-0.01226806640625
1772806923740764400,5.901764404296875,-0.9959564208984375,-0.02825927734375,-0.011322021484375
1772806923750696400,5.911696533203125,-0.9942169189453125,-0.026153564453125,-0.0105438232421875
1772806923760627500,5.92162744140625,-0.9983673095703125,-0.02880859375,-0.0099029541015625
1772806923770559500,5.9315595703125,-0.999298095703125,-0.0274658203125,-0.00933837890625
1772806923780491300,5.9414912109375,-0.9955596923828125,-0.02459716796875,-0.0095672607421875
1772806923790423300,5.95142333984375,-0.9950103759765625,-0.0219268798828125,-0.0093994140625
1772806923800354600,5.9613544921875,-0.997650146484375,-0.0219573974609375,-0.0080718994140625
1772806923810286600,5.97128662109375,-0.99566650390625,-0.0211029052734375,-0.0051116943359375
1772806923820218600,5.981218505859375,-0.9970245361328125,-0.019775390625,-0.007049560546875
1772806923830150400,5.991150390625,-0.997589111328125,-0.020355224609375,-0.007293701171875
1772806923840081400,6.001081298828125,-0.9970703125,-0.0210723876953125,-0.008880615234375
1772806923850013400,6.011013427734375,-0.9956817626953125,-0.0196533203125,-0.0120391845703125
1772806923859945500,6.020945556640625,-0.9970245361328125,-0.020965576171875,-0.01361083984375
1772806923869877500,6.03087744140625,-0.9957427978515625,-0.021148681640625,-0.013427734375
1772806923879808500,6.04080859375,-0.9964141845703125,-0.0233612060546875,-0.01300048828125
1772806923889740500,6.050740478515625,-0.996307373046875,-0.0238800048828125,-0.0106201171875
1772806923899672600,6.060672607421875,-0.9961395263671875,-0.0260009765625,-0.0080718994140625
1772806923909604600,6.0706044921875,-0.995941162109375,-0.026397705078125,-0.008148193359375
1772806923919535400,6.080535400390625,-0.996734619140625,-0.0260009765625,-0.0058441162109375
1772806923929467400,6.09046728515625,-0.9963531494140625,-0.02655029296875,-0.006500244140625
1772806923939399400,6.1003994140625,-0.994537353515625,-0.026519775390625,-0.007415771484375
1772806923949331500,6.11033154296875,-0.9963226318359375,-0.025115966796875,-0.0085906982421875
1772806923959262500,6.120262451171875,-0.9953460693359375,-0.02587890625,-0.009429931640625
1772806923969194500,6.130194580078125,-0.995574951171875,-0.026702880859375,-0.0085601806640625
1772806923979126500,6.14012646484375,-0.9958648681640625,-0.0258941650390625,-0.011260986328125
1772806923989058600,6.15005859375,-0.9958648681640625,-0.0253753662109375,-0.0115509033203125
1772806923998989600,6.159989501953125,-0.9958038330078125,-0.022918701171875,-0.0126800537109375
1772806924008921300,6.16992138671875,-0.9951629638671875,-0.022796630859375,-0.010711669921875
1772806924018853400,6.179853271484375,-1.00189208984375,-0.0231170654296875,-0.00933837890625
1772806924028785400,6.189785400390625,-0.99310302734375,-0.02056884765625,-0.00921630859375
1772806924038716700,6.199716552734375,-0.9983673095703125,-0.0227203369140625,-0.0081939697265625
1772806924048648400,6.2096484375,-0.994171142578125,-0.0196380615234375,-0.0095367431640625
1772806924058580500,6.21958056640625,-0.9954071044921875,-0.0186309814453125,-0.0104217529296875
1772806924068512500,6.229512451171875,-0.9963836669921875,-0.0188446044921875,-0.01104736328125
1772806924078443500,6.239443603515625,-0.9972686767578125,-0.0201263427734375,-0.0129241943359375
1772806924088375600,6.24937548828125,-0.9954071044921875,-0.0194549560546875,-0.011444091796875
1772806924098307300,6.259307373046875,-0.9948272705078125,-0.02130126953125,-0.0106658935546875
1772806924108239400,6.2692392578125,-0.9969024658203125,-0.0230865478515625,-0.00933837890625
1772806924118170600,6.279170654296875,-0.9962921142578125,-0.02435302734375,-0.0072479248046875
1772806924128102700,6.2891025390625,-0.9953155517578125,-0.0263519287109375,-0.00689697265625
1772806924138034700,6.29903466796875,-0.9978485107421875,-0.026611328125,-0.007049560546875
1772806924147966500,6.308966552734375,-0.9951934814453125,-0.028411865234375,-0.0090789794921875
1772806924157897500,6.3188974609375,-0.9955291748046875,-0.029296875,-0.0110626220703125
1772806924167829500,6.32882958984375,-0.9967498779296875,-0.02838134765625,-0.011260986328125
1772806924177761500,6.338761474609375,-0.99652099609375,-0.0302581787109375,-0.01104736328125
1772806924187693300,6.348693359375,-0.9961090087890625,-0.0299835205078125,-0.0110321044921875
1772806924197624300,6.358624267578125,-0.9960174560546875,-0.0288848876953125,-0.0091094970703125
1772806924207556600,6.368556640625,-0.994537353515625,-0.0274810791015625,-0.0085296630859375
1772806924217488600,6.378488525390625,-0.9969482421875,-0.023223876953125,-0.0093231201171875
1772806924227420700,6.388420654296875,-0.9959564208984375,-0.0211334228515625,-0.0086669921875
1772806924237351400,6.398351318359375,-0.9957427978515625,-0.02001953125,-0.0074920654296875
1772806924247283500,6.408283447265625,-0.9950714111328125,-0.0186309814453125,-0.00830078125
1772806924257215500,6.418215576171875,-0.995025634765625,-0.0178985595703125,-0.00897216796875
1772806924267147500,6.4281474609375,-0.99688720703125,-0.01849365234375,-0.0083770751953125
1772806924277078300,6.438078369140625,-0.996124267578125,-0.0181121826171875,-0.00958251953125
1772806924287010300,6.44801025390625,-0.9970855712890625,-0.0180511474609375,-0.012451171875
1772806924296942600,6.457942626953125,-0.9965057373046875,-0.0196990966796875,-0.0120391845703125
1772806924306874600,6.46787451171875,-0.9953765869140625,-0.0212554931640625,-0.0116729736328125
1772806924316805400,6.477805419921875,-0.996429443359375,-0.022857666015625,-0.0111846923828125
1772806924326737400,6.4877373046875,-0.99639892578125,-0.024444580078125,-0.009429931640625
1772806924336669400,6.49766943359375,-0.9963531494140625,-0.025726318359375,-0.0078125
1772806924346601500,6.5076015625,-0.9969482421875,-0.029296875,-0.0073089599609375
1772806924356532500,6.517532470703125,-0.996795654296875,-0.0279693603515625,-0.0074920654296875
1772806924366464300,6.52746435546875,-0.9981231689453125,-0.029205322265625,-0.0102081298828125
1772806924376396500,6.537396484375,-0.9960784912109375,-0.028106689453125,-0.01031494140625
1772806924386328600,6.54732861328125,-0.9961700439453125,-0.0270538330078125,-0.0111083984375
1772806924396259600,6.557259521484375,-0.9974822998046875,-0.0265655517578125,-0.01031494140625
1772806924406191400,6.56719140625,-0.9976348876953125,-0.02545166015625,-0.0105743408203125
1772806924416123400,6.577123291015625,-0.9960784912109375,-0.02490234375,-0.0084686279296875
1772806924426055400,6.587055419921875,-0.9968719482421875,-0.02410888671875,-0.0082855224609375
1772806924435986200,6.596986083984375,-0.9968414306640625,-0.02130126953125,-0.00946044921875
1772806924445918200,6.606918212890625,-0.995635986328125,-0.0198822021484375,-0.0089263916015625
1772806924455850200,6.616850341796875,-0.9963836669921875,-0.019775390625,-0.0106658935546875
1772806924465782500,6.626782470703125,-0.9966888427734375,-0.0179290771484375,-0.0116424560546875
1772806924475713500,6.636713623046875,-0.996673583984375,-0.018524169921875,-0.0103607177734375
1772806924485645300,6.646645263671875,-0.9953460693359375,-0.0195159912109375,-0.0101165771484375
1772806924495577300,6.656577392578125,-0.9943695068359375,-0.021484375,-0.0095062255859375
1772806924505509400,6.66650927734375,-0.9973297119140625,-0.024444580078125,-0.0107574462890625
1772806924515440400,6.6764404296875,-0.9977264404296875,-0.0232391357421875,-0.01153564453125
1772806924525372200,6.6863720703125,-0.9925537109375,-0.0249176025390625,-0.0107879638671875
1772806924535304200,6.69630419921875,-1.0001678466796875,-0.0259857177734375,-0.0100555419921875
1772806924545236200,6.706236328125,-0.9942474365234375,-0.0236358642578125,-0.009033203125
1772806924555167500,6.71616748046875,-0.9937896728515625,-0.0264434814453125,-0.0077667236328125
1772806924565099500,6.726099609375,-0.997650146484375,-0.026611328125,-0.0080413818359375
1772806924575031300,6.73603125,-0.997711181640625,-0.027069091796875,-0.00732421875
1772806924584963300,6.74596337890625,-0.993682861328125,-0.025665283203125,-0.0090484619140625
1772806924594894300,6.755894287109375,-0.998779296875,-0.024810791015625,-0.0091705322265625
1772806924604826400,6.765826416015625,-0.9917144775390625,-0.02264404296875,-0.0123443603515625
1772806924614758400,6.77575830078125,-1.002960205078125,-0.0192413330078125,-0.0146636962890625
1772806924624690200,6.785690185546875,-0.9930572509765625,-0.020965576171875,-0.0100860595703125
1772806924634621400,6.795621337890625,-0.991424560546875,-0.0213623046875,-0.010833740234375
1772806924644553500,6.805553466796875,-1.004669189453125,-0.0208892822265625,-0.006561279296875
1772806924654485500,6.815485595703125,-0.985565185546875,-0.0218353271484375,-0.0063018798828125
1772806924664417300,6.825417236328125,-1.0013580322265625,-0.02239990234375,-0.0051422119140625
1772806924674348300,6.835348388671875,-0.9943389892578125,-0.0224456787109375,-0.007843017578125
1772806924684280300,6.8452802734375,-0.9942169189453125,-0.0223388671875,-0.0069580078125
1772806924694212400,6.85521240234375,-0.99774169921875,-0.0240936279296875,-0.0084075927734375
1772806924704144400,6.865144287109375,-0.994049072265625,-0.0250396728515625,-0.01068115234375
1772806924714075400,6.875075439453125,-0.997344970703125,-0.0267181396484375,-0.011199951171875
1772806924724007400,6.88500732421875,-0.9962615966796875,-0.0266876220703125,-0.0114898681640625
1772806924733939500,6.894939453125,-0.9911956787109375,-0.027313232421875,-0.0114288330078125
1772806924743871500,6.90487158203125,-1.0009765625,-0.0265045166015625,-0.011871337890625
1772806924753802200,6.91480224609375,-0.992401123046875,-0.0243377685546875,-0.0122528076171875
1772806924763734300,6.924734375,-0.998382568359375,-0.0241546630859375,-0.0115509033203125
1772806924773666300,6.934666259765625,-0.9934234619140625,-0.0234375,-0.008941650390625
1772806924783598300,6.944598388671875,-0.9951171875,-0.0235748291015625,-0.007843017578125
1772806924793529300,6.954529296875,-0.994140625,-0.023681640625,-0.0055084228515625
1772806924803461400,6.96446142578125,-0.996490478515625,-0.02239990234375,-0.0064544677734375
1772806924813393400,6.974393310546875,-0.9958953857421875,-0.0215606689453125,-0.0075225830078125
1772806924823325400,6.984325439453125,-0.9972381591796875,-0.0213623046875,-0.0111236572265625
1772806924833256400,6.99425634765625,-0.994232177734375,-0.022491455078125,-0.013427734375
1772806924843188200,7.004188232421875,-0.9978485107421875,-0.0213623046875,-0.013031005859375
1772806924853120300,7.014120361328125,-0.994293212890625,-0.022247314453125,-0.012115478515625
1772806924863052300,7.02405224609375,-0.9973907470703125,-0.0237274169921875,-0.0099945068359375
1772806924872983600,7.033983642578125,-0.994903564453125,-0.0247039794921875,-0.0087890625
1772806924882915600,7.04391552734375,-0.99725341796875,-0.0243682861328125,-0.007049560546875
1772806924892847400,7.053847412109375,-0.9955291748046875,-0.0243377685546875,-0.0090484619140625
1772806924902779400,7.063779296875,-0.995391845703125,-0.0251007080078125,-0.009246826171875
1772806924912710400,7.07371044921875,-0.9960479736328125,-0.0243682861328125,-0.0106048583984375
1772806924922642400,7.083642333984375,-0.9978790283203125,-0.0248870849609375,-0.01068115234375
1772806924932574200,7.09357421875,-0.9947052001953125,-0.0255279541015625,-0.0087432861328125
1772806924942506200,7.10350634765625,-0.99615478515625,-0.0234222412109375,-0.0093841552734375
1772806924952437500,7.1134375,-0.9953765869140625,-0.0245819091796875,-0.0075836181640625
1772806924962369500,7.12336962890625,-0.99658203125,-0.024932861328125,-0.0083160400390625
1772806924972301600,7.133301513671875,-0.99566650390625,-0.02398681640625,-0.00848388671875
1772806924982233300,7.1432333984375,-0.9975738525390625,-0.023956298828125,-0.0079803466796875
1772806924992164400,7.153164306640625,-0.9978179931640625,-0.025665283203125,-0.008941650390625
1772806925002096400,7.163096435546875,-0.995758056640625,-0.0236053466796875,-0.00933837890625
1772806925012028400,7.1730283203125,-0.99554443359375,-0.024200439453125,-0.009490966796875
1772806925021960400,7.18296044921875,-0.9958038330078125,-0.024749755859375,-0.012054443359375
1772806925031891500,7.192891357421875,-0.997802734375,-0.0241851806640625,-0.011322021484375
1772806925041823500,7.202823486328125,-0.9965362548828125,-0.02288818359375,-0.0136566162109375
1772806925051755500,7.212755615234375,-0.99566650390625,-0.022216796875,-0.013336181640625
1772806925061687600,7.2226875,-0.9958343505859375,-0.0232086181640625,-0.01153564453125
1772806925071618300,7.232618408203125,-0.9964752197265625,-0.02374267578125,-0.0087432861328125
1772806925081550300,7.24255029296875,-0.9936370849609375,-0.024169921875,-0.0077972412109375
1772806925091482400,7.252482421875,-0.998291015625,-0.023223876953125,-0.006622314453125
1772806925101414400,7.262414306640625,-0.9947509765625,-0.0216064453125,-0.00775146484375
1772806925111345400,7.272345458984375,-0.997039794921875,-0.022857666015625,-0.0068817138671875
1772806925121277400,7.28227734375,-0.994873046875,-0.0217132568359375,-0.0091094970703125
1772806925131209500,7.29220947265625,-0.9962921142578125,-0.0227508544921875,-0.0102081298828125
1772806925141141500,7.3021416015625,-0.996551513671875,-0.0219573974609375,-0.0097808837890625
1772806925151072300,7.312072265625,-0.995849609375,-0.0231475830078125,-0.0102691650390625
1772806925161004300,7.32200439453125,-0.996856689453125,-0.02294921875,-0.0085906982421875
1772806925170936300,7.331936279296875,-0.99664306640625,-0.0242462158203125,-0.010101318359375
1772806925180868400,7.341868408203125,-0.9965972900390625,-0.02325439453125,-0.00823974609375
1772806925190799400,7.35179931640625,-0.9971160888671875,-0.022979736328125,-0.0107269287109375
1772806925200731400,7.3617314453125,-0.995849609375,-0.0229644775390625,-0.0100555419921875
1772806925210663400,7.371663330078125,-0.997528076171875,-0.025238037109375,-0.0100860595703125
1772806925220595500,7.381595458984375,-0.99609375,-0.02398681640625,-0.0096588134765625
1772806925230526500,7.3915263671875,-0.9972991943359375,-0.026336669921875,-0.010406494140625
1772806925240458500,7.40145849609375,-0.99786376953125,-0.0257110595703125,-0.00897216796875
1772806925250390300,7.411390380859375,-0.9951171875,-0.0261383056640625,-0.0094757080078125
1772806925260322300,7.421322265625,-0.995330810546875,-0.0252532958984375,-0.0097808837890625
1772806925270253300,7.43125341796875,-0.9969635009765625,-0.0243072509765625,-0.0087738037109375
1772806925280185300,7.441185302734375,-0.99505615234375,-0.0247955322265625,-0.00958251953125
1772806925290117400,7.451117431640625,-0.99615478515625,-0.023345947265625,-0.0061492919921875
1772806925300049400,7.46104931640625,-0.9956207275390625,-0.022491455078125,-0.006378173828125
1772806925309980400,7.47098046875,-0.9972076416015625,-0.0223236083984375,-0.006927490234375
1772806925319912400,7.480912353515625,-0.9959716796875,-0.0228271484375,-0.0079345703125
1772806925329844500,7.490844482421875,-0.995880126953125,-0.0213775634765625,-0.01141357421875
1772806925339776300,7.5007763671875,-0.994476318359375,-0.0207672119140625,-0.0112152099609375
1772806925349707300,7.510707275390625,-0.99786376953125,-0.021240234375,-0.012939453125
1772806925359639300,7.520639404296875,-0.9953460693359375,-0.020965576171875,-0.0103302001953125
1772806925369571300,7.5305712890625,-0.997283935546875,-0.0233154296875,-0.00933837890625
1772806925379503600,7.540503662109375,-0.9950103759765625,-0.02276611328125,-0.0092315673828125
1772806925389434400,7.550434326171875,-0.9962005615234375,-0.022613525390625,-0.0067596435546875
1772806925399366400,7.560366455078125,-0.9994964599609375,-0.02349853515625,-0.010986328125
1772806925409298400,7.57029833984375,-1.00531005859375,-0.0235595703125,-0.0149078369140625
1772806925419230500,7.58023046875,-0.98382568359375,-0.0246734619140625,0
1772806925429161200,7.5901611328125,-0.9968414306640625,-0.0241851806640625,-0.012176513671875
1772806925439093000,7.600093017578125,-0.99700927734375,-0.0247802734375,-0.0081939697265625
1772806925449025000,7.61002490234375,-0.991607666015625,-0.0269317626953125,-0.0048675537109375
1772806925458957000,7.61995703125,-0.9969940185546875,-0.02960205078125,-0.009552001953125
1772806925468887800,7.6298876953125,-0.9970703125,-0.028656005859375,-0.0074920654296875
1772806925478819800,7.63981982421875,-0.99530029296875,-0.0286407470703125,-0.0079193115234375
1772806925488751900,7.649751953125,-0.9901580810546875,-0.02618408203125,-0.00579833984375
1772806925498684000,7.659683837890625,-0.9956207275390625,-0.02294921875,-0.0080108642578125
1772806925508614700,7.66961474609375,-1.0027923583984375,-0.0210723876953125,-0.0143890380859375
