time,seconds_elapsed,z,y,x
1772806917900894200,0.061894287109375,-0.001663144095800817,0.016141951084136963,0.0015132081462070346
1772806917910826200,0.071826171875,-0.001570998691022396,0.014856443740427494,0.0004423510399647057
1772806917920758300,0.08175830078125,-0.00047643951256759465,0.003347327234223485,0.0033156354911625385
1772806917930689000,0.09168896484375,0.00034887410583905876,0.0015763250412419438,0.0010655306978151202
1772806917940621000,0.10162109375,-0.0014426343841478229,0.0034386736806482077,-0.00037816885742358863
1772806917950553000,0.111552978515625,-0.0012772521004080772,0.005762814078480005,-0.0010098706698045135
1772806917960485000,0.121485107421875,0.0015574166318401694,0.008219313807785511,0.0008594020619057119
1772806917970416400,0.13141650390625,-0.0030828751623630524,0.007598265074193478,0.001612011343240738
1772806917980348200,0.14134814453125,0.0001549959706608206,0.0016381103778257966,0.001377919572405517
1772806917990280200,0.1512802734375,-0.0020570256747305393,0.0036045885644853115,-0.00011851066665258259
1772806918000212200,0.161212158203125,-0.0015925703337416053,-0.00296250032261014,-0.0024951156228780746
1772806918010143200,0.171143310546875,-0.003306314582005143,0.0014591459184885025,-0.0007307713967747986
1772806918020075300,0.1810751953125,-0.0011014834744855762,0.007744738832116127,0.0014290522085502744
1772806918030007000,0.191007080078125,-0.000737695605494082,0.006154032424092293,0.0001323590986430645
1772806918039939000,0.20093896484375,-0.0008735168376006186,0.004591023549437523,0.00016165387933142483
1772806918049870300,0.210870361328125,-0.0011672634864225984,0.007555654272437096,0.0025068335235118866
1772806918059802400,0.22080224609375,-0.0002961435238830745,0.007126619108021259,0.0007193197961896658
1772806918069734100,0.230734130859375,0.00001304948909819359,0.007138337008655071,0.0009395632077939808
1772806918079666200,0.240666259765625,-0.0016309198690578341,0.006660565733909607,-0.0008820389630272985
1772806918089597200,0.25059716796875,0.00019867181254085153,0.006878145970404148,0.0014306501252576709
1772806918099529200,0.260529296875,-0.0015717976493760943,0.006895989179611206,0.00023089606838766485
1772806918109461200,0.270461181640625,-0.0003904194163624197,0.007140467409044504,0.0005190501105971634
1772806918119393000,0.28039306640625,-0.0008878979133442044,0.009783388115465641,0.00070493872044608
1772806918129325000,0.290324951171875,-0.0020999026019126177,0.007129015866667032,-0.00040000680019147694
1772806918139256300,0.30025634765625,0.00004234426160110161,0.006600112188607454,0.00012783173588104546
1772806918149188400,0.310188232421875,-0.002213353058323264,0.007183876819908619,0.0016173376934602857
1772806918159120400,0.320120361328125,0.00006764429417671636,0.004400607198476791,-0.0020061591640114784
1772806918169052200,0.33005224609375,-0.0022775353863835335,0.006388390902429819,-0.0024165522772818804
1772806918178983200,0.339983154296875,-0.0006436860421672463,0.00561074772849679,0.0015667376574128866
1772806918188915200,0.349915283203125,0.00048416267964057624,0.007546333130449057,0.0018660769565030932
1772806918198847200,0.35984716796875,-0.0005757753970101476,0.006845655385404825,0.0007084008539095521
1772806918208779000,0.369779052734375,-0.0002695118892006576,0.007090666331350803,0.0013086773687973619
1772806918218710300,0.379710205078125,-0.00013422331539914012,0.00580755528062582,0.0006332996999844909
1772806918228642300,0.389642333984375,-0.00227913330309093,0.006620618514716625,-0.0013869742397218943
1772806918238574300,0.39957421875,0.000663393409922719,-0.02918185293674469,-0.00640703272074461
1772806918248505000,0.409505126953125,0.0002865561400540173,0.010262224823236465,0.0015949672088027
1772806918258437000,0.41943701171875,0.0005547364708036184,0.01997077837586403,-0.0003685815026983619
1772806918268369200,0.429369140625,-0.0006585997180081904,-0.0046450854279100895,-0.0010367685463279486
1772806918278301200,0.43930126953125,0.0012839100090786815,0.007955927401781082,0.0006697850185446441
1772806918288233200,0.449233154296875,-0.0021371867042034864,0.009616941213607788,0.0013765880139544606
1772806918298164200,0.459164306640625,-0.0003677825443446636,0.004159857518970966,-0.002177400514483452
1772806918308096300,0.46909619140625,-0.0015419702976942062,0.0027566379867494106,-0.00025592977181077003
1772806918318028300,0.4790283203125,-0.0010367685463279486,0.008778577670454979,-0.0012442287988960743
1772806918327960300,0.488960205078125,-0.002183792181313038,0.003745736088603735,0.00011185276525793597
1772806918337891000,0.49889111328125,-0.002225870033726096,0.005044825840741396,0.00009640643111197278
1772806918347823000,0.508822998046875,-0.00008495483780279756,0.006298908498138189,-0.0002300971100339666
1772806918357755100,0.518755126953125,-0.0029529130551964045,0.007245928514748812,-0.0010221211705356836
1772806918367687200,0.528687255859375,0.0016045545926317573,0.003998203668743372,-0.0009201221400871873
1772806918377618400,0.538618408203125,-0.00166607357095927,0.0054815844632685184,-0.001636246219277382
1772806918387550200,0.54855029296875,-0.0015672702575102448,0.004988100845366716,0.0006791060441173613
1772806918397482200,0.558482177734375,-0.0008133294177241623,0.003900199430063367,0.0011086739832535386
1772806918407414300,0.568414306640625,-0.0021465078461915255,0.00695005152374506,0.0005819007055833936
1772806918417345300,0.57834521484375,-0.001068193931132555,0.006806773599237204,-0.000535561703145504
1772806918427277600,0.588277587890625,0.00010679275874281302,0.006258694920688868,-0.0024487765040248632
1772806918437209600,0.598209716796875,-0.00148125016130507,0.006998254451900721,-0.0014703312190249562
1772806918447141600,0.6081416015625,-0.0022865901701152325,0.00726403808221221,0.0024258734192699194
1772806918457072400,0.618072265625,-0.0011608719360083342,0.007216900121420622,-0.00016538229829166085
1772806918467004400,0.62800439453125,0.000041545314161339775,0.005275455769151449,0.0008356999605894089
1772806918476936700,0.637936767578125,0.0003733751946128905,0.00620995881035924,0.0024775387719273567
1772806918486868700,0.64786865234375,0.000020240024241502397,0.0062943813391029835,0.0012602078495547175
1772806918496799700,0.6577998046875,-0.0022208099253475666,0.004314587451517582,-0.000015712650565546937
1772806918506731500,0.6677314453125,-0.0011385013349354267,0.006116748321801424,-0.0021049624774605036
1772806918516663600,0.67766357421875,-0.0008186557097360492,0.0062797339633107185,0.002442118711769581
1772806918526595600,0.687595703125,-0.0010820423485711217,0.0051446943543851376,0.000041278995922766626
1772806918536526600,0.697526611328125,-0.0022596921771764755,0.0060238041914999485,0.0000031957933970261365
1772806918546458400,0.707458251953125,0.00022956448083277792,0.007750331424176693,-0.0007422229973599315
1772806918556390400,0.717390380859375,0.0007126618875190616,0.006736199837177992,0.0008759136544540524
1772806918566322700,0.72732275390625,-0.000988032785244286,0.0046666571870446205,0.000050600061513250694
1772806918576253700,0.737253662109375,-0.0011432950850576162,0.005277586169540882,0.00012516857532318681
1772806918586185700,0.747185791015625,-0.003364637726917863,0.006538859568536282,0.0011313108261674643
1772806918596117500,0.757117431640625,-0.0007424892974086106,0.007727694697678089,0.0015989618841558695
1772806918606049500,0.767049560546875,-0.00039547940832562745,0.004744687583297491,-0.001261539408005774
1772806918615980500,0.77698046875,0.0009986853692680597,0.008448345586657524,-0.001115598133765161
1772806918625912600,0.78691259765625,-0.0003153182624373585,0.004551608581095934,-0.00043356261448934674
1772806918635844600,0.7968447265625,-0.00313560594804585,0.006974552292376757,-0.00032890037982724607
1772806918645776400,0.8067763671875,-0.0004772384709212929,0.00746004655957222,0.0006460828590206802
1772806918655707600,0.816707763671875,0.0005352954030968249,0.008558601140975952,-0.000041012681322172284
1772806918665639700,0.8266396484375,0.002008023438975215,0.005501824431121349,-0.00031318774563260376
1772806918675571700,0.83657177734375,0.000017310547264060006,0.005182511638849974,-0.0008522115531377494
1772806918685503500,0.84650341796875,-0.0012053466634824872,0.006794522982090712,0.002174737397581339
1772806918695434500,0.8564345703125,-0.0014421016676351428,0.007396130822598934,-0.0009784454014152288
1772806918705366500,0.866366455078125,-0.0001304948964389041,0.008971123956143856,0.001216265605762601
1772806918715298600,0.876298583984375,-0.00039468047907575965,0.00395665830001235,0.00046871634549461305
1772806918725230600,0.886230712890625,0.001517735538072884,0.006427805405110121,0.00009028115891851485
1772806918735161600,0.89616162109375,-0.0011800467036664486,0.005288239102810621,0.0007685882737860084
1772806918745093600,0.90609375,-0.0023036343045532703,0.007268831599503756,-0.0006982808117754757
1772806918755025700,0.916025634765625,-0.00207673292607069,0.006933805998414755,-0.0013941648649051785
1772806918764957700,0.925957763671875,-0.0016479641199111938,0.007377754896879196,-0.0009134642314165831
1772806918774888400,0.935888427734375,-0.0005728459218516946,0.006298375781625509,0.0014583469601348042
1772806918784820500,0.945820556640625,-0.0018738001817837358,0.006193447392433882,0.001618403010070324
1772806918794752500,0.95575244140625,-0.0011147991754114628,0.006292783189564943,-0.0017712684348225594
1772806918804684500,0.9656845703125,-0.0032226911280304193,0.007888549007475376,0.0009331716573797166
1772806918814615600,0.975615478515625,-0.0034083134960383177,0.00583764910697937,-0.0009374326909892261
1772806918824547600,0.985547607421875,-0.0026639599818736315,0.006470948923379183,-0.0021576930303126574
1772806918834479600,0.995479736328125,0.002305764937773347,0.006417152937501669,-0.00006764429417671636
1772806918844411600,1.00541162109375,-0.0018453042721375823,0.007479221560060978,0.0020548950415104628
1772806918854342700,1.0153427734375,-0.0013643373968079686,0.008791627362370491,0.0012689962750300765
1772806918864274400,1.0252744140625,0.0017337178578600287,0.0070555126294493675,0.0012511530658230186
1772806918874206500,1.03520654296875,-0.0024868599139153957,0.0033012544736266136,-0.001412806916050613
1772806918884138500,1.045138427734375,-0.0009496832499280572,0.006421680096536875,-0.0021859225817024708
1772806918894069800,1.05506982421875,-0.001853293739259243,0.011871573515236378,-0.000014114753867033869
1772806918904001500,1.06500146484375,-0.0023193468805402517,0.006714361719787121,0.0011238539591431618
1772806918913933600,1.07493359375,-0.0015579492319375277,0.001347559504210949,0.0008303736103698611
1772806918923865600,1.084865478515625,-0.002368615474551916,0.002868490759283304,-0.0019086875254288316
1772806918933797600,1.094797607421875,-0.00210709311068058,0.0039087217301130295,-0.0013888385146856308
1772806918943728600,1.104728759765625,-0.0023790018167346716,0.008294947445392609,-0.00041252365917898715
1772806918953660400,1.114660400390625,-0.0010133327450603247,0.01131017878651619,0.0003486077766865492
1772806918963592400,1.124592529296875,-0.0018836538074538112,0.012315788306295872,0.000803209375590086
1772806918973524500,1.1345244140625,-0.0013960290234535933,0.005250954534858465,0.001029311795718968
1772806918983455700,1.144455810546875,-0.0007568703731521964,0.006366286426782608,-0.0006133259739726782
1772806918993387800,1.1543876953125,-0.0019598202779889107,0.0041188448667526245,-0.0006239786162041128
1772806919003319600,1.164319580078125,-0.0012519520241767168,0.00526773277670145,-0.0019441075855866075
1772806919013251600,1.17425146484375,0.00031185615807771683,0.009098157286643982,0.004459196701645851
1772806919023182600,1.1841826171875,-0.0007550061563961208,0.01085610967129469,0.0011584750609472394
1772806919033114600,1.194114501953125,-0.00014034859486855567,0.007173224352300167,-0.0004410194815136492
1772806919043046400,1.20404638671875,-0.003695935010910034,0.008232629857957363,0.00040986048406921327
1772806919052978400,1.213978515625,0.00018136126163881272,0.004244279582053423,-0.0008378304773941636
1772806919062909700,1.22390966796875,-0.0007179882377386093,0.0068030450493097305,-0.0012181298807263374
1772806919072841700,1.233841796875,-0.002528405049815774,0.003852795111015439,-0.00018322547839488834
1772806919082773800,1.243773681640625,0.00010652644414221868,0.005352421198040247,0.00213665422052145
1772806919092705500,1.25370556640625,-0.0013012205017730594,0.006487993057817221,0.0009081379394046962
1772806919102636500,1.263636474609375,-0.0017321199411526322,0.004947354551404715,-0.0011257182341068983
1772806919112568600,1.273568603515625,-0.0026815368328243494,0.00490314606577158,0.0004772384709212929
1772806919122500600,1.28350048828125,-0.0009038768475875258,0.006112221162766218,-0.001272990950383246
1772806919132432600,1.2934326171875,0.002261822810396552,0.005812349263578653,0.000672448193654418
1772806919142363600,1.30336376953125,-0.0033358754590153694,0.005130579695105553,-0.0027867318131029606
1772806919152295700,1.313295654296875,-0.00065460498444736,0.007760983891785145,0.00070493872044608
1772806919162227700,1.323227783203125,-0.0000953411654336378,0.009236641228199005,-0.00008255799184553325
1772806919172159700,1.33315966796875,-0.0015257250051945448,0.00788535363972187,0.0006844323943369091
1772806919182090500,1.343090576171875,-0.0025209481827914715,0.009847836568951607,0.0005030711181461811
1772806919192022500,1.3530224609375,0.0011824434623122215,0.006243514828383923,0.0015624766238033772
1772806919201954600,1.36295458984375,0.00007243797881528735,0.0065252771601080894,0.0015443670563399792
1772806919211886600,1.372886474609375,-0.00029108350281603634,0.006846454460173845,0.00018801917030941695
1772806919221817600,1.382817626953125,0.00036698358599096537,0.0075633772648870945,0.00015872440417297184
1772806919231749600,1.39274951171875,-0.0012934972764924169,0.003478354774415493,0.0005310343112796545
1772806919241681700,1.402681640625,-0.001008539111353457,0.0051833102479577065,0.0004239752306602895
1772806919251613700,1.41261376953125,-0.0014916365034878254,-0.0019217369845137,-0.0009539442835375667
1772806919261544700,1.422544677734375,-0.002301770029589534,0.00974317453801632,-0.0001150485550169833
1772806919271476500,1.4324765625,-0.0008370315190404654,0.009489907883107662,-0.000690291344653815
1772806919281408500,1.442408447265625,-0.003335076617076993,0.004777178168296814,-0.0006167881074361503
1772806919291340500,1.452340576171875,-0.0005432848702184856,0.008350607939064503,-0.0008942894637584686
1772806919301271600,1.462271484375,-0.0005350290448404849,0.006981210317462683,0.00039468047907575965
1772806919311203600,1.47220361328125,-0.0010064085945487022,0.007888549007475376,-0.0012767193838953972
1772806919321135600,1.482135498046875,-0.0007094661123119295,0.007896272465586662,0.0015398397808894515
1772806919331067600,1.492067626953125,0.00047883635852485895,0.0072746905498206615,0.0006351639167405665
1772806919340998700,1.50199853515625,-0.0018932411912828684,0.00583631731569767,0.0008697884040884674
1772806919350930700,1.5119306640625,-0.0035425368696451187,0.010276073589920998,-0.0010615360224619508
1772806919360862500,1.521862548828125,-0.0006138586322776973,0.007142864167690277,0.000636495475191623
1772806919370794500,1.53179443359375,-0.000015180017726379447,0.008049404248595238,-0.00126739835832268
1772806919380725500,1.5417255859375,-0.0006737797521054745,0.008934106677770615,0.0003043993201572448
1772806919390657500,1.551657470703125,-0.00003462109452812001,-0.008461395278573036,-0.0036693033762276173
1772806919400589800,1.56158984375,-0.0013227921444922686,0.011156780645251274,0.0021382521372288465
1772806919410521600,1.571521484375,-0.0032985913567245007,0.004263987299054861,-0.0014199974248185754
1772806919420452600,1.58145263671875,-0.0023406522814184427,0.005250688176602125,-0.000940095866099
1772806919430384600,1.591384521484375,-0.0017158746486529708,0.006704507861286402,-0.0009376989910379052
1772806919440316700,1.601316650390625,-0.00173744629137218,0.004518052563071251,0.0025220136158168316
1772806919450248400,1.61124853515625,-0.0009539442835375667,0.006080529186874628,0.0022442457266151905
1772806919460179500,1.621179443359375,0.0005046690348535776,0.006570284720510244,-0.0019185412675142288
1772806919470111500,1.631111572265625,0.0008546083699911833,0.004770786967128515,-0.00043755737715400755
1772806919480043800,1.641043701171875,0.0005081311101093888,0.007148456759750843,0.000547279603779316
1772806919489975800,1.650975830078125,0.001163268811069429,0.0068243504501879215,0.0008026767172850668
1772806919499906600,1.660906494140625,-0.0013108078856021166,0.005426457151770592,-0.0009861685102805495
1772806919509838600,1.670838623046875,-0.0014045510906726122,0.004225637763738632,-0.0012365056900307536
1772806919519770600,1.6807705078125,0.0013851100811734796,0.005037901923060417,0.0010998855577781796
1772806919529702700,1.69070263671875,-0.0003608583356253803,0.004820588044822216,-0.0011747203534469008
1772806919539633400,1.70063330078125,-0.0020929782185703516,0.0026290726382285357,0.001412806916050613
1772806919549565400,1.7105654296875,0.00003355582884978503,0.003772367723286152,-0.00024048343766480684
1772806919559497500,1.72049755859375,-0.0021086910273879766,0.004808870144188404,0.0005853627808392048
1772806919569429800,1.7304296875,-0.001407480682246387,0.0022602248936891556,0.0005081311101093888
1772806919579360500,1.740360595703125,-0.0015185344964265823,0.009409214369952679,-0.0012221246724948287
1772806919589292500,1.75029248046875,-0.0015004249289631844,0.00603525573387742,-0.00014887070574332029
1772806919599224600,1.760224609375,-0.0003486077766865492,0.0032027175184339285,-0.0002479403046891093
1772806919609156600,1.770156494140625,-0.002222940558567643,0.00830613262951374,0.00035926041891798377
1772806919619087600,1.780087646484375,-0.0005853627808392048,0.00475427508354187,0.0011291803093627095
1772806919629019400,1.790019287109375,0.000030360035452758893,0.004116448108106852,-0.0015773903578519821
1772806919638951400,1.799951416015625,-0.0014287859667092562,0.006819556467235088,0.0013251889031380415
1772806919648883500,1.809883544921875,0.0024234766606241465,0.0031097731553018093,0.0013409015955403447
1772806919658814700,1.819814697265625,-0.0007371630053967237,0.004043477587401867,-0.0008317052270285785
1772806919668746500,1.82974658203125,-0.0019773971289396286,0.005952164996415377,-0.0004146541759837419
1772806919678678500,1.839678466796875,-0.00008175904804375023,0.009366337209939957,0.002091380301862955
1772806919688610600,1.849610595703125,0.00045327001134864986,0.007380684372037649,0.0010306433541700244
1772806919698541600,1.85954150390625,-0.0013275857781991363,0.006750847212970257,-0.00054142065346241
1772806919708473600,1.8694736328125,-0.0012740562669932842,0.005880792159587145,0.0009946906939148903
1772806919718405400,1.8794052734375,0.0007313040550798178,0.0075484635308384895,-0.00027616979787126184
1772806919728337400,1.88933740234375,-0.003524960018694401,0.008380435407161713,0.0003398193512111902
1772806919738268700,1.8992685546875,-0.0024735440965741873,0.0065263425931334496,0.00007297061529243365
1772806919748200700,1.90920068359375,-0.001517735538072884,0.00714712543413043,-0.001130511867813766
1772806919758132700,1.9191328125,-0.0006913566030561924,0.006967628374695778,-0.0010863033821806312
1772806919768064500,1.929064453125,-0.0011976235546171665,0.007515707053244114,-0.001133707701228559
1772806919777995500,1.93899560546875,-0.0001531317684566602,0.007095459848642349,-0.0003406183095648885
1772806919787927600,1.948927490234375,0.00037763622822239995,0.004538825247436762,0.0003038666909560561
1772806919797859600,1.958859619140625,-0.0010724549647420645,0.006114617921411991,0.0003384877636563033
1772806919807791400,1.968791259765625,-0.0017438378417864442,0.00634897593408823,-0.0005430185701698065
1772806919817722600,1.97872265625,-0.001047421246767044,0.00848456472158432,0.000523577444255352
1772806919827654700,1.988654541015625,-0.003186738584190607,0.011672368273139,-0.00037683729897253215
1772806919837586700,1.998586669921875,-0.0025001754984259605,0.006337790749967098,-0.0010013486025854945
1772806919847518700,2.008518798828125,-0.0012815131340175867,0.00583791546523571,0.00023222764139063656
1772806919857449500,2.018449462890625,-0.0023427826818078756,0.006200105417519808,-0.000029827404432580806
1772806919867381500,2.028381591796875,-0.002552906284108758,0.0038892803713679314,0.0002926813904196024
1772806919877313500,2.0383134765625,-0.0014024205738678575,0.006323942448943853,-0.0025209481827914715
1772806919887245600,2.04824560546875,-0.002444781828671694,0.007200655061751604,-0.0003576625313144177
1772806919897176600,2.058176513671875,0.001466869143769145,0.0027182884514331818,-0.0035489285364747047
1772806919907108600,2.068108642578125,-0.0017694041598588228,0.002502838848158717,-0.0012639362830668688
1772806919917040600,2.07804052734375,0.00039787625428289175,0.00376064982265234,0.0003454120014794171
1772806919926972700,2.08797265625,0.0010950918076559901,0.003932423423975706,-0.002270078519359231
1772806919936903400,2.0979033203125,0.0001627191377338022,0.003772101365029812,-0.0021883193403482437
1772806919946835500,2.10783544921875,0.00039308256236836314,0.004573446698486805,0.0018122810870409012
1772806919956767500,2.117767578125,-0.002371278591454029,0.005604089703410864,0.00033688987605273724
1772806919966699500,2.127699462890625,-0.0007917577750049531,0.0065108961425721645,-0.0018373148050159216
1772806919976630800,2.137630859375,-0.00002663161103555467,0.0037238982040435076,0.0010466222884133458
1772806919986562600,2.1475625,-0.0019947076216340065,0.00418329332023859,0.000031425301131093875
1772806919996494600,2.15749462890625,-0.0017243968322873116,0.003634415799751878,0.00003834952076431364
1772806920006426600,2.167426513671875,0.00024341292737517506,0.00609411159530282,-0.0010258496040478349
1772806920016357600,2.177357666015625,0.0013350426452234387,0.005906891077756882,0.0007816377910785377
1772806920026289700,2.18728955078125,0.001118527608923614,0.004670385736972094,-0.0006356965750455856
1772806920036221400,2.197221435546875,0.000051132694352418184,0.0028298748657107353,-0.004628840368241072
1772806920046153500,2.207153564453125,-0.001398425898514688,0.005395297892391682,0.0003741741238627583
1772806920056084700,2.217084716796875,-0.0005185174522921443,0.006828611250966787,0.0031121699139475822
1772806920066016800,2.227016845703125,-0.00021997711155563593,0.008105597458779812,0.0005299690528772771
1772806920075948500,2.236948486328125,0.0004290352517273277,0.004728176165372133,0.00016351809608750045
1772806920085880600,2.246880615234375,-0.0008847020799294114,0.006487193983048201,-0.00028309403569437563
1772806920095811600,2.2568115234375,-0.0003115898580290377,0.004120708908885717,0.000045540054998127744
1772806920105743600,2.26674365234375,-0.00025007082149386406,0.005030977539718151,0.00006444849714171141
1772806920115675600,2.276675537109375,-0.0008261125767603517,0.00811997801065445,-0.000319845654303208
1772806920125607400,2.286607421875,-0.0035720979794859886,0.00640703272074461,-0.001100684516131878
1772806920135539500,2.29653955078125,-0.0009057410643436015,0.005501824431121349,-0.0015646071406081319
1772806920145470700,2.306470703125,-0.001612011343240738,0.008203068748116493,-0.0015371765475720167
1772806920155402800,2.31640283203125,-0.0019920445047318935,0.005468268413096666,-0.0008697884040884674
1772806920165334800,2.326334716796875,-0.0009219863568432629,0.00555109279230237,-0.00015579492901451886
1772806920175265500,2.336265625,0.0002271676348755136,0.004405667539685965,0.001990180229768157
1772806920185197600,2.346197509765625,-0.0004295678809285164,0.004992628004401922,0.00008442220860160887
1772806920195129600,2.356129638671875,-0.0006639260682277381,0.006179599091410637,-0.001288171042688191
1772806920205061600,2.3660615234375,-0.0006820355774834752,0.006645385641604662,0.0009784454014152288
1772806920214992600,2.37599267578125,-0.001136637176387012,0.003867442486807704,0.001178448786959052
1772806920224924700,2.385924560546875,-0.0006111954571679235,0.005813680589199066,-0.0016335829859599471
1772806920234856700,2.395856689453125,-0.001761148450896144,0.006957241799682379,0.003231213428080082
1772806920244788700,2.405788818359375,-0.0022916500456631184,0.009082444943487644,0.0009960222523659468
1772806920254719500,2.415719482421875,0.000651675509288907,0.007449127733707428,0.0008862999966368079
1772806920264651500,2.425651611328125,-0.0010639328975230455,0.00833729188889265,-0.0010793792316690087
1772806920274583600,2.43558349609375,-0.001826662220992148,0.006952448282390833,-0.00020666129421442747
1772806920284515600,2.445515625,0.0013659353135153651,0.005622465629130602,-0.00008788431296125054
1772806920294446600,2.455446533203125,-0.001714010490104556,0.0065532405860722065,-0.0008689894457347691
1772806920304378600,2.465378662109375,0.001490571303293109,0.004923386033624411,0.0009456885163672268
1772806920314310700,2.475310546875,-0.001704955706372857,0.004825914278626442,-0.0013233247445896268
1772806920324242700,2.48524267578125,0.0001715075777610764,0.006613161414861679,0.000791491474956274
1772806920334173700,2.495173583984375,-0.004723382648080587,0.007877630181610584,-0.0004884237423539162
1772806920344105500,2.50510546875,-0.001202150946483016,0.005662412848323584,0.00039707732503302395
1772806920354037500,2.51503759765625,-0.00008362325752386823,0.008591623976826668,0.0003195793251506984
1772806920363969500,2.524969482421875,-0.0007661914569325745,0.004957740660756826,0.002435993403196335
1772806920373901600,2.534901611328125,0.0014729943359270692,0.0033595776185393333,0.0007030745036900043
1772806920383832600,2.54483251953125,-0.0007494135061278939,0.004171309061348438,0.000218645524000749
1772806920393764600,2.5547646484375,-0.0008463526028208435,0.007141266483813524,-0.000021305288100847974
1772806920403696600,2.564696533203125,-0.002746251644566655,0.003974501509219408,-0.000023968450477696024
1772806920413628700,2.574628662109375,-0.0005089300684630871,0.00660437298938632,-0.00039414784987457097
1772806920423559700,2.5845595703125,-0.0015536881983280182,0.004493551794439554,0.0008617989369668067
1772806920433492000,2.594491943359375,-0.0002069276088150218,0.0038280277512967587,0.0003454120014794171
1772806920443423700,2.604423828125,0.000278300343779847,0.005654956214129925,-0.0009262474486604333
1772806920453355800,2.614355712890625,-0.001139566651545465,0.006963367108255625,0.0015369103057309985
1772806920463286800,2.624286865234375,-0.001490304945036769,0.005871737375855446,-0.0012322446564212441
1772806920473218800,2.63421875,-0.0007640608819201589,0.0073021212592720985,-0.0011595403775572777
1772806920483150800,2.64415087890625,-0.0012490225490182638,0.006868026219308376,0.0003448793722782284
1772806920493083000,2.654082763671875,-0.0017025588313117623,0.005819273181259632,0.0016998957144096494
1772806920503014000,2.664013916015625,-0.0010990865994244814,0.005033107940107584,0.0022027005907148123
1772806920512946000,2.67394580078125,-0.000494016392622143,0.0026908579748123884,0.0010245180455967784
1772806920522878000,2.6838779296875,-0.0007880293414928019,0.008716526441276073,0.0018852517241612077
1772806920532808700,2.69380859375,0.00040426786290481687,0.007765777874737978,0.002144909929484129
1772806920542740700,2.70374072265625,-0.0026258768048137426,0.00538357999175787,-0.0003193130251020193
1772806920552672800,2.7136728515625,-0.001425057533197105,0.0046698530204594135,-0.0012157330056652427
1772806920562604800,2.723604736328125,-0.002822684356942773,0.007397462613880634,0.0003259709046687931
1772806920572536800,2.733536865234375,0.0026069683954119682,0.005806223955005407,-0.002487126039341092
1772806920582467800,2.7434677734375,-0.0005834985640831292,0.00452950457111001,0.001427987008355558
1772806920592400000,2.75339990234375,-0.0012245214311406016,0.006524478085339069,-0.001335841603577137
1772806920602332000,2.763331787109375,0.0005020058597438037,0.005811816547065973,-0.0015656723408028483
1772806920612264000,2.773263916015625,-0.0010149306617677212,0.0046386937610805035,-0.0001496696495451033
1772806920622194700,2.783194580078125,-0.0012199940392747521,0.006000102031975985,-0.0006266417913138866
1772806920632126700,2.793126708984375,-0.0004601942200679332,0.006411826703697443,-0.0009914948605000973
1772806920642058800,2.803058837890625,-0.00026844663079828024,0.005754025653004646,-0.0010604707058519125
1772806920651990800,2.81299072265625,-0.0002609897928778082,0.0054123420268297195,-0.0014911039033904672
1772806920661921800,2.822921875,-0.0003376888344064355,0.006250971462577581,0.0011432950850576162
1772806920671853800,2.832853759765625,-0.0022034994326531887,0.008813198655843735,0.00005299690383253619
1772806920681785900,2.842785888671875,-0.0011254518758505583,0.006293582264333963,-0.00005193164179218002
1772806920691718000,2.8527177734375,-0.0008655273704789579,0.008112520910799503,0.0015749934827908874
1772806920701649000,2.86264892578125,-0.002170742489397526,0.005574262235313654,-0.001645567244850099
1772806920711580700,2.87258056640625,-0.0022599585354328156,0.0072962623089551926,-0.001318264752626419
1772806920721512700,2.8825126953125,-0.00020959076937288046,0.005745769944041967,0.00047936898772604764
1772806920731444700,2.89244482421875,-0.0018991001415997744,0.005469067487865686,-0.0024399880785495043
1772806920741376000,2.9023759765625,-0.0007390272221527994,0.005592638161033392,-0.0027947211638092995
1772806920751307800,2.912307861328125,0.0008285093936137855,0.004971056245267391,-0.00039947417099028826
1772806920761239800,2.92223974609375,-0.0024865935556590557,0.00603339122608304,0.002037584548816085
1772806920771171800,2.932171875,-0.0016642092959955335,0.004986769054085016,-0.00047697214176878333
1772806920781102800,2.942102783203125,-0.0009731190511956811,0.007798002101480961,0.00006391586794052273
1772806920791035000,2.952034912109375,-0.0010602044640108943,0.0060262009501457214,0.0009701895760372281
1772806920800966700,2.961966552734375,-0.0009749832679517567,0.00583685003221035,0.0015824503498151898
1772806920810898700,2.971898681640625,-0.0006141249323263764,0.005554554983973503,0.0014484933344647288
1772806920820830000,2.981829833984375,-0.00045353634050115943,0.006471747532486916,0.0013382384786382318
1772806920830762000,2.991761962890625,-0.002579537918791175,0.00785792339593172,0.002011219272390008
1772806920840694000,3.001694091796875,0.001374723738990724,0.0067817396484315395,0.0014916365034878254
1772806920850625800,3.011625732421875,-0.00022130868455860764,0.0059628174640238285,0.0020812603179365396
1772806920860556800,3.021556884765625,-0.0025832662358880043,0.005042429082095623,0.0018245317041873932
1772806920870488800,3.03148876953125,-0.0014405038673430681,0.004579572007060051,0.002287655370309949
1772806920880420900,3.0414208984375,0.0005467469454742968,0.004241084214299917,0.0022895196452736855
1772806920890352600,3.0513525390625,0.0009129316313192248,0.0054730623960494995,-0.0011105381418019533
1772806920900284000,3.061283935546875,0.00026258768048137426,0.005246427375823259,-0.0009624664089642465
1772806920910216000,3.0712158203125,-0.0006916229031048715,0.00404480891302228,-0.0009912285022437572
1772806920920148000,3.08114794921875,0.0006788397440686822,0.006868026219308376,-0.002092179376631975
1772806920930080000,3.091080078125,-0.0003962783666793257,0.003531351685523987,-0.0015398397808894515
1772806920940010800,3.1010107421875,-0.00005805691034765914,0.009376457892358303,-0.0006844323943369091
1772806920949942800,3.11094287109375,-0.000627707049716264,0.006561229936778545,-0.0025888588279485703
1772806920959874800,3.120874755859375,-0.0007568703731521964,0.007445133291184902,-0.00046072687837295234
1772806920969806800,3.130806884765625,-0.0008905610884539783,0.004042145796120167,0.00016298545233439654
1772806920979737900,3.14073779296875,0.0010373012628406286,0.006334861274808645,-0.0003312972257845104
1772806920989670000,3.150669921875,-0.0011651329696178436,0.00743261631578207,0.0016109461430460215
1772806920999602000,3.160601806640625,-0.0011789813870564103,0.008587895892560482,-0.0012652678415179253
1772806921009534000,3.170533935546875,-0.001716939965263009,0.005332713946700096,-0.004014449194073677
1772806921019464700,3.180464599609375,0.0008306399104185402,0.006619553081691265,-0.007660582661628723
1772806921029396700,3.190396728515625,-0.0007848335662856698,0.0046301716938614845,-0.007701328955590725
1772806921039328800,3.200328857421875,0.004564658273011446,0.0007166566210798919,-0.0005187837523408234
1772806921049260800,3.2102607421875,-0.0015020228456705809,0.0120702451094985,0.008814530447125435
1772806921059192000,3.220192138671875,-0.0028935244772583246,0.006941795814782381,0.004709800239652395
1772806921069123800,3.230123779296875,0.00020106865849811584,-0.003593935864046216,0.0020812603179365396
1772806921079056000,3.240055908203125,0.0002942793071269989,0.003995540551841259,0.0024506407789885998
1772806921088988000,3.24998779296875,-0.0010604707058519125,0.010265686549246311,-0.011499796062707901
1772806921098919000,3.2599189453125,-0.0009089368977583945,0.00392736354842782,0.00021118867152836174
1772806921108851000,3.269850830078125,-0.003369697602465749,0.015043930150568485,-0.0054339137859642506
1772806921118782700,3.27978271484375,-0.004369448404759169,0.008176437579095364,0.007604389917105436
1772806921128714800,3.28971484375,-0.0003563309437595308,0.0073468624614179134,0.0023853934835642576
1772806921138645800,3.299645751953125,-0.0011616708943620324,0.006711432244628668,-0.0014679343439638615
1772806921148578000,3.309578125,-0.002975283656269312,0.012648949399590492,-0.0032320122700184584
1772806921158509800,3.319509765625,-0.0023635553661733866,0.007075752597302198,-0.0036735644098371267
1772806921168441900,3.32944189453125,-0.0015539544401690364,0.00555135915055871,-0.003790477057918906
1772806921178372900,3.339372802734375,-0.00267674308270216,0.002011219272390008,-0.003540406236425042
1772806921188305000,3.349304931640625,-0.0011257182341068983,0.01149766519665718,0.001142229768447578
1772806921198237000,3.35923681640625,0.000699079770129174,0.005122590344399214,-0.0003195793251506984
1772806921208168700,3.369168701171875,-0.00016698020044714212,0.007367635145783424,0.009257148019969463
1772806921218099700,3.379099609375,-0.00239151855930686,0.004437092691659927,0.0044232443906366825
1772806921228032000,3.389031982421875,0.0002878876985050738,0.003434146288782358,-0.00043010051012970507
1772806921237964000,3.398964111328125,-0.0009376989910379052,0.004736698232591152,-0.0014053500490263104
1772806921247896000,3.40889599609375,0.00025486451340839267,-0.00038242992013692856,-0.0035507925786077976
1772806921257826800,3.418826904296875,-0.002855974016711116,0.011743474751710892,-0.0033904702868312597
1772806921267758800,3.4287587890625,-0.0028013791888952255,0.00986434891819954,-0.00013262542779557407
1772806921277691000,3.43869091796875,-0.003296460723504424,0.006394249852746725,0.000913197931367904
1772806921287623000,3.448622802734375,0.00029081720276735723,0.007879228331148624,0.0035635759122669697
1772806921297553700,3.4585537109375,-0.0008913599886000156,0.009909089654684067,0.002110288944095373
1772806921307485700,3.468485595703125,-0.002478337613865733,0.0032202943693846464,0.00025779398856684566
1772806921317418000,3.47841796875,-0.0037787591572850943,0.005319131538271904,-0.0007566040731035173
1772806921327350000,3.48835009765625,-0.0009273127070628107,0.007446198258548975,-0.00016351809608750045
1772806921337280800,3.49828076171875,0.00027537086862139404,0.006058158818632364,0.0001994707708945498
1772806921347212800,3.508212890625,0.0011526161106303334,0.003859186777845025,0.0004873584839515388
1772806921357144800,3.518144775390625,-0.001614940818399191,0.006642988882958889,0.0006332996999844909
1772806921367076900,3.528076904296875,-0.0024836640805006027,0.0049678608775138855,-0.0009022789890877903
1772806921377007600,3.538007568359375,-0.001374457380734384,0.002683401107788086,0.001913481275551021
1772806921386939600,3.547939697265625,0.0000018642127770363004,0.0063154203817248344,-0.0004926847759634256
1772806921396871700,3.55787158203125,-0.0000953411654336378,0.0016048208344727755,0.0011699266033247113
1772806921406804000,3.567803955078125,-0.00037523938226513565,0.006882140878587961,-0.0006130596739239991
1772806921416735000,3.57773486328125,0.00009906959166983142,0.009151686914265156,-0.0014855111949145794
1772806921426666800,3.587666748046875,-0.0012572783743962646,0.006522081326693296,-0.0006402239087037742
1772806921436598000,3.597597900390625,0.00015872440417297184,0.00538544449955225,-0.00023409185814671218
1772806921446530000,3.607530029296875,-0.0008223841432482004,0.00851439218968153,0.0026439863722771406
1772806921456461300,3.61746142578125,-0.00031425300403498113,0.006363889668136835,-0.001415736391209066
1772806921466393000,3.62739306640625,-0.0007262440049089491,0.00600436283275485,-0.0021965752821415663
1772806921476325000,3.6373251953125,-0.00047377636656165123,0.005927131045609713,0.000752875639591366
1772806921486257200,3.647257080078125,-0.0004348942020442337,0.005875199567526579,-0.0024407871533185244
1772806921496188200,3.657188232421875,-0.0006327670416794717,0.0075575183145701885,0.0005004079430364072
1772806921506120200,3.6671201171875,-0.0010567422723397613,0.005486111622303724,0.0021467742044478655
1772806921516052000,3.677052001953125,-0.0008322378271259367,0.006749515421688557,0.0004442152567207813
1772806921525984000,3.68698388671875,-0.0006111954571679235,0.005301021970808506,0.002002430846914649
1772806921535915300,3.696915283203125,-0.002516420790925622,0.008550078608095646,0.0008391620358452201
1772806921545847300,3.706847412109375,0.0006506102508865297,0.007463775109499693,0.00011345066013745964
1772806921555779000,3.716779052734375,-0.0019294602097943425,0.007999337278306484,0.002532133599743247
1772806921565711000,3.726711181640625,-0.0005645901546813548,0.008443285711109638,0.0011478224769234657
1772806921575642000,3.73664208984375,-0.0005976133397780359,0.0037763623986393213,0.0014895059866830707
1772806921585574100,3.74657421875,-0.0013187973527237773,0.006654706783592701,0.0028461201582103968
1772806921595506200,3.756506103515625,-0.0029995182994753122,0.006798783782869577,0.0035606464371085167
1772806921605438000,3.76643798828125,0.0003414172388147563,0.0031704932916909456,0.002222141483798623
1772806921615369000,3.776368896484375,-0.0008085357258096337,0.0037350833881646395,-0.0010490191634744406
1772806921625301200,3.78630126953125,-0.0014266553334891796,0.003982757218182087,-0.0008929579053074121
1772806921635233300,3.7962333984375,-0.0018399780383333564,0.0027798074297606945,-0.00583658367395401
1772806921645165300,3.806165283203125,-0.0013065468519926071,0.0029891319572925568,0.0017829863354563713
1772806921655096000,3.816095947265625,-0.0021401161793619394,0.0028842033352702856,0.0026988473255187273
1772806921665028000,3.826028076171875,-0.0007781756576150656,0.0057071540504693985,0.0017952368361875415
1772806921674960100,3.835960205078125,0.0004117247008252889,0.004347078036516905,0.0025989788118749857
1772806921684892200,3.84589208984375,-0.0029606360476464033,0.006482134107500315,-0.00028522455249913037
1772806921694823000,3.855822998046875,-0.0009512811084277928,0.004033357370644808,0.0017595505341887474
1772806921704755000,3.8657548828125,-0.002161954063922167,0.005625661462545395,0.0024927188642323017
1772806921714687200,3.875687255859375,-0.0031814121175557375,0.008779110386967659,-0.00043888893560506403
1772806921724619300,3.885619384765625,0.00039414784987457097,0.006929278839379549,0.0027920580469071865
1772806921734550000,3.895550048828125,-0.0007233145297504961,0.007877896539866924,-0.00039654469583183527
1772806921744482000,3.90548193359375,-0.002037850907072425,0.005600893869996071,0.0016178702935576439
1772806921754414000,3.9154140625,-0.0014711301773786545,0.006678675301373005,-0.0004474110610317439
1772806921764346000,3.92534619140625,0.00010333064710721374,0.008990298956632614,-0.0007821703911758959
1772806921774276900,3.93527685546875,-0.00046339002437889576,0.004808071069419384,-0.003563842037692666
1772806921784209000,3.945208984375,0.000075101139373146,0.0037675739731639624,0.000618918624240905
1772806921794141000,3.955140869140625,0.002034655073657632,0.003748399205505848,0.002810966456308961
1772806921804073200,3.9650732421875,0.00028762139845639467,0.004460528492927551,0.0018397116800770164
1772806921814004200,3.975004150390625,-0.003058906877413392,0.005823268089443445,0.00236328924074769
1772806921823936000,3.98493603515625,-0.0009201221400871873,0.005850698333233595,-0.0011267834343016148
1772806921833866200,3.9948662109375,-0.001264735241420567,0.00806165486574173,-0.002498843939974904
1772806921843798300,4.00479833984375,-0.0024202808272093534,0.00341550400480628,0.0007350324303843081
1772806921853730300,4.014730224609375,-0.002153964713215828,0.004226702731102705,0.0006559365428984165
1772806921863662000,4.024662109375,0.00023915186466183513,0.006199039984494448,0.0006748450105078518
1772806921873593000,4.034593017578125,-0.0014165353495627642,0.005871205125004053,0.0012114719720557332
1772806921883525000,4.044525146484375,0.00031372037483379245,0.003891677362844348,0.004092213232070208
1772806921893457200,4.05445703125,-0.0007510114228352904,0.006825681775808334,-0.0015044197207316756
1772806921903389000,4.064388916015625,0.0006540723843500018,0.0036136433482170105,0.001133707701228559
1772806921913320200,4.0743203125,-0.0009651295840740204,0.0028602350503206253,0.0011664645280689
1772806921923252200,4.084252197265625,-0.0005701828049495816,0.004733768757432699,-0.00038269624928943813
1772806921933184300,4.094184326171875,-0.001514273346401751,0.016447149217128754,0.0036783581599593163
1772806921943116300,4.1041162109375,0.0007432882557623088,0.007121825125068426,-0.00011877698125317693
1772806921953047000,4.114047119140625,-0.0005486111622303724,0.009182047098875046,0.00012516857532318681
1772806921962979000,4.12397900390625,-0.000261788722127676,0.012892629019916058,0.005501824431121349
1772806921972911000,4.1339111328125,-0.0008149272762238979,0.009414806962013245,-0.0022831279784440994
1772806921982843100,4.143843017578125,-0.0010317085543647408,0.004826713353395462,0.0023635553661733866
1772806921992774000,4.15377392578125,-0.0016189356101676822,0.005072522908449173,-0.002508165081962943
1772806922002706200,4.1637060546875,-0.002374208066612482,0.007135407533496618,0.0012013519881293178
1772806922012638200,4.17363818359375,0.0018439727136865258,0.007283213082700968,0.0002495381922926754
1772806922022570200,4.1835703125,-0.0012370382901281118,0.008235293440520763,0.002767557045444846
1772806922032501000,4.1935009765625,0.0012058793799951673,0.004176635295152664,0.005434446502476931
1772806922042433000,4.20343310546875,-0.001008805469609797,0.009120527654886246,0.0014650048688054085
1772806922052365000,4.213364990234375,0.0004439489566721022,0.002335858531296253,0.0020415792241692543
1772806922062297000,4.223297119140625,-0.002292981604114175,0.010552509687840939,0.0016974988393485546
1772806922072228000,4.23322802734375,-0.002603506203740835,0.00998898409307003,0.0021859225817024708
1772806922082159900,4.243159912109375,-0.0010434264549985528,0.011962653137743473,0.0038978024385869503
1772806922092092200,4.253092041015625,-0.00048176583368331194,0.007893343456089497,0.0012330436147749424
1772806922102024200,4.263024169921875,0.0004881574132014066,0.006100503262132406,0.0025417208671569824
1772806922111955200,4.272955078125,0.00021385183208622038,0.006322077941149473,0.0005201153689995408
1772806922121887200,4.28288720703125,-0.0015401060227304697,0.0057015614584088326,-0.0013350426452234387
1772806922131819000,4.292819091796875,-0.0010804444318637252,-0.0007981493836268783,0.0018346516881138086
1772806922141751000,4.3027509765625,-0.0023299995809793472,0.008932774886488914,0.0023909860756248236
1772806922151682000,4.31268212890625,0.0007643272401764989,0.002865294925868511,0.00021065604232717305
1772806922161614000,4.322614013671875,-0.0016647420125082135,0.005572131834924221,0.0022120214998722076
1772806922171545900,4.3325458984375,-0.001802693703211844,0.009826797991991043,-0.00008122641156660393
1772806922181478100,4.34247802734375,-0.00014141385327093303,0.006238188594579697,-0.0030162963084876537
1772806922191409200,4.3524091796875,-0.001603755634278059,0.004451473709195852,-0.0015560849569737911
1772806922201341200,4.362341064453125,-0.001639441936276853,0.005022189114242792,-0.002377137541770935
1772806922211274200,4.372274169921875,-0.001160072977654636,0.0029678267892450094,0.00035473305615596473
1772806922221206300,4.382206298828125,-0.0009062737226486206,0.002755572786554694,-0.003040530951693654
1772806922231138000,4.392137939453125,-0.0016101471846923232,0.004582235123962164,-0.0005249090609140694
1772806922241070000,4.402070068359375,0.00021411814668681473,0.007666974328458309,0.0014660701854154468
1772806922251001000,4.4120009765625,-0.0030368026345968246,0.005577191710472107,-0.00027297402266412973
1772806922260933000,4.42193310546875,0.001163268811069429,0.007132478058338165,-0.0007597998483106494
1772806922270865200,4.431865234375,-0.0019712718203663826,0.010459565557539463,-0.0006562029011547565
1772806922280797000,4.441796875,-0.002101234160363674,0.025710955262184143,0.0013142699608579278
1772806922290728200,4.451728271484375,-0.0012998889433220029,0.015502792783081532,0.0006641923682764173
1772806922300660200,4.46166015625,-0.0005699164466932416,0.005462143570184708,-0.0011677960865199566
1772806922310592300,4.47159228515625,-0.0024445154704153538,0.019228022545576096,0.0000500674286740832
1772806922320524000,4.48152392578125,-0.0007382282637991011,0.005476790945976973,-0.0006641923682764173
1772806922330455000,4.491455078125,-0.0016010924009606242,0.016886038705706596,0.0009701895760372281
1772806922340387000,4.501386962890625,-0.00006391586794052273,-0.001136637176387012,0.0004791026876773685
1772806922350319000,4.511319091796875,-0.00316010694950819,-0.0024311996530741453,-0.0010892328573390841
1772806922360251100,4.521251220703125,-0.0029079054947942495,0.014241520315408707,0.0015398397808894515
1772806922370182100,4.53118212890625,0.0008194546680897474,0.0075455340556800365,-0.001437308033928275
1772806922380114200,4.5411142578125,-0.001454618526622653,-0.003226952161639929,-0.00010679275874281302
1772806922390046200,4.551046142578125,-0.002487126039341092,0.010962103493511677,-0.001660480978898704
1772806922399978200,4.560978271484375,-0.0017992316279560328,0.016339559108018875,0.0010735202813521028
1772806922409909000,4.570908935546875,-0.0006948187365196645,0.006573746912181377,-0.0015851134667173028
1772806922419841000,4.580841064453125,-0.002222141483798623,0.007025685161352158,-0.00287461606785655
1772806922429773000,4.59077294921875,-0.0017177389236167073,0.006744189187884331,-0.0037638454232364893
1772806922439705300,4.600705322265625,-0.0036479979753494263,0.0033606430515646935,-0.00038828887045383453
1772806922449636400,4.61063623046875,-0.001710814656689763,0.0068389978259801865,-0.0017467673169448972
1772806922459568400,4.620568359375,-0.0007502124644815922,0.006834736559540033,-0.002386725042015314
1772806922469500400,4.63050048828125,-0.0003603257064241916,0.007069094572216272,-0.0008042746339924634
1772806922479432400,4.640432373046875,-0.00028336033574305475,0.007107444107532501,0.0013725932221859694
1772806922489363500,4.650363525390625,-0.0038980687968432903,0.007496798411011696,-0.0021084246691316366
1772806922499295500,4.66029541015625,0.0003528688393998891,0.006918626371771097,-0.0008109325426630676
1772806922509227300,4.670227294921875,-0.0010388991795480251,0.009779393672943115,-0.00341603672131896
1772806922519159300,4.6801591796875,-0.002098038326948881,0.006198507267981768,-0.003100185887888074
1772806922529090300,4.69009033203125,-0.0004239752306602895,0.004163319710642099,-0.0023166837636381388
1772806922539022300,4.700022216796875,0.00016644757124595344,0.0065404572524130344,-0.001787779969163239
1772806922548954400,4.709954345703125,-0.0008609999786131084,0.0048975530080497265,-0.0011606055777519941
1772806922558886400,4.719886474609375,0.00024208133982028812,0.005061604082584381,-0.0018663433147594333
1772806922568817400,4.7298173828125,-0.0023845944087952375,0.007413974031805992,-0.0009914948605000973
1772806922578749400,4.73974951171875,-0.0005486111622303724,0.004268248099833727,-0.00011371697473805398
1772806922588681500,4.749681396484375,0.001103880233131349,0.0054626758210361,-0.0013377057621255517
1772806922598613500,4.759613525390625,-0.000358461489668116,0.005300223361700773,0.0005169195355847478
1772806922608544300,4.769544189453125,-0.002484729280695319,0.004772651009261608,-0.0005494101205840707
1772806922618476300,4.779476318359375,-0.0009544769418425858,0.005065065808594227,0.0007177218794822693
1772806922628408300,4.789408203125,-0.0005888249143026769,0.006326605565845966,-0.0005693838465958834
1772806922638340400,4.79934033203125,0.000467118457891047,0.003011236200109124,0.002386192325502634
1772806922648271400,4.809271240234375,-0.0018370485631749034,0.0051809134893119335,-0.00016058860637713224
1772806922658203400,4.819203369140625,-0.003096723696216941,0.005276254843920469,-0.0009233179152943194
1772806922668135400,4.829135498046875,-0.00159470085054636,0.004092479590326548,-0.0015792545164003968
1772806922678067500,4.8390673828125,-0.0019856528379023075,0.00574896577745676,0.0012269183062016964
1772806922687998200,4.848998291015625,0.0009339706157334149,0.007000118959695101,-0.00023169501218944788
1772806922697930200,4.85893017578125,-0.000678307143971324,0.008560198359191418,-0.0024519723374396563
1772806922707862300,4.8688623046875,-0.0025630262680351734,0.008466987870633602,0.0013928331900388002
1772806922717794300,4.878794189453125,-0.00256382510997355,0.0059718722477555275,-0.00035127095179632306
1772806922727725300,4.888725341796875,-0.0006165218073874712,0.003940413240343332,0.00007962851668708026
1772806922737657300,4.8986572265625,0.00003435477628954686,0.004877845756709576,-0.0006799050024710596
1772806922747589400,4.90858935546875,-0.0007131945458240807,0.003337739733979106,0.00007376955909421667
1772806922757521400,4.918521484375,-0.00011611382069531828,0.005181446205824614,0.0009105347562581301
1772806922767452400,4.928452392578125,-0.0022485069930553436,0.00618119677528739,-0.0006002765148878098
1772806922777384200,4.93838427734375,0.00013209278404247016,0.004834436345845461,-0.0014199974248185754
1772806922787316200,4.948316162109375,0.0003217098710592836,0.005657619331032038,-0.0005049353349022567
1772806922797248300,4.958248291015625,-0.0019683423452079296,0.006189186125993729,0.0023486416321247816
1772806922807179500,4.968179443359375,-0.003085272153839469,0.008478173054754734,0.0004665858286898583
1772806922817111600,4.978111572265625,-0.00036751621519215405,0.007330351043492556,0.0010684601729735732
1772806922827043300,4.988043212890625,-0.002514024032279849,0.008813997730612755,0.0011052117915824056
1772806922836975400,4.997975341796875,-0.0005789712304249406,0.005920207127928734,0.00010572749306447804
1772806922846906400,5.00790625,-0.0023209447972476482,0.005626194179058075,-0.002463423879817128
1772806922856838400,5.01783837890625,-0.0016695356462150812,0.008559665642678738,-0.0013662016717717052
1772806922866770200,5.027770263671875,-0.0003992078418377787,0.004394215997308493,-0.0008953547803685069
1772806922876702200,5.0377021484375,0.00002663161103555467,0.005332181230187416,-0.002816559048369527
1772806922886633500,5.047633544921875,-0.0014474280178546906,0.003826429834589362,0.000672181835398078
1772806922896565500,5.0575654296875,-0.002228266792371869,0.006527673918753862,0.001210673013702035
1772806922906497500,5.06749755859375,-0.0014692660188302398,0.00497984467074275,0.00042530681821517646
1772806922916429300,5.07742919921875,-0.0021382521372288465,0.005945506971329451,-0.00045087316539138556
1772806922926360300,5.0873603515625,-0.0022295983508229256,0.008281365968286991,-0.0022082931827753782
1772806922936292400,5.097292236328125,-0.0030415961518883705,0.007927698083221912,0.00133850472047925
1772806922946224400,5.107224365234375,-0.0004695153038483113,0.004697549622505903,-0.00036511936923488975
1772806922956156400,5.117156494140625,-0.004120975267142057,0.002335326047614217,0.0005797701887786388
1772806922966087400,5.12708740234375,-0.0007214503129944205,0.004217648413032293,0.00041784998029470444
1772806922976019500,5.13701953125,-0.0006293049664236605,0.006804909091442823,0.001814944320358336
1772806922985951500,5.146951416015625,-0.0017052220646291971,0.0059785302728414536,0.0015970977256074548
1772806922995883500,5.156883544921875,-0.0013185309944674373,0.00615110294893384,-0.0000673779723001644
1772806923005814300,5.166814208984375,0.000713993504177779,0.0025624935515224934,-0.0031465247739106417
1772806923015746300,5.176746337890625,-0.0010247844038531184,0.005476790945976973,-0.0008881642133928835
1772806923025678300,5.18667822265625,-0.001234907773323357,0.008983907289803028,0.0016881778137758374
1772806923035610400,5.1966103515625,0.00042504051816649735,0.008449411019682884,0.0008785768295638263
1772806923045541400,5.206541259765625,0.0008559399866499007,0.006275472696870565,0.0016024239594116807
1772806923055473400,5.216473388671875,-0.002124403603374958,0.008738097734749317,0.0004950816510245204
1772806923065405400,5.226405517578125,-0.00012676646292675287,0.006924751214683056,-0.0006301039247773588
1772806923075337500,5.23633740234375,-0.001814944320358336,0.004255731590092182,-0.001297225710004568
1772806923085268500,5.2462685546875,-0.0021672805305570364,0.002918824553489685,-0.0003478088474366814
1772806923095200300,5.2562001953125,-0.0011704593198373914,0.006084524095058441,0.0002205097407568246
1772806923105132300,5.26613232421875,-0.0015020228456705809,0.00815113727003336,-0.001805623178370297
1772806923115064300,5.276064208984375,-0.0022027005907148123,0.007448595017194748,0.002642122097313404
1772806923124995600,5.28599560546875,-0.0020242687314748764,0.007963118143379688,0.0004495415778364986
1772806923134927400,5.29592724609375,-0.0013041499769315124,0.008505337871611118,0.001019990653730929
1772806923144859400,5.305859375,-0.0012503541074693203,0.007763114292174578,-0.000627707049716264
1772806923154791400,5.31579150390625,-0.0023968450259417295,0.006361492909491062,-0.0009928264189511538
1772806923164722400,5.325722412109375,-0.0034296188969165087,0.0055215316824615,-0.00035712990211322904
1772806923174654500,5.335654541015625,-0.002429868094623089,0.004095409065485001,-0.000358461489668116
1772806923184586200,5.345586181640625,-0.0003145193331874907,0.007811051327735186,-0.0010343717876821756
1772806923194518300,5.355518310546875,0.0011222560424357653,0.0030716899782419205,-0.0015273229219019413
1772806923204449500,5.365449462890625,-0.0004644552827812731,0.005008607171475887,-0.00017736652807798237
1772806923214381600,5.375381591796875,-0.002055960241705179,0.006638728082180023,-0.0023105584550648928
1772806923224313600,5.385313720703125,0.0007187871960923076,0.009496565908193588,-0.0009526127250865102
1772806923234245400,5.395245361328125,-0.0008631304954178631,0.006027798634022474,-0.0002868224401026964
1772806923244176400,5.40517626953125,-0.0015939018921926618,0.00740119069814682,0.0009384979493916035
1772806923254108400,5.4151083984375,-0.0006841660942882299,0.005879993550479412,0.0006615291931666434
1772806923264040400,5.42504052734375,0.001537709147669375,0.009004946798086166,0.00015472965606022626
1772806923273972200,5.43497216796875,-0.0016729978378862143,0.006147907115519047,0.0010157296201214194
1772806923283903500,5.444903564453125,-0.0002996056282427162,0.005568403284996748,0.00296250032261014
1772806923293835500,5.45483544921875,0.0006391586503013968,0.007719971239566803,0.0020905814599245787
1772806923303767600,5.464767578125,-0.0044043357484042645,0.006833671126514673,-0.0011859056539833546
1772806923313699600,5.474699462890625,-0.00043516053119674325,0.007923436351120472,0.0017030915478244424
1772806923323630300,5.48463037109375,-0.0016487629618495703,0.005105546209961176,0.0008913599886000156
1772806923333562400,5.494562255859375,-0.0006793724023737013,0.006420881487429142,0.0006404902087524533
1772806923343494400,5.504494384765625,-0.0029348034877330065,0.006248041987419128,0.0025153555907309055
1772806923353426400,5.514426513671875,-0.000827177835162729,0.005659749731421471,0.0035545211285352707
1772806923363357200,5.524357177734375,-0.00014753911818843335,0.006907174363732338,0.0022687469609081745
1772806923373289500,5.53428955078125,-0.001130245509557426,0.007794539909809828,-0.000571248063351959
1772806923383221500,5.544221435546875,-0.0014245248166844249,0.005285309627652168,-0.0013827132061123848
1772806923393153500,5.554153564453125,-0.002573146251961589,0.00497984467074275,-0.0003818972909357399
1772806923403084300,5.564084228515625,-0.0006796387024223804,0.0070741549134254456,-0.00028282770654186606
1772806923413016300,5.574016357421875,-0.0005904228310100734,0.007552724797278643,0.0034911378752440214
1772806923422948400,5.5839482421875,-0.0019182749092578888,0.00956607423722744,0.00039867521263659
1772806923432880400,5.59388037109375,-0.00007110639853635803,0.005200887098908424,-0.0005110605852678418
1772806923442811400,5.603811279296875,-0.00027563716867007315,0.0051689292304217815,-0.0008681904873810709
1772806923452743400,5.613743408203125,-0.0005957491230219603,0.006170277949422598,0.00012543488992378116
1772806923462675500,5.623675537109375,-0.00032091091270558536,0.00592553336173296,-0.0004463458026293665
1772806923472607500,5.633607421875,-0.0002966761530842632,0.005846970248967409,-0.0008562062866985798
1772806923482538500,5.64353857421875,-0.0021899172570556402,0.0054853130131959915,0.0007696535321883857
1772806923492470500,5.653470458984375,-0.0007699198904447258,0.005301821045577526,0.0009691243176348507
1772806923502402600,5.663402587890625,0.001008805469609797,0.005917011294513941,-0.000180029688635841
1772806923512334300,5.673334228515625,-0.000502804818097502,0.005566006526350975,0.0003379551344551146
1772806923522265300,5.683265380859375,-0.001984054921194911,0.0047116647474467754,0.001567802974022925
1772806923532197400,5.693197265625,-0.00013262542779557407,0.006217948626726866,-0.0007403587806038558
1772806923542129400,5.70312939453125,-0.0008759136544540524,0.0057590859942138195,-0.0013462279457598925
1772806923552061400,5.7130615234375,-0.0033369408920407295,0.004222974646836519,-0.0004324973560869694
1772806923561992400,5.722992431640625,0.0003888215287588537,0.0076001291163265705,0.0015486282063648105
1772806923571924500,5.732924560546875,-0.003183542750775814,0.006974286399781704,-0.0001179780374513939
1772806923581856500,5.7428564453125,0.00009853696246864274,0.007730091456323862,0.003622697899118066
1772806923591788500,5.75278857421875,-0.00010279801790602505,0.004579039290547371,0.000773381965700537
1772806923601719300,5.76271923828125,-0.0006862966110929847,0.005379585549235344,-0.0012892362428829074
1772806923611651300,5.7726513671875,-0.0036301547661423683,0.007389739155769348,-0.0016463662032037973
1772806923621583400,5.782583251953125,0.0010607370641082525,0.0056770602241158485,-0.0001203748834086582
1772806923631515400,5.792515380859375,-0.0011137339752167463,0.005787581671029329,-0.00037257623625919223
1772806923641446400,5.8024462890625,-0.0011028150329366326,0.004728442523628473,0.002448244020342827
1772806923651378400,5.81237841796875,0.00046072687837295234,0.006503705866634846,0.0033878071699291468
1772806923661310500,5.822310546875,0.0001203748834086582,0.00863050576299429,-0.000767523015383631
1772806923671242500,5.832242431640625,-0.0018559569725766778,0.006850981619209051,-0.0002716424351092428
1772806923681173500,5.842173583984375,0.00045380264054983854,0.006558300461620092,0.004249872639775276
1772806923691105300,5.852105224609375,-0.002159823663532734,0.005832855589687824,-0.0012889700010418892
1772806923701037300,5.862037353515625,0.0005320995696820319,0.00634870957583189,0.0005997438565827906
1772806923710969300,5.87196923828125,-0.0019126823171973228,0.0059929112903773785,0.0011912320042029023
1772806923720900600,5.881900634765625,-0.0010684601729735732,0.008449144661426544,0.0010583401890471578
1772806923730832600,5.89183251953125,-0.0005456816870719194,0.007779093459248543,0.00044607947347685695
1772806923740764400,5.901764404296875,-0.004043743945658207,0.005832855589687824,0.0020783308427780867
1772806923750696400,5.911696533203125,0.00012889699428342283,0.0054765245877206326,0.0015092133544385433
1772806923760627500,5.92162744140625,-0.0016698020044714212,0.006580937188118696,-0.00014407701382879168
1772806923770559500,5.9315595703125,-0.00006285060226218775,0.0039017973467707634,0.0011193265672773123
1772806923780491300,5.9414912109375,0.0002790992730297148,0.004259459674358368,-0.0009510148083791137
1772806923790423300,5.95142333984375,0.0008759136544540524,0.007844873704016209,-0.0004652542411349714
1772806923800354600,5.9613544921875,-0.001728924224153161,0.008065116591751575,0.001156877144239843
1772806923810286600,5.97128662109375,-0.000045273736759554595,0.005389971658587456,0.002831472782418132
1772806923820218600,5.981218505859375,0.00033209618413820863,0.004859203472733498,-0.0005344964447431266
1772806923830150400,5.991150390625,-0.0025654230266809464,0.00475587323307991,-0.0014748586108908057
1772806923840081400,6.001081298828125,0.0006439523422159255,0.0046514770947396755,0.002100701443850994
1772806923850013400,6.011013427734375,-0.00401684595271945,0.0049281795509159565,0.0004040015337523073
1772806923859945500,6.020945556640625,0.000021305288100847974,0.0051476238295435905,0.004039482679218054
1772806923869877500,6.03087744140625,-0.0018293253378942609,0.007256048731505871,-0.0013432984706014395
1772806923879808500,6.04080859375,-0.0011659319279715419,0.0068184914998710155,-0.0016626114957034588
1772806923889740500,6.050740478515625,-0.0014282532501965761,0.005756955128163099,-0.00032650353386998177
1772806923899672600,6.060672607421875,-0.00024181502521969378,0.004315918777137995,-0.0035023230593651533
1772806923909604600,6.0706044921875,-0.0005446164286695421,0.0062701464630663395,0.0015912387752905488
1772806923919535400,6.080535400390625,0.00022130868455860764,0.004832838196307421,-0.002544117858633399
1772806923929467400,6.09046728515625,0.0002950782363768667,0.0038077877834439278,0.00010759170982055366
1772806923939399400,6.1003994140625,0.0013318468118086457,0.007259510923177004,-0.00023622238950338215
1772806923949331500,6.11033154296875,-0.0020695424173027277,0.007818507961928844,0.000023169501218944788
1772806923959262500,6.120262451171875,-0.002293514320626855,0.007699198555201292,0.0015931029338389635
1772806923969194500,6.130194580078125,-0.0005696501466445625,0.006646717432886362,-0.00013369068619795144
1772806923979126500,6.14012646484375,-0.0005805690889246762,0.005452556069940329,-0.0007368966471403837
1772806923989058600,6.15005859375,0.0002748382103163749,0.00498224189504981,0.0001960086519829929
1772806923998989600,6.159989501953125,0.0012546151410788298,0.003763579297810793,-0.004424309358000755
1772806924008921300,6.16992138671875,-0.0017920411191880703,0.005618470720946789,0.0001411475386703387
1772806924018853400,6.179853271484375,-0.0030834078788757324,0.006312224548310041,-0.002252501668408513
1772806924028785400,6.189785400390625,-0.0012474246323108673,0.007080546114593744,0.0018287927377969027
1772806924038716700,6.199716552734375,0.00001997370782191865,0.005841111298650503,0.0015986956423148513
1772806924048648400,6.2096484375,-0.002033855998888612,0.007208111695945263,-0.00035606464371085167
1772806924058580500,6.21958056640625,0.00044661210267804563,0.004490089602768421,-0.0022445120848715305
1772806924068512500,6.229512451171875,-0.0009472863748669624,0.007314638234674931,-0.0024027039762586355
1772806924078443500,6.239443603515625,-0.00070520507870242,0.006411293987184763,-0.0020849888678640127
1772806924088375600,6.24937548828125,-0.001210406655445695,0.005899700801819563,0.001136637176387012
1772806924098307300,6.259307373046875,-0.0003890878288075328,0.007585748098790646,0.00020160128769930452
1772806924108239400,6.2692392578125,-0.0014389059506356716,0.006533532869070768,-0.001050617080181837
1772806924118170600,6.279170654296875,0.0015704660909250379,0.0034320156555622816,0.0013877731980755925
1772806924128102700,6.2891025390625,-0.0014045510906726122,0.0062341936863958836,-0.00006897587445564568
1772806924138034700,6.29903466796875,-0.0011472897604107857,0.005908755585551262,-0.0013632721966132522
1772806924147966500,6.308966552734375,-0.0005046690348535776,0.006582535337656736,0.00014327807002700865
1772806924157897500,6.3188974609375,-0.0008229167433455586,0.006318349856883287,-0.00046392265358008444
1772806924167829500,6.32882958984375,-0.00044314999831840396,0.007801996544003487,0.0002948119363281876
1772806924177761500,6.338761474609375,-0.00007110639853635803,0.003725229762494564,0.0012173309223726392
1772806924187693300,6.348693359375,-0.003519633784890175,0.006476008798927069,0.0005201153689995408
1772806924197624300,6.358624267578125,-0.002008023438975215,0.006219812668859959,0.0007621967233717442
1772806924207556600,6.368556640625,-0.0013946974650025368,0.0029760824982076883,0.0025387913919985294
1772806924217488600,6.378488525390625,-0.0019912454299628735,0.009036105126142502,-0.0022306637838482857
1772806924227420700,6.388420654296875,-0.0025569009594619274,0.0046751792542636395,0.0032583775464445353
1772806924237351400,6.398351318359375,-0.0006593986763618886,0.007842742837965488,0.00023142869758885354
1772806924247283500,6.408283447265625,0.0015425028977915645,0.005194495897740126,0.00017710021347738802
1772806924257215500,6.418215576171875,-0.001812014845199883,0.00885048322379589,0.0004522047529462725
1772806924267147500,6.4281474609375,-0.002145176287740469,0.005125519819557667,0.0027289411518722773
1772806924277078300,6.438078369140625,0.00020932445477228612,0.004110855516046286,0.0001584580895723775
1772806924287010300,6.44801025390625,-0.0019478360190987587,0.005644037388265133,-0.0014498248929157853
1772806924296942600,6.457942626953125,0.00011930961773032323,0.005642705596983433,0.0006404902087524533
1772806924306874600,6.46787451171875,-0.0007720504072494805,0.005758020561188459,0.003073021536692977
1772806924316805400,6.477805419921875,0.00011105381418019533,0.003974501509219408,0.0019949739798903465
1772806924326737400,6.4877373046875,-0.0011118697002530098,0.006555637344717979,0.0014796522445976734
1772806924336669400,6.49766943359375,-0.001401355373673141,0.005951365921646357,0.000758734589908272
1772806924346601500,6.5076015625,-0.000606668065302074,0.005599296186119318,0.0001901497016660869
1772806924356532500,6.517532470703125,-0.0005448827287182212,0.005234176758676767,-0.001662877737544477
1772806924366464300,6.52746435546875,-0.00018801917030941695,0.0051683965139091015,-0.0014442323008552194
1772806924376396500,6.537396484375,0.00022743394947610795,0.0046576024033129215,-0.0016141419764608145
1772806924386328600,6.54732861328125,-0.001469532260671258,0.004547613672912121,0.0002860235108528286
1772806924396259600,6.557259521484375,-0.0013363742036744952,0.006521016359329224,-0.0005097290268167853
1772806924406191400,6.56719140625,-0.0013603427214547992,0.004507932811975479,-0.0002748382103163749
1772806924416123400,6.577123291015625,0.0007960188668221235,0.004897020757198334,0.002529204124584794
1772806924426055400,6.587055419921875,-0.00039867521263659,0.002840261207893491,-0.0002540655550546944
1772806924435986200,6.596986083984375,0.0002894856152124703,0.005918342620134354,0.00036698358599096537
1772806924445918200,6.606918212890625,-0.003291134489700198,0.004797950852662325,0.00043542683124542236
1772806924455850200,6.616850341796875,-0.0033310819417238235,0.0038780951872467995,-0.001323857344686985
1772806924465782500,6.626782470703125,0.000529436394572258,0.006719954311847687,-0.0002846919232979417
1772806924475713500,6.636713623046875,-0.0009574064170010388,0.004692223388701677,0.003035204717889428
1772806924485645300,6.646645263671875,-0.0010396981379017234,0.00860201008617878,-0.00043516053119674325
1772806924495577300,6.656577392578125,-0.002228533150628209,0.0062216767109930515,-0.0006918892613612115
1772806924505509400,6.66650927734375,0.0016178702935576439,0.007346329744905233,-0.0002311623829882592
1772806924515440400,6.6764404296875,-0.000055926382628967986,0.004637895151972771,-0.0003206445835530758
1772806924525372200,6.6863720703125,-0.0009672601008787751,0.0065801385790109634,-0.0006972155533730984
1772806924535304200,6.69630419921875,-0.0011110707418993115,0.0026583673898130655,0.0013438310706987977
1772806924545236200,6.706236328125,-0.002127066720277071,0.009044627659022808,-0.0014120079576969147
1772806924555167500,6.71616748046875,0.0018335863715037704,0.0057564228773117065,-0.00028336033574305475
1772806924565099500,6.726099609375,-0.002082591876387596,0.008109325543045998,0.0016138756182044744
1772806924575031300,6.73603125,0.00014753911818843335,0.006675213109701872,-0.003472495824098587
1772806924584963300,6.74596337890625,-0.00239231763407588,0.00358860963024199,0.0015688681742176414
1772806924594894300,6.755894287109375,-0.00007430219557136297,0.00703846849501133,-0.002478870330378413
1772806924604826400,6.765826416015625,0.0000045273736759554595,0.00657694274559617,-0.0012455604737624526
1772806924614758400,6.77575830078125,-0.00256462418474257,0.007676295470446348,0.0017480988753959537
1772806924624690200,6.785690185546875,0.0004442152567207813,0.006207295693457127,-0.002769953804090619
1772806924634621400,6.795621337890625,-0.002495914464816451,0.004839496221393347,0.004563060123473406
1772806924644553500,6.805553466796875,0.000990429543890059,0.004397145472466946,-0.00022610237647313625
1772806924654485500,6.815485595703125,-0.0011938951211050153,0.008616391569375992,-0.0008386294357478619
1772806924664417300,6.825417236328125,-0.0028016455471515656,0.0032567796297371387,-0.0003502056933939457
1772806924674348300,6.835348388671875,-0.0010167949367314577,0.00887684803456068,-0.0020271982066333294
1772806924684280300,6.8452802734375,0.00016484966909047216,0.006398777011781931,0.0047849016264081
1772806924694212400,6.85521240234375,-0.0024719461798667908,0.005126318894326687,-0.0032959282398223877
1772806924704144400,6.865144287109375,-0.001540904981084168,0.008475510403513908,-0.002808303339406848
1772806924714075400,6.875075439453125,-0.0006079996819607913,0.005425924435257912,-0.0002561961009632796
1772806924724007400,6.88500732421875,-0.0022413162514567375,0.004524177871644497,-0.00010839065362233669
1772806924733939500,6.894939453125,-0.002055427758023143,0.0070762853138148785,-0.0007779093575663865
1772806924743871500,6.90487158203125,-0.0011084076249971986,0.003918575122952461,0.001243962557055056
1772806924753802200,6.91480224609375,0.0008380967774428427,0.006714628078043461,0.00028762139845639467
1772806924763734300,6.924734375,-0.0002764361270237714,0.007766576483845711,-0.00025592977181077003
1772806924773666300,6.934666259765625,0.0002719087351579219,0.006971090566366911,0.0014183996245265007
1772806924783598300,6.944598388671875,-0.0011648666113615036,0.007384412921965122,0.0006623281515203416
1772806924793529300,6.954529296875,-0.0005558017292059958,0.006729009095579386,-0.0025939189363271
1772806924803461400,6.96446142578125,0.00042024682625196874,0.004917527083307505,-0.0004801679460797459
1772806924813393400,6.974393310546875,-0.0007805725326761603,0.006714894436299801,-0.001463406952098012
1772806924823325400,6.984325439453125,-0.0009960222523659468,0.002557699801400304,0.00004740426811622456
1772806924833256400,6.99425634765625,-0.0009203884401358664,0.007411044556647539,-0.0003448793722782284
1772806924843188200,7.004188232421875,0.0013699301052838564,0.004884770140051842,0.0010964233661070466
1772806924853120300,7.014120361328125,-0.0015062838792800903,0.004790227860212326,0.00039734362508170307
1772806924863052300,7.02405224609375,-0.0005275722360238433,0.008160191588103771,0.0024647556710988283
1772806924872983600,7.033983642578125,0.0003283677506260574,0.006198507267981768,-0.0016386429779231548
1772806924882915600,7.04391552734375,-0.0010394317796453834,0.005037102848291397,-0.0017917747609317303
1772806924892847400,7.053847412109375,-0.0026378610637038946,0.006715693045407534,-0.001900964416563511
1772806924902779400,7.063779296875,-0.000251402409048751,0.005349491722881794,-0.0018423747969791293
1772806924912710400,7.07371044921875,0.0026194851379841566,0.007001450285315514,0.0007629956235177815
1772806924922642400,7.083642333984375,-0.0013899037148803473,0.00444028852507472,0.0029521139804273844
1772806924932574200,7.09357421875,0.0002463423879817128,0.005395297892391682,0.003981692250818014
1772806924942506200,7.10350634765625,-0.0024596955627202988,0.006031260825693607,0.0015180017799139023
1772806924952437500,7.1134375,0.0004900216590613127,0.005615807604044676,0.002412024885416031
1772806924962369500,7.12336962890625,-0.0018844527658075094,0.00606321869418025,-0.0009715211344882846
1772806924972301600,7.133301513671875,0.0015251922886818647,0.004193413536995649,0.002344646956771612
1772806924982233300,7.1432333984375,-0.00016484966909047216,0.006415554787963629,0.0022301310673356056
1772806924992164400,7.153164306640625,-0.0006761765689589083,0.007399593014270067,0.00014940333494450897
1772806925002096400,7.163096435546875,0.00012010856153210625,0.006885869428515434,0.0003081277245655656
1772806925012028400,7.1730283203125,-0.003062102710828185,0.0054546864703297615,-0.0008088020258583128
1772806925021960400,7.18296044921875,-0.0011922972043976188,0.003934021573513746,0.0005313006113283336
1772806925031891500,7.192891357421875,-0.003531617810949683,0.007409979589283466,0.0004756405542138964
1772806925041823500,7.202823486328125,-0.0023704797495156527,0.008331699296832085,-0.0008423578692600131
1772806925051755500,7.212755615234375,-0.0016935041639953852,0.005585714243352413,0.0003515372518450022
1772806925061687600,7.2226875,-0.0006993460701778531,0.00914422981441021,-0.001264468883164227
1772806925071618300,7.232618408203125,-0.0009797769598662853,0.00675351032987237,0.0019054916920140386
1772806925081550300,7.24255029296875,-0.002644518855959177,0.004787831101566553,-0.0001483380765421316
1772806925091482400,7.252482421875,-0.0010138654615730047,0.004519650712609291,-0.0017646105261519551
1772806925101414400,7.262414306640625,-0.003154247999191284,0.005272259935736656,0.0008732505375519395
1772806925111345400,7.272345458984375,-0.0008546083699911833,0.007911984808743,0.0002942793071269989
1772806925121277400,7.28227734375,-0.000026897927455138415,0.005341502372175455,0.002522812457755208
1772806925131209500,7.29220947265625,-0.0019419770687818527,0.005621133837848902,-0.00037923414492979646
1772806925141141500,7.3021416015625,0.000532365869730711,0.005016596522182226,0.0004655205411836505
1772806925151072300,7.312072265625,0.0007930893916636705,0.010756241157650948,-0.003591539105400443
1772806925161004300,7.32200439453125,-0.0028104339726269245,0.003980360459536314,0.0019345202017575502
1772806925170936300,7.331936279296875,0.0004932174342684448,0.006570284720510244,0.0007462177309207618
1772806925180868400,7.341868408203125,-0.0006948187365196645,0.0060296631418168545,0.0010311759542673826
1772806925190799400,7.35179931640625,-0.0008399609941989183,0.005876797717064619,-0.00028389296494424343
1772806925200731400,7.3617314453125,-0.00014567491598427296,0.006712763570249081,0.0014879080699756742
1772806925210663400,7.371663330078125,-0.0005898901727050543,0.009690443985164165,0.0006093312404118478
1772806925220595500,7.381595458984375,-0.002513491315767169,0.005696235224604607,0.0036040558479726315
1772806925230526500,7.3915263671875,-0.0005568669876083732,0.005705290008336306,-0.00002902845517382957
1772806925240458500,7.40145849609375,-0.002429868094623089,0.00663420045748353,-0.00028336033574305475
1772806925250390300,7.411390380859375,-0.004135889001190662,0.005008340813219547,-0.002192846732214093
1772806925260322300,7.421322265625,-0.0013073458103463054,0.006885603070259094,0.001032241270877421
1772806925270253300,7.43125341796875,0.0018381137633696198,0.00586534570902586,-0.0004269047058187425
1772806925280185300,7.441185302734375,-0.00010812433902174234,0.006293582264333963,0.002645584288984537
1772806925290117400,7.451117431640625,-0.0005246427026577294,0.004172108136117458,0.002019474981352687
1772806925300049400,7.46104931640625,-0.001264202524907887,0.007870440371334553,0.000821318884845823
1772806925309980400,7.47098046875,-0.0009760485263541341,0.006997988559305668,-0.00009241169027518481
1772806925319912400,7.480912353515625,-0.002487925114110112,0.005029912106692791,-0.00022903185163158923
1772806925329844500,7.490844482421875,0.00049108691746369,0.005620601586997509,-0.002017610939219594
1772806925339776300,7.5007763671875,-0.001832521171309054,0.007327953819185495,-0.002183792181313038
1772806925349707300,7.510707275390625,-0.0009267800487577915,0.007354851812124252,-0.001520665013231337
1772806925359639300,7.520639404296875,-0.0009108011145144701,0.0049468218348920345,-0.0008596684201620519
1772806925369571300,7.5305712890625,0.0006013417732901871,0.006155097857117653,-0.0006583334179595113
1772806925379503600,7.540503662109375,-0.0024639565963298082,0.006412093061953783,0.0002743055811151862
1772806925389434400,7.550434326171875,0.0018261295044794679,0.00544323492795229,-0.0004546015989035368
1772806925399366400,7.560366455078125,-0.002427471335977316,0.10323797166347504,0.010880877263844013
1772806925409298400,7.57029833984375,-0.0019283948931843042,0.04194345697760582,0.004601676017045975
1772806925419230500,7.58023046875,-0.001529187080450356,0.009207612834870815,-0.0006479470757767558
1772806925429161200,7.5901611328125,-0.0035241609439253807,0.04411712661385536,0.00532525684684515
1772806925439093000,7.600093017578125,-0.0024469124618917704,0.007169229444116354,0.005818208213895559
1772806925449025000,7.61002490234375,-0.0020905814599245787,0.005657619331032038,0.0013038836186751723
1772806925458957000,7.61995703125,0.0007472829893231392,-0.00857564527541399,-0.0023060310631990433
1772806925468887800,7.6298876953125,-0.0011877698125317693,-0.010447048582136631,-0.0017473000334575772
1772806925478819800,7.63981982421875,-0.000319845654303208,-0.038653384894132614,-0.008185225538909435
1772806925488751900,7.649751953125,0.00038775624125264585,-0.07556959241628647,-0.011083277873694897
1772806925498684000,7.659683837890625,-0.00038775624125264585,-0.031001325696706772,-0.005732720717787743
1772806925508614700,7.66961474609375,-0.0006924218614585698,0.046182673424482346,0.006930077914148569
