time,seconds_elapsed,z,y,x
1772806432316361200,0.075361328125,0.5144482365071773,-0.0895836786828935,-0.1716359389476478
1772806432326292200,0.085292236328125,0.38700609794259067,-0.14274857489839196,-0.2324284074321389
1772806432336223200,0.09522314453125,0.27513094634413715,-0.13630407493412494,-0.24933584922179577
1772806432346155300,0.1051552734375,0.16320494134128094,-0.14619886148273945,-0.3357242389947176
1772806432356086300,0.115086181640625,0.14006664233803748,-0.153008833758533,-0.4085380577277392
1772806432366018300,0.125018310546875,0.08283551959693432,-0.12465206945464015,-0.39302674647159874
1772806432375949000,0.134948974609375,-0.004101005578041076,-0.1527009368531406,-0.35030447994582353
1772806432385881000,0.144881103515625,-0.027063948014378544,-0.18772285813465714,-0.26395591072663666
1772806432395812400,0.154812255859375,0.12514204492866993,-0.2529486328914761,-0.11225669826194644
1772806432405744000,0.164744140625,0.3729267191857099,-0.34796354284286496,-0.0010301467653363943
1772806432415675100,0.174675048828125,0.6584592325568199,-0.3502631980873644,-0.013690744765475391
1772806432425607200,0.184607177734375,0.7920464497476816,-0.4040668305978179,-0.15231179140508175
1772806432435538200,0.1945380859375,0.8273843051105737,-0.4275602266490459,-0.2640289028976112
1772806432445469200,0.20446923828125,0.6637438949614762,-0.3787004802815616,-0.36872028047181665
1772806432455401200,0.214401123046875,0.3450561309635639,-0.30452947478592396,-0.40678931436426935
1772806432465332200,0.224332275390625,0.1848001025557518,-0.21152181300371883,-0.4829793315321207
1772806432475264000,0.234263916015625,0.15267887115180492,-0.1664493300899863,-0.5963424566660076
1772806432485195300,0.2441953125,0.2144581587165594,-0.12144216749742627,-0.7253945146452635
1772806432495127300,0.254127197265625,0.421909069019556,-0.10142390021085738,-0.8121516646653413
1772806432505058300,0.264058349609375,0.7805331220865249,-0.0889274067312479,-0.7117287581905722
1772806432514990000,0.273989990234375,1.1143962433844805,-0.13642170996442438,-0.5519399819683283
1772806432524921000,0.283921142578125,1.5195505769580602,-0.14016425749361514,-0.5351609157986938
1772806432534853000,0.29385302734375,1.8174749543905258,-0.05259805611297488,-0.4948937508074566
1772806432544784400,0.303784423828125,2.0173422776967285,-0.08347425589188932,-0.6154660401351749
1772806432554715100,0.313715087890625,2.0945850918531415,-0.041957711894065136,-0.7287160602834075
1772806432564647200,0.323647216796875,1.9960726951748131,0.07803761779591441,-0.8518906045313924
1772806432574578200,0.333578125,1.8412135573744772,0.17860387826412916,-0.9862433262020349
1772806432584510200,0.34351025390625,1.8334020068407058,0.30919439785704017,-1.105486157024279
1772806432594441200,0.353441162109375,2.020922474271059,0.4865045830488205,-1.3129168282568453
1772806432604373200,0.363373291015625,2.369075402206182,0.6688932405486703,-1.373737207661569
1772806432614304300,0.37330419921875,2.9630723917245865,0.6761515411138534,-1.1768477311223744
1772806432624236000,0.383236083984375,3.78579396572113,0.5992518413066864,-1.090178405516222
1772806432634167300,0.393167236328125,4.7027124112844465,0.5779962873101234,-0.7780145633943378
1772806432644099300,0.403099365234375,5.185180870684981,0.39535964639857407,-0.6187067025568336
1772806432654030000,0.413030029296875,5.3289995590329164,0.33088030609488484,-0.5837214600238949
1772806432663962000,0.422962158203125,5.199731958606839,0.44712461268827314,-0.34356603853628037
1772806432673893000,0.43289306640625,4.60896971322596,0.752453567288816,-0.03149754654765129
1772806432683824400,0.442824462890625,3.751681852760911,1.1811796228468416,-0.10041815723441541
1772806432693756200,0.452756103515625,2.884932920989394,1.5331654069431124,-0.6087311058569699
1772806432703687200,0.462687255859375,2.4347119497209784,1.796807283284515,-0.8893814001444726
1772806432713619200,0.472619140625,2.326785243487358,2.021574800699949,-0.11802775594405829
1772806432723550200,0.48255029296875,2.3180688530683518,1.6729557165578006,0.6384723102565855
1772806432733482200,0.492482177734375,2.9242835191249847,0.7339925393816084,1.3061881045237183
1772806432743413200,0.502413330078125,3.907708280774951,0.3307631094560027,2.0116002269133926
1772806432753345300,0.51234521484375,3.680061554661393,0.05883716969825327,2.4130568750128147
1772806432763276000,0.522276123046875,2.4672639737576243,-0.16109635168947278,1.957555040732026
1772806432773208000,0.5322080078125,1.4248586153507232,0.3786199989238754,1.19947866512537
1772806432783139300,0.542139404296875,0.9150549897789955,0.9841942847177386,0.48605567023754115
1772806432793070000,0.552070068359375,0.5810036524325609,1.3470263108685612,-0.489523054087162
1772806432803002000,0.562002197265625,0.3381342227458954,1.4931516687236726,-1.1920948384843766
1772806432812933000,0.57193310546875,0.6220388426542282,1.2844570419698953,-0.9139392836220562
1772806432822865200,0.581865234375,1.4308184005379676,0.7563003058448433,0.310563640383631
1772806432832796200,0.591796142578125,1.625358391341567,0.19726926963701844,1.4095277752280235
1772806432842728200,0.601728271484375,0.5811094508945942,0.006374357337504625,1.74840609433949
1772806432852659200,0.6116591796875,-0.8572837688118219,0.11618921540528535,1.5753326699346304
1772806432862591200,0.62159130859375,-2.0855659190952776,0.5623297854922712,1.2166250302374362
1772806432872522200,0.631522216796875,-3.009529022473097,1.0598607894681393,0.8345565348275006
1772806432882454300,0.641454345703125,-3.4221675743222235,1.2722498868256806,0.646357729744166
1772806432892385300,0.65138525390625,-2.917007390642166,1.179436140180379,0.10873992231264709
1772806432902316000,0.66131591796875,-2.0251620115369557,1.176885725045204,-0.16394903770685196
1772806432912248000,0.671248046875,-1.6540771208256482,1.2277920286789537,-0.4104669068984687
1772806432922179300,0.681179443359375,-2.167493091675639,1.2981424529731274,-0.6677922935694456
1772806432932111400,0.691111328125,-2.768435954809189,1.4664315657109022,-0.5204257034815848
1772806432942042000,0.7010419921875,-2.8607015660524366,1.569132061728835,-0.38542876562327144
1772806432951974100,0.71097412109375,-3.1287942843228578,1.8684777041360734,-0.17369067952036857
1772806432961905200,0.7209052734375,-3.50231312418282,2.267701186355948,-0.060929100476205346
1772806432971837200,0.730837158203125,-4.147795386266708,2.6956960050299763,-0.10290741676688193
1772806432981768200,0.740768310546875,-5.5280701790034765,2.687378550800681,0.40514293539673085
1772806432991700200,0.7507001953125,-6.155525201487541,2.328232519686222,0.9313643195450305
1772806433001631200,0.76063134765625,-5.9286482907027,2.1791788532942533,0.7372559981569647
1772806433011563300,0.770563232421875,-5.070643806400895,1.9234283147245645,0.2922220741376281
1772806433021494300,0.780494384765625,-3.863885505661368,1.6903139708548782,-0.2756985170990228
1772806433031425300,0.79042529296875,-2.9800825632363557,1.5097364544302225,-1.018293538196385
1772806433041357300,0.800357421875,-2.409226210808754,1.4240975678503514,-1.6757333645775914
1772806433051288000,0.8102880859375,-2.2317624424904583,1.257689446553588,-2.129355084200203
1772806433061220000,0.82022021484375,-2.343102172037959,1.4551929633378982,-1.5426836152642964
1772806433071151400,0.8301513671875,-2.7843331966429945,0.8896464077562093,-1.4398738136529923
1772806433081083400,0.84008349609375,-3.246798732456565,0.09206921188831328,-1.5858376973360775
1772806433091014100,0.85001416015625,-4.209177783468365,0.3771703481048345,-0.0884238411232829
1772806433100946200,0.8599462890625,-4.486549202215671,0.43048225157558917,0.5132242476701736
1772806433110877200,0.869877197265625,-4.364199418354034,0.3588479249507189,0.3826028945475817
1772806433120809000,0.87980908203125,-3.7871155697137113,0.3726508248537779,0.16501754372119903
1772806433130740200,0.889740234375,-3.359749988853931,0.4361486067742109,-0.097338384462893
1772806433140671200,0.899671142578125,-3.0094419287115333,0.5454986238092183,-0.11764613621532917
1772806433150603300,0.909603271484375,-2.8555390687227247,0.853805279046297,0.31156331894546746
1772806433160534000,0.919533935546875,-2.833098688855767,0.2424129180908203,-0.33171441883146763
1772806433170466300,0.92946630859375,-2.635297650429606,0.3415677043259144,-0.14420213470757007
1772806433180397300,0.939397216796875,-2.2180711862683293,0.5281441689044237,-0.15330372505187986
1772806433190329000,0.9493291015625,-2.024694978547096,0.3121270903080702,-0.7002434875801206
1772806433200260000,0.959260009765625,-1.9886480981320143,0.45363925527930254,-0.4874012396275997
1772806433210192100,0.969192138671875,-1.498004515582323,0.5679711523801088,-0.4494397577628493
1772806433220123400,0.979123291015625,-1.225282968467474,0.3683189331293106,-0.38234219778478146
1772806433230055000,0.989054931640625,-1.0779483809530734,0.12077975806593894,-0.186381234267354
1772806433239986000,0.99898583984375,-0.8779881186664104,-0.08791501481831074,-0.14912965423762797
1772806433249917000,1.0089169921875,-0.6264508138775825,-0.2558861476480961,-0.17540946613699196
1772806433259849000,1.018848876953125,-0.3972638725847006,-0.379345938578248,-0.19475597164183853
1772806433269780000,1.028780029296875,-0.19647475825846195,-0.5292202737033367,-0.32899405395686626
1772806433279712000,1.0387119140625,-0.08255553361177444,-0.6207967336386442,-0.413816947978735
1772806433289643000,1.04864306640625,-0.007736731731891632,-0.6692857469975948,-0.23971038113385437
1772806433299574800,1.05857470703125,0.11103110198974608,-0.6710878279834985,-0.062000821360945695
1772806433309506000,1.068506103515625,0.19243629652261732,-0.6673404581487178,-0.037218846803903576
1772806433319438000,1.07843798828125,0.16022037257254124,-0.6713432640492916,-0.050256023031473154
1772806433329368800,1.088368896484375,0.24173896435201167,-0.6419622712641954,-0.14532120186537503
1772806433339300900,1.09830078125,0.5213631304621696,-0.6257546483069658,-0.1914525461822748
1772806433349231900,1.10823193359375,0.7376134332925081,-0.6526648670643568,-0.1382987558826804
1772806433359164000,1.118163818359375,0.8818623297512531,-0.695977354568243,0.006678454850614071
1772806433369095000,1.128094970703125,0.8611725929439067,-0.7322206343382597,0.3137818717777729
1772806433379026000,1.13802587890625,0.5914554883420468,-0.7607406263798475,0.4775754266619682
1772806433388958000,1.1479580078125,-0.006557751080393791,-0.7992214559435844,0.5003004686892032
1772806433398888700,1.157888671875,-0.6298994930267333,-0.7112012271851301,0.5979433890566229
1772806433408821000,1.167821044921875,-1.0103262125790118,-0.6342290466636419,0.7005722811430692
1772806433418752000,1.177751953125,-1.2033002692401409,-0.6204430978953838,0.7037339600443839
1772806433428684000,1.18768408203125,-1.2492594718605279,-0.6457248386681079,0.7186033201351761
1772806433438614800,1.19761474609375,-1.0318886405676602,-0.6257172389060258,0.6988464802637696
1772806433448546800,1.207546875,-0.7351198629111051,-0.6221475637257099,0.7339034728586673
1772806433458478000,1.21747802734375,-0.4594365433812141,-0.636384763392806,0.685512951438129
1772806433468410000,1.22741015625,-0.19027941074967383,-0.6652706661373377,0.6078282387331128
1772806433478340900,1.2373408203125,0.09123217654228209,-0.6822106950223445,0.4620315283104777
1772806433488272000,1.24727197265625,0.401356694856286,-0.6701467477411032,0.23978519993573424
1772806433498204000,1.257203857421875,0.5583925921738148,-0.6348930635303258,0.09028729690760373
1772806433508135000,1.267135009765625,0.6305003815293312,-0.6767384010910987,-0.022284312522411344
1772806433518067000,1.27706689453125,0.7072703174769878,-0.7072440139919519,-0.12750906632095574
1772806433527998000,1.286998046875,0.7043377711564301,-0.6908014132350683,-0.19364011935442685
1772806433537930000,1.296929931640625,0.5080044671952724,-0.7548755337387323,-0.25942162829786536
1772806433547860700,1.30686083984375,0.21203297739624977,-0.8163041081696748,-0.11431173109561205
1772806433557793000,1.31679296875,0.15392740990817547,-0.8388619769364595,0.020894903990626334
1772806433567724000,1.32672412109375,0.07848726125955581,-0.834610749232769,0.10025164156109094
1772806433577656000,1.336656005859375,-0.023776596906781196,-0.9100620037972926,0.1491533273741603
1772806433587586800,1.3465869140625,0.11565700822472572,-0.9160784876078367,0.22195319064706562
1772806433597518000,1.35651806640625,0.2654717221170664,-0.9082628454208374,0.37080373568236824
1772806433607450000,1.3664501953125,0.153512399366498,-0.9850766205102205,0.43290041863322254
1772806433617380900,1.376380859375,-0.006574117693305015,-1.0460428381264208,0.3147083389729261
1772806433627313000,1.38631298828125,-0.1178401974827051,-1.0387877524316311,0.18025515260249375
1772806433637244000,1.396243896484375,-0.20375556291639804,-1.0521446621328592,0.05687953282445669
1772806433647176000,1.406176025390625,-0.2640367208778858,-1.1054273395091294,-0.0060369420766830445
1772806433657107000,1.41610693359375,-0.2263350589931011,-1.1033154619216918,-0.03766220665723085
1772806433667039000,1.4260390625,-0.08903320519328117,-1.139190492901206,-0.04095335715711117
1772806433676970000,1.435969970703125,0.10157529138028622,-1.1592004307508468,0.06640139440745114
1772806433686902000,1.445902099609375,0.24620646515488623,-1.1251368331074714,0.1582259838849306
1772806433696832800,1.455832763671875,0.27152093915343284,-1.1194207935482263,0.2455520928993821
1772806433706764000,1.465763916015625,0.15887421866059304,-1.131038750627637,0.26781360906809565
1772806433716696000,1.475696044921875,0.0049801265001296995,-1.0566554175555705,0.10842325757890939
1772806433726626800,1.485626708984375,-0.09429682480990886,-0.9422451945215463,0.10767156242877245
1772806433736558800,1.495558837890625,-0.2728244229674339,-0.8774825072318315,0.05611264010518789
1772806433746490000,1.505489990234375,-0.7096984214067459,-0.8885147733777761,-0.06136924545913934
1772806433756422100,1.515422119140625,-1.124258881229162,-0.8817559467673302,-0.09471066630780696
1772806433766353000,1.525352783203125,-1.3977046509653328,-0.8243599888533353,-0.041586394363641734
1772806433776285000,1.535284912109375,-1.5756494807988404,-0.7571089918792248,-0.053335576607286925
1772806433786216000,1.5452158203125,-1.5158943925380706,-0.7106108600765466,0.007094634436070919
1772806433796147700,1.555147705078125,-1.2445230909883975,-0.6916121450960636,0.139929571954906
1772806433806079000,1.565078857421875,-0.9639613517671823,-0.6948878057658672,0.2732157603725791
1772806433816010000,1.575010009765625,-0.9347311656296252,-0.69527417473495,0.2855643698140979
1772806433825942000,1.58494189453125,-1.1851005956828593,-0.6327583895891904,0.26566344529688357
1772806433835872800,1.594872802734375,-1.5394307509481906,-0.5679506941139698,0.16933219204992056
1772806433845805000,1.60480517578125,-1.8511738103747366,-0.5236269837409258,0.029077918185293674
1772806433855736000,1.614736083984375,-1.9626321978658436,-0.4718862751096487,-0.10882131698578595
1772806433865667800,1.624667724609375,-1.8390671929955482,-0.45051089412569995,-0.193992293792963
1772806433875598800,1.634598876953125,-1.6851158176898955,-0.4653723631709814,-0.09389934992492198
1772806433885531000,1.64453076171875,-1.510740663036704,-0.4799643676251173,0.1044780270844698
1772806433895462100,1.654462158203125,-1.32710083643198,-0.5092851546555757,0.45098523363918064
1772806433905394000,1.664393798828125,-1.2011989130467176,-0.5157417834490537,0.7803715017840266
1772806433915325000,1.674324951171875,-1.0991899064242838,-0.45132688668370247,0.9931441916316747
1772806433925256000,1.684255859375,-1.031083753925562,-0.3030266690075397,0.9217200006261468
1772806433935188000,1.69418798828125,-1.0089157612591981,-0.11698854908943175,0.668144906399399
1772806433945119000,1.704118896484375,-1.0112725535184144,0.12511807953119278,0.3631738253258168
1772806433955051000,1.714051025390625,-0.9615174657464027,0.2572171039909124,0.10331789726391434
1772806433964982000,1.72398193359375,-0.8868331039011478,0.39965690520107744,-0.026007570829242467
1772806433974913800,1.733913818359375,-0.6877595613211392,0.49439095238447184,-0.005850771854817867
1772806433984844800,1.7438447265625,-0.38301556700170036,0.5225953026056289,0.13657237048149107
1772806433994777000,1.753777099609375,-0.2086030029475689,0.5875836153447628,0.5444470689296722
1772806434004708000,1.7637080078125,-0.11093757848739623,0.6141460435777902,1.1130443903841079
1772806434014639900,1.773639892578125,-0.20909750846624373,0.5813771619200706,1.5591772155560553
1772806434024571000,1.78357080078125,-0.6345505337029695,0.5607160666853189,1.8484362021043896
1772806434034502100,1.793502197265625,-1.1547288382947445,0.50853112141788,1.9504777958221733
1772806434044434000,1.803433837890625,-1.4342261631548403,0.48629123255908485,1.708693238762766
1772806434054365000,1.813364990234375,-1.2175754628300666,0.5506774877518416,0.9881609963916241
1772806434064297000,1.823296875,-0.5109294147312641,0.6478413924306631,0.06393164329305291
1772806434074228000,1.83322802734375,0.19507015215754508,0.6665420012474059,-0.6940835036456584
1772806434084159700,1.84315966796875,0.7965151195943355,0.598252893397212,-1.2913675520107148
1772806434094091000,1.853091064453125,1.4491753104835747,0.5585913296163082,-1.5417315752364693
1772806434104023000,1.86302294921875,1.841684097495675,0.43617841739058494,-1.54802483016178
1772806434113953800,1.872953857421875,1.908913467159867,0.2555558927804231,-1.3518836877718567
1772806434123885800,1.8828857421875,1.8776514829337596,0.2057481980383396,-0.9921237625427544
1772806434133816800,1.89281689453125,1.7657926979482172,0.20025369227528572,-0.61783905287683
1772806434143748000,1.902748046875,1.7355623948574066,0.2434714872330427,-0.10408391320034861
1772806434153680000,1.912679931640625,1.8054139297187328,0.35645138520300385,0.3500207676336169
1772806434163611000,1.92261083984375,1.8703700937539338,0.5554705672472715,0.6745096191257238
1772806434173543000,1.93254296875,1.878719404426217,0.781521548601985,0.8715290056549012
1772806434183474000,1.942473876953125,1.7019991479516028,1.0611094743549823,1.1061476166076958
1772806434193406000,1.952406005859375,1.273418346083164,1.315998427659273,1.0890705173395574
1772806434203337000,1.9623369140625,0.670611442643404,1.5959709688156842,0.7006069140650332
1772806434213269000,1.97226904296875,-0.006229249778389931,1.738433566379547,0.011396131022274493
1772806434223199700,1.98219970703125,-0.5844447327971458,1.762544509807229,-0.651475511149317
1772806434233131500,1.992131591796875,-0.9589163433372974,1.6729636076033114,-1.247533232589811
1772806434243062800,2.002062744140625,-1.1377484773993491,1.4204396298646926,-1.6471991978801785
1772806434252993800,2.011993896484375,-0.9981208110004662,1.0593003791064024,-1.7767225266329942
1772806434262925600,2.021925537109375,-0.5541057086348533,0.7195236498504877,-1.6919385033167897
1772806434272856800,2.03185693359375,-0.013898761492967605,0.30998364853858945,-1.4571096106141805
1772806434282788900,2.041788818359375,0.5827022730439901,-0.1775268966823816,-1.0324008278734982
1772806434292719900,2.051719970703125,1.170503915053606,-0.5927390984117984,-0.7229374038167298
1772806434302651600,2.061651611328125,1.5424492219865322,-0.9106985481351614,-0.5617265589021146
1772806434312582700,2.071582763671875,1.7842928157567977,-1.1843185053944587,-0.4338417911365628
1772806434322514700,2.0815146484375,1.9669833788126705,-1.2909773836493492,-0.3452086911767721
1772806434332445700,2.09144580078125,1.9281939216911792,-1.252135319557786,-0.3714955173388123
1772806434342377700,2.101377685546875,1.766779955419898,-1.2423638671278954,-0.37436537368670103
1772806434352308700,2.111308837890625,1.4772422980606554,-1.1782236956506966,-0.2766505571268499
1772806434362239700,2.12123974609375,1.1950187631070612,-1.0811457156896591,-0.21530220832526684
1772806434372171500,2.131171630859375,0.8466407942444085,-0.9425304412037133,-0.2286579489827156
1772806434382102800,2.141102783203125,0.4815677111685276,-0.7825105596393346,-0.32065614146143195
1772806434392034800,2.151034912109375,0.24957857193648814,-0.5931769053071737,-0.43502194083184004
1772806434401965600,2.160965576171875,0.20750059466361997,-0.40763036829829213,-0.5856351116254925
1772806434411897600,2.170897705078125,0.2254641213774681,-0.24970424414277076,-0.6422746982142329
1772806434421828900,2.180828857421875,0.3012017916679382,-0.04368015177249908,-0.601354366543889
1772806434431761000,2.190760986328125,0.3556441604733467,0.10008709864914417,-0.4663619587302208
1772806434441691600,2.200691650390625,0.2563724698603153,0.2169160732626915,-0.2880801520273089
1772806434451623700,2.210623779296875,0.01928337714076042,0.3124018155962229,-0.16909516842365263
1772806434461554700,2.2205546875,-0.41814708613753315,0.36067455585598945,-0.20966595600396393
1772806434471485700,2.230485595703125,-0.9526783257305621,0.39332536409199237,-0.36446342674493787
1772806434481417700,2.240417724609375,-1.3543939170271158,0.39799160233736036,-0.5639315216004848
1772806434491348700,2.2503486328125,-1.6314081928998232,0.38610125805735585,-0.7221560441806912
1772806434501280800,2.26028076171875,-1.6016268026202916,0.33887715006768704,-0.7460121360644698
1772806434511211500,2.27021142578125,-1.1772487131386995,0.2554407419681549,-0.6373717286035419
1772806434521143600,2.2801435546875,-0.7767734772920608,0.13272972357869148,-0.45162820771783585
1772806434531074800,2.29007470703125,-0.43691842210292814,0.04240004883408546,-0.1705462440147996
1772806434541006800,2.3000068359375,-0.16501462111175058,-0.04442307909429073,0.1267573711708188
1772806434550937600,2.3099375,-0.09993921461105346,-0.08411971418857574,0.3442299092724919
1772806434560869600,2.31986962890625,-0.15164777453839778,-0.09144728059768677,0.4146712267205119
1772806434570801000,2.32980078125,-0.3669850541770458,-0.012096095985174178,0.41959377781450746
1772806434580731600,2.339731689453125,-0.6948591641932725,0.09602876316905021,0.2949626050174236
1772806434590663700,2.34966357421875,-1.0348486594170332,0.24901918448805807,-0.03785802149027586
1772806434600594700,2.3595947265625,-1.2665063747376202,0.3865484173029661,-0.4114125171855092
1772806434610526700,2.369526611328125,-1.1843225970476865,0.495666379147768,-0.6584563099473715
1772806434620457700,2.379457763671875,-0.9651847560822964,0.5668851107090711,-0.7622349565908312
1772806434630389800,2.3893896484375,-0.7524234644114971,0.5645511148035526,-0.6329211789354682
1772806434640320800,2.39932080078125,-0.4910258598655462,0.6045552084118128,-0.33807723186165095
1772806434650252800,2.409252685546875,-0.372145213419199,0.6363952847868204,-0.09042086015939713
1772806434660183600,2.41918359375,-0.5379466009944677,0.6669523356139659,0.13143354628831147
1772806434670115600,2.429115478515625,-0.938967195764184,0.7604647320479154,0.20218056868463755
1772806434680046800,2.439046875,-1.3287638012081384,0.8670499605447053,0.10506985549777746
1772806434689977600,2.4489775390625,-1.6505226432144642,1.0105103369742632,-0.01195318038314581
1772806434699909600,2.45890966796875,-1.7646072875559329,1.1680822408646345,-0.1441746621787548
1772806434709841000,2.4688408203125,-1.504099325326085,1.3750216945141553,-0.19863310533612966
1772806434719773000,2.47877294921875,-1.2291162630200385,1.5229875656694174,-0.3108177612751722
1772806434729703700,2.48870361328125,-1.1166221027404069,1.5497516539543865,-0.5165691741839051
1772806434739635700,2.4986357421875,-1.1634534120202065,1.5640297701537609,-0.8684142346352338
1772806434749566700,2.508566650390625,-1.383418351459503,1.4984814854443071,-1.3089645834997297
1772806434759498800,2.518498779296875,-1.4882289714992045,1.3069342467159033,-1.7941612988203763
1772806434769429800,2.5284296875,-1.2764789026975631,1.0833230597287415,-1.954960640324652
1772806434779361800,2.53836181640625,-0.7958177849799394,0.8389555004388094,-1.7743302246689796
1772806434789292800,2.548292724609375,-0.13017477839887143,0.5134130482405423,-1.2249085821971297
1772806434799223600,2.5582236328125,0.5588391668975353,0.23373978229165077,-0.5718748818203807
1772806434809155600,2.568155517578125,1.1654822874993085,0.08508242174088955,0.12050590956062078
1772806434819086800,2.5780869140625,1.7061323022335766,0.04120937774479389,0.735517337796092
1772806434829019000,2.588018798828125,2.0288608660548926,0.07043079605400562,1.1739514251589775
1772806434838949600,2.59794970703125,2.19067406077683,0.10072948820590973,1.3822645052492617
1772806434848881700,2.607881591796875,2.277591881251335,0.2751917366206646,1.4011787568166851
1772806434858813000,2.61781298828125,2.206193701469898,0.4541775999397039,1.0858014325410128
1772806434868744700,2.62774462890625,2.022947842618823,0.6392354766488075,0.6786185157492757
1772806434878675700,2.63767578125,1.7068728914678095,0.8125123146712779,0.3590811491847038
1772806434888607700,2.647607666015625,1.3594190517127513,0.888777808228135,0.14990093087106943
1772806434898538800,2.657538818359375,1.1275959166973828,0.9216828834861517,0.10702566574066877
1772806434908469800,2.6674697265625,1.0661860469669102,0.8536568104863166,0.16096125406771897
1772806434918401800,2.67740185546875,1.0705430731326342,0.6843880390614271,0.1776867634192109
1772806434928332800,2.687332763671875,1.165322713023424,0.459032054233551,0.22482319312542676
1772806434938264800,2.697264892578125,1.2048369772881269,0.18737433695793151,0.2996495937898755
1772806434948195600,2.707195556640625,1.2030915949255228,-0.10165712444484233,0.18441373358666896
1772806434958127600,2.717127685546875,1.260471770748496,-0.3008019786953926,-0.03690495854914188
1772806434968059000,2.727058837890625,1.226979835513234,-0.4955255093723535,-0.2850748327314854
1772806434977990700,2.73699072265625,1.1400830578267573,-0.6793892078608275,-0.4863821257129311
1772806434987921700,2.746921630859375,1.0667267297148704,-0.8757149130374192,-0.6033516778409481
1772806434997853700,2.756853759765625,0.9874871887832879,-1.0610393317282198,-0.5428516164317727
1772806435007785000,2.766784912109375,0.904193988546729,-1.253776072502136,-0.28704613280445335
1772806435017715700,2.7767158203125,0.9023118280619382,-1.3975672883212567,-0.06327829395085573
1772806435027647700,2.786647705078125,1.0014420643776654,-1.4457465050786733,0.097959438970685
1772806435037578800,2.796578857421875,1.0307546681016684,-1.460562965938449,0.20120090999752283
1772806435047510500,2.806510498046875,0.8695102131783962,-1.4484446581214665,0.18554712153077124
1772806435057441800,2.81644189453125,0.6827496242046356,-1.318628191640973,0.16682079375088213
1772806435067373800,2.826373779296875,0.5361895281940698,-1.098272207057476,0.0642772418603301
1772806435077304800,2.836304931640625,0.3428308561295271,-0.9798457341194152,-0.07082213345915078
1772806435087236600,2.846236572265625,0.29302608399689195,-0.8849328232377767,-0.17935469663143158
1772806435097167600,2.856167724609375,0.34037352610528465,-0.8241513145387173,-0.15725363172143697
1772806435107099600,2.866099609375,0.3311614611238241,-0.8341682661622762,0.04559855261445045
1772806435117030700,2.87603076171875,0.2966641482383013,-0.8842103541821241,0.2791048184111714
1772806435126962700,2.885962646484375,0.2065449013739824,-0.9127975662410259,0.570826980202645
1772806435136893700,2.895893798828125,0.07455459798574447,-0.9675310269474983,0.6436886566653848
1772806435146825000,2.905824951171875,-0.09552548982203006,-0.9792010064750909,0.5939215861946344
1772806435156756700,2.9157568359375,-0.16306816321909426,-0.9789315418839454,0.432535969235003
1772806435166687700,2.925687744140625,-0.1294037940263748,-1.0096446600556372,0.18362404451370237
1772806435176619800,2.935619873046875,0.002498246556520462,-1.1278308944970368,-0.08786328463107347
1772806435186550500,2.945550537109375,0.18752222099602223,-1.1792343339979647,-0.24931670612990856
1772806435196482600,2.955482666015625,0.39043198073804375,-1.2507447419822215,-0.2513360831283033
1772806435206413800,2.965413818359375,0.5814344450652599,-1.4379016367971895,-0.17317761543169616
1772806435216345900,2.975345947265625,0.8083411664664745,-1.6416057617872952,-0.0542899547226727
1772806435226276400,2.9852763671875,0.9655062431216239,-1.6805191375494002,-0.042022155432403084
1772806435236208400,2.99520849609375,0.8009820358753204,-1.6827619480401277,0.006452537140250206
1772806435246139600,3.0051396484375,0.528898786664009,-1.630541346937418,0.1512326178662479
1772806435256070400,3.0150703125,0.2569780345380306,-1.5060773474007845,0.3196571935519576
1772806435266002400,3.02500244140625,0.03847323077917099,-1.3998299725562333,0.5362561636894941
1772806435275933400,3.034933349609375,-0.21917817297577857,-1.292217739099264,0.7804290771901607
1772806435285865500,3.044865478515625,-0.6141472126215696,-1.1452543229848147,1.14959878192991
1772806435295796500,3.05479638671875,-1.0814379766345024,-1.015976785686612,1.508419380482286
1772806435305728500,3.064728515625,-1.604690281844139,-0.84094988912642,1.5802033447109163
1772806435315659500,3.074659423828125,-2.235782199525833,-0.6516518906295299,1.4999064036808907
1772806435325591300,3.08459130859375,-2.8481466203838584,-0.4047229564189911,1.2021095981508492
1772806435335522300,3.094522216796875,-3.204384070575237,-0.23540450063347815,0.8619935539379715
1772806435345454300,3.104454345703125,-3.2556974937051533,-0.12451485294103622,0.5649740163907409
1772806435355385600,3.114385498046875,-3.020392361792922,-0.04305997404754162,0.30515812807828185
1772806435365316400,3.12431640625,-2.541869425147772,-0.011300561693310738,0.21965485057681797
1772806435375248400,3.134248291015625,-1.9736422521799801,0.017969956454634665,0.0888558027997613
1772806435385179400,3.144179443359375,-1.4808850384771823,0.019295652100443837,-0.09141732385084032
1772806435395111400,3.154111328125,-1.086276064315438,-0.020415596041083336,-0.26711072149574755
1772806435405042400,3.16404248046875,-0.7694710453242063,-0.09491992514431476,-0.4905965285375714
1772806435414974500,3.173974365234375,-0.5921510693907738,-0.19111469253003596,-0.6179841604359447
1772806435424905500,3.183905517578125,-0.6071925711780786,-0.30143443138003345,-0.5934701891653239
1772806435434837200,3.193837158203125,-0.6981137820750475,-0.35665538334250446,-0.4979067054204642
1772806435444768500,3.2037685546875,-0.8044768922537565,-0.41546354614198205,-0.3232141553811729
1772806435454700500,3.213700439453125,-0.899565159702301,-0.43615503651499743,-0.14741218279525636
1772806435464631600,3.223631591796875,-0.9135416626065969,-0.413613534361124,0.0349304436057806
1772806435474562300,3.233562255859375,-0.7996230224817991,-0.312552622243762,0.08494900461956859
1772806435484494300,3.243494384765625,-0.654352381759882,-0.17533493959605692,0.05574746005460619
1772806435494425600,3.253425537109375,-0.41654374259412286,-0.015714286482334135,0.08879398960992693
1772806435504357400,3.263357421875,-0.3723533032119274,0.2667465643584728,0.15224559430107473
1772806435514288400,3.273288330078125,-0.5602466956079006,0.5647399153739213,0.2561860073775053
1772806435524220400,3.283220458984375,-0.9552993218839168,0.8578110075563192,0.4195077069662511
1772806435534151700,3.293151611328125,-1.5074574035823345,1.1044944425731897,0.5532672119840979
1772806435544083500,3.30308349609375,-1.9639187305450438,1.3250368896394966,0.5450502955198288
1772806435554014500,3.313014404296875,-2.197052948158979,1.4477251116752623,0.2137647696249187
1772806435563946500,3.322946533203125,-2.305644840303063,1.4919243188858031,-0.15040142773911355
1772806435573877200,3.332877197265625,-2.120787454602122,1.4609078338533639,-0.547232023473084
1772806435583808500,3.34280859375,-1.6431190889596938,1.3206710956454277,-0.9134177439659833
1772806435593740500,3.352740478515625,-1.0518407107502221,1.0626946977198124,-1.1050225581005215
1772806435603671600,3.362671630859375,-0.43046120878756045,0.7759411181211471,-0.956094417784363
1772806435613603300,3.372603271484375,0.24213410114943978,0.5143447761327028,-0.727636667548865
1772806435623534300,3.382534423828125,0.8079600581943989,0.31166473349332807,-0.5139819341696799
1772806435633466400,3.39246630859375,1.2210422621577977,0.12365560576319694,-0.26488968444541094
1772806435643397400,3.4023974609375,1.6921435243695973,0.06635550943911075,0.03575447333976626
1772806435653329400,3.412329345703125,1.975313400262594,0.06661269907057285,0.3945915846355259
1772806435663260400,3.422260498046875,2.014506762009859,0.08941372894346714,0.7392213068805634
1772806435673192400,3.4321923828125,2.0147575219005347,0.23062603418529032,1.1338666675299405
1772806435683123500,3.44212353515625,1.8645739746958017,0.4552583809137344,1.4044238762177526
1772806435693055500,3.452055419921875,1.6998276491314173,0.6847942817747592,1.4674201383568346
1772806435702986500,3.461986572265625,1.5095125825464724,0.9989566773027181,1.3343795952633022
1772806435712917200,3.471917236328125,1.2757879978239535,1.316349140793085,0.9310084918446838
1772806435722849300,3.481849365234375,0.8845341793090105,1.5501520514488218,0.3194762840270996
1772806435732780500,3.491780517578125,0.3778437173217535,1.681366109767556,-0.405546401631087
1772806435742712600,3.501712646484375,-0.01756371374130249,1.6739982113480567,-1.0243523998439312
1772806435752643300,3.511643310546875,-0.2738309696614742,1.531576530316472,-1.5085970751367508
1772806435762575400,3.521575439453125,-0.24440613773465156,1.2390157257437706,-1.8439622715607284
1772806435772506400,3.53150634765625,0.1789396860897541,0.8570937991976737,-1.8411508674018084
1772806435782438400,3.5414384765625,0.8774626334875821,0.3666536302655935,-1.5796132698632777
1772806435792369400,3.551369384765625,1.4920049829065798,-0.16613748766183853,-1.1211933561787009
1772806435802301400,3.561301513671875,1.9495956061601638,-0.5929892737805843,-0.5920308040119707
1772806435812232400,3.571232421875,2.4265491015315055,-0.9755670338869095,-0.15930018898770212
1772806435822163500,3.58116357421875,2.8122470394849777,-1.3118150044947863,0.22735797230005264
1772806435832095500,3.591095458984375,3.0500673690885303,-1.511649010053277,0.503363363391161
1772806435842026500,3.601026611328125,3.1687580459207294,-1.6008768610358237,0.6927281435139477
1772806435851958500,3.61095849609375,3.2771839338481423,-1.572550345739722,0.9274662891931831
1772806435861889300,3.62088916015625,3.270088422629237,-1.3938099816143512,1.075019341763854
1772806435871821300,3.6308212890625,2.902389082702994,-1.1677829656571148,1.116800235786289
1772806435881752600,3.640752685546875,2.2796342007339,-0.7851496759712696,1.07681250879094
1772806435891684600,3.6506845703125,1.6356518218189477,-0.26299919452369214,0.9151964440762996
1772806435901615400,3.660615478515625,0.9895125571310519,0.2913011599004268,0.6236341490216553
1772806435911547400,3.67054736328125,0.22427520385384558,0.7962520847439766,0.25495500427782536
1772806435921478400,3.680478515625,-0.5625637403786182,1.1751841818243265,-0.17944953530803323
1772806435931410400,3.690410400390625,-1.1324252365499734,1.4345190086215733,-0.5700064575999975
1772806435941341400,3.700341552734375,-1.3151064472556113,1.5922013871490954,-0.9251426685512065
1772806435951272400,3.7102724609375,-1.3290379419744014,1.7089765857487915,-1.2621230450868606
1772806435961204500,3.72020458984375,-1.2747972332209347,1.7609920196682214,-1.4387506548419593
1772806435971135500,3.730135498046875,-1.0839233637094496,1.6725585339337585,-1.5352975966662168
1772806435981067500,3.740067626953125,-0.7899684744298457,1.4578379248887299,-1.4669655264571309
1772806435990998500,3.74999853515625,-0.534853895676136,1.1272054560750722,-1.2424535912379622
1772806436000930600,3.7599306640625,-0.245846984192729,0.7540899363189936,-1.0269850864350796
1772806436010861300,3.769861328125,0.03964519716799259,0.3434609707266092,-0.9300026758030057
1772806436020793300,3.77979345703125,0.2262269224435091,0.008504208973050117,-0.8646613118425012
1772806436030724600,3.789724609375,0.33076749337017536,-0.29974048694372174,-0.7156333644136786
1772806436040656400,3.799656494140625,0.3968745810061693,-0.5443009384572506,-0.5569055684864521
1772806436050587400,3.80958740234375,0.4219979163467884,-0.6751847419083118,-0.3729690970227122
1772806436060518400,3.819518310546875,0.5007628255039454,-0.7817857524961233,-0.17216098573505878
1772806436070450400,3.829450439453125,0.5440191989064216,-0.8805717054188251,0.0049181671798229215
1772806436080381400,3.83938134765625,0.46626609714031214,-0.8836515512555837,0.13750088350325823
1772806436090313500,3.8493134765625,0.23777882854938506,-0.8190186278253794,0.16090952388048171
1772806436100244500,3.859244384765625,-0.1675929471671581,-0.6301864932745694,0.1163178102210164
1772806436110176300,3.86917626953125,-0.5923994911938906,-0.38517829799354075,0.0030851065337657926
1772806436120107500,3.879107421875,-1.0478285524994135,-0.14938275221586225,-0.11606821937412024
1772806436130039600,3.88903955078125,-1.4973393296718596,0.0279635272026062,-0.2448506666317582
1772806436139970600,3.898970458984375,-1.7990841421753168,0.22443711641728878,-0.22706892622560262
1772806436149902300,3.90890234375,-1.9624697007805108,0.4262988284111023,-0.09527268410474062
1772806436159833300,3.918833251953125,-2.062683640679717,0.5892126778513193,0.04965396548509597
1772806436169765400,3.928765380859375,-2.19591371499598,0.753811119377613,0.304790463809669
1772806436179696400,3.9386962890625,-2.3377789311885833,0.9426642967164516,0.5059317525744438
1772806436189627400,3.94862744140625,-2.637092132630944,1.1687205387681723,0.7546288655012846
1772806436199559400,3.958559326171875,-2.8992689048558473,1.4084072467654942,0.8024985779181122
1772806436209490400,3.968490478515625,-3.0267057827234267,1.7227648726046085,0.7594263289108872
1772806436219422500,3.97842236328125,-3.0949709251761433,1.898714144706726,0.5383610270142555
1772806436229353500,3.988353515625,-3.1727824791312216,1.8042764501214026,0.1938186907917261
1772806436239284500,3.998284423828125,-3.15861133043766,1.5780138718426227,-0.3175686968401074
1772806436249216500,4.008216552734375,-2.9500486595004793,1.2849953866302966,-0.9183145760968326
1772806436259147500,4.0181474609375,-2.542477327913046,0.8842623766303062,-1.285945819222927
1772806436269079600,4.02807958984375,-2.016644358560443,0.43351007496416566,-1.203790390844643
1772806436279010600,4.038010498046875,-1.3356915546447037,0.05722936917543411,-0.7036304996699094
1772806436288942300,4.0479423828125,-0.43390345819592474,-0.3291793473958969,0.11858721645772456
1772806436298873300,4.057873291015625,0.568386747443676,-0.6270844356060028,1.1312854188650845
1772806436308805400,4.067805419921875,1.7634212926417587,-0.7821884880781174,2.1194833862662312
1772806436318736600,4.077736572265625,2.868570984253287,-0.9086229109048843,2.808448523984849
1772806436328667400,4.08766748046875,3.6621623253554105,-0.8047372967556119,3.1624788195207714
1772806436338599400,4.097599365234375,4.165843084132671,-0.6142682086527347,3.1417490429639816
1772806436348530400,4.107530517578125,4.274338530164957,-0.36833500748127695,2.63890882666409
1772806436358462200,4.117462158203125,3.9832980670273304,0.12369213838130234,1.779670708914101
1772806436368393500,4.1273935546875,3.1590169886291024,0.8082996654123067,0.8256415530964731
1772806436378325500,4.137325439453125,2.081661897394061,1.2841279561460017,-0.07831862669438124
1772806436388256500,4.147256591796875,1.196142214179039,1.5940286025762558,-0.8478603991672397
1772806436398188300,4.157188232421875,0.5125871188104152,1.7521233612969516,-1.4709186479970813
1772806436408119600,4.16711962890625,-0.030330840855836868,1.7201050057455896,-1.7673066096425056
1772806436418051600,4.177051513671875,-0.2565589323431253,1.5465315228641032,-1.7748726609826087
1772806436427982300,4.186982421875,-0.14560148011147975,1.2389683794707058,-1.5822610078930854
1772806436437913300,4.196913330078125,0.03807750945985317,0.7890642190665006,-1.198505143918097
1772806436447845400,4.206845458984375,0.31147885553240773,0.3277908156469464,-0.748508921316266
1772806436457776600,4.216776611328125,0.5989256780922413,-0.09396306281089782,-0.4240604018345475
1772806436467708400,4.22670849609375,0.7239005497604608,-0.46062750673145053,-0.1960544870197773
1772806436477639400,4.236639404296875,0.7812251960039138,-0.8363114156708121,-0.049076750119030475
1772806436487571500,4.246571533203125,0.8555740422844886,-1.0999614753186702,-0.10487988588362931
1772806436497502200,4.256502197265625,0.9139087423533201,-1.3180804946303366,-0.2884127449825406
1772806436507434500,4.2664345703125,1.0893231769263745,-1.4676418182834983,-0.4219280659809708
1772806436517365500,4.276365478515625,1.2037743164926766,-1.6104545444592833,-0.44374563777446746
1772806436527297500,4.286297607421875,1.259899523818493,-1.7765508233278988,-0.4151403055369854
1772806436537228300,4.296228271484375,1.2913023778200148,-1.8181281576022505,-0.314186360925436
1772806436547160300,4.306160400390625,1.2690081284254788,-1.8172011058852076,-0.25252485452145335
1772806436557091600,4.316091552734375,1.121105385634303,-1.7725936101347206,-0.20807634872496128
1772806436567022300,4.326022216796875,0.8536854520589112,-1.723698354062438,-0.09964081618636846
1772806436576954400,4.335954345703125,0.5799813236474991,-1.6555477779000995,-0.08437778060287236
1772806436586885400,4.345885498046875,0.32579555017650125,-1.542615518464148,-0.12626257339119912
1772806436596817400,4.3558173828125,0.14848492659330367,-1.4495923668518662,-0.32699703492075205
1772806436606750500,4.36575048828125,0.033091537740826606,-1.4010884481847286,-0.5941803832612932
1772806436616681200,4.37568115234375,-0.11050035611391067,-1.3561270244300365,-0.7079075924672186
1772806436626613500,4.385613525390625,-0.12911913186609744,-1.324607266050577,-0.7530674614034593
1772806436636544500,4.39554443359375,-0.02192600060403347,-1.3382400700837374,-0.8495768476963043
1772806436646475500,4.4054755859375,0.0009726444244384765,-1.4115508054882286,-0.7004610758535563
1772806436656407300,4.4154072265625,-0.025683307310938833,-1.5390560724169016,-0.3313086145095527
1772806436666338600,4.425338623046875,-0.10033201332092284,-1.6528084160640835,-0.12227628023400902
1772806436676270600,4.4352705078125,-0.23373510611653325,-1.6556567912325262,0.04921133628413081
1772806436686201300,4.445201416015625,-0.3196224144995212,-1.6475710999324917,0.0587711917899549
1772806436696133400,4.45513330078125,-0.5418897856622934,-1.6204709115609526,-0.11830679208114743
1772806436706064400,4.465064453125,-0.8425427112758159,-1.584993939988315,-0.2621823251828551
1772806436715996400,4.474996337890625,-1.1031915432810784,-1.5731217158868909,-0.24815716083124278
1772806436725927400,4.484927490234375,-1.242215398567915,-1.510994345536828,-0.07915142425671219
1772806436735859500,4.494859375,-1.6019196480870246,-1.4018266993314028,0.1740270718678832
1772806436745790500,4.50479052734375,-2.0225024369388818,-1.2777008457079528,0.3738746675603091
1772806436755721200,4.51472119140625,-2.2542396472364663,-1.1228931458339095,0.5832372567035258
1772806436765653200,4.5246533203125,-2.3370903644025325,-0.9648100775510072,0.8252592757806182
1772806436775584500,4.53458447265625,-2.25731014072299,-0.8313435641303658,1.0737243335172533
1772806436785516500,4.5445166015625,-2.074845787638426,-0.7004708665952086,1.3046218781203032
1772806436795447300,4.554447265625,-1.900388799920678,-0.5349141014307737,1.4188023840516806
1772806436805379300,4.56437939453125,-1.8236691328555343,-0.32675708868503567,1.3900838006980716
1772806436815310600,4.574310546875,-1.8511457533240316,-0.10720803657025098,1.182646772789955
1772806436825242600,4.58424267578125,-1.914758686056733,0.08088117065876722,0.8525508950710297
1772806436835173400,4.59417333984375,-1.896690529924631,0.25201836630403995,0.5318471150755882
1772806436845105400,4.60410546875,-1.7745640334248542,0.3874839445874095,0.3426059613324702
1772806436855036400,4.614036376953125,-1.4945663578271864,0.4341439889535308,0.2954674857996404
1772806436864968400,4.623968505859375,-1.2073241179287433,0.4619610934227705,0.36831338017135856
1772806436874899500,4.6338994140625,-0.8388970482498407,0.49779403882622714,0.550225360070169
1772806436884830500,4.64383056640625,-0.430956298828125,0.5717047859504819,0.7573325715020298
1772806436894762500,4.653762451171875,-0.07679974656403064,0.6731412533819675,0.9199750566549598
1772806436904693200,4.663693359375,0.12830372382998464,0.9430380984649062,1.1259165853083133
1772806436914625300,4.673625244140625,0.12222235808968543,1.1910863920941948,1.2559003711797296
1772806436924556500,4.683556640625,-0.27261341056525706,1.4115809083655475,1.2892727716885506
1772806436934488600,4.693488525390625,-0.8777344361662864,1.59894443166852,1.1656215498395264
1772806436944419300,4.70341943359375,-1.4116910907417535,1.7699290671005845,0.8634522283136844
1772806436954351400,4.713351318359375,-1.7017729379802942,1.8257210969492792,0.3162237119719386
1772806436964282600,4.72328271484375,-1.6620307101786136,1.7884207093417643,-0.2516365273796022
1772806436974214700,4.733214599609375,-1.1523358056783675,1.6539511563584208,-0.6813707370668649
1772806436984145400,4.7431455078125,-0.32437223937511445,1.3298819915831088,-0.7356744280539452
1772806436994077400,4.753077392578125,0.5397258856266737,0.9242083103105425,-0.56718555496037
1772806437004008400,4.763008544921875,1.3760031067669392,0.624389205172658,-0.19415800574868916
1772806437013939500,4.772939453125,2.155698608985543,0.38580081380605696,0.11440540072843432
1772806437023871500,4.78287158203125,2.7989322153598066,0.2402101473495364,0.44847193564400073
1772806437033802500,4.792802490234375,3.311078020143509,0.2063826965495944,0.8095046572878957
1772806437043734500,4.802734619140625,3.620556641769409,0.3448562244772911,1.206035831683874
1772806437053665300,4.812665283203125,3.5609161197990176,0.4539136883065104,1.4399541854128242
1772806437063597600,4.82259765625,3.1000685405761,0.7146291558071971,1.522823899540305
1772806437073528600,4.832528564453125,2.385758241459727,1.167018411025405,1.3650249088957904
1772806437083460400,4.84246044921875,1.6558330245822668,1.6293690882876515,0.9912547246232628
1772806437093391400,4.852391357421875,0.9647866966754197,2.048206787037849,0.5479159140840173
1772806437103323400,4.862323486328125,0.22250877870321273,2.439059623536467,0.1833561873577535
1772806437113254700,4.872254638671875,-0.40564767004847524,2.643054840427637,-0.3017588410288095
1772806437123186400,4.8821865234375,-0.715278267365694,2.6674644745409486,-0.7694355356194078
1772806437133117400,4.892117431640625,-0.7283475922971964,2.549541859471798,-1.1218547426968812
1772806437143048400,4.90204833984375,-0.34696284136772154,2.320112633855641,-1.389892954301089
1772806437152980200,4.911980224609375,0.3322188612222671,1.953852679082751,-1.5760919638693331
1772806437162911500,4.921911376953125,1.0105611903786658,1.5540253857508302,-1.6140287496842443
1772806437172843500,4.931843505859375,1.4938596708625553,1.1204562740758062,-1.4607339385911822
1772806437182774500,4.9417744140625,1.8503572332948446,0.6648539020299911,-1.343845781136304
1772806437192706300,4.951706298828125,2.015298789170384,0.2835530299916863,-1.025133905610442
1772806437202637300,4.96163720703125,2.197907519161701,-0.06126958447694778,-0.6707406219810247
1772806437212569600,4.971569580078125,2.3524106831312177,-0.3663549395799637,-0.4495762436240911
1772806437222500400,4.981500244140625,2.453697220697999,-0.5663000042974948,-0.277404736495018
1772806437232433000,4.991432861328125,2.483430680182576,-0.6929270270869136,0.09483210073038935
1772806437242364000,5.001364013671875,2.535805595064163,-0.8205793012708426,0.4770021568186581
1772806437252294700,5.011294677734375,2.491719200578332,-0.8259402437821031,0.7465875978648662
1772806437262227000,5.02122705078125,2.366236963909864,-0.7857146163776516,0.9564790331877767
1772806437272158000,5.031157958984375,2.2031033342391253,-0.6705187959238886,1.0420889859341085
1772806437282089700,5.04108984375,1.9801485653340816,-0.44236382802724833,0.9628552902214228
1772806437292020700,5.051020751953125,1.6966881820619106,-0.1332511171042919,0.7748752424553036
1772806437301952800,5.060952880859375,1.472607039475441,0.25099896012842654,0.6140362995930015
1772806437311884000,5.070884033203125,1.263828679960966,0.6016767303660512,0.4325594962410629
1772806437321815800,5.08081591796875,1.0313397745132447,0.959595850034058,0.2570809103906154
1772806437331746800,5.090746826171875,0.6806850928902626,1.289519293795526,0.08994315964505076
1772806437341678800,5.100678955078125,0.2158522434234619,1.5629837682321668,-0.10431509160771965
1772806437351609600,5.110609619140625,-0.3259977947503328,1.7622969647869466,-0.3742388246975839
1772806437361541600,5.120541748046875,-0.8709446298956871,1.8236124342322348,-0.6897951588019728
1772806437371473000,5.130472900390625,-1.2168950793504714,1.7832064818248152,-0.8884874469794333
1772806437381405000,5.140405029296875,-1.2747083858937025,1.6526289678439496,-0.8728571855187416
1772806437391335700,5.150335693359375,-1.1882570138871669,1.4503937463626264,-0.5823489295616746
1772806437401266700,5.1602666015625,-0.844021551656723,1.165537232556939,-0.017083675139397382
1772806437411199000,5.170198974609375,-0.37728842152655123,0.8489818044126033,0.5348066955335438
1772806437421129700,5.180129638671875,-0.023105565777420997,0.5151891180023551,0.9831118963085115
1772806437431061800,5.190061767578125,0.21422610352635382,0.2098041954308748,1.2404165324524044
1772806437440992800,5.19999267578125,0.3700187227845192,-0.0242404150262475,1.2061544896274805
1772806437450924800,5.2099248046875,0.3734446055799722,-0.16351561472564935,0.8410920740760862
1772806437460855800,5.219855712890625,0.28601532845199107,-0.182106625688076,0.447344977440685
1772806437470787800,5.229787841796875,0.07924889328181743,-0.14142273312211037,-0.0033639234751462934
1772806437480718800,5.23971875,-0.1864852791637182,-0.11416180123090744,-0.32477643626183267
1772806437490651000,5.24965087890625,-0.4827554596483707,-0.14616729730069636,-0.4697790736973285
1772806437500581600,5.25958154296875,-0.6391454602777957,-0.10983312437683343,-0.5449008040465414
1772806437510513700,5.269513671875,-0.6533540183722972,-0.1109825866729021,-0.6757546507507562
1772806437520445000,5.27944482421875,-0.5981015022277831,-0.1483414264693856,-0.8949328237265348
1772806437530375700,5.289375732421875,-0.5161544559031724,-0.1881371380239725,-1.1330376693598925
1772806437540307700,5.2993076171875,-0.45402971590161323,-0.24535715484917162,-1.3212290217891334
1772806437550238700,5.30923876953125,-0.4427227244675159,-0.3391021909952163,-1.3889867992416023
1772806437560171000,5.3191708984375,-0.47315410308837885,-0.41717151910364625,-1.3527468804724514
1772806437570101800,5.329101806640625,-0.45140404357314107,-0.5163619611740112,-1.2287797245420515
1772806437580033800,5.33903369140625,-0.47101533749401564,-0.5457353551745414,-1.0744722292751072
1772806437589964800,5.34896484375,-0.6327379313230515,-0.5286427660763263,-0.9524946397267281
1772806437599896800,5.358896728515625,-0.9546364740610123,-0.49712914517670864,-0.9285963161364197
1772806437609827800,5.368827880859375,-1.2819178788810968,-0.41857904781401156,-0.8891955952487886
1772806437619759900,5.378759765625,-1.4169284068733452,-0.30574791066497564,-0.7672783575855195
1772806437629691000,5.38869091796875,-1.4555208801180124,-0.20304069264531135,-0.6010702889055013
1772806437639623000,5.398622802734375,-1.4054437207847832,-0.05473053809702396,-0.50314606737867
1772806437649553700,5.4085537109375,-1.2304723538041114,0.13552081560194493,-0.47142362603396176
1772806437659485000,5.41848486328125,-1.08259883710742,0.3920794556841254,-0.6740227123916148
1772806437669417000,5.4284169921875,-0.9994804089158773,0.649296267414093,-1.0367613611705602
1772806437679347700,5.43834765625,-1.0059235937058926,0.9092942342951893,-1.3837861618585883
1772806437689279700,5.44827978515625,-1.0156944616138934,1.2257029474452137,-1.685324638134986
1772806437699211000,5.4582109375,-1.0989601893216372,1.5946531642153858,-2.000765529166162
1772806437709143000,5.46814306640625,-1.3252911566615104,1.74338914296031,-2.2753341654524206
1772806437719073800,5.47807373046875,-1.6231693568646908,1.9129566050708293,-2.393664046148211
1772806437729005800,5.488005859375,-1.831542058187723,1.8704764767378568,-2.523472183191776
1772806437738936800,5.497936767578125,-1.8596020315021276,1.728448471198976,-2.714271818423271
1772806437748868600,5.50786865234375,-1.591476580005884,1.555060574017465,-2.888032348309457
1772806437758800000,5.5177998046875,-1.0328688837766646,1.2424620668053625,-3.038447073921561
1772806437768732000,5.52773193359375,-0.39224166050851345,0.8994555618479847,-2.7242686040416357
1772806437778663000,5.537662841796875,0.27438217380344865,0.5892290444642305,-2.0538740190193057
1772806437788593700,5.54759375,0.9286147285759448,0.3108209761455655,-1.2129286599375306
1772806437798525700,5.557525634765625,1.3856068014144898,0.09136603205502032,-0.2687400762632489
1772806437808457000,5.56745703125,1.6685837850838898,-0.012903028453886509,0.5822765949778258
1772806437818388700,5.577388671875,1.8816794232755898,-0.0026619126856327053,1.2480410359814762
1772806437828319700,5.58731982421875,1.9451871420681475,0.10457622676193713,1.5498660741142927
1772806437838251800,5.597251708984375,1.7427701342791317,0.23981442603021857,1.3736828471258282
1772806437848183000,5.60718310546875,1.274641750398278,0.4777852700203657,0.8902575253918766
1772806437858114800,5.61711474609375,0.8349924420267343,0.8089797566309571,0.18105828567892313
1772806437868045800,5.6270458984375,0.4000976347059011,0.9519497191950679,-0.492011802162975
1772806437877977900,5.636977783203125,-0.05845920323133468,0.8923328703612089,-1.0800029753953218
1772806437887908600,5.64690869140625,-0.38964930592775343,0.7176239537090062,-1.4220286526218056
1772806437897840600,5.656840576171875,-0.5934568912923336,0.45298751337230203,-1.3303865801043808
1772806437907772000,5.66677197265625,-0.84169573905766,0.14729863941818475,-0.8647390532538294
1772806437917703000,5.676702880859375,-0.8987842384576797,-0.24373773695379494,-0.3218902133010328
1772806437927634700,5.686634765625,-0.8668266731828451,-0.5703975027441978,0.1735221910856664
1772806437937565700,5.696565673828125,-0.7158575285583734,-0.8720882469728588,0.44433644327446814
1772806437947497700,5.706497802734375,-0.5547556969761848,-1.1157476579934358,0.6039774085238575
1772806437957429000,5.716428955078125,-0.4918827689558267,-1.3464905965566634,0.7268043083779513
1772806437967360800,5.72636083984375,-0.49599371140599247,-1.509646145798266,0.8612143862590194
1772806437977291800,5.736291748046875,-0.6032055473685264,-1.5349673417985439,1.005799675065279
1772806437987223800,5.746223876953125,-0.6285632759869099,-1.573391472738981,1.117505169185251
1772806437997154800,5.75615478515625,-0.5372025046288966,-1.5130655988529325,1.2695039491184055
1772806438007086800,5.7660869140625,-0.23118600615561008,-1.4057660846069455,1.335778940667212
1772806438017017900,5.776017822265625,0.26875673513710496,-1.2631614482238889,1.2826380098491907
1772806438026948900,5.785948974609375,0.7913567139178515,-1.0624348777398467,1.2046762337684631
1772806438036880600,5.795880615234375,1.1474831049501895,-0.8451441259458661,0.9623080316022038
1772806438046812000,5.80581201171875,1.231577100175619,-0.5018310392573475,0.6258693607278167
1772806438056744000,5.815743896484375,1.325620242485404,-0.18094518069326876,0.25150603286772966
1772806438066674700,5.8256748046875,1.4115741863638163,0.14004822989851234,-0.09217354904562235
1772806438076606700,5.835606689453125,1.4648381590396164,0.3960793389752507,-0.4473172126509249
1772806438086537700,5.845537841796875,1.5501912144154308,0.5722217955619097,-0.68966524881199
1772806438096469800,5.8554697265625,1.588270477440953,0.6384875808909535,-0.8306433069065212
1772806438106400800,5.86540087890625,1.597129491201043,0.6232689689710736,-0.8586959736973047
1772806438116332800,5.875332763671875,1.5248808320701122,0.4882350601032376,-0.7817886751055717
1772806438126263800,5.885263916015625,1.43806881005764,0.29360797553807494,-0.7568534096829592
1772806438136195800,5.89519580078125,1.3169669804304838,0.11669219649136066,-0.671158701262623
1772806438146126800,5.905126953125,0.9598398879230022,-0.02837619965672493,-0.6321072322040796
1772806438156057900,5.915057861328125,0.49210430275201794,-0.13127484859526156,-0.7356123226031661
1772806438165990000,5.924989990234375,0.05989303542673587,-0.20656915903240441,-0.8666502937026321
1772806438175920600,5.934920654296875,-0.19353402863144872,-0.2854728921383619,-0.9155680538676678
1772806438185852700,5.944852783203125,-0.3578898935735225,-0.37806554337888953,-0.7782451572798192
1772806438195784000,5.954783935546875,-0.4747627073287964,-0.5480933164775371,-0.6692126817613839
1772806438205716000,5.964716064453125,-0.422524570569396,-0.6648711454257369,-0.4732273144550621
1772806438215646700,5.974646728515625,-0.2498065354734659,-0.7969993959799409,-0.27353008701875803
1772806438225578800,5.984578857421875,-0.2320657115995884,-0.919477774657309,-0.23771073174923657
1772806438235509800,5.994509765625,-0.28106735065579413,-1.0189274521857499,-0.3546013734221458
1772806438245441800,6.00444189453125,-0.22487200070321559,-1.10109953943789,-0.3564589839875698
1772806438255373000,6.014373046875,-0.06079904435575008,-1.115081303039193,-0.25961729700043795
1772806438265305000,6.02430517578125,0.0027390695750713345,-1.1096981486961246,-0.16579203522503375
1772806438275235800,6.03423583984375,-0.09013736704289912,-1.0208362084165215,0.02839855761900544
1772806438285167900,6.04416796875,-0.1986070941120386,-0.867744372549653,0.161512312079221
1772806438295099100,6.05409912109375,-0.23509470403194427,-0.7243892100602388,0.36152649651020763
1772806438305030000,6.06402978515625,-0.24096388832628726,-0.6166627025738358,0.7409894855968654
1772806438314962000,6.0739619140625,-0.18336860844790934,-0.5495245183244347,1.189356353431195
1772806438324893000,6.083892822265625,-0.27208266468942166,-0.49024376957714555,1.5211933757290244
1772806438334825000,6.093824951171875,-0.506429180702567,-0.3642907005265355,1.6199946723513303
1772806438344756000,6.103755859375,-0.6630956601858139,-0.23723288510441778,1.5511688272759316
1772806438354688000,6.11368798828125,-0.7745528786331415,-0.17085574835538864,1.348827076680213
1772806438364619000,6.123618896484375,-0.8779735056191682,-0.08248656002879143,1.1668557678095997
1772806438374551000,6.133551025390625,-0.8797796782582997,-0.04835720367282629,0.9226815391346812
1772806438384481800,6.143481689453125,-0.8163269045233726,-0.13909633600115776,0.8055369227007031
1772806438394413800,6.153413818359375,-0.6847615485489368,-0.18089783442020416,0.8270845915116369
1772806438404345000,6.163344970703125,-0.771689305895567,-1.24487263507843,1.3513101256676017
1772806438414277000,6.173277099609375,-0.788802353259921,-2.3368925037428734,2.8257109166920182
1772806438424208000,6.183207763671875,0.30683482911884785,-1.9099661910831927,4.118417023830116
1772806438434139100,6.19313916015625,1.1505120973825453,-2.297175994904339,3.812895323136449
1772806438444071200,6.2030712890625,0.9968225878834723,-1.5686144675955176,2.8277029672920704
1772806438454002000,6.213001953125,0.9114818074673414,-0.6649991557195782,1.6435764773383736
1772806438463934000,6.222933837890625,0.6164549050420522,0.16765724457502365,0.8976723316930234
1772806438473865000,6.232864990234375,-0.31492578111588954,0.8270569728523492,0.5811170496791601
1772806438483797000,6.242796875,-1.555703840357065,1.2982014896839857,0.3795028096403926
1772806438493728000,6.25272802734375,-2.4876293009161947,1.4737655618607997,0.09100034054778516
1772806438503660000,6.262659912109375,-2.6531507025063035,1.6146274462297558,0.34897783445194364
1772806438513591000,6.272591064453125,-2.1862217575430867,1.4774448348954319,0.9326607890963554
1772806438523523000,6.282523193359375,-1.5246072758257387,1.1131105874881149,1.6458502674892543
1772806438533453800,6.292453857421875,-0.7922913644194602,0.8995660364851356,2.2053559354715047
1772806438543385900,6.3023857421875,-0.2796779421240091,0.9293725612059235,2.417805238583684
1772806438553317000,6.312317138671875,-0.06458499263525008,0.8933271420955657,2.2933555598333477
1772806438563247900,6.322247802734375,-0.07870645696818829,0.8169953053042293,1.9044108950436114
1772806438573180000,6.332179931640625,0.029043723654747007,0.884669203865528,1.3865285924345254
1772806438583111200,6.342111083984375,0.2369534836411476,0.9671022801414132,0.7623387092262506
1772806438593043200,6.352043212890625,0.5774240403801203,1.0089619384884834,0.05474208240434527
1772806438602974000,6.361973876953125,0.9681266547530889,0.9971262470051646,-0.3952523866318166
1772806438612906000,6.371906005859375,1.244919396829605,0.8415586686745286,-0.525587616289407
1772806438622837000,6.3818369140625,1.446019476801157,0.7638780476227403,-0.3228705295752734
1772806438632768800,6.391768798828125,1.5133786103248594,0.5938175412982701,-0.00820354552604258
1772806438642700000,6.401699951171875,1.6031968284159899,0.4038236694917083,0.25685141248367727
1772806438652632000,6.411632080078125,1.638312565460801,0.4622387413203716,0.11096819282136856
1772806438662563000,6.42156298828125,1.544314431336522,0.5656117297723889,-0.38519912158586084
1772806438672494800,6.431494873046875,1.4595382990658283,0.799056328509748,-0.9973850440718233
1772806438682425900,6.44142578125,1.603890071377158,1.090472639222443,-1.542048532231152
1772806438692357000,6.451357177734375,1.7404770549058912,1.2608517099767922,-1.8448082208655774
1772806438702289000,6.461288818359375,1.9009172077089547,1.3680585775032639,-1.8410618739441036
1772806438712220000,6.471219970703125,1.813696020373702,1.3102742047935723,-1.5060143651671707
1772806438722152000,6.48115185546875,1.5160703336268662,1.2146592831224203,-0.9688928168199956
1772806438732083200,6.491083251953125,1.1924421906173228,1.2068550391122699,-0.33104441061541434
1772806438742015000,6.501014892578125,0.9720832834243773,1.1987561960697173,0.17278817772269248
1772806438751946000,6.510946044921875,0.6335206061333417,1.1614961404725908,0.5006045662023126
1772806438761878000,6.5208779296875,0.31156945642530914,1.1563427032321691,0.6051790393985808
1772806438771808800,6.530808837890625,0.10219079293012619,1.1799807684510946,0.41489655990898605
1772806438781740800,6.54074072265625,-0.006462474012374877,1.1681053294792771,0.09417802073583006
1772806438791672000,6.550672119140625,-0.08190729883611202,1.0525316156238318,-0.20353958207815884
1772806438801604000,6.56060400390625,-0.08662731309533118,0.845963041113317,-0.4600030912227928
1772806438811534800,6.570534912109375,0.03151274411678314,0.5930366200536489,-0.6555541587650775
1772806438821465900,6.5804658203125,0.4373211576849222,0.2995531476780772,-0.7001219070270657
1772806438831398000,6.59039794921875,0.9439256949543953,-0.07757014641463757,-0.5207195718616247
1772806438841329200,6.6003291015625,1.3782237054258584,-0.3369172481715679,-0.16392894476689399
1772806438851261000,6.610260986328125,1.774808948096633,-0.5198036260604858,0.16602306750193238
1772806438861192000,6.62019189453125,1.9084405889511107,-0.6407055492013692,0.49497817768789826
1772806438871124000,6.6301240234375,1.7268980268865823,-0.6335968862399458,0.6984987628046423
1772806438881055000,6.640054931640625,1.3717331743627785,-0.5109320450797676,0.7836121642056852
1772806438890987000,6.649987060546875,0.9599439328193664,-0.23627602277100085,0.6608825872462243
1772806438900918000,6.65991796875,0.6012152503341436,0.07783961100578307,0.32220395542532204
1772806438910850000,6.66985009765625,0.26743688471019267,0.3773901283353567,0.03390351171083748
1772806438920780800,6.67978076171875,0.016340309426188467,0.6150266258046031,-0.04275616879537701
1772806438930712800,6.689712890625,-0.11620996593236922,0.7516159474208951,0.0908015300400555
1772806438940644000,6.69964404296875,-0.15318682067394257,0.7817305151775479,0.3110740741237998
1772806438950576000,6.709576171875,-0.11419921063184738,0.7557941098883748,0.4678570195935666
1772806438960507000,6.7195068359375,-0.02561199564039707,0.6909133491769432,0.5779232220739126
1772806438970438000,6.72943798828125,0.04338087656497955,0.6089306470170617,0.4993355691798031
1772806438980370000,6.739369873046875,0.06720657331049441,0.531892123261094,0.3128521897122264
1772806438990301000,6.749301025390625,0.12667466132342814,0.48465749387741086,0.1309983697414398
1772806439000233000,6.75923291015625,0.18614274933636188,0.4052735760390758,-0.0024617139384150504
1772806439010164000,6.7691640625,0.29240590627193447,0.277180864611268,0.00963379752486944
1772806439020096000,6.779095947265625,0.3577870177209377,0.1535652985975146,0.13646145745292304
1772806439030027000,6.789027099609375,0.3571908053934574,-0.011754150679707526,0.19844196667820213
1772806439039959000,6.798958984375,0.17128946359753608,-0.1565323317095637,0.36039836926311253
1772806439049890000,6.80889013671875,0.04745616317987442,-0.2928857987433672,0.36847996890991924
1772806439059822000,6.818822021484375,-0.012227028888463973,-0.40073710165321824,0.23748379112556575
1772806439069752800,6.8287529296875,-0.016855857732892037,-0.4622022087022662,0.051647915781289334
1772806439079684000,6.83868408203125,0.024536475363373753,-0.5115370252355933,-0.09502776943296193
1772806439089616100,6.8486162109375,0.034571547165513035,-0.5804600470751523,-0.2775862305417657
1772806439099547000,6.858546875,0.03115852385163307,-0.6197305657118558,-0.36822628640979527
1772806439109479000,6.86847900390625,0.018627543580532074,-0.6422603774279355,-0.397131624507159
1772806439119410000,6.878409912109375,-0.043376200389862056,-0.6388683969020843,-0.4011225938394665
1772806439129342000,6.888342041015625,-0.14844517910480498,-0.6534919655382633,-0.44269057576358317
1772806439139273000,6.89827294921875,-0.24212416427731512,-0.558095655053854,-0.44950770843252535
1772806439149205000,6.908205078125,-0.5094499898284673,-0.4925356799066066,-0.3118475427143276
1772806439159136000,6.918135986328125,-0.8033435043096542,-0.46041561754643917,-0.15939166666343807
1772806439169068000,6.928068115234375,-1.1298954258114098,-0.39261575451791286,-0.03694382925480604
1772806439178999000,6.9379990234375,-1.3284212713807821,-0.33724984112679957,-0.0819645819813013
1772806439188931000,6.94793115234375,-1.2928981225788592,-0.25590192973911763,-0.19229484222531318
1772806439198862000,6.957862060546875,-1.0850234339058398,-0.25492344009578227,-0.43817076025158164
1772806439208793900,6.9677939453125,-0.9128361446857451,-0.2531774732112884,-0.5800415294021368
1772806439218724900,6.977724853515625,-0.7376666247844695,-0.12535948707163333,-0.6271406958378851
1772806439228655600,6.987655517578125,-0.7227630701631307,-0.03926525793969631,-0.5655548850186168
1772806439238587600,6.997587646484375,-0.785885589030385,-0.05416121377646923,-0.5015161280892789
1772806439248518700,7.0075185546875,-0.8762690397888422,0.020417349606752396,-0.5073202843233943
1772806439258450400,7.017450439453125,-1.0503250454902648,0.07141045474112033,-0.5797122974477708
1772806439268381700,7.027381591796875,-1.1470131493508815,0.10183014292418956,-0.784829942497611
1772806439278313700,7.037313720703125,-1.101308213752508,0.07232113984525203,-0.9113033821605145
1772806439288244700,7.04724462890625,-1.3213421267747878,-0.05673194104731082,-0.9527383853547274
1772806439298176500,7.057176513671875,-1.3766571867614983,-0.17746230701357124,-1.0470702814780175
1772806439308107500,7.067107421875,-1.1039654502630234,-0.36333383819311854,-0.923605083720386
1772806439318039600,7.07703955078125,-0.9233891028821468,-0.7070473223760724,-0.6014755087055266
1772806439327970600,7.086970458984375,-0.5203408016771078,-0.9619336453318595,-0.15564488135054708
1772806439337902600,7.096902587890625,-0.008564414727687835,-1.0789318390324711,0.37477190866097804
1772806439347833600,7.10683349609375,0.3158674458801746,-1.0959010940119625,0.772003340280801
1772806439357764600,7.1167646484375,0.40195173813998697,-0.9002686317965388,0.9524367720596492
1772806439367696600,7.126696533203125,0.42807811304330823,-0.48415801992267365,0.9592650106444954
1772806439377627600,7.136627685546875,0.17462766810953617,0.02732347573339939,0.8127927390478551
1772806439387559700,7.1465595703125,-0.49757659668326376,0.6323883872330188,0.5848273023739456
1772806439397490400,7.156490478515625,-1.059263554227352,1.3285986737743019,0.34716815468147394
1772806439407422500,7.16642236328125,-1.487689457795024,1.8328622008755802,0.11833718721941112
1772806439417353700,7.176353759765625,-1.7229647790908813,2.254433416242897,-0.2253042546406388
1772806439427285800,7.18628564453125,-1.9526970793068408,2.4249878435641525,-0.7614647028706968
1772806439437216500,7.196216552734375,-1.9920377405703067,2.2946704418241977,-1.5379865434892475
1772806439447148500,7.2061484375,-1.7028572260856627,1.984899851514399,-2.210370548763126
1772806439457079600,7.21607958984375,-1.1906132216244936,1.4843009844005106,-2.4491531475275754
1772806439467011600,7.226011474609375,-0.417917953556776,0.8770780180841684,-2.0407894965186713
1772806439476942600,7.235942626953125,0.5055073896825313,0.21766601484715936,-1.186966097293794
1772806439486873600,7.24587353515625,1.4304349541783332,-0.2844885572761297,-0.21417378881722687
1772806439496805600,7.2558056640625,2.5314964996933935,-1.0529609469518064,1.0561096202410758
1772806439506736600,7.265736572265625,3.2128929557234045,-1.0725652266100048,1.9899125651098786
1772806439516668700,7.275668701171875,2.7697417767107484,-0.8973381313025951,1.7886575868375598
1772806439526599700,7.285599609375,2.3333394874364135,-0.5627984259173273,1.0054697124585508
1772806439536531700,7.29553173828125,1.5819307530254125,0.19146745149046182,0.039120442641526455
1772806439546462500,7.30546240234375,0.86700378331542,0.5974103050932288,-0.8542765498198568
1772806439556394500,7.31539453125,0.2882499556362629,0.86397332957834,-1.4290534366920589
1772806439566325800,7.32532568359375,-0.17528993141055105,0.9188058667451142,-1.5523139056578277
1772806439576257800,7.3352578125,-0.5460428136885166,0.7523585824817418,-1.2116586400017142
1772806439586188500,7.3451884765625,-0.7526742243021726,0.5145435135751962,-0.6002617490015923
1772806439596120600,7.35512060546875,-0.8705822263240813,0.39872926896214483,0.00661094257235527
1772806439606051600,7.365051513671875,-1.1724521265119314,0.3095540249496698,0.25741101912781594
1772806439615982600,7.374982666015625,-1.3685381777137517,0.26680209393799303,-0.008495295014232396
1772806439625914600,7.38491455078125,-1.3755921878784894,0.37401714477092024,-0.6959536814317107
1772806439635845600,7.394845703125,-1.1095523104846476,0.2410162030354142,-1.4242363917991518
1772806439645777700,7.404777587890625,-0.5617191062480211,-0.0138379712164402,-1.8705844671569765
1772806439655708700,7.414708740234375,0.03563479248285294,-0.28877164142280815,-1.9491294499531386
1772806439665640700,7.424640625,0.5341799419373273,-0.7035998122707009,-1.816085984250158
1772806439675571700,7.43457177734375,0.8771370547950267,-1.126219075386226,-1.4373589082226157
1772806439685503700,7.444503662109375,1.1185714832425118,-1.4963269377589226,-0.9102131027057766
1772806439695434500,7.4544345703125,1.1824234854280948,-1.820494009950757,-0.35786490526273845
1772806439705366500,7.464366455078125,1.137190843516588,-1.996794871969521,0.0405127737827599
1772806439715297800,7.4742978515625,1.0331137984484433,-2.0615768484815953,0.07638736637085676
1772806439725229600,7.4842294921875,0.9146966778606176,-1.8782260679513214,-0.055499184381961816
1772806439735160600,7.49416064453125,0.7036807685524225,-1.6539175463497637,-0.22515140216648577
1772806439745092600,7.504092529296875,0.43442543624341484,-1.3551555490493774,-0.44493587047234173
1772806439755023600,7.514023681640625,0.27711422911584377,-0.9558575402885675,-0.5407243951447308
1772806439764954600,7.52395458984375,0.09598901568055153,-0.7312178870365024,-0.6086113519348204
1772806439774886700,7.53388671875,-0.088138302180171,-0.49691988634020084,-0.7028076389797031
1772806439784817700,7.543817626953125,-0.23711188907325267,-0.3278212107852101,-0.7527607335418462
1772806439794749400,7.55374951171875,-0.1401665955811739,-0.30215076295584437,-0.7156015079706907
1772806439804680700,7.5636806640625,0.07124035887122154,-0.34411271263360976,-0.6717404466733337
1772806439814612700,7.57361279296875,0.3088274642407894,-0.4728936985865235,-0.6579663344733416
1772806439824543700,7.583543701171875,0.4363783238768577,-0.626651304885745,-0.6631292701944709
1772806439834475500,7.5934755859375,0.453692446771264,-0.7016176985427737,-0.7161538811564445
1772806439844406500,7.603406494140625,0.3113508452385664,-0.7984431650474667,-0.7750657965913414
1772806439854338600,7.613338623046875,0.040620179679989814,-0.860610575146973,-0.7769177080683409
1772806439864269600,7.62326953125,-0.2816045262724161,-0.8707263109698891,-0.7543089858971536
1772806439874201600,7.63320166015625,-0.6536831041961908,-0.8508534435033798,-0.7765557428881525
1772806439884132600,7.643132568359375,-0.951820832118392,-0.8742296429157257,-0.8133141325734555
1772806439894063600,7.653063720703125,-1.0518126536995172,-0.9421145538792014,-0.8654628374837339
1772806439903995400,7.662995361328125,-1.008089831829071,-1.0689759699463843,-0.8425355508826673
1772806439913926700,7.6729267578125,-0.8700941505461931,-1.140464166098833,-0.6749801592469215
1772806439923858700,7.682858642578125,-0.6952782663881778,-1.1326844720080493,-0.3667218731962144
1772806439933789400,7.69278955078125,-0.7532955710709095,-1.0802660102456807,-0.02956424039751291
1772806439943721500,7.702721435546875,-1.240007074868679,-0.9473319962665439,0.3123629448905587
1772806439953652700,7.71265283203125,-1.7583546569019555,-0.7012073641762137,0.8112611455664038
1772806439963584800,7.722584716796875,-2.491763624241948,-0.3765563078597188,1.3089461710602044
1772806439973515500,7.732515625,-3.5737177337050436,-0.08112725437432527,1.523536431723833
1772806439983447600,7.742447509765625,-4.560284885033965,0.10745441254675388,1.7663094152987002
1772806439993378600,7.752378662109375,-4.744509233528375,0.1443096867352724,1.749150921357423
1772806440003310600,7.762310546875,-4.070540297150612,0.12708441116809843,1.614059437083453
1772806440013241600,7.77224169921875,-2.622940273159742,0.030607027448713776,1.495651668845862
1772806440023172600,7.782172607421875,-1.0070219103366136,-0.10923194361329078,1.4470565647639333
1772806440033104600,7.792104736328125,0.2743447644025087,-0.031978315801918504,1.2911265828616916
1772806440043035400,7.802035400390625,1.1193424676150083,-0.004962298582494259,1.15507735947147
1772806440052967400,7.811967529296875,1.7616554520130157,0.18391747450232504,1.1159905268386006
1772806440062898700,7.821898681640625,1.9611071802556514,0.5725836146116257,1.2011482057727874
1772806440072830700,7.831830810546875,1.7274445548534392,0.9641209262430668,1.3125982638269662
1772806440082761500,7.841761474609375,1.3919441877424716,1.590210213331878,1.4382659400649367
1772806440092693500,7.851693603515625,0.9411591528505087,2.01913880572468,1.461790900298208
1772806440102624800,7.861624755859375,0.3023246582180261,2.4063845576420424,1.2773343504831194
1772806440112556800,7.871556884765625,-0.22062077299952507,2.6251228778958318,0.7835555386476218
1772806440122487600,7.881487548828125,-0.4761392563790083,2.7100281895041465,0.34358211288824675
1772806440132419600,7.891419677734375,-0.45648003166317935,2.584104346548021,0.020574439864605665
1772806440142350600,7.9013505859375,-0.26910101853013035,2.237124554045498,0.027445640808343885
1772806440152281600,7.911281494140625,-0.010625438910722733,1.7884633794397116,0.16797507835254072
1772806440162213600,7.921213623046875,0.2912345244050026,1.310868079033494,0.24399478045478462
1772806440172144600,7.93114453125,0.718741559562087,0.9445587321609258,0.30402810113504525
1772806440182076700,7.94107666015625,1.1773860757827759,0.606917553628981,0.16339549547731874
1772806440192007400,7.95100732421875,1.589932273173332,0.3578124444231391,-0.12691563047245144
1772806440201939500,7.960939453125,1.8721511319518087,0.3445402903959155,-0.5300668075300753
1772806440211870700,7.97087060546875,2.168061831474304,0.4384320415362715,-0.9928210971571505
1772806440221802800,7.980802734375,2.2888743227660653,0.611117635667324,-1.4062018456757068
1772806440231732500,7.990732421875,2.129885537815094,0.7213897359833121,-1.5930002824418246
1772806440241664000,8.0006640625,2.037558551773429,0.8441402096003293,-1.7100000835776328
1772806440251595800,8.010595703125,2.0135919852524995,0.9655512513071298,-1.6723178570456803
1772806440261526800,8.02052685546875,1.996550249558687,0.971175813190639,-1.4913586478270588
1772806440271458800,8.030458740234375,1.9067232636392115,0.8656433086171745,-1.1666454860597848
1772806440281389800,8.040389892578125,1.6315958244264124,0.8314759583383798,-0.8803186074405908
1772806440291321900,8.05032177734375,1.3478279826402664,0.8658058057025074,-0.6387165673412383
1772806440301252900,8.0602529296875,1.1400322044223545,0.9310887174740433,-0.46283261556029315
1772806440311185000,8.070184814453125,0.9518477201253175,1.0415040256530046,-0.31978914936855435
1772806440321115600,8.08011572265625,0.7038637239038944,1.1434244772091506,-0.2830349974669516
1772806440331047700,8.090047607421875,0.4973696759343147,1.1179790703073142,-0.2357854627750814
1772806440340979000,8.09997900390625,0.3861673090308904,1.10600426261425,-0.09052885057851671
1772806440350909700,8.10990966796875,0.4271469696730375,1.0721166060596703,-0.13227832654938101
1772806440360841700,8.119841796875,0.5789104795455933,0.9642994976803659,-0.3985083196878433
1772806440370772700,8.129772705078125,0.763169899353385,0.8950783696770668,-0.5845275887750089
1772806440380704800,8.139704833984375,0.9089262777656316,0.7024179090097546,-0.7650605354055762
1772806440390635800,8.1496357421875,1.8540245236307382,0.529954433196783,-0.7675406617835163
1772806440400567800,8.15956787109375,2.1014730978012084,0.3563496783941984,-0.3644486675672233
1772806440410498800,8.169498779296875,2.1301374667495487,0.1010506829842925,-0.32698622126579285
1772806440420430800,8.179430908203125,1.8289175549030303,0.26835107694566246,-0.1823386808782816
1772806440430361900,8.18936181640625,1.1941682837575673,0.4066989326670766,-0.10494286811724304
1772806440440294000,8.1992939453125,0.5657470465898513,0.5390612842381001,-0.1609203375354409
1772806440450225000,8.209224853515625,0.0984124434351921,0.6970619349345565,-0.2026400028899312
1772806440460157000,8.219156982421875,-0.13492284970879553,0.8060378579601645,-0.24244243644624947
1772806440470087700,8.229087646484375,-0.31860242380201814,0.7861337185725569,-0.25311069158539173
1772806440480019000,8.23901904296875,-0.5056044203162193,0.6055825056329369,-0.19831834029853343
1772806440489951000,8.248950927734375,-0.6165449214130639,0.4644377126693725,-0.055818333333730694
1772806440499881700,8.2588818359375,-0.7107832940340042,0.3451674823835492,0.044463557235151524
