time,seconds_elapsed,z,y,x
1772806432298981000,0.057981201171875,-0.93536376953125,-0.185455322265625,0.06256103515625
1772806432308913200,0.0679130859375,-0.924072265625,-0.1854400634765625,0.0611419677734375
1772806432318844200,0.07784423828125,-0.935821533203125,-0.18927001953125,0.05694580078125
1772806432328776200,0.087776123046875,-0.9481201171875,-0.189788818359375,0.0505523681640625
1772806432338707200,0.097707275390625,-0.9611968994140625,-0.186492919921875,0.044464111328125
1772806432348639200,0.10763916015625,-0.968109130859375,-0.185150146484375,0.032867431640625
1772806432358570000,0.117570068359375,-0.971435546875,-0.1822052001953125,0.0274505615234375
1772806432368502000,0.127501953125,-0.979400634765625,-0.1799468994140625,0.0321807861328125
1772806432378433300,0.137433349609375,-0.9877471923828125,-0.183502197265625,0.0352020263671875
1772806432388364000,0.147364013671875,-0.9795989990234375,-0.18609619140625,0.050567626953125
1772806432398296000,0.157296142578125,-0.96051025390625,-0.1951141357421875,0.063262939453125
1772806432408227300,0.167227294921875,-0.930755615234375,-0.19964599609375,0.0718231201171875
1772806432418159400,0.177159423828125,-0.9079437255859375,-0.201171875,0.0615997314453125
1772806432428090000,0.187090087890625,-0.901336669921875,-0.2045135498046875,0.05023193359375
1772806432438022100,0.197022216796875,-0.904449462890625,-0.19989013671875,0.03814697265625
1772806432447953200,0.206953125,-0.93408203125,-0.1898651123046875,0.030731201171875
1772806432457885200,0.21688525390625,-0.9611358642578125,-0.178985595703125,0.0234527587890625
1772806432467816200,0.226816162109375,-0.9699554443359375,-0.1688385009765625,0.0122222900390625
1772806432477748200,0.236748291015625,-0.9693145751953125,-0.1624755859375,-0.002685546875
1772806432487679200,0.24667919921875,-0.95684814453125,-0.1566009521484375,-0.01568603515625
1772806432497611300,0.256611328125,-0.926422119140625,-0.154571533203125,-0.0201263427734375
1772806432507542000,0.2665419921875,-0.891387939453125,-0.1559600830078125,-0.002960205078125
1772806432517473300,0.276473388671875,-0.85296630859375,-0.160919189453125,0.0047760009765625
1772806432527405300,0.2864052734375,-0.81488037109375,-0.1557769775390625,0.0074310302734375
1772806432537336000,0.296336181640625,-0.791259765625,-0.151641845703125,0.00701904296875
1772806432547268000,0.30626806640625,-0.775726318359375,-0.1541900634765625,-0.0073394775390625
1772806432557199400,0.316199462890625,-0.777618408203125,-0.1436309814453125,-0.0132293701171875
1772806432567131400,0.32613134765625,-0.7902984619140625,-0.13250732421875,-0.0281982421875
1772806432577062100,0.336062255859375,-0.8032073974609375,-0.122344970703125,-0.0377197265625
1772806432586994200,0.345994140625,-0.791168212890625,-0.109375,-0.0534210205078125
1772806432596925200,0.35592529296875,-0.7637481689453125,-0.09332275390625,-0.0716400146484375
1772806432606856200,0.365856201171875,-0.7166290283203125,-0.088165283203125,-0.0573577880859375
1772806432616788200,0.375788330078125,-0.6402130126953125,-0.1016693115234375,-0.0377044677734375
1772806432626719200,0.38571923828125,-0.5476226806640625,-0.111328125,-0.0106048583984375
1772806432636651300,0.3956513671875,-0.46734619140625,-0.1241912841796875,0.0304412841796875
1772806432646582000,0.40558203125,-0.4406585693359375,-0.1395111083984375,0.0475311279296875
1772806432656514000,0.41551416015625,-0.43719482421875,-0.1311798095703125,0.0659637451171875
1772806432666445300,0.4254453125,-0.474334716796875,-0.0987548828125,0.1029510498046875
1772806432676377300,0.43537744140625,-0.55450439453125,-0.0469970703125,0.120697021484375
1772806432686308000,0.44530810546875,-0.6484222412109375,0.010833740234375,0.0811767578125
1772806432696240000,0.455240234375,-0.7236480712890625,0.050445556640625,0.02301025390625
1772806432706171400,0.46517138671875,-0.744903564453125,0.0939788818359375,0.0370635986328125
1772806432716103200,0.475103271484375,-0.7603759765625,0.101226806640625,0.1259307861328125
1772806432726034200,0.4850341796875,-0.7332000732421875,0.033355712890625,0.1905364990234375
1772806432735965200,0.494965087890625,-0.6387481689453125,-0.0396728515625,0.2712554931640625
1772806432745897200,0.504897216796875,-0.5835113525390625,-0.0471343994140625,0.3481903076171875
1772806432755828200,0.514828125,-0.6728057861328125,-0.07427978515625,0.3609771728515625
1772806432765760300,0.52476025390625,-0.7977447509765625,-0.0402984619140625,0.302490234375
1772806432775691300,0.534691162109375,-0.8740997314453125,0.0439300537109375,0.2417144775390625
1772806432785623000,0.544623046875,-0.9114990234375,0.1082763671875,0.1657867431640625
1772806432795554000,0.554553955078125,-0.94073486328125,0.152801513671875,0.073211669921875
1772806432805486000,0.564486083984375,-0.946868896484375,0.1688995361328125,0.0497283935546875
1772806432815417300,0.574417236328125,-0.8794708251953125,0.150665283203125,0.135345458984375
1772806432825349000,0.58434912109375,-0.8113250732421875,0.1130828857421875,0.269805908203125
1772806432835280100,0.594280029296875,-0.8556671142578125,0.1021728515625,0.342132568359375
1772806432845211400,0.60421142578125,-0.9913482666015625,0.129058837890625,0.34564208984375
1772806432855143200,0.61414306640625,-1.1261138916015625,0.188720703125,0.31805419921875
1772806432865074200,0.62407421875,-1.23016357421875,0.268646240234375,0.28082275390625
1772806432875006200,0.634006103515625,-1.297454833984375,0.3360595703125,0.261688232421875
1772806432884937200,0.643937255859375,-1.2864532470703125,0.3611602783203125,0.2327117919921875
1772806432894869000,0.653868896484375,-1.1959686279296875,0.3794403076171875,0.193267822265625
1772806432904800300,0.66380029296875,-1.1099395751953125,0.4120330810546875,0.1821441650390625
1772806432914732300,0.673732177734375,-1.1103057861328125,0.4450531005859375,0.159454345703125
1772806432924663300,0.683663330078125,-1.1664581298828125,0.4920654296875,0.161285400390625
1772806432934595000,0.693594970703125,-1.1860198974609375,0.5369415283203125,0.1881866455078125
1772806432944526000,0.703526123046875,-1.177032470703125,0.588531494140625,0.2127685546875
1772806432954457300,0.713457275390625,-1.1978912353515625,0.65472412109375,0.247283935546875
1772806432964389000,0.72338916015625,-1.2170867919921875,0.7323760986328125,0.2581634521484375
1772806432974320000,0.733320068359375,-1.3076324462890625,0.7863006591796875,0.2876739501953125
1772806432984252200,0.743252197265625,-1.406707763671875,0.7835235595703125,0.372100830078125
1772806432994183400,0.753183349609375,-1.3991241455078125,0.7798309326171875,0.3954925537109375
1772806433004115200,0.763115234375,-1.3287811279296875,0.7817840576171875,0.3660430908203125
1772806433014046200,0.773046142578125,-1.19512939453125,0.7743988037109375,0.32177734375
1772806433023978200,0.782978271484375,-1.0673065185546875,0.7724151611328125,0.257843017578125
1772806433033909000,0.792908935546875,-0.975189208984375,0.77850341796875,0.18914794921875
1772806433043841000,0.802841064453125,-0.91571044921875,0.785736083984375,0.1381683349609375
1772806433053772300,0.812772216796875,-0.892730712890625,0.7930450439453125,0.131866455078125
1772806433063704300,0.822704345703125,-0.90692138671875,0.8227691650390625,0.228179931640625
1772806433073635000,0.832635009765625,-0.922821044921875,0.7281341552734375,0.18609619140625
1772806433083566000,0.842566162109375,-0.9896240234375,0.72027587890625,0.2740325927734375
1772806433093498000,0.852498046875,-1.0439605712890625,0.7615203857421875,0.4228057861328125
1772806433103429000,0.86242919921875,-1.0369873046875,0.757171630859375,0.4263458251953125
1772806433113361200,0.872361083984375,-0.991180419921875,0.760986328125,0.41351318359375
1772806433123292200,0.882292236328125,-0.92767333984375,0.770111083984375,0.3867645263671875
1772806433133224200,0.89222412109375,-0.886199951171875,0.778472900390625,0.366973876953125
1772806433143155200,0.9021552734375,-0.8531036376953125,0.815460205078125,0.4090728759765625
1772806433153087200,0.912087158203125,-0.846832275390625,0.7928924560546875,0.3846282958984375
1772806433163018200,0.922018310546875,-0.8383941650390625,0.754730224609375,0.3521575927734375
1772806433172950300,0.9319501953125,-0.8012542724609375,0.7884521484375,0.38714599609375
1772806433182881000,0.941881103515625,-0.7680206298828125,0.7772216796875,0.33782958984375
1772806433192812300,0.951812255859375,-0.7663116455078125,0.768341064453125,0.320343017578125
1772806433202744300,0.961744384765625,-0.73974609375,0.7906341552734375,0.341156005859375
1772806433212675000,0.971675048828125,-0.6978912353515625,0.7823028564453125,0.335479736328125
1772806433222606800,0.98160693359375,-0.6841278076171875,0.755950927734375,0.351837158203125
1772806433232538000,0.9915380859375,-0.6711578369140625,0.7312164306640625,0.362152099609375
1772806433242470100,1.00147021484375,-0.6501617431640625,0.7105712890625,0.356536865234375
1772806433252401000,1.01140087890625,-0.6294708251953125,0.6941375732421875,0.353973388671875
1772806433262333000,1.0213330078125,-0.6112823486328125,0.678192138671875,0.3428955078125
1772806433272264000,1.031263916015625,-0.5990753173828125,0.6629638671875,0.328033447265625
1772806433282196000,1.041196044921875,-0.5956878662109375,0.6520843505859375,0.3284759521484375
1772806433292127000,1.051126953125,-0.5901336669921875,0.647735595703125,0.35186767578125
1772806433302058000,1.06105810546875,-0.5826263427734375,0.6456146240234375,0.3586578369140625
1772806433311990000,1.070989990234375,-0.5855865478515625,0.64129638671875,0.358245849609375
1772806433321920800,1.080920654296875,-0.5906219482421875,0.639251708984375,0.3530426025390625
1772806433331852800,1.090852783203125,-0.574493408203125,0.640411376953125,0.33880615234375
1772806433341784000,1.1007841796875,-0.5515594482421875,0.6369171142578125,0.3398284912109375
1772806433351716000,1.110716064453125,-0.5357208251953125,0.6321868896484375,0.343017578125
1772806433361646800,1.120646728515625,-0.5308074951171875,0.6275634765625,0.36627197265625
1772806433371579000,1.130578857421875,-0.5443878173828125,0.625518798828125,0.3919830322265625
1772806433381510100,1.14051025390625,-0.5905914306640625,0.6207733154296875,0.3940887451171875
1772806433391442000,1.15044189453125,-0.65875244140625,0.6248016357421875,0.3979644775390625
1772806433401373000,1.160373046875,-0.7104644775390625,0.6344757080078125,0.4086761474609375
1772806433411305000,1.170304931640625,-0.74102783203125,0.6387786865234375,0.4109649658203125
1772806433421236000,1.180236083984375,-0.7559051513671875,0.6356353759765625,0.4107666015625
1772806433431167000,1.1901669921875,-0.7503204345703125,0.6335906982421875,0.4094085693359375
1772806433441099000,1.20009912109375,-0.7240142822265625,0.6334991455078125,0.4095916748046875
1772806433451030000,1.210030029296875,-0.697998046875,0.6297149658203125,0.408447265625
1772806433460962000,1.219962158203125,-0.674652099609375,0.6248016357421875,0.3997039794921875
1772806433470892800,1.229892822265625,-0.6504058837890625,0.618865966796875,0.388153076171875
1772806433480824800,1.239824951171875,-0.6233367919921875,0.616668701171875,0.36676025390625
1772806433490756000,1.249756103515625,-0.6005096435546875,0.61767578125,0.34356689453125
1772806433500688000,1.25968798828125,-0.5936279296875,0.6158599853515625,0.3300628662109375
1772806433510619000,1.269618896484375,-0.5885467529296875,0.6087493896484375,0.3148193359375
1772806433520551000,1.279551025390625,-0.58673095703125,0.60833740234375,0.30633544921875
1772806433530482200,1.289482177734375,-0.5967559814453125,0.6041259765625,0.2938079833984375
1772806433540413000,1.299412841796875,-0.6299591064453125,0.5960540771484375,0.2973175048828125
1772806433550345000,1.309344970703125,-0.6497344970703125,0.5895843505859375,0.31292724609375
1772806433560276000,1.31927587890625,-0.6548004150390625,0.5887298583984375,0.321563720703125
1772806433570207700,1.329207763671875,-0.6706390380859375,0.58251953125,0.3290252685546875
1772806433580139000,1.339138916015625,-0.6704559326171875,0.5757598876953125,0.329864501953125
1772806433590071000,1.349071044921875,-0.65325927734375,0.5770263671875,0.3419189453125
1772806433600002000,1.359001953125,-0.6513519287109375,0.5721282958984375,0.3530120849609375
1772806433609933800,1.368933837890625,-0.6696929931640625,0.5647125244140625,0.3487701416015625
1772806433619864800,1.37886474609375,-0.685516357421875,0.5611419677734375,0.33135986328125
1772806433629796900,1.388796875,-0.695465087890625,0.5612030029296875,0.31829833984375
1772806433639727900,1.398727783203125,-0.70526123046875,0.5561981201171875,0.3054962158203125
1772806433649659000,1.408658935546875,-0.709564208984375,0.5517425537109375,0.3005218505859375
1772806433659591000,1.4185908203125,-0.7017669677734375,0.5518646240234375,0.2959747314453125
1772806433669522000,1.42852197265625,-0.6858367919921875,0.544830322265625,0.29925537109375
1772806433679454000,1.438453857421875,-0.66766357421875,0.5466766357421875,0.3109283447265625
1772806433689385000,1.448385009765625,-0.659515380859375,0.5482330322265625,0.31768798828125
1772806433699317000,1.45831689453125,-0.6649169921875,0.5463714599609375,0.326446533203125
1772806433709247700,1.468247802734375,-0.680755615234375,0.5487518310546875,0.3159942626953125
1772806433719179800,1.4781796875,-0.6932830810546875,0.5611114501953125,0.305450439453125
1772806433729111000,1.488111083984375,-0.703582763671875,0.5712890625,0.3063812255859375
1772806433739043000,1.49804296875,-0.734100341796875,0.57513427734375,0.2924957275390625
1772806433748973800,1.507973876953125,-0.7819976806640625,0.575469970703125,0.282684326171875
1772806433758904800,1.51790478515625,-0.815704345703125,0.57879638671875,0.2816619873046875
1772806433768836900,1.5278369140625,-0.8398284912109375,0.5872955322265625,0.2837371826171875
1772806433778768000,1.537767822265625,-0.848297119140625,0.5936279296875,0.281402587890625
1772806433788700000,1.547699951171875,-0.8306427001953125,0.596160888671875,0.291778564453125
1772806433798631000,1.557630859375,-0.798736572265625,0.59771728515625,0.3055572509765625
1772806433808563000,1.56756298828125,-0.78173828125,0.596649169921875,0.3148040771484375
1772806433818494000,1.577493896484375,-0.7933349609375,0.5989990234375,0.3124237060546875
1772806433828426000,1.587426025390625,-0.8258514404296875,0.6077117919921875,0.30645751953125
1772806433838357000,1.59735693359375,-0.86181640625,0.6131591796875,0.2923126220703125
1772806433848289000,1.6072890625,-0.8856048583984375,0.618927001953125,0.27435302734375
1772806433858219800,1.6172197265625,-0.88641357421875,0.623321533203125,0.258941650390625
1772806433868151000,1.627151123046875,-0.8701934814453125,0.6239166259765625,0.2535247802734375
1772806433878083000,1.6370830078125,-0.857421875,0.62213134765625,0.2651824951171875
1772806433888013800,1.647013916015625,-0.8385467529296875,0.620025634765625,0.287567138671875
1772806433897945900,1.65694580078125,-0.8255157470703125,0.61749267578125,0.3200836181640625
1772806433907876900,1.666876953125,-0.8143768310546875,0.620330810546875,0.34515380859375
1772806433917809000,1.676808837890625,-0.806549072265625,0.63092041015625,0.3517303466796875
1772806433927740000,1.686739990234375,-0.8031463623046875,0.6467437744140625,0.3296966552734375
1772806433937672000,1.696671875,-0.8046112060546875,0.67108154296875,0.2999725341796875
1772806433947603000,1.70660302734375,-0.8029022216796875,0.688934326171875,0.2678070068359375
1772806433957535000,1.716534912109375,-0.798126220703125,0.7010498046875,0.244659423828125
1772806433967466000,1.726466064453125,-0.78802490234375,0.7142486572265625,0.2377166748046875
1772806433977397000,1.73639697265625,-0.7608642578125,0.7187957763671875,0.242401123046875
1772806433987329000,1.7463291015625,-0.735626220703125,0.722564697265625,0.2655487060546875
1772806433997259800,1.756259765625,-0.7243804931640625,0.7294464111328125,0.3160247802734375
1772806434007191800,1.76619189453125,-0.719390869140625,0.7297210693359375,0.367156982421875
1772806434017123000,1.776123046875,-0.7468414306640625,0.7290191650390625,0.4025421142578125
1772806434027055000,1.78605517578125,-0.799652099609375,0.724822998046875,0.4221954345703125
1772806434036985900,1.79598583984375,-0.844573974609375,0.71923828125,0.41656494140625
1772806434046918000,1.80591796875,-0.8515472412109375,0.719329833984375,0.3675384521484375
1772806434056849000,1.815848876953125,-0.804931640625,0.726715087890625,0.2769622802734375
1772806434066781000,1.825781005859375,-0.729888916015625,0.7298126220703125,0.188140869140625
1772806434076712000,1.8357119140625,-0.6707763671875,0.720611572265625,0.11602783203125
1772806434086643000,1.845642822265625,-0.6090545654296875,0.7136993408203125,0.070556640625
1772806434096575000,1.855574951171875,-0.5529632568359375,0.7033233642578125,0.056732177734375
1772806434106506000,1.865506103515625,-0.5374755859375,0.683746337890625,0.065826416015625
1772806434116438000,1.87543798828125,-0.5380859375,0.6676483154296875,0.0939178466796875
1772806434126369000,1.885369140625,-0.54766845703125,0.6654052734375,0.131988525390625
1772806434136301000,1.895301025390625,-0.5576324462890625,0.664825439453125,0.176849365234375
1772806434146231800,1.905231689453125,-0.5563201904296875,0.670562744140625,0.2325592041015625
1772806434156163800,1.915163818359375,-0.5490264892578125,0.68511962890625,0.27490234375
1772806434166095000,1.92509521484375,-0.54388427734375,0.705169677734375,0.305145263671875
1772806434176027000,1.93502685546875,-0.54791259765625,0.732086181640625,0.33111572265625
1772806434185958000,1.9449580078125,-0.57757568359375,0.7615203857421875,0.351593017578125
1772806434195889000,1.954888916015625,-0.6275482177734375,0.7919921875,0.3341827392578125
1772806434205821000,1.964821044921875,-0.69232177734375,0.817596435546875,0.2780914306640625
1772806434215752000,1.974751953125,-0.7539215087890625,0.8283843994140625,0.2072296142578125
1772806434225683700,1.98468359375,-0.801361083984375,0.8275299072265625,0.1439056396484375
1772806434235614700,1.99461474609375,-0.8295135498046875,0.8102874755859375,0.09033203125
1772806434245546800,2.004546630859375,-0.8329620361328125,0.777984619140625,0.0624237060546875
1772806434255477800,2.014477783203125,-0.8035125732421875,0.7396240234375,0.0616607666015625
1772806434265409800,2.024409912109375,-0.752655029296875,0.701416015625,0.078033447265625
1772806434275340800,2.0343408203125,-0.6985931396484375,0.6495208740234375,0.1143341064453125
1772806434285272800,2.04427294921875,-0.637725830078125,0.5986785888671875,0.155731201171875
1772806434295203600,2.05420361328125,-0.589691162109375,0.5589752197265625,0.1793365478515625
1772806434305134800,2.064134765625,-0.5639801025390625,0.52569580078125,0.1947174072265625
1772806434315067000,2.07406689453125,-0.5403289794921875,0.5034942626953125,0.2056427001953125
1772806434324997600,2.08399755859375,-0.5348052978515625,0.5022430419921875,0.21038818359375
1772806434334929700,2.0939296875,-0.5454864501953125,0.50408935546875,0.2053070068359375
1772806434344860700,2.103860595703125,-0.569091796875,0.50830078125,0.211944580078125
1772806434354793000,2.11379296875,-0.5976715087890625,0.5172576904296875,0.222625732421875
1772806434364723700,2.1237236328125,-0.6276397705078125,0.530609130859375,0.227081298828125
1772806434374655700,2.13365576171875,-0.663787841796875,0.5448760986328125,0.22308349609375
1772806434384586800,2.143586669921875,-0.69696044921875,0.56329345703125,0.2161712646484375
1772806434394518500,2.1535185546875,-0.707794189453125,0.583587646484375,0.204132080078125
1772806434404449800,2.16344970703125,-0.708251953125,0.597747802734375,0.195648193359375
1772806434414380800,2.173380859375,-0.702362060546875,0.617889404296875,0.19805908203125
1772806434424312800,2.183312744140625,-0.6931304931640625,0.6358184814453125,0.20941162109375
1772806434434243600,2.19324365234375,-0.6927337646484375,0.6500701904296875,0.22882080078125
1772806434444175600,2.203175537109375,-0.70806884765625,0.6615447998046875,0.2504119873046875
1772806434454107000,2.21310693359375,-0.740509033203125,0.6702880859375,0.2556915283203125
1772806434464039000,2.223038818359375,-0.790924072265625,0.6753692626953125,0.24713134765625
1772806434473969700,2.2329697265625,-0.8390350341796875,0.67724609375,0.230194091796875
1772806434483901700,2.242901611328125,-0.8725128173828125,0.67633056640625,0.2117156982421875
1772806434493832700,2.252832763671875,-0.890869140625,0.6730804443359375,0.2032318115234375
1772806434503764700,2.2627646484375,-0.8647613525390625,0.66375732421875,0.2104034423828125
1772806434513695700,2.27269580078125,-0.8204803466796875,0.6504974365234375,0.225982666015625
1772806434523626800,2.282626708984375,-0.786041259765625,0.6378326416015625,0.25262451171875
1772806434533558800,2.292558837890625,-0.753662109375,0.62579345703125,0.2843170166015625
1772806434543489800,2.30248974609375,-0.7375335693359375,0.6170654296875,0.31500244140625
1772806434553421800,2.312421875,-0.737335205078125,0.6142425537109375,0.3324127197265625
1772806434563352800,2.322352783203125,-0.7485809326171875,0.61651611328125,0.3372650146484375
1772806434573284600,2.33228466796875,-0.7792510986328125,0.6257476806640625,0.3353729248046875
1772806434583215600,2.342215576171875,-0.812469482421875,0.6380767822265625,0.314056396484375
1772806434593147600,2.352147705078125,-0.8461151123046875,0.65283203125,0.2769622802734375
1772806434603079000,2.362078857421875,-0.8546905517578125,0.6623077392578125,0.2475433349609375
1772806434613010700,2.3720107421875,-0.8366851806640625,0.6707305908203125,0.2305755615234375
1772806434622941700,2.381941650390625,-0.816650390625,0.6702880859375,0.2329254150390625
1772806434632872700,2.391872802734375,-0.7917022705078125,0.6691131591796875,0.260650634765625
1772806434642804700,2.4018046875,-0.7693328857421875,0.672271728515625,0.2927398681640625
1772806434652735700,2.41173583984375,-0.7705078125,0.6739501953125,0.321044921875
1772806434662667800,2.421667724609375,-0.8005218505859375,0.6788177490234375,0.340545654296875
1772806434672598800,2.431598876953125,-0.8441009521484375,0.6899261474609375,0.3402862548828125
1772806434682530600,2.441530517578125,-0.878143310546875,0.70111083984375,0.329864501953125
1772806434692461800,2.4514619140625,-0.905303955078125,0.71527099609375,0.31732177734375
1772806434702393900,2.461393798828125,-0.896514892578125,0.73223876953125,0.3098602294921875
1772806434712324600,2.47132470703125,-0.8652191162109375,0.7499847412109375,0.30450439453125
1772806434722256600,2.481256591796875,-0.8466033935546875,0.7559814453125,0.291229248046875
1772806434732187600,2.491187744140625,-0.843231201171875,0.75469970703125,0.26446533203125
1772806434742119000,2.501118896484375,-0.8606109619140625,0.7530059814453125,0.226318359375
1772806434752050700,2.51105078125,-0.883575439453125,0.7352752685546875,0.173797607421875
1772806434761981700,2.520981689453125,-0.8826446533203125,0.708251953125,0.1379241943359375
1772806434771913700,2.530913818359375,-0.8509368896484375,0.68170166015625,0.13616943359375
1772806434781844700,2.5408447265625,-0.7965545654296875,0.646026611328125,0.1732635498046875
1772806434791776800,2.55077685546875,-0.73052978515625,0.60723876953125,0.2343902587890625
1772806434801707800,2.560707763671875,-0.670074462890625,0.5798187255859375,0.3018341064453125
1772806434811639800,2.570639892578125,-0.61669921875,0.563751220703125,0.367095947265625
1772806434821570600,2.580570556640625,-0.5753631591796875,0.5592803955078125,0.4216461181640625
1772806434831502600,2.590502685546875,-0.5569000244140625,0.5565185546875,0.4523773193359375
1772806434841433900,2.600433837890625,-0.5463409423828125,0.56231689453125,0.462738037109375
1772806434851364600,2.610364501953125,-0.54827880859375,0.57989501953125,0.446563720703125
1772806434861296600,2.620296630859375,-0.563262939453125,0.5957489013671875,0.402374267578125
1772806434871227600,2.6302275390625,-0.5908203125,0.6154937744140625,0.36474609375
1772806434881159700,2.64015966796875,-0.6261749267578125,0.6266632080078125,0.332305908203125
1772806434891090700,2.650090576171875,-0.6610260009765625,0.63238525390625,0.319976806640625
1772806434901022700,2.660022705078125,-0.6753997802734375,0.6302032470703125,0.3166046142578125
1772806434910953700,2.66995361328125,-0.67919921875,0.6169586181640625,0.3201751708984375
1772806434920885800,2.6798857421875,-0.6734771728515625,0.596527099609375,0.318145751953125
1772806434930816800,2.689816650390625,-0.6674957275390625,0.5709381103515625,0.326690673828125
1772806434940748800,2.699748779296875,-0.66796875,0.5402069091796875,0.3222198486328125
1772806434950679800,2.7096796875,-0.6658477783203125,0.5153961181640625,0.303497314453125
1772806434960611800,2.71961181640625,-0.6628570556640625,0.496063232421875,0.276519775390625
1772806434970542600,2.72954248046875,-0.671844482421875,0.4761810302734375,0.24951171875
1772806434980473900,2.739473876953125,-0.680419921875,0.458831787109375,0.2300872802734375
1772806434990406000,2.749406005859375,-0.6894989013671875,0.4385833740234375,0.221710205078125
1772806435000336600,2.759336669921875,-0.6992950439453125,0.419921875,0.2355499267578125
1772806435010268700,2.7692685546875,-0.7061614990234375,0.4020233154296875,0.259246826171875
1772806435020199700,2.77919970703125,-0.7001495361328125,0.39300537109375,0.2743988037109375
1772806435030131700,2.789131591796875,-0.6923065185546875,0.389892578125,0.2872161865234375
1772806435040062700,2.799062744140625,-0.6984405517578125,0.3914947509765625,0.2880859375
1772806435049994800,2.808994873046875,-0.719879150390625,0.3967742919921875,0.28460693359375
1772806435059925800,2.81892578125,-0.7362213134765625,0.41839599609375,0.2779693603515625
1772806435069856800,2.828856689453125,-0.75421142578125,0.43658447265625,0.26226806640625
1772806435079788800,2.838788818359375,-0.7684478759765625,0.4476776123046875,0.24664306640625
1772806435089719800,2.8487197265625,-0.7663726806640625,0.4573211669921875,0.238067626953125
1772806435099651800,2.85865185546875,-0.7633819580078125,0.4626922607421875,0.2494964599609375
1772806435109582600,2.86858251953125,-0.765045166015625,0.459014892578125,0.2686004638671875
1772806435119514600,2.8785146484375,-0.77178955078125,0.4578704833984375,0.2949981689453125
1772806435129446000,2.88844580078125,-0.7816314697265625,0.454864501953125,0.313262939453125
1772806435139378000,2.8983779296875,-0.7977142333984375,0.452362060546875,0.31146240234375
1772806435149308700,2.90830859375,-0.810638427734375,0.4532928466796875,0.2997894287109375
1772806435159240700,2.91824072265625,-0.810760498046875,0.453887939453125,0.27685546875
1772806435169171700,2.928171630859375,-0.80322265625,0.4464874267578125,0.2492218017578125
1772806435179103500,2.938103515625,-0.7859954833984375,0.4364013671875,0.22509765625
1772806435189034800,2.94803466796875,-0.76605224609375,0.4324951171875,0.2158050537109375
1772806435198965800,2.9579658203125,-0.745697021484375,0.4201202392578125,0.2187347412109375
1772806435208897800,2.967897705078125,-0.7249908447265625,0.3987884521484375,0.229400634765625
1772806435218828800,2.977828857421875,-0.700836181640625,0.38739013671875,0.2347869873046875
1772806435228760600,2.987760498046875,-0.6995849609375,0.3896331787109375,0.2328948974609375
1772806435238691300,2.99769140625,-0.7244873046875,0.39349365234375,0.2452392578125
1772806435248623400,3.007623291015625,-0.7500152587890625,0.405609130859375,0.25885009765625
1772806435258554400,3.017554443359375,-0.77252197265625,0.4224700927734375,0.2799072265625
1772806435268486400,3.027486328125,-0.7926788330078125,0.4345245361328125,0.30322265625
1772806435278417400,3.03741748046875,-0.82257080078125,0.45098876953125,0.3349609375
1772806435288349400,3.047349365234375,-0.8643951416015625,0.4696197509765625,0.377838134765625
1772806435298280400,3.057280517578125,-0.9114990234375,0.4881439208984375,0.4027252197265625
1772806435308211200,3.067211181640625,-0.967559814453125,0.51055908203125,0.4034881591796875
1772806435318143500,3.0771435546875,-1.02960205078125,0.5356292724609375,0.3836517333984375
1772806435328074500,3.087074462890625,-1.0811614990234375,0.5607452392578125,0.3485870361328125
1772806435338006500,3.097006591796875,-1.10064697265625,0.5744476318359375,0.314971923828125
1772806435347937300,3.106937255859375,-1.093048095703125,0.5830078125,0.285980224609375
1772806435357869300,3.116869384765625,-1.057220458984375,0.5864105224609375,0.267333984375
1772806435367800600,3.126800537109375,-1.0027008056640625,0.5863494873046875,0.2591552734375
1772806435377732600,3.136732666015625,-0.949798583984375,0.585784912109375,0.2414093017578125
1772806435387663400,3.146663330078125,-0.907135009765625,0.5818328857421875,0.2223052978515625
1772806435397595400,3.156595458984375,-0.8722076416015625,0.5724334716796875,0.2022705078125
1772806435407526400,3.1665263671875,-0.847686767578125,0.5626678466796875,0.1804351806640625
1772806435417457400,3.17645751953125,-0.8404388427734375,0.55072021484375,0.1741180419921875
1772806435427389400,3.186389404296875,-0.84954833984375,0.5426788330078125,0.177886962890625
1772806435437320400,3.196320556640625,-0.8606414794921875,0.5370941162109375,0.18963623046875
1772806435447252500,3.20625244140625,-0.8712158203125,0.5315704345703125,0.2053375244140625
1772806435457183500,3.21618359375,-0.87896728515625,0.533050537109375,0.2221527099609375
1772806435467115500,3.226115478515625,-0.873382568359375,0.5383453369140625,0.23468017578125
1772806435477046500,3.236046630859375,-0.86077880859375,0.550872802734375,0.2333526611328125
1772806435486978600,3.245978515625,-0.84088134765625,0.565093994140625,0.2331390380859375
1772806435496909300,3.255909423828125,-0.8208160400390625,0.588958740234375,0.2382354736328125
1772806435506841300,3.26584130859375,-0.8295135498046875,0.6203460693359375,0.246490478515625
1772806435516772600,3.275772705078125,-0.8559112548828125,0.653289794921875,0.262481689453125
1772806435526704600,3.28570458984375,-0.905181884765625,0.683441162109375,0.276824951171875
1772806435536635400,3.295635498046875,-0.9589080810546875,0.7107391357421875,0.2854461669921875
1772806435546566400,3.30556640625,-0.9932098388671875,0.7298736572265625,0.26666259765625
1772806435556498400,3.31549853515625,-1.0103302001953125,0.7373809814453125,0.2266845703125
1772806435566429400,3.325429443359375,-1.009246826171875,0.7378082275390625,0.1869049072265625
1772806435576361500,3.335361572265625,-0.97528076171875,0.7274017333984375,0.14453125
1772806435586292500,3.34529248046875,-0.922576904296875,0.7028656005859375,0.111297607421875
1772806435596224500,3.355224609375,-0.8645172119140625,0.670166015625,0.1075439453125
1772806435606155500,3.365155517578125,-0.801422119140625,0.63665771484375,0.129638671875
1772806435616087600,3.375087646484375,-0.7401580810546875,0.6080780029296875,0.1497344970703125
1772806435626018600,3.3850185546875,-0.6963653564453125,0.58294677734375,0.1723480224609375
1772806435635950300,3.394950439453125,-0.655853271484375,0.5641937255859375,0.200286865234375
1772806435645881300,3.40488134765625,-0.6147613525390625,0.55902099609375,0.233642578125
1772806435655812600,3.4148125,-0.6044464111328125,0.55596923828125,0.2705535888671875
1772806435665744600,3.42474462890625,-0.60321044921875,0.561431884765625,0.3075714111328125
1772806435675675400,3.43467529296875,-0.6108245849609375,0.5797882080078125,0.347137451171875
1772806435685607400,3.444607421875,-0.629608154296875,0.6021728515625,0.36376953125
1772806435695538400,3.454538330078125,-0.645904541015625,0.6295623779296875,0.3632049560546875
1772806435705470200,3.46447021484375,-0.6663970947265625,0.6648406982421875,0.3367767333984375
1772806435715401500,3.4744013671875,-0.6938934326171875,0.6949005126953125,0.2864532470703125
1772806435725333500,3.48433349609375,-0.741241455078125,0.715057373046875,0.2167510986328125
1772806435735264500,3.494264404296875,-0.788238525390625,0.723785400390625,0.14642333984375
1772806435745196300,3.5041962890625,-0.8217315673828125,0.7164154052734375,0.0906829833984375
1772806435755127600,3.51412744140625,-0.8367156982421875,0.69378662109375,0.0466461181640625
1772806435765058600,3.52405859375,-0.8160858154296875,0.6560516357421875,0.0271759033203125
1772806435774990300,3.533990234375,-0.7571868896484375,0.6085968017578125,0.04254150390625
1772806435784921300,3.54392138671875,-0.6885986328125,0.5497283935546875,0.077789306640625
1772806435794853400,3.553853271484375,-0.63983154296875,0.495849609375,0.1321868896484375
1772806435804784600,3.56378466796875,-0.59466552734375,0.451141357421875,0.1791534423828125
1772806435814716400,3.57371630859375,-0.5522918701171875,0.410247802734375,0.2237548828125
1772806435824647400,3.5836474609375,-0.5216522216796875,0.3793487548828125,0.2568359375
1772806435834579500,3.593579345703125,-0.5064239501953125,0.36212158203125,0.281707763671875
1772806435844510500,3.603510498046875,-0.4958038330078125,0.3571624755859375,0.3031768798828125
1772806435854442200,3.613442138671875,-0.4875335693359375,0.367950439453125,0.3292236328125
1772806435864373500,3.62337353515625,-0.5035247802734375,0.38909912109375,0.3390350341796875
1772806435874304500,3.633304443359375,-0.5534820556640625,0.4214019775390625,0.3441162109375
1772806435884236300,3.643236328125,-0.617828369140625,0.4725494384765625,0.3381500244140625
1772806435894167300,3.653167236328125,-0.678741455078125,0.5318450927734375,0.32000732421875
1772806435904099600,3.663099609375,-0.7446441650390625,0.5911102294921875,0.2895965576171875
1772806435914030600,3.673030517578125,-0.8239288330078125,0.6416778564453125,0.2523345947265625
1772806435923962400,3.68296240234375,-0.89227294921875,0.675079345703125,0.2120513916015625
1772806435933893400,3.692893310546875,-0.928253173828125,0.7000274658203125,0.1775054931640625
1772806435943825400,3.702825439453125,-0.9335174560546875,0.71453857421875,0.1419219970703125
1772806435953756400,3.71275634765625,-0.9312286376953125,0.72552490234375,0.1160736083984375
1772806435963688400,3.7226884765625,-0.918792724609375,0.72491455078125,0.10302734375
1772806435973619500,3.732619384765625,-0.89166259765625,0.7090606689453125,0.1001129150390625
1772806435983551500,3.742551513671875,-0.863922119140625,0.6801300048828125,0.1181182861328125
1772806435993482200,3.752482177734375,-0.8376922607421875,0.6420440673828125,0.1427154541015625
1772806436003413500,3.76241357421875,-0.80718994140625,0.6016998291015625,0.159637451171875
1772806436013345500,3.772345458984375,-0.7829132080078125,0.5614166259765625,0.166717529296875
1772806436023276300,3.7822763671875,-0.7692718505859375,0.5279998779296875,0.1783294677734375
1772806436033208300,3.792208251953125,-0.760223388671875,0.4984588623046875,0.19525146484375
1772806436043139600,3.8021396484375,-0.756591796875,0.4804840087890625,0.212646484375
1772806436053071600,3.812071533203125,-0.751190185546875,0.4688720703125,0.2343597412109375
1772806436063002400,3.82200244140625,-0.7415008544921875,0.457275390625,0.25537109375
1772806436072934400,3.831934326171875,-0.7420501708984375,0.4543609619140625,0.2743988037109375
1772806436082865400,3.841865478515625,-0.755767822265625,0.4565887451171875,0.285675048828125
1772806436092797400,3.85179736328125,-0.7863616943359375,0.472381591796875,0.28778076171875
1772806436102728400,3.861728515625,-0.8270263671875,0.49664306640625,0.2832794189453125
1772806436112660500,3.871660400390625,-0.8685760498046875,0.52630615234375,0.275604248046875
1772806436122591500,3.881591552734375,-0.9133148193359375,0.54864501953125,0.2638702392578125
1772806436132522200,3.891522216796875,-0.95050048828125,0.568695068359375,0.25982666015625
1772806436142454300,3.901454345703125,-0.9708709716796875,0.5919647216796875,0.270538330078125
1772806436152385500,3.911385498046875,-0.9808807373046875,0.6134490966796875,0.2866058349609375
1772806436162317600,3.921317626953125,-0.990966796875,0.63214111328125,0.3080291748046875
1772806436172248300,3.931248291015625,-1.0007781982421875,0.64947509765625,0.3358612060546875
1772806436182180400,3.941180419921875,-1.020233154296875,0.6751708984375,0.3607177734375
1772806436192111600,3.951111572265625,-1.05145263671875,0.6994171142578125,0.380035400390625
1772806436202043600,3.961043701171875,-1.068572998046875,0.729095458984375,0.380859375
1772806436211974400,3.970974365234375,-1.0771942138671875,0.7567291259765625,0.37127685546875
1772806436221906400,3.980906494140625,-1.0847930908203125,0.76007080078125,0.3428802490234375
1772806436231836700,3.990836669921875,-1.0907745361328125,0.7391510009765625,0.30047607421875
1772806436241767400,4.000767333984375,-1.082733154296875,0.71026611328125,0.2406768798828125
1772806436251699500,4.010699462890625,-1.055877685546875,0.6695556640625,0.1857452392578125
1772806436261630500,4.02063037109375,-1.0134124755859375,0.616943359375,0.16632080078125
1772806436271562200,4.030562255859375,-0.9605255126953125,0.5655670166015625,0.1944580078125
1772806436281493500,4.040493408203125,-0.88726806640625,0.5184173583984375,0.25885009765625
1772806436291424500,4.050424560546875,-0.798797607421875,0.46759033203125,0.3504486083984375
1772806436301356500,4.0603564453125,-0.69464111328125,0.43524169921875,0.4567108154296875
1772806436311287300,4.070287353515625,-0.5803375244140625,0.406463623046875,0.54254150390625
1772806436321219300,4.08021923828125,-0.4891204833984375,0.394287109375,0.5970611572265625
1772806436331150600,4.090150634765625,-0.4263763427734375,0.4038848876953125,0.6165313720703125
1772806436341082400,4.100082275390625,-0.39898681640625,0.4194793701171875,0.5906524658203125
1772806436351013400,4.110013427734375,-0.4069366455078125,0.452911376953125,0.51763916015625
1772806436360945400,4.1199453125,-0.4631805419921875,0.5186004638671875,0.4202117919921875
1772806436370876700,4.129876708984375,-0.566802978515625,0.58428955078125,0.321746826171875
1772806436380808400,4.139808349609375,-0.668701171875,0.6259765625,0.232513427734375
1772806436390739500,4.149739501953125,-0.7469482421875,0.6533966064453125,0.155364990234375
1772806436400671500,4.15967138671875,-0.80841064453125,0.66302490234375,0.105682373046875
1772806436410602200,4.169602294921875,-0.851165771484375,0.6514892578125,0.0896148681640625
1772806436420533500,4.179533447265625,-0.8542327880859375,0.6273345947265625,0.1000213623046875
1772806436430465500,4.189465576171875,-0.838470458984375,0.5859527587890625,0.129150390625
1772806436440396500,4.199396484375,-0.816253662109375,0.5367431640625,0.177581787109375
1772806436450328300,4.209328369140625,-0.786468505859375,0.4887542724609375,0.2174835205078125
1772806436460259300,4.21925927734375,-0.765045166015625,0.4482421875,0.243682861328125
1772806436470191400,4.22919140625,-0.760589599609375,0.4084625244140625,0.2633819580078125
1772806436480122400,4.239122314453125,-0.7532196044921875,0.3731536865234375,0.2657470703125
1772806436490054400,4.249054443359375,-0.7494049072265625,0.350616455078125,0.2494964599609375
1772806436499985400,4.2589853515625,-0.7390289306640625,0.329254150390625,0.2281494140625
1772806436509917400,4.26891748046875,-0.7232208251953125,0.3161163330078125,0.2184295654296875
1772806436519848400,4.278848388671875,-0.7156829833984375,0.2982025146484375,0.2170562744140625
1772806436529779500,4.288779541015625,-0.712005615234375,0.287200927734375,0.2236328125
1772806436539711500,4.29871142578125,-0.7107391357421875,0.286956787109375,0.2314300537109375
1772806436549642200,4.308642333984375,-0.71856689453125,0.288909912109375,0.2325592041015625
1772806436559574300,4.31857421875,-0.7416229248046875,0.2965087890625,0.240875244140625
1772806436569505500,4.328505615234375,-0.768890380859375,0.3026580810546875,0.2454376220703125
1772806436579437600,4.3384375,-0.7972869873046875,0.3143157958984375,0.2428131103515625
1772806436589368300,4.348368408203125,-0.817352294921875,0.3270721435546875,0.22900390625
1772806436599300400,4.35830029296875,-0.832672119140625,0.3352508544921875,0.1999053955078125
1772806436609232400,4.368232421875,-0.845123291015625,0.3403167724609375,0.1780242919921875
1772806436619163400,4.378163330078125,-0.856689453125,0.3448638916015625,0.171142578125
1772806436629095700,4.388095703125,-0.84844970703125,0.34710693359375,0.161773681640625
1772806436639026400,4.3980263671875,-0.84149169921875,0.3418731689453125,0.1587677001953125
1772806436648957400,4.40795751953125,-0.8418426513671875,0.3328704833984375,0.1912841796875
1772806436658889500,4.417889404296875,-0.8470611572265625,0.319732666015625,0.219573974609375
1772806436668820500,4.427820556640625,-0.858306884765625,0.31402587890625,0.238128662109375
1772806436678752500,4.43775244140625,-0.8694305419921875,0.317413330078125,0.2479705810546875
1772806436688683500,4.44768359375,-0.88214111328125,0.319427490234375,0.2357177734375
1772806436698615600,4.457615478515625,-0.911041259765625,0.32330322265625,0.214935302734375
1772806436708546300,4.46754638671875,-0.9402313232421875,0.3273468017578125,0.205718994140625
1772806436718478300,4.477478271484375,-0.9598846435546875,0.33160400390625,0.2158966064453125
1772806436728409600,4.48740966796875,-0.98004150390625,0.340484619140625,0.2371826171875
1772806436738341400,4.49734130859375,-1.0267791748046875,0.3531341552734375,0.26092529296875
1772806436748272400,4.5072724609375,-1.0615234375,0.36553955078125,0.279998779296875
1772806436758203400,4.517203369140625,-1.078216552734375,0.3813934326171875,0.3028564453125
1772806436768135400,4.527135498046875,-1.0794525146484375,0.393341064453125,0.326446533203125
1772806436778066400,4.53706640625,-1.066314697265625,0.405853271484375,0.3515167236328125
1772806436787998500,4.54699853515625,-1.04693603515625,0.419036865234375,0.3672027587890625
1772806436797929500,4.556929443359375,-1.0369720458984375,0.43634033203125,0.37115478515625
1772806436807861200,4.566861328125,-1.035003662109375,0.45611572265625,0.3552093505859375
1772806436817792500,4.57679248046875,-1.04351806640625,0.4777984619140625,0.323760986328125
1772806436827724500,4.586724609375,-1.04827880859375,0.4938812255859375,0.283935546875
1772806436837655600,4.596655517578125,-1.0430145263671875,0.5086669921875,0.2537689208984375
1772806436847587300,4.60658740234375,-1.023468017578125,0.515472412109375,0.2391204833984375
1772806436857518300,4.616518310546875,-0.9948577880859375,0.5171661376953125,0.2390899658203125
1772806436867450400,4.626450439453125,-0.9657440185546875,0.5172576904296875,0.24981689453125
1772806436877381400,4.63638134765625,-0.926422119140625,0.52117919921875,0.2690277099609375
1772806436887312400,4.6463125,-0.8865509033203125,0.5272216796875,0.2838592529296875
1772806436897244400,4.656244384765625,-0.85882568359375,0.5466766357421875,0.3011627197265625
1772806436907175400,4.666175537109375,-0.8450469970703125,0.575164794921875,0.318115234375
1772806436917107500,4.676107421875,-0.8672943115234375,0.6010284423828125,0.3268280029296875
1772806436927038500,4.68603857421875,-0.918975830078125,0.621978759765625,0.321441650390625
1772806436936970500,4.695970458984375,-0.981353759765625,0.6427459716796875,0.3007965087890625
1772806436946901200,4.7059013671875,-1.0243377685546875,0.6541290283203125,0.2537994384765625
1772806436956833300,4.715833251953125,-1.0401153564453125,0.6531524658203125,0.19061279296875
1772806436966764500,4.7257646484375,-1.01544189453125,0.641845703125,0.13525390625
1772806436976696600,4.735696533203125,-0.9461822509765625,0.6145477294921875,0.1045074462890625
1772806436986627300,4.74562744140625,-0.862457275390625,0.56732177734375,0.1112213134765625
1772806436996559400,4.755559326171875,-0.778228759765625,0.52294921875,0.137359619140625
1772806437006490400,4.765490478515625,-0.6991119384765625,0.4889373779296875,0.1746826171875
1772806437016421600,4.775421630859375,-0.62933349609375,0.463043212890625,0.2068939208984375
1772806437026353400,4.785353515625,-0.5725860595703125,0.4469451904296875,0.246002197265625
1772806437036284400,4.795284423828125,-0.5289764404296875,0.450408935546875,0.2884674072265625
1772806437046216400,4.805216552734375,-0.515289306640625,0.4624176025390625,0.326812744140625
1772806437056147500,4.8151474609375,-0.5404510498046875,0.4796142578125,0.3443145751953125
1772806437066079500,4.82507958984375,-0.602203369140625,0.52215576171875,0.345855712890625
1772806437076010500,4.835010498046875,-0.674652099609375,0.575927734375,0.3192138671875
1772806437085942500,4.844942626953125,-0.743621826171875,0.624664306640625,0.277435302734375
1772806437095873300,4.854873291015625,-0.8123016357421875,0.6731414794921875,0.237640380859375
1772806437105805300,4.864805419921875,-0.884552001953125,0.708953857421875,0.196441650390625
1772806437115736600,4.874736572265625,-0.931182861328125,0.723358154296875,0.145294189453125
1772806437125668600,4.884668701171875,-0.9470367431640625,0.71917724609375,0.1045989990234375
1772806437135599400,4.894599365234375,-0.92919921875,0.701171875,0.0730438232421875
1772806437145530400,4.9045302734375,-0.8721466064453125,0.66845703125,0.052337646484375
1772806437155462400,4.91446240234375,-0.8002166748046875,0.6262359619140625,0.0368194580078125
1772806437165393400,4.924393310546875,-0.7429962158203125,0.5821533203125,0.0482025146484375
1772806437175325400,4.934325439453125,-0.7001800537109375,0.533905029296875,0.0601348876953125
1772806437185256400,4.94425634765625,-0.675018310546875,0.488922119140625,0.0814666748046875
1772806437195188500,4.9541884765625,-0.6591949462890625,0.4509124755859375,0.1205291748046875
1772806437205119500,4.964119384765625,-0.641998291015625,0.4142303466796875,0.15106201171875
1772806437215051500,4.974051513671875,-0.630615234375,0.38800048828125,0.1699371337890625
1772806437224982500,4.983982421875,-0.6231231689453125,0.370361328125,0.1971435546875
1772806437234914800,4.993914794921875,-0.620758056640625,0.356475830078125,0.2425689697265625
1772806437244845800,5.003845703125,-0.6168670654296875,0.34765625,0.2762908935546875
1772806437254776800,5.01377685546875,-0.625885009765625,0.352783203125,0.3037567138671875
1772806437264708900,5.023708984375,-0.6400604248046875,0.3598175048828125,0.320587158203125
1772806437274640000,5.033639892578125,-0.6569061279296875,0.3810272216796875,0.323883056640625
1772806437284572000,5.043572021484375,-0.6819915771484375,0.410430908203125,0.3092193603515625
1772806437294502700,5.053502685546875,-0.7063446044921875,0.4501953125,0.2930450439453125
1772806437304434700,5.0634345703125,-0.7251434326171875,0.4922027587890625,0.2760467529296875
1772806437314366000,5.073365966796875,-0.7454986572265625,0.531829833984375,0.2599639892578125
1772806437324298000,5.083298095703125,-0.7708587646484375,0.5726318359375,0.2436065673828125
1772806437334228700,5.093228759765625,-0.8106536865234375,0.6084442138671875,0.227752685546875
1772806437344160800,5.103160888671875,-0.8583984375,0.6378326416015625,0.2029571533203125
1772806437354091800,5.113091796875,-0.9143218994140625,0.65625,0.174591064453125
1772806437364023800,5.12302392578125,-0.9603424072265625,0.6602325439453125,0.1449127197265625
1772806437373954800,5.132954833984375,-0.9783172607421875,0.6532745361328125,0.1348114013671875
1772806437383886800,5.142886962890625,-0.9770965576171875,0.637542724609375,0.1483306884765625
1772806437393817900,5.15281787109375,-0.9560394287109375,0.612335205078125,0.194183349609375
1772806437403748900,5.162748779296875,-0.9103851318359375,0.5801849365234375,0.2552642822265625
1772806437413681000,5.172680908203125,-0.8677978515625,0.5455169677734375,0.307525634765625
1772806437423612000,5.18261181640625,-0.8382110595703125,0.512115478515625,0.346923828125
1772806437433544000,5.1925439453125,-0.81683349609375,0.4842071533203125,0.3600311279296875
1772806437443474700,5.202474609375,-0.8088531494140625,0.465118408203125,0.33984375
1772806437453406700,5.21240673828125,-0.8121490478515625,0.4584808349609375,0.2981719970703125
1772806437463338000,5.222337890625,-0.82745361328125,0.4629974365234375,0.25579833984375
1772806437473269800,5.232269775390625,-0.8492279052734375,0.4701690673828125,0.21014404296875
1772806437483200800,5.24220068359375,-0.8796234130859375,0.4709625244140625,0.1871795654296875
1772806437493132800,5.2521328125,-0.902191162109375,0.4724884033203125,0.1770477294921875
1772806437503063800,5.262063720703125,-0.91046142578125,0.4762725830078125,0.168701171875
1772806437512995800,5.271995849609375,-0.9066314697265625,0.4744720458984375,0.1515960693359375
1772806437522926800,5.2819267578125,-0.8984527587890625,0.4699249267578125,0.1279449462890625
1772806437532857900,5.29185791015625,-0.890594482421875,0.4665069580078125,0.1067657470703125
1772806437542789600,5.30178955078125,-0.8858642578125,0.45672607421875,0.093597412109375
1772806437552721000,5.311720947265625,-0.887451171875,0.449676513671875,0.09295654296875
1772806437562653000,5.32165283203125,-0.888458251953125,0.440277099609375,0.103424072265625
1772806437572584000,5.331583984375,-0.886199951171875,0.433135986328125,0.1177520751953125
1772806437582515700,5.341515625,-0.8948822021484375,0.4333953857421875,0.13519287109375
1772806437592446700,5.35144677734375,-0.9177703857421875,0.4353790283203125,0.14337158203125
1772806437602378800,5.361378662109375,-0.9559173583984375,0.4403228759765625,0.146209716796875
1772806437612310000,5.37131005859375,-0.9785614013671875,0.45062255859375,0.155426025390625
1772806437622241800,5.38124169921875,-0.986541748046875,0.459228515625,0.17401123046875
1772806437632172800,5.3911728515625,-0.987152099609375,0.471588134765625,0.1893768310546875
1772806437642104800,5.401104736328125,-0.9753265380859375,0.4869384765625,0.1981353759765625
1772806437652035800,5.411035888671875,-0.9577484130859375,0.5090789794921875,0.1919097900390625
1772806437661966800,5.420966796875,-0.9450836181640625,0.5345458984375,0.159210205078125
1772806437671899000,5.43089892578125,-0.9424591064453125,0.5610809326171875,0.1210479736328125
1772806437681830000,5.440829833984375,-0.94427490234375,0.59100341796875,0.087493896484375
1772806437691761700,5.45076171875,-0.9476318359375,0.631134033203125,0.0537872314453125
1772806437701693000,5.46069287109375,-0.9617919921875,0.6576995849609375,0.0201416015625
1772806437711625000,5.470625,-0.990570068359375,0.6741485595703125,-0.001190185546875
1772806437721555700,5.4805556640625,-1.0191802978515625,0.684356689453125,-0.0134429931640625
1772806437731487700,5.49048779296875,-1.03271484375,0.67022705078125,-0.035186767578125
1772806437741418800,5.500418701171875,-1.0251312255859375,0.6530914306640625,-0.0542449951171875
1772806437751350800,5.510350830078125,-0.983062744140625,0.6242218017578125,-0.07781982421875
1772806437761281800,5.52028173828125,-0.9243011474609375,0.5823211669921875,-0.0759735107421875
1772806437771213800,5.5302138671875,-0.860992431640625,0.5445709228515625,-0.0232391357421875
1772806437781144800,5.540144775390625,-0.7957000732421875,0.507415771484375,0.0528717041015625
1772806437791075600,5.55007568359375,-0.7411346435546875,0.475799560546875,0.14617919921875
1772806437801007900,5.5600078125,-0.7075042724609375,0.4541168212890625,0.238250732421875
1772806437810939000,5.56993896484375,-0.684417724609375,0.4465789794921875,0.3159332275390625
1772806437820871000,5.579870849609375,-0.6690521240234375,0.451751708984375,0.3678741455078125
1772806437830801700,5.5898017578125,-0.6755218505859375,0.4641571044921875,0.3699188232421875
1772806437840733700,5.599733642578125,-0.7119903564453125,0.48406982421875,0.33477783203125
1772806437850665000,5.6096650390625,-0.7611236572265625,0.51824951171875,0.266571044921875
1772806437860597000,5.619596923828125,-0.801513671875,0.5482940673828125,0.1919708251953125
1772806437870527700,5.62952783203125,-0.8481597900390625,0.55352783203125,0.12298583984375
1772806437880459800,5.639459716796875,-0.8896942138671875,0.543182373046875,0.0702667236328125
1772806437890390800,5.649390869140625,-0.91485595703125,0.5208587646484375,0.05303955078125
1772806437900322800,5.65932275390625,-0.9383544921875,0.4947357177734375,0.08416748046875
1772806437910253800,5.66925390625,-0.9561920166015625,0.456695556640625,0.136260986328125
1772806437920184800,5.679184814453125,-0.9562835693359375,0.4182891845703125,0.190582275390625
1772806437930116900,5.689116943359375,-0.949310302734375,0.3836517333984375,0.2296142578125
1772806437940047600,5.699047607421875,-0.932708740234375,0.3540496826171875,0.248291015625
1772806437949980000,5.70897998046875,-0.92242431640625,0.3275604248046875,0.2621002197265625
1772806437959911000,5.718910888671875,-0.9217681884765625,0.3023681640625,0.2741546630859375
1772806437969843000,5.728843017578125,-0.92901611328125,0.2903900146484375,0.2883758544921875
1772806437979773700,5.738773681640625,-0.9405059814453125,0.284210205078125,0.2994384765625
1772806437989705700,5.748705810546875,-0.9404144287109375,0.279449462890625,0.3127899169921875
1772806437999637000,5.758636962890625,-0.9234619140625,0.2838134765625,0.3265228271484375
1772806438009569000,5.768569091796875,-0.8823699951171875,0.2901763916015625,0.325286865234375
1772806438019499800,5.778499755859375,-0.8305816650390625,0.3038330078125,0.3207244873046875
1772806438029430800,5.7884306640625,-0.7859649658203125,0.31927490234375,0.3045501708984375
1772806438039362800,5.79836279296875,-0.7659912109375,0.346588134765625,0.2729339599609375
1772806438049293800,5.8082939453125,-0.761505126953125,0.3791351318359375,0.23455810546875
1772806438059225900,5.818225830078125,-0.7514190673828125,0.4089202880859375,0.195281982421875
1772806438069156900,5.828156982421875,-0.74688720703125,0.4380035400390625,0.1571044921875
1772806438079089000,5.8380888671875,-0.7404937744140625,0.4589691162109375,0.1224517822265625
1772806438089019600,5.84801953125,-0.7351226806640625,0.46990966796875,0.102569580078125
1772806438098952000,5.857951904296875,-0.7312774658203125,0.472412109375,0.0940704345703125
1772806438108883000,5.867883056640625,-0.735809326171875,0.4638824462890625,0.0997314453125
1772806438118814700,5.877814697265625,-0.7443695068359375,0.4461669921875,0.1041107177734375
1772806438128745700,5.887745849609375,-0.7514190673828125,0.427947998046875,0.110137939453125
1772806438138677800,5.897677734375,-0.7758941650390625,0.412261962890625,0.119537353515625
1772806438148609000,5.907609130859375,-0.8177642822265625,0.4012603759765625,0.1156463623046875
1772806438158539800,5.917539794921875,-0.866119384765625,0.3946533203125,0.1029052734375
1772806438168471800,5.927471923828125,-0.90032958984375,0.3880615234375,0.09228515625
1772806438178402800,5.93740283203125,-0.9196319580078125,0.3802337646484375,0.097259521484375
1772806438188334600,5.94733447265625,-0.934326171875,0.3666229248046875,0.1121368408203125
1772806438198265900,5.957265869140625,-0.939910888671875,0.3516998291015625,0.1260223388671875
1772806438208198000,5.967197998046875,-0.9253692626953125,0.3394775390625,0.1497344970703125
1772806438218129000,5.97712890625,-0.9134979248046875,0.3248138427734375,0.163848876953125
1772806438228060700,5.987060791015625,-0.91912841796875,0.31231689453125,0.1576690673828125
1772806438237992000,5.996991943359375,-0.919097900390625,0.3020172119140625,0.1464996337890625
1772806438247924000,6.006924072265625,-0.9084320068359375,0.29718017578125,0.1531982421875
1772806438257855000,6.01685498046875,-0.8939666748046875,0.2964630126953125,0.1591339111328125
1772806438267787000,6.026787109375,-0.897796630859375,0.301025390625,0.172454833984375
1772806438277718000,6.036718017578125,-0.9104766845703125,0.3116302490234375,0.1886749267578125
1772806438287649800,6.04664990234375,-0.918060302734375,0.327239990234375,0.202728271484375
1772806438297581000,6.0565810546875,-0.9221038818359375,0.3384857177734375,0.230682373046875
1772806438307512000,6.066511962890625,-0.9181671142578125,0.346923828125,0.2744293212890625
1772806438317444000,6.076444091796875,-0.9170989990234375,0.3517303466796875,0.318023681640625
1772806438327374800,6.086374755859375,-0.9361572265625,0.360382080078125,0.3366546630859375
1772806438337307000,6.096306884765625,-0.9596099853515625,0.3747406005859375,0.33782958984375
1772806438347238100,6.106238037109375,-0.9703521728515625,0.385498046875,0.319183349609375
1772806438357170000,6.116169921875,-0.9833831787109375,0.3936767578125,0.2954864501953125
1772806438367101000,6.126100830078125,-0.9884490966796875,0.4015960693359375,0.268463134765625
1772806438377033000,6.136032958984375,-0.98876953125,0.397186279296875,0.2442169189453125
1772806438386964000,6.1459638671875,-0.976104736328125,0.3895263671875,0.2375030517578125
1772806438396896000,6.15589599609375,-0.9723358154296875,0.362030029296875,0.2496337890625
1772806438406827000,6.165826904296875,-0.9910125732421875,0.1826019287109375,0.3544158935546875
1772806438416759000,6.175759033203125,-0.941436767578125,0.1947174072265625,0.519683837890625
1772806438426689800,6.185689697265625,-0.815704345703125,0.1790924072265625,0.5678558349609375
1772806438436621000,6.19562109375,-0.78955078125,0.18890380859375,0.4855194091796875
1772806438446553000,6.205552978515625,-0.8109130859375,0.2923736572265625,0.367584228515625
1772806438456484000,6.215484130859375,-0.8178253173828125,0.3803253173828125,0.2538299560546875
1772806438466415900,6.225415771484375,-0.880340576171875,0.4686279296875,0.1999359130859375
1772806438476347000,6.235346923828125,-0.994537353515625,0.5319976806640625,0.165802001953125
1772806438486279000,6.24527880859375,-1.111785888671875,0.5711822509765625,0.131317138671875
1772806438496210200,6.255210205078125,-1.1700897216796875,0.5869598388671875,0.11785888671875
1772806438506142000,6.265141845703125,-1.1490020751953125,0.5930938720703125,0.1600189208984375
1772806438516073000,6.275072998046875,-1.0893096923828125,0.5615692138671875,0.222442626953125
1772806438526005000,6.2850048828125,-1.0157623291015625,0.5281982421875,0.28973388671875
1772806438535936000,6.29493603515625,-0.9502105712890625,0.5187225341796875,0.329315185546875
1772806438545868000,6.304867919921875,-0.9146270751953125,0.5202484130859375,0.3347015380859375
1772806438555799000,6.314799072265625,-0.9068145751953125,0.50885009765625,0.314239501953125
1772806438565730000,6.32472998046875,-0.90814208984375,0.5052642822265625,0.2718505859375
1772806438575661800,6.334661865234375,-0.8884429931640625,0.5139923095703125,0.21923828125
1772806438585593000,6.344593017578125,-0.8655853271484375,0.51629638671875,0.1534271240234375
1772806438595525000,6.354525146484375,-0.82171630859375,0.5191650390625,0.092315673828125
1772806438605456000,6.364455810546875,-0.79119873046875,0.5071868896484375,0.062347412109375
1772806438615388000,6.374387939453125,-0.764312744140625,0.4943389892578125,0.068084716796875
1772806438625319000,6.38431884765625,-0.751678466796875,0.48504638671875,0.0962677001953125
1772806438635251000,6.3942509765625,-0.744903564453125,0.4624176025390625,0.12884521484375
1772806438645182000,6.404181884765625,-0.7364959716796875,0.4565582275390625,0.139312744140625
1772806438655114000,6.414114013671875,-0.7386627197265625,0.466583251953125,0.103424072265625
1772806438665045000,6.424044921875,-0.7519683837890625,0.483001708984375,0.044097900390625
1772806438674977000,6.43397705078125,-0.7473907470703125,0.5116729736328125,-0.0148162841796875
1772806438684908000,6.443907958984375,-0.7314453125,0.5355072021484375,-0.0582733154296875
1772806438694839000,6.453839111328125,-0.7149810791015625,0.5490875244140625,-0.0707550048828125
1772806438704771000,6.46377099609375,-0.7080078125,0.5529937744140625,-0.0500640869140625
1772806438714701800,6.473701904296875,-0.7286376953125,0.5436859130859375,-0.000457763671875
1772806438724633900,6.4836337890625,-0.7624664306640625,0.5411376953125,0.06561279296875
1772806438734565000,6.493565185546875,-0.786529541015625,0.5443572998046875,0.1249847412109375
1772806438744497200,6.5034970703125,-0.81170654296875,0.5464630126953125,0.169097900390625
1772806438754428000,6.513427978515625,-0.8469085693359375,0.546783447265625,0.1905517578125
1772806438764360000,6.52335986328125,-0.8717041015625,0.554351806640625,0.187225341796875
1772806438774291000,6.533291015625,-0.885894775390625,0.5576629638671875,0.1544647216796875
1772806438784223000,6.543222900390625,-0.89385986328125,0.5560302734375,0.1228790283203125
1772806438794154000,6.553154052734375,-0.8961181640625,0.541168212890625,0.0930328369140625
1772806438804086000,6.5630859375,-0.893035888671875,0.5174102783203125,0.0686187744140625
1772806438814017000,6.57301708984375,-0.86572265625,0.4911956787109375,0.0537567138671875
1772806438823948000,6.582947998046875,-0.8161468505859375,0.455718994140625,0.0621337890625
1772806438833880000,6.592880126953125,-0.767242431640625,0.4209747314453125,0.0880279541015625
1772806438843811000,6.60281103515625,-0.725494384765625,0.4013824462890625,0.1256866455078125
1772806438853743000,6.6127431640625,-0.6926727294921875,0.3864288330078125,0.1570281982421875
1772806438863673900,6.622673828125,-0.6973114013671875,0.38372802734375,0.1859893798828125
1772806438873606000,6.63260595703125,-0.72265625,0.3923187255859375,0.1986083984375
1772806438883537200,6.642537109375,-0.7636260986328125,0.41644287109375,0.200439453125
1772806438893469200,6.65246923828125,-0.79986572265625,0.4514007568359375,0.173431396484375
1772806438903400000,6.66239990234375,-0.8355255126953125,0.4864349365234375,0.1405487060546875
1772806438913332000,6.67233203125,-0.8634033203125,0.5157623291015625,0.1209869384765625
1772806438923263000,6.682262939453125,-0.8817138671875,0.5383758544921875,0.1264495849609375
1772806438933194800,6.69219482421875,-0.8896636962890625,0.5481109619140625,0.1476898193359375
1772806438943126000,6.7021259765625,-0.885986328125,0.5497894287109375,0.1677398681640625
1772806438953058000,6.71205810546875,-0.8807830810546875,0.5477294921875,0.183807373046875
1772806438962989000,6.721989013671875,-0.867767333984375,0.540985107421875,0.1851806640625
1772806438972920000,6.731920166015625,-0.8653106689453125,0.5353546142578125,0.1709747314453125
1772806438982852000,6.74185205078125,-0.8569488525390625,0.5308685302734375,0.148956298828125
1772806438992783000,6.751783203125,-0.85211181640625,0.52801513671875,0.1352386474609375
1772806439002715000,6.76171484375,-0.8424530029296875,0.5177459716796875,0.1262664794921875
1772806439012646000,6.77164599609375,-0.8300323486328125,0.5089111328125,0.135711669921875
1772806439022578000,6.781577880859375,-0.8242950439453125,0.495391845703125,0.145050048828125
1772806439032509200,6.79150927734375,-0.83282470703125,0.4824066162109375,0.1561279296875
1772806439042441000,6.80144091796875,-0.8520660400390625,0.4698638916015625,0.169921875
1772806439052372000,6.8113720703125,-0.8570709228515625,0.4582366943359375,0.16107177734375
1772806439062304000,6.821303955078125,-0.8607330322265625,0.45196533203125,0.144378662109375
1772806439072234800,6.83123486328125,-0.8559722900390625,0.4484405517578125,0.127349853515625
1772806439082166000,6.841166015625,-0.8523101806640625,0.4448089599609375,0.109832763671875
1772806439092098000,6.85109814453125,-0.85162353515625,0.43963623046875,0.096099853515625
1772806439102029000,6.861029052734375,-0.8509979248046875,0.4391632080078125,0.0896453857421875
1772806439111960800,6.8709609375,-0.8526611328125,0.4409027099609375,0.088836669921875
1772806439121892000,6.88089208984375,-0.8616180419921875,0.442230224609375,0.0866546630859375
1772806439131824000,6.89082421875,-0.8685150146484375,0.4468841552734375,0.082672119140625
1772806439141755000,6.9007548828125,-0.8851318359375,0.4598388671875,0.0910797119140625
1772806439151687000,6.91068701171875,-0.914947509765625,0.4635467529296875,0.1080169677734375
1772806439161618000,6.920617919921875,-0.946533203125,0.4707794189453125,0.1246337890625
1772806439171550000,6.930550048828125,-0.9739990234375,0.47735595703125,0.1293792724609375
1772806439181481000,6.94048095703125,-0.98468017578125,0.4831085205078125,0.12420654296875
1772806439191413000,6.9504130859375,-0.9682159423828125,0.4883270263671875,0.1059722900390625
1772806439201344000,6.960343994140625,-0.94970703125,0.4834442138671875,0.0860595703125
1772806439211276000,6.970276123046875,-0.93292236328125,0.4890594482421875,0.0784912109375
1772806439221206800,6.980206787109375,-0.9192657470703125,0.5029144287109375,0.07830810546875
1772806439231137500,6.990137451171875,-0.928070068359375,0.5029449462890625,0.0883941650390625
1772806439241069600,7.000069580078125,-0.9308319091796875,0.50592041015625,0.089202880859375
1772806439251000600,7.01000048828125,-0.9496307373046875,0.51324462890625,0.08819580078125
1772806439260932600,7.0199326171875,-0.963836669921875,0.514678955078125,0.072967529296875
1772806439270863600,7.029863525390625,-0.967193603515625,0.5164031982421875,0.0533294677734375
1772806439280795600,7.039795654296875,-0.97039794921875,0.5046234130859375,0.04632568359375
1772806439290726700,7.0497265625,-0.99896240234375,0.488800048828125,0.0410003662109375
1772806439300658700,7.05965869140625,-0.980316162109375,0.471221923828125,0.0395050048828125
1772806439310589400,7.06958935546875,-0.9607696533203125,0.439056396484375,0.0694122314453125
1772806439320521500,7.079521484375,-0.936279296875,0.400360107421875,0.1109161376953125
1772806439330452700,7.08945263671875,-0.886688232421875,0.378753662109375,0.1674041748046875
1772806439340384800,7.099384765625,-0.8429412841796875,0.3692779541015625,0.2204437255859375
1772806439350315500,7.1093154296875,-0.821929931640625,0.3749847412109375,0.2520904541015625
1772806439360246800,7.119246826171875,-0.8195648193359375,0.4074554443359375,0.26470947265625
1772806439370178800,7.1291787109375,-0.8222198486328125,0.458160400390625,0.2596282958984375
1772806439380109600,7.139109619140625,-0.8742218017578125,0.5161590576171875,0.2411041259765625
1772806439390041600,7.14904150390625,-0.937347412109375,0.5880889892578125,0.2202911376953125
1772806439399972600,7.15897265625,-0.9859466552734375,0.6534423828125,0.1983184814453125
1772806439409904600,7.168904541015625,-1.0177764892578125,0.700927734375,0.1742401123046875
1772806439419835600,7.178835693359375,-1.038818359375,0.737030029296875,0.134765625
1772806439429767700,7.188767578125,-1.05621337890625,0.73455810546875,0.0664825439453125
1772806439439698700,7.19869873046875,-1.0435791015625,0.7115325927734375,-0.010711669921875
1772806439449630500,7.20863037109375,-1.0042266845703125,0.666107177734375,-0.061859130859375
1772806439459561500,7.2185615234375,-0.9415283203125,0.6043701171875,-0.0529632568359375
1772806439469493500,7.228493408203125,-0.857086181640625,0.531829833984375,0.0152435302734375
1772806439479424800,7.2384248046875,-0.76385498046875,0.4632110595703125,0.112701416015625
1772806439489355500,7.24835546875,-0.6691131591796875,0.40545654296875,0.2187347412109375
1772806439499287600,7.25828759765625,-0.5555572509765625,0.333404541015625,0.3596649169921875
1772806439509218800,7.26821875,-0.5589141845703125,0.367828369140625,0.3930511474609375
1772806439519150600,7.278150634765625,-0.6039276123046875,0.37451171875,0.3380584716796875
1772806439529081600,7.28808154296875,-0.663299560546875,0.4455413818359375,0.2494049072265625
1772806439539013600,7.298013671875,-0.74200439453125,0.506591796875,0.1507415771484375
1772806439548944600,7.307944580078125,-0.8057403564453125,0.5434722900390625,0.075653076171875
1772806439558876400,7.31787646484375,-0.855438232421875,0.562469482421875,0.0379486083984375
1772806439568807700,7.3278076171875,-0.8977813720703125,0.5592803955078125,0.05059814453125
1772806439578739700,7.33773974609375,-0.926513671875,0.5370330810546875,0.1009674072265625
1772806439588670500,7.34767041015625,-0.9396514892578125,0.5207977294921875,0.167633056640625
1772806439598602500,7.3576025390625,-0.9599609375,0.5142822265625,0.2135467529296875
1772806439608533500,7.367533447265625,-0.9893951416015625,0.50372314453125,0.2133026123046875
1772806439618464800,7.37746484375,-1.000274658203125,0.5118408203125,0.1606903076171875
1772806439628396500,7.387396484375,-0.9878692626953125,0.5099334716796875,0.081939697265625
1772806439638327600,7.39732763671875,-0.947601318359375,0.4857330322265625,0.0198211669921875
1772806439648259600,7.407259521484375,-0.88653564453125,0.45684814453125,-0.00836181640625
1772806439658190600,7.417190673828125,-0.8321380615234375,0.4218597412109375,-0.0068511962890625
1772806439668122600,7.42712255859375,-0.7896881103515625,0.3750152587890625,0.0160980224609375
1772806439678053600,7.4370537109375,-0.7615966796875,0.3336944580078125,0.0626983642578125
1772806439687985700,7.446985595703125,-0.7454833984375,0.297393798828125,0.115142822265625
1772806439697916400,7.45691650390625,-0.74578857421875,0.271514892578125,0.1658935546875
1772806439707848400,7.466848388671875,-0.7549285888671875,0.258026123046875,0.1857147216796875
1772806439717779700,7.47677978515625,-0.7672119140625,0.2647857666015625,0.177154541015625
1772806439727711700,7.486711669921875,-0.7806549072265625,0.2880859375,0.1619415283203125
1772806439737642500,7.496642578125,-0.809173583984375,0.31072998046875,0.14361572265625
1772806439747574500,7.506574462890625,-0.83038330078125,0.3499298095703125,0.1287078857421875
1772806439757505500,7.516505615234375,-0.8475494384765625,0.3809814453125,0.1259918212890625
1772806439767436500,7.5264365234375,-0.864349365234375,0.3993988037109375,0.119964599609375
1772806439777368600,7.53636865234375,-0.8846893310546875,0.4229278564453125,0.116455078125
1772806439787299600,7.546299560546875,-0.888641357421875,0.42864990234375,0.1179351806640625
1772806439797231600,7.556231689453125,-0.8707122802734375,0.4260711669921875,0.1276397705078125
1772806439807162600,7.56616259765625,-0.8473663330078125,0.41656494140625,0.1300048828125
1772806439817094700,7.5760947265625,-0.827056884765625,0.400421142578125,0.1315155029296875
1772806439827025700,7.586025634765625,-0.81988525390625,0.3906402587890625,0.1266326904296875
1772806439836957700,7.595957763671875,-0.8248443603515625,0.384002685546875,0.1184234619140625
1772806439846888400,7.605888427734375,-0.84710693359375,0.377655029296875,0.11181640625
1772806439856820500,7.615820556640625,-0.876251220703125,0.3771820068359375,0.111480712890625
1772806439866751700,7.625751708984375,-0.9099578857421875,0.3807525634765625,0.10870361328125
1772806439876683800,7.635683837890625,-0.9470672607421875,0.38226318359375,0.1016082763671875
1772806439886614500,7.645614501953125,-0.967987060546875,0.3791656494140625,0.096405029296875
1772806439896545500,7.655545654296875,-0.9697723388671875,0.3682098388671875,0.090576171875
1772806439906477600,7.6654775390625,-0.96148681640625,0.3563385009765625,0.0984649658203125
1772806439916408600,7.67540869140625,-0.9445953369140625,0.3531494140625,0.121612548828125
1772806439926340600,7.685340576171875,-0.9339141845703125,0.3560943603515625,0.1544952392578125
1772806439936271600,7.695271728515625,-0.9647064208984375,0.3636627197265625,0.1883697509765625
1772806439946203600,7.70520361328125,-1.0204010009765625,0.3822479248046875,0.229156494140625
1772806439956134700,7.715134765625,-1.0771331787109375,0.4102325439453125,0.2905426025390625
1772806439966066700,7.725066650390625,-1.1739349365234375,0.4398193359375,0.330078125
1772806439975997700,7.734997802734375,-1.2904052734375,0.4596710205078125,0.358551025390625
1772806439985929500,7.744929443359375,-1.3592529296875,0.4627685546875,0.380950927734375
1772806439995860500,7.754860595703125,-1.336334228515625,0.44989013671875,0.373046875
1772806440005792500,7.76479248046875,-1.23052978515625,0.4369049072265625,0.361083984375
1772806440015723800,7.774723876953125,-1.0691986083984375,0.4081573486328125,0.355865478515625
1772806440025654500,7.784654541015625,-0.9223785400390625,0.3973846435546875,0.344390869140625
1772806440035586600,7.794586669921875,-0.820068359375,0.3967742919921875,0.32855224609375
1772806440045517600,7.804517578125,-0.7474517822265625,0.396881103515625,0.3184967041015625
1772806440055449600,7.81444970703125,-0.7014312744140625,0.4251861572265625,0.3242645263671875
1772806440065380600,7.824380615234375,-0.7081146240234375,0.4627685546875,0.3362884521484375
1772806440075312600,7.834312744140625,-0.7398834228515625,0.5137481689453125,0.3517913818359375
1772806440085243600,7.84424365234375,-0.7767333984375,0.573272705078125,0.3624114990234375
1772806440095175400,7.854175537109375,-0.8326263427734375,0.6125335693359375,0.356842041015625
1772806440105106700,7.864106689453125,-0.8944854736328125,0.649322509765625,0.319549560546875
1772806440115038700,7.874038818359375,-0.93524169921875,0.665130615234375,0.2650299072265625
1772806440124969700,7.8839697265625,-0.9457244873046875,0.6693115234375,0.220916748046875
1772806440134901500,7.893901611328125,-0.9351348876953125,0.6441497802734375,0.1974029541015625
1772806440144832500,7.90383251953125,-0.9088897705078125,0.6074676513671875,0.2036590576171875
1772806440154763800,7.913763671875,-0.885284423828125,0.5560455322265625,0.2062225341796875
1772806440164695600,7.923695556640625,-0.8467864990234375,0.51702880859375,0.2103118896484375
1772806440174626600,7.93362646484375,-0.8027191162109375,0.4791107177734375,0.2021331787109375
1772806440184558600,7.94355859375,-0.7553558349609375,0.4469757080078125,0.1762542724609375
1772806440194489600,7.953489501953125,-0.724609375,0.432342529296875,0.1401824951171875
1772806440204421600,7.963421630859375,-0.694427490234375,0.435333251953125,0.0968780517578125
1772806440214352600,7.9733525390625,-0.6694488525390625,0.44927978515625,0.0543670654296875
1772806440224284700,7.98328466796875,-0.6739959716796875,0.4616851806640625,0.0264739990234375
1772806440234215700,7.993215576171875,-0.6906890869140625,0.4723663330078125,0.0155181884765625
1772806440244147000,8.00314697265625,-0.6931304931640625,0.486358642578125,0.0123138427734375
1772806440254079000,8.013078857421876,-0.696502685546875,0.4932861328125,0.025177001953125
1772806440264009700,8.023009765625,-0.6978759765625,0.4873504638671875,0.0542144775390625
1772806440273941800,8.032941650390624,-0.7165985107421875,0.4802398681640625,0.0867156982421875
1772806440283872800,8.042872802734376,-0.7482147216796875,0.4825592041015625,0.11419677734375
1772806440293804800,8.0528046875,-0.7712860107421875,0.488983154296875,0.1344146728515625
1772806440303735800,8.06273583984375,-0.788848876953125,0.4989166259765625,0.1533966064453125
1772806440313666800,8.072666748046874,-0.8103485107421875,0.512725830078125,0.1639251708984375
1772806440323598800,8.082598876953124,-0.834930419921875,0.5172576904296875,0.167572021484375
1772806440333529600,8.092529541015624,-0.850006103515625,0.51318359375,0.180694580078125
1772806440343461600,8.102461669921874,-0.8560638427734375,0.5133819580078125,0.1923370361328125
1772806440353393000,8.112392822265624,-0.8424835205078125,0.50238037109375,0.174072265625
1772806440363325000,8.122324951171874,-0.82861328125,0.4955596923828125,0.1514739990234375
1772806440373255700,8.132255615234374,-0.80865478515625,0.480377197265625,0.1373291015625
1772806440383187700,8.142187744140625,-0.759521484375,0.45635986328125,0.120025634765625
1772806440393119000,8.152118896484374,-0.6794586181640625,0.4453582763671875,0.15960693359375
1772806440403051000,8.162051025390625,-0.679107666015625,0.4141387939453125,0.1790008544921875
1772806440412981800,8.171981689453125,-0.6807098388671875,0.4151458740234375,0.18963623046875
1772806440422913800,8.181913818359375,-0.7355804443359375,0.43707275390625,0.2045440673828125
1772806440432844800,8.1918447265625,-0.7986602783203125,0.4531402587890625,0.2045440673828125
1772806440442775800,8.20177587890625,-0.855255126953125,0.4713287353515625,0.1994781494140625
1772806440452707800,8.211707763671875,-0.8899993896484375,0.4896697998046875,0.1954803466796875
1772806440462638800,8.221638916015625,-0.9053955078125,0.49859619140625,0.192169189453125
1772806440472571000,8.23157080078125,-0.9246063232421875,0.490020751953125,0.1947479248046875
1772806440482501600,8.241501708984375,-0.938079833984375,0.472869873046875,0.20220947265625
1772806440492433700,8.25143359375,-0.948089599609375,0.465545654296875,0.2189483642578125
