time,seconds_elapsed,z,y,x
1772806432298981000,0.057981201171875,0.042888343334198,0.243315190076828,0.01341567374765873
1772806432308913200,0.0679130859375,0.009498164057731628,0.08977995067834854,-0.08936556428670883
1772806432318844200,0.07784423828125,-0.03834312781691551,-0.08041255176067352,-0.17086441814899445
1772806432328776200,0.087776123046875,-0.08208475261926651,-0.1926911622285843,-0.2217201441526413
1772806432338707200,0.097707275390625,-0.11974078416824341,-0.2437940239906311,-0.23492330312728882
1772806432348639200,0.10763916015625,-0.15170137584209442,-0.23114560544490814,-0.22438623011112213
1772806432358570000,0.117570068359375,-0.16651786863803864,-0.17139758169651031,-0.19643795490264893
1772806432368502000,0.127501953125,-0.16884520649909973,-0.10440923273563385,-0.14374731481075287
1772806432378433300,0.137433349609375,-0.1543552130460739,-0.03809545561671257,-0.07928816229104996
1772806432388364000,0.147364013671875,-0.11570023000240326,0.021101290360093117,-0.0335632860660553
1772806432398296000,0.157296142578125,-0.0773477852344513,0.05253351479768753,-0.021220333874225616
1772806432408227300,0.167227294921875,-0.05100778862833977,0.06950584053993225,-0.05864600092172623
1772806432418159400,0.177159423828125,-0.03849972039461136,0.0728214755654335,-0.12788526713848114
1772806432428090000,0.187090087890625,-0.04873398318886757,0.031497206538915634,-0.2068661004304886
1772806432438022100,0.197022216796875,-0.0658719539642334,-0.037513818591833115,-0.27158623933792114
1772806432447953200,0.206953125,-0.10318151116371155,-0.10382333397865295,-0.2943538725376129
1772806432457885200,0.21688525390625,-0.1401757448911667,-0.1707749366760254,-0.284486323595047
1772806432467816200,0.226816162109375,-0.1729360967874527,-0.22201788425445557,-0.24949078261852264
1772806432477748200,0.236748291015625,-0.20743601024150848,-0.2330862432718277,-0.19179393351078033
1772806432487679200,0.24667919921875,-0.23362553119659424,-0.22719267010688782,-0.1199708804488182
1772806432497611300,0.256611328125,-0.2324143350124359,-0.19975891709327698,-0.0572209432721138
1772806432507542000,0.2665419921875,-0.20007716119289398,-0.1431635469198227,0.007111705373972654
1772806432517473300,0.276473388671875,-0.1687687784433365,-0.05493781715631485,0.044260405004024506
1772806432527405300,0.2864052734375,-0.13661350309848785,0.05710882693529129,0.04950843006372452
1772806432537336000,0.296336181640625,-0.13305924832820892,0.14342454075813293,0.024462198838591576
1772806432547268000,0.30626806640625,-0.1452013999223709,0.1969873607158661,-0.010759171098470688
1772806432557199400,0.316199462890625,-0.17456834018230438,0.1895933598279953,-0.012206865474581718
1772806432567131400,0.32613134765625,-0.21566304564476013,0.13636796176433563,0.04561275988817215
1772806432577062100,0.336062255859375,-0.26858219504356384,0.07075246423482895,0.15445615351200104
1772806432586994200,0.345994140625,-0.3366467356681824,0.023972710594534874,0.31963711977005005
1772806432596925200,0.35592529296875,-0.38884255290031433,0.0733245462179184,0.5102882981300354
1772806432606856200,0.365856201171875,-0.41092973947525024,0.24000035226345062,0.6843972206115723
1772806432616788200,0.375788330078125,-0.43292585015296936,0.5822786092758179,0.7426099181175232
1772806432626719200,0.38571923828125,-0.45331981778144836,0.9613995552062988,0.5746795535087585
1772806432636651300,0.3956513671875,-0.4691549837589264,1.094619631767273,0.2552562654018402
1772806432646582000,0.40558203125,-0.5505800843238831,0.9482129216194153,-0.17020554840564728
1772806432656514000,0.41551416015625,-0.6624341607093811,0.6475558876991272,-0.6465862393379211
1772806432666445300,0.4254453125,-0.7658388614654541,0.17871195077896118,-1.0495027303695679
1772806432676377300,0.43537744140625,-0.8986448049545288,-0.33702409267425537,-1.2832287549972534
1772806432686308000,0.44530810546875,-1.076830267906189,-0.7170718312263489,-1.3239554166793823
1772806432696240000,0.455240234375,-1.2369391918182373,-0.9318578839302063,-1.198906421661377
1772806432706171400,0.46517138671875,-1.27787446975708,-0.984628438949585,-0.97013258934021
1772806432716103200,0.475103271484375,-1.2249195575714111,-0.6423035860061646,-0.6724196672439575
1772806432726034200,0.4850341796875,-1.065932035446167,0.07251042127609253,-0.5421258211135864
1772806432735965200,0.494965087890625,-0.7940965890884399,0.8590518832206726,-0.7667427062988281
1772806432745897200,0.504897216796875,-0.4576501250267029,1.3629589080810547,-1.095334768295288
1772806432755828200,0.514828125,-0.2624955475330353,1.4938498735427856,-1.3145887851715088
1772806432765760300,0.52476025390625,-0.19406427443027496,1.4309641122817993,-1.4892735481262207
1772806432775691300,0.534691162109375,-0.2494891881942749,1.1717679500579834,-1.6147334575653076
1772806432785623000,0.544623046875,-0.41726115345954895,0.7721899151802063,-1.6502858400344849
1772806432795554000,0.554553955078125,-0.6871328353881836,0.4747369587421417,-1.6112220287322998
1772806432805486000,0.564486083984375,-0.9547232985496521,0.29067978262901306,-1.683597207069397
1772806432815417300,0.574417236328125,-1.010474443435669,0.1543717235326767,-2.0301716327667236
1772806432825349000,0.58434912109375,-0.838397741317749,0.0315784327685833,-2.52352237701416
1772806432835280100,0.594280029296875,-0.5914140343666077,-0.035831768065690994,-2.920701026916504
1772806432845211400,0.60421142578125,-0.3565554618835449,0.06537341326475143,-3.1105194091796875
1772806432855143200,0.61414306640625,-0.15225504338741302,0.26339516043663025,-3.080369472503662
1772806432865074200,0.62407421875,-0.014815697446465492,0.49592292308807373,-2.8952972888946533
1772806432875006200,0.634006103515625,0.1086612343788147,0.6708177924156189,-2.65596079826355
1772806432884937200,0.643937255859375,0.13624891638755798,0.8217201828956604,-2.5580389499664307
1772806432894869000,0.653868896484375,0.13798396289348602,0.9164507389068604,-2.730607271194458
1772806432904800300,0.66380029296875,0.1548982411623001,0.9129414558410645,-3.078569173812866
1772806432914732300,0.673732177734375,0.15562687814235687,0.8198626637458801,-3.3863914012908936
1772806432924663300,0.683663330078125,0.16614849865436554,0.7370026707649231,-3.584470748901367
1772806432934595000,0.693594970703125,0.24465155601501465,0.8128063678741455,-3.720331907272339
1772806432944526000,0.703526123046875,0.36377474665641785,1.0700263977050781,-3.778609275817871
1772806432954457300,0.713457275390625,0.44596683979034424,1.2468209266662598,-3.777336835861206
1772806432964389000,0.72338916015625,0.4894631803035736,1.3478378057479858,-3.7151448726654053
1772806432974320000,0.733320068359375,0.5457778573036194,1.3498247861862183,-3.5049245357513428
1772806432984252200,0.743252197265625,0.6288109421730042,1.070844054222107,-3.231900215148926
1772806432994183400,0.753183349609375,0.709140419960022,0.7323964834213257,-3.028280258178711
1772806433004115200,0.763115234375,0.7301817536354065,0.40713420510292053,-2.9352920055389404
1772806433014046200,0.773046142578125,0.728345513343811,0.2115042507648468,-2.938870668411255
1772806433023978200,0.782978271484375,0.66542649269104,0.2063630223274231,-2.9558045864105225
1772806433033909000,0.792908935546875,0.5513515472412109,0.2979978621006012,-2.9433271884918213
1772806433043841000,0.802841064453125,0.41507601737976074,0.5371600985527039,-2.862433671951294
1772806433053772300,0.812772216796875,0.3952312171459198,0.8377018570899963,-2.6769440174102783
1772806433063704300,0.822704345703125,0.31521493196487427,1.14151930809021,-2.4063539505004883
1772806433073635000,0.832635009765625,0.21565958857536316,1.340649962425232,-2.156006336212158
1772806433083566000,0.842566162109375,0.24411572515964508,1.1951587200164795,-1.8517816066741943
1772806433093498000,0.852498046875,0.27543798089027405,0.7174771428108215,-1.5537254810333252
1772806433103429000,0.86242919921875,0.2976420819759369,0.2166372388601303,-1.2845581769943237
1772806433113361200,0.872361083984375,0.2835608720779419,-0.09009766578674316,-1.083411693572998
1772806433123292200,0.882292236328125,0.25352469086647034,-0.19521130621433258,-0.8965712785720825
1772806433133224200,0.89222412109375,0.23918941617012024,-0.1962352842092514,-0.7105388045310974
1772806433143155200,0.9021552734375,0.2848506569862366,-0.21154101192951202,-0.5375673174858093
1772806433153087200,0.912087158203125,0.24954219162464142,-0.21771155297756195,-0.38587686419487
1772806433163018200,0.922018310546875,0.2641698718070984,-0.26711559295654297,-0.24111008644104004
1772806433172950300,0.9319501953125,0.271935373544693,-0.34506338834762573,-0.12731242179870605
1772806433182881000,0.941881103515625,0.19731733202934265,-0.35173699259757996,-0.03786509111523628
1772806433192812300,0.951812255859375,0.13821673393249512,-0.3877488076686859,0.06313129514455795
1772806433202744300,0.961744384765625,0.06245085969567299,-0.44094544649124146,0.11440380662679672
1772806433212675000,0.971675048828125,0.0070706927217543125,-0.4566551446914673,0.15513792634010315
1772806433222606800,0.98160693359375,-0.021317007020115852,-0.44363096356391907,0.21758770942687988
1772806433232538000,0.9915380859375,-0.04062652215361595,-0.4227789640426636,0.2795400321483612
1772806433242470100,1.00147021484375,-0.04958566278219223,-0.3932066857814789,0.3337707817554474
1772806433252401000,1.01140087890625,-0.059129633009433746,-0.3367636501789093,0.3863828480243683
1772806433262333000,1.0213330078125,-0.07462923228740692,-0.2771964371204376,0.43565133213996887
1772806433272264000,1.031263916015625,-0.09862777590751648,-0.20323780179023743,0.4904927611351013
1772806433282196000,1.041196044921875,-0.11074169725179672,-0.12680402398109436,0.5476628541946411
1772806433292127000,1.051126953125,-0.10217271000146866,-0.0706440731883049,0.5922598838806152
1772806433302058000,1.06105810546875,-0.09916812926530838,-0.04080814868211746,0.6101105213165283
1772806433311990000,1.070989990234375,-0.10845030844211578,-0.05540253967046738,0.6188568472862244
1772806433321920800,1.080920654296875,-0.1468682736158371,-0.11443709582090378,0.6022549867630005
1772806433331852800,1.090852783203125,-0.19611650705337524,-0.15763090550899506,0.5312271118164062
1772806433341784000,1.1007841796875,-0.24618420004844666,-0.15846234560012817,0.4297542870044708
1772806433351716000,1.110716064453125,-0.27765771746635437,-0.14094993472099304,0.3086363971233368
1772806433361646800,1.120646728515625,-0.2702037990093231,-0.1411834955215454,0.17123353481292725
1772806433371579000,1.130578857421875,-0.24978026747703552,-0.13984204828739166,0.05312074348330498
1772806433381510100,1.14051025390625,-0.23649536073207855,-0.1119971051812172,0.01098394114524126
1772806433391442000,1.15044189453125,-0.22983160614967346,-0.067011259496212,0.045165881514549255
1772806433401373000,1.160373046875,-0.21862688660621643,-0.03562164306640625,0.1255294233560562
1772806433411305000,1.170304931640625,-0.2047819048166275,-0.002886600326746702,0.22895409166812897
1772806433421236000,1.180236083984375,-0.18707215785980225,0.029626069590449333,0.33875036239624023
1772806433431167000,1.1901669921875,-0.1713714897632599,0.025787655264139175,0.41741347312927246
1772806433441099000,1.20009912109375,-0.15048351883888245,0.001038632821291685,0.4648406505584717
1772806433451030000,1.210030029296875,-0.1180238425731659,-0.05314710736274719,0.4878405034542084
1772806433460962000,1.219962158203125,-0.08776526898145676,-0.10356847196817398,0.4849046468734741
1772806433470892800,1.229892822265625,-0.06890716403722763,-0.15237781405448914,0.45516350865364075
1772806433480824800,1.239824951171875,-0.06540697067975998,-0.21728864312171936,0.40781649947166443
1772806433490756000,1.249756103515625,-0.0710587278008461,-0.25300827622413635,0.3526504635810852
1772806433500688000,1.25968798828125,-0.08993175625801086,-0.2618100345134735,0.3042309880256653
1772806433510619000,1.269618896484375,-0.10739702731370926,-0.248304083943367,0.2702634334564209
1772806433520551000,1.279551025390625,-0.12269369512796402,-0.2173949033021927,0.24942047894001007
1772806433530482200,1.289482177734375,-0.14243091642856598,-0.1379900872707367,0.2518772482872009
1772806433540413000,1.299412841796875,-0.1455385535955429,-0.07281748205423355,0.28808292746543884
1772806433550345000,1.309344970703125,-0.14207938313484192,-0.06102260574698448,0.30819618701934814
1772806433560276000,1.31927587890625,-0.13750725984573364,-0.02406885102391243,0.3153262734413147
1772806433570207700,1.329207763671875,-0.15557600557804108,0.009153550490736961,0.31953272223472595
1772806433580139000,1.339138916015625,-0.16932325065135956,-0.014121944084763527,0.2800106108188629
1772806433590071000,1.349071044921875,-0.16313299536705017,-0.04350033774971962,0.20102472603321075
1772806433600002000,1.359001953125,-0.14318779110908508,-0.07258845120668411,0.14374785125255585
1772806433609933800,1.368933837890625,-0.13105815649032593,-0.10300601273775101,0.12050776928663254
1772806433619864800,1.37886474609375,-0.13033723831176758,-0.10104165971279144,0.12504100799560547
1772806433629796900,1.388796875,-0.13776078820228577,-0.07924874871969223,0.15122413635253906
1772806433639727900,1.398727783203125,-0.147772416472435,-0.071681909263134,0.1887824386358261
1772806433649659000,1.408658935546875,-0.16046397387981415,-0.07081291824579239,0.22715458273887634
1772806433659591000,1.4185908203125,-0.17101329565048218,-0.04488625004887581,0.24297723174095154
1772806433669522000,1.42852197265625,-0.16328905522823334,-0.025114674121141434,0.2235201746225357
1772806433679454000,1.438453857421875,-0.14816735684871674,-0.008475776761770248,0.17473319172859192
1772806433689385000,1.448385009765625,-0.11977220326662064,0.01649428717792034,0.1238015666604042
1772806433699317000,1.45831689453125,-0.09219969809055328,0.03357100859284401,0.07070746272802353
1772806433709247700,1.468247802734375,-0.08582969009876251,0.0237045306712389,0.013372264802455902
1772806433719179800,1.4781796875,-0.08951710164546967,-0.006055229343473911,-0.05903748795390129
1772806433729111000,1.488111083984375,-0.09667940437793732,-0.06251318007707596,-0.13831952214241028
1772806433739043000,1.49804296875,-0.1255696415901184,-0.10758931189775467,-0.1695685237646103
1772806433748973800,1.507973876953125,-0.15468890964984894,-0.14066603779792786,-0.14364531636238098
1772806433758904800,1.51790478515625,-0.17652150988578796,-0.1610594540834427,-0.08410955220460892
1772806433768836900,1.5278369140625,-0.1967809647321701,-0.12629349529743195,0.006007825024425983
1772806433778768000,1.537767822265625,-0.21007893979549408,-0.03081543743610382,0.09610895812511444
1772806433788700000,1.547699951171875,-0.20318160951137543,0.0722009614109993,0.13524064421653748
1772806433798631000,1.557630859375,-0.1769886314868927,0.133126899600029,0.10338550806045532
1772806433808563000,1.56756298828125,-0.15356425940990448,0.14814606308937073,0.04297010228037834
1772806433818494000,1.577493896484375,-0.14609888195991516,0.11880707740783691,-0.005657885689288378
1772806433828426000,1.587426025390625,-0.1548423171043396,0.035658128559589386,-0.02429921366274357
1772806433838357000,1.59735693359375,-0.19539879262447357,-0.07499488443136215,0.0041308291256427765
1772806433848289000,1.6072890625,-0.2641480267047882,-0.19136996567249298,0.048471927642822266
1772806433858219800,1.6172197265625,-0.33852240443229675,-0.2813240885734558,0.08634208142757416
1772806433868151000,1.627151123046875,-0.4111126959323883,-0.3041148781776428,0.12184547632932663
1772806433878083000,1.6370830078125,-0.4601968824863434,-0.2946026027202606,0.1392814666032791
1772806433888013800,1.647013916015625,-0.4656188189983368,-0.25649702548980713,0.14800171554088593
1772806433897945900,1.65694580078125,-0.42549964785575867,-0.196992427110672,0.1450384110212326
1772806433907876900,1.666876953125,-0.3482823371887207,-0.13124510645866394,0.13873417675495148
1772806433917809000,1.676808837890625,-0.271151065826416,-0.07298605889081955,0.1396750807762146
1772806433927740000,1.686739990234375,-0.22967740893363953,-0.019659722223877907,0.15121188759803772
1772806433937672000,1.696671875,-0.2344314157962799,0.026553580537438393,0.17627330124378204
1772806433947603000,1.70660302734375,-0.27318012714385986,0.05727287754416466,0.21239562332630157
1772806433957535000,1.716534912109375,-0.3452335596084595,0.0689215436577797,0.24931102991104126
1772806433967466000,1.726466064453125,-0.4222487211227417,0.07363773882389069,0.25423333048820496
1772806433977397000,1.73639697265625,-0.49634796380996704,0.05632665380835533,0.21220067143440247
1772806433987329000,1.7463291015625,-0.5429415702819824,0.05215108394622803,0.14516784250736237
1772806433997259800,1.756259765625,-0.523617684841156,0.047333162277936935,0.05423207953572273
1772806434007191800,1.76619189453125,-0.4576652944087982,0.03930612653493881,-0.03891171142458916
1772806434017123000,1.776123046875,-0.3605656325817108,0.04366971552371979,-0.06353423744440079
1772806434027055000,1.78605517578125,-0.23700030148029327,0.038910914212465286,0.014493987895548344
1772806434036985900,1.79598583984375,-0.11602620780467987,0.021566279232501984,0.17287564277648926
1772806434046918000,1.80591796875,-0.04610517621040344,-0.009533850476145744,0.3468104302883148
1772806434056849000,1.815848876953125,-0.036254942417144775,-0.05234283208847046,0.47505122423171997
1772806434066781000,1.825781005859375,-0.08878473192453384,-0.06761979311704636,0.5453869104385376
1772806434076712000,1.8357119140625,-0.18776723742485046,-0.05919141694903374,0.5746792554855347
1772806434086643000,1.845642822265625,-0.2949235141277313,-0.022780412808060646,0.5443546772003174
1772806434096575000,1.855574951171875,-0.3762207627296448,0.0718747228384018,0.48610997200012207
1772806434106506000,1.865506103515625,-0.4235435426235199,0.18417996168136597,0.43975767493247986
1772806434116438000,1.87543798828125,-0.4270714223384857,0.3030986189842224,0.4110730290412903
1772806434126369000,1.885369140625,-0.3991212844848633,0.407095342874527,0.39667758345603943
1772806434136301000,1.895301025390625,-0.32384705543518066,0.4896237552165985,0.3775595426559448
1772806434146231800,1.905231689453125,-0.21318498253822327,0.5415849685668945,0.3294764459133148
1772806434156163800,1.915163818359375,-0.08523793518543243,0.5602750182151794,0.22720013558864594
1772806434166095000,1.92509521484375,0.04315652698278427,0.5422126650810242,0.0640450268983841
1772806434176027000,1.93502685546875,0.18347741663455963,0.4672952890396118,-0.14452655613422394
1772806434185958000,1.9449580078125,0.3045753538608551,0.31214937567710876,-0.3465427756309509
1772806434195889000,1.954888916015625,0.3648088574409485,0.14187750220298767,-0.48881521821022034
1772806434205821000,1.964821044921875,0.3480610251426697,-0.005291700828820467,-0.5347861647605896
1772806434215752000,1.974751953125,0.2679893672466278,-0.10888946801424026,-0.47679904103279114
1772806434225683700,1.98468359375,0.13953153789043427,-0.1357080340385437,-0.32406675815582275
1772806434235614700,1.99461474609375,-0.0007486145477741957,-0.05951765552163124,-0.09671323001384735
1772806434245546800,2.004546630859375,-0.13197055459022522,0.07621806859970093,0.15120789408683777
1772806434255477800,2.014477783203125,-0.236293226480484,0.21954087913036346,0.3685559332370758
1772806434265409800,2.024409912109375,-0.3060179650783539,0.34567004442214966,0.5210541486740112
1772806434275340800,2.0343408203125,-0.3245474696159363,0.41266506910324097,0.5963496565818787
1772806434285272800,2.04427294921875,-0.3121408522129059,0.4373339116573334,0.5875633955001831
1772806434295203600,2.05420361328125,-0.2899133265018463,0.40408408641815186,0.5165198445320129
1772806434305134800,2.064134765625,-0.25818386673927307,0.3236995041370392,0.40785831212997437
1772806434315067000,2.07406689453125,-0.22080907225608826,0.22719347476959229,0.2668050527572632
1772806434324997600,2.08399755859375,-0.18682155013084412,0.1605643779039383,0.13233406841754913
1772806434334929700,2.0939296875,-0.14369457960128784,0.13988520205020905,0.019220566377043724
1772806434344860700,2.103860595703125,-0.08682757616043091,0.147210493683815,-0.06458325684070587
1772806434354793000,2.11379296875,-0.009096292778849602,0.16269490122795105,-0.10478819906711578
1772806434364723700,2.1237236328125,0.07295037060976028,0.19956983625888824,-0.1130964607000351
1772806434374655700,2.13365576171875,0.138021782040596,0.2468569278717041,-0.0774761512875557
1772806434384586800,2.143586669921875,0.18819521367549896,0.26794809103012085,-0.03157497197389603
1772806434394518500,2.1535185546875,0.21504439413547516,0.2593871057033539,-0.005499161314219236
1772806434404449800,2.16344970703125,0.2160702496767044,0.23542183637619019,-0.006114085204899311
1772806434414380800,2.173380859375,0.20576435327529907,0.2060013711452484,-0.03732766583561897
1772806434424312800,2.183312744140625,0.20372650027275085,0.1910269409418106,-0.10172928869724274
1772806434434243600,2.19324365234375,0.21484093368053436,0.1782568246126175,-0.17569060623645782
1772806434444175600,2.203175537109375,0.23658537864685059,0.1550164818763733,-0.2478465586900711
1772806434454107000,2.21310693359375,0.25537770986557007,0.12267345190048218,-0.2739604413509369
1772806434464039000,2.223038818359375,0.26220712065696716,0.08230578899383545,-0.23414485156536102
1772806434473969700,2.2329697265625,0.2417875975370407,0.044734179973602295,-0.13736265897750854
1772806434483901700,2.242901611328125,0.20574836432933807,0.03991279378533363,0.008865130133926868
1772806434493832700,2.252832763671875,0.16378067433834076,0.04730919376015663,0.15451952815055847
1772806434503764700,2.2627646484375,0.14140745997428894,0.06524504721164703,0.24575677514076233
1772806434513695700,2.27269580078125,0.13380573689937592,0.108013816177845,0.28292039036750793
1772806434523626800,2.282626708984375,0.15543459355831146,0.13291171193122864,0.2636260390281677
1772806434533558800,2.292558837890625,0.21038386225700378,0.12300422042608261,0.19856315851211548
1772806434543489800,2.30248974609375,0.28409138321876526,0.0915813148021698,0.10239002108573914
1772806434553421800,2.312421875,0.3628184199333191,0.023970313370227814,0.0038714371621608734
1772806434563352800,2.322352783203125,0.4401251971721649,-0.04759175330400467,-0.06895217299461365
1772806434573284600,2.33228466796875,0.5132086873054504,-0.120650514960289,-0.10052713751792908
1772806434583215600,2.342215576171875,0.5585591793060303,-0.18226008117198944,-0.07543723285198212
1772806434593147600,2.352147705078125,0.5666692852973938,-0.19284188747406006,-0.012771189212799072
1772806434603079000,2.362078857421875,0.5538131594657898,-0.1686052531003952,0.058641210198402405
1772806434613010700,2.3720107421875,0.5379156470298767,-0.11460088193416595,0.10253036767244339
1772806434622941700,2.381941650390625,0.5315338969230652,-0.05149061977863312,0.11044847965240479
1772806434632872700,2.391872802734375,0.5477672219276428,-0.008708270266652107,0.06553427129983902
1772806434642804700,2.4018046875,0.585111677646637,-0.008229168131947517,-0.0322122648358345
1772806434652735700,2.41173583984375,0.638018012046814,-0.07015938311815262,-0.15059776604175568
1772806434662667800,2.421667724609375,0.6869543790817261,-0.174541175365448,-0.22870215773582458
1772806434672598800,2.431598876953125,0.7229800820350647,-0.3010391891002655,-0.2539513111114502
1772806434682530600,2.441530517578125,0.7446525692939758,-0.3926466107368469,-0.22191987931728363
1772806434692461800,2.4514619140625,0.7440752387046814,-0.42698487639427185,-0.1479487121105194
1772806434702393900,2.461393798828125,0.7546088099479675,-0.39900436997413635,-0.08870589733123779
1772806434712324600,2.47132470703125,0.7645682692527771,-0.32995128631591797,-0.058814048767089844
1772806434722256600,2.481256591796875,0.7563223242759705,-0.30577269196510315,-0.039751939475536346
1772806434732187600,2.491187744140625,0.7210695147514343,-0.3423269987106323,-0.015903333202004433
1772806434742119000,2.501118896484375,0.6379895210266113,-0.4035392105579376,0.0666637122631073
1772806434752050700,2.51105078125,0.5076155662536621,-0.4645293354988098,0.22073690593242645
1772806434761981700,2.520981689453125,0.3470524847507477,-0.4710277020931244,0.40821224451065063
1772806434771913700,2.530913818359375,0.18764765560626984,-0.4499107003211975,0.5880347490310669
1772806434781844700,2.5408447265625,0.08010762184858322,-0.419804185628891,0.7192561626434326
1772806434791776800,2.55077685546875,0.03716947138309479,-0.3768189251422882,0.7832093238830566
1772806434801707800,2.560707763671875,0.056707754731178284,-0.33955517411231995,0.7797756791114807
1772806434811639800,2.570639892578125,0.12877050042152405,-0.32980161905288696,0.7112440466880798
1772806434821570600,2.580570556640625,0.23650787770748138,-0.343478798866272,0.5926082134246826
1772806434831502600,2.590502685546875,0.3417879641056061,-0.40811479091644287,0.4400902986526489
1772806434841433900,2.600433837890625,0.4350649118423462,-0.4843009114265442,0.27223843336105347
1772806434851364600,2.610364501953125,0.4772062301635742,-0.5489850640296936,0.1204686239361763
1772806434861296600,2.620296630859375,0.46945804357528687,-0.5784407258033752,0.00714552728459239
1772806434871227600,2.6302275390625,0.4165743291378021,-0.5691558718681335,-0.0610167495906353
1772806434881159700,2.64015966796875,0.34498482942581177,-0.5394695997238159,-0.07653871923685074
1772806434891090700,2.650090576171875,0.26448357105255127,-0.5081694722175598,-0.05907503888010979
1772806434901022700,2.660022705078125,0.20851725339889526,-0.46761354804039,-0.030171750113368034
1772806434910953700,2.66995361328125,0.16706888377666473,-0.42157334089279175,-0.006352970842272043
1772806434920885800,2.6798857421875,0.1472720056772232,-0.365817129611969,-0.0009004147723317146
1772806434930816800,2.689816650390625,0.14600008726119995,-0.3168051242828369,0.001148088718764484
1772806434940748800,2.699748779296875,0.14276300370693207,-0.29354479908943176,0.004752144683152437
1772806434950679800,2.7096796875,0.12234348803758621,-0.2922190725803375,-0.011925634928047657
1772806434960611800,2.71961181640625,0.07238125801086426,-0.3053242266178131,-0.031127026304602623
1772806434970542600,2.72954248046875,0.011059841141104698,-0.3426668047904968,-0.04532726854085922
1772806434980473900,2.739473876953125,-0.0557950884103775,-0.37733903527259827,-0.05073987692594528
1772806434990406000,2.749406005859375,-0.10269735008478165,-0.3899770677089691,-0.041122134774923325
1772806435000336600,2.759336669921875,-0.1168200895190239,-0.38564595580101013,-0.015112640336155891
1772806435010268700,2.7692685546875,-0.10163501650094986,-0.3719099164009094,-0.0033691651187837124
1772806435020199700,2.77919970703125,-0.0681484267115593,-0.3424135446548462,-0.01673929952085018
1772806435030131700,2.789131591796875,-0.018148111179471016,-0.30859458446502686,-0.05384831875562668
1772806435040062700,2.799062744140625,0.02742816135287285,-0.27331915497779846,-0.0822373479604721
1772806435049994800,2.808994873046875,0.06127214431762695,-0.2551151216030121,-0.09623518586158752
1772806435059925800,2.81892578125,0.07465426623821259,-0.24930116534233093,-0.11282908171415329
1772806435069856800,2.828856689453125,0.05282539874315262,-0.2645496428012848,-0.11964144557714462
1772806435079788800,2.838788818359375,0.004463724326342344,-0.2785551846027374,-0.12213283032178879
1772806435089719800,2.8487197265625,-0.05228663980960846,-0.2735290229320526,-0.14456117153167725
1772806435099651800,2.85865185546875,-0.09878835827112198,-0.2699614465236664,-0.16914615035057068
1772806435109582600,2.86858251953125,-0.12768685817718506,-0.2473679780960083,-0.18718905746936798
1772806435119514600,2.8785146484375,-0.1295739710330963,-0.20271049439907074,-0.19602437317371368
1772806435129446000,2.88844580078125,-0.11752556264400482,-0.14125458896160126,-0.17760515213012695
1772806435139378000,2.8983779296875,-0.11435320973396301,-0.06424929201602936,-0.1339958906173706
1772806435149308700,2.90830859375,-0.12917263805866241,-0.00012543488992378116,-0.07881145924329758
1772806435159240700,2.91824072265625,-0.15522128343582153,0.038544993847608566,-0.03056403435766697
1772806435169171700,2.928171630859375,-0.19109006226062775,0.060011669993400574,0.007410245481878519
1772806435179103500,2.938103515625,-0.22455480694770813,0.04844742640852928,0.022472817450761795
1772806435189034800,2.94803466796875,-0.2579157054424286,0.01221591979265213,0.018997127190232277
1772806435198965800,2.9579658203125,-0.2712128758430481,-0.0038365498185157776,-0.00686136819422245
1772806435208897800,2.967897705078125,-0.27181100845336914,-0.02153352089226246,-0.07237513363361359
1772806435218828800,2.977828857421875,-0.2611818015575409,-0.022470155730843544,-0.15771372616291046
1772806435228760600,2.987760498046875,-0.2483150064945221,0.0182863287627697,-0.22981774806976318
1772806435238691300,2.99769140625,-0.2336532324552536,0.07832303643226624,-0.27138569951057434
1772806435248623400,3.007623291015625,-0.20257867872714996,0.13414369523525238,-0.30448904633522034
1772806435258554400,3.017554443359375,-0.16309277713298798,0.197420135140419,-0.3419986069202423
1772806435268486400,3.027486328125,-0.10751314461231232,0.24539057910442352,-0.3854355812072754
1772806435278417400,3.03741748046875,-0.031079888343811035,0.23955000936985016,-0.44275638461112976
1772806435288349400,3.047349365234375,0.057367417961359024,0.18181747198104858,-0.4975682497024536
1772806435298280400,3.057280517578125,0.13887906074523926,0.0884382501244545,-0.5298982262611389
1772806435308211200,3.067211181640625,0.19947315752506256,-0.002686064224690199,-0.5094568729400635
1772806435318143500,3.0771435546875,0.21030689775943756,-0.09372249990701675,-0.4064337909221649
1772806435328074500,3.087074462890625,0.18344226479530334,-0.16709551215171814,-0.24446940422058105
1772806435338006500,3.097006591796875,0.14084047079086304,-0.18956513702869415,-0.05693172663450241
1772806435347937300,3.106937255859375,0.0970383957028389,-0.15404441952705383,0.1359620988368988
1772806435357869300,3.116869384765625,0.058278221637010574,-0.08947049081325531,0.2752954959869385
1772806435367800600,3.126800537109375,0.013858024962246418,-0.031929969787597656,0.35628995299339294
1772806435377732600,3.136732666015625,-0.036614201962947845,0.006397712044417858,0.3872763514518738
1772806435387663400,3.146663330078125,-0.10114632546901703,0.040401753038167953,0.3704265356063843
1772806435397595400,3.156595458984375,-0.17826081812381744,0.03262478858232498,0.3106793165206909
1772806435407526400,3.1665263671875,-0.2628028690814972,0.002204830991104245,0.23133255541324615
1772806435417457400,3.17645751953125,-0.35055240988731384,-0.029397036880254745,0.16043734550476074
1772806435427389400,3.186389404296875,-0.4227682948112488,-0.04381858557462692,0.12325721979141235
1772806435437320400,3.196320556640625,-0.4611993134021759,-0.019687684252858162,0.11578013002872467
1772806435447252500,3.20625244140625,-0.46171650290489197,0.0419842004776001,0.13525742292404175
1772806435457183500,3.21618359375,-0.42823711037635803,0.10829903930425644,0.15822185575962067
1772806435467115500,3.226115478515625,-0.3799697160720825,0.17452307045459747,0.16586486995220184
1772806435477046500,3.236046630859375,-0.33969390392303467,0.23572410643100739,0.14227831363677979
1772806435486978600,3.245978515625,-0.30621132254600525,0.2571444511413574,0.0641195997595787
1772806435496909300,3.255909423828125,-0.2816777527332306,0.2612033784389496,-0.05150606855750084
1772806435506841300,3.26584130859375,-0.2687065601348877,0.23399890959262848,-0.1602858155965805
1772806435516772600,3.275772705078125,-0.25788614153862,0.18439407646656036,-0.23500879108905792
1772806435526704600,3.28570458984375,-0.23540213704109192,0.123068667948246,-0.24964392185211182
1772806435536635400,3.295635498046875,-0.21997204422950745,0.06885549426078796,-0.19931869208812714
1772806435546566400,3.30556640625,-0.22029322385787964,0.029024461284279823,-0.09715424478054047
1772806435556498400,3.31549853515625,-0.25922197103500366,0.0156553927809,0.06138240173459053
1772806435566429400,3.325429443359375,-0.3179393410682678,0.026369821280241013,0.25165486335754395
1772806435576361500,3.335361572265625,-0.40568971633911133,0.072746641933918,0.4324454367160797
1772806435586292500,3.34529248046875,-0.49794480204582214,0.12409105896949768,0.5900291800498962
1772806435596224500,3.355224609375,-0.5646892189979553,0.1943204700946808,0.7172052264213562
1772806435606155500,3.365155517578125,-0.6055732369422913,0.24425554275512695,0.7931327819824219
1772806435616087600,3.375087646484375,-0.6235370635986328,0.29307395219802856,0.827122688293457
1772806435626018600,3.3850185546875,-0.6185007691383362,0.34594783186912537,0.8208946585655212
1772806435635950300,3.394950439453125,-0.5794636607170105,0.36851251125335693,0.7543744444847107
1772806435645881300,3.40488134765625,-0.5165688395500183,0.37480929493904114,0.6399352550506592
1772806435655812600,3.4148125,-0.43163183331489563,0.3520938754081726,0.5018937587738037
1772806435665744600,3.42474462890625,-0.309482216835022,0.2983725666999817,0.3494541347026825
1772806435675675400,3.43467529296875,-0.1673136204481125,0.23352301120758057,0.19575591385364532
1772806435685607400,3.444607421875,-0.017059676349163055,0.16595567762851715,0.04590544104576111
1772806435695538400,3.454538330078125,0.12257251888513565,0.10626039654016495,-0.09628365933895111
1772806435705470200,3.46447021484375,0.2195720374584198,0.049920689314603806,-0.2274470031261444
1772806435715401500,3.4744013671875,0.25033366680145264,0.011865448206663132,-0.2996615469455719
1772806435725333500,3.48433349609375,0.20295417308807373,-0.0020058928057551384,-0.28336113691329956
1772806435735264500,3.494264404296875,0.09406577795743942,-0.009045160375535488,-0.17660459876060486
1772806435745196300,3.5041962890625,-0.05299743637442589,0.007223025429993868,0.004628840368241072
1772806435755127600,3.51412744140625,-0.23710043728351593,0.05564621835947037,0.2300446480512619
1772806435765058600,3.52405859375,-0.414041131734848,0.1628698706626892,0.44183439016342163
1772806435774990300,3.533990234375,-0.5444284081459045,0.2749263644218445,0.5941104888916016
1772806435784921300,3.54392138671875,-0.6215876340866089,0.36816683411598206,0.6837285161018372
1772806435794853400,3.553853271484375,-0.6538603901863098,0.41783079504966736,0.722739040851593
1772806435804784600,3.56378466796875,-0.6294777989387512,0.4292355179786682,0.6993980407714844
1772806435814716400,3.57371630859375,-0.5624905228614807,0.42773374915122986,0.6264095902442932
1772806435824647400,3.5836474609375,-0.4613596200942993,0.41412100195884705,0.5182839035987854
1772806435834579500,3.593579345703125,-0.3478940427303314,0.3842667043209076,0.3865833878517151
1772806435844510500,3.603510498046875,-0.2014244645833969,0.3559996485710144,0.2056753933429718
1772806435854442200,3.613442138671875,-0.02966628223657608,0.3201471269130707,-0.014049239456653595
1772806435864373500,3.62337353515625,0.14420032501220703,0.2845475673675537,-0.23296134173870087
1772806435874304500,3.633304443359375,0.31282660365104675,0.25883421301841736,-0.41558629274368286
1772806435884236300,3.643236328125,0.4579673111438751,0.23645035922527313,-0.5532211065292358
1772806435894167300,3.653167236328125,0.5581681728363037,0.20708714425563812,-0.6536518335342407
1772806435904099600,3.663099609375,0.6127480864524841,0.16086745262145996,-0.6879174113273621
1772806435914030600,3.673030517578125,0.6187021136283875,0.09290730208158493,-0.6491572260856628
1772806435923962400,3.68296240234375,0.5818833708763123,-0.00726403808221221,-0.5627539157867432
1772806435933893400,3.692893310546875,0.515468955039978,-0.11077392101287842,-0.4589545428752899
1772806435943825400,3.702825439453125,0.42563652992248535,-0.16823747754096985,-0.35605213046073914
1772806435953756400,3.71275634765625,0.3228220045566559,-0.16833175718784332,-0.23218822479248047
1772806435963688400,3.7226884765625,0.22129642963409424,-0.10898960381746292,-0.11828749626874924
1772806435973619500,3.732619384765625,0.1423129290342331,-0.03259389474987984,-0.01925492100417614
1772806435983551500,3.742551513671875,0.08723743259906769,0.020257867872714996,0.058817245066165924
1772806435993482200,3.752482177734375,0.06420828402042389,0.046543002128601074,0.10395276546478271
1772806436003413500,3.76241357421875,0.057684335857629776,0.05940420553088188,0.10986018925905228
1772806436013345500,3.772345458984375,0.05934694781899452,0.05597778037190437,0.09515341371297836
1772806436023276300,3.7822763671875,0.07337994128465652,0.028985578566789627,0.06806667149066925
1772806436033208300,3.792208251953125,0.10139372944831848,0.024588966742157936,0.027527231723070145
1772806436043139600,3.8021396484375,0.144540935754776,0.023797208443284035,-0.009710418060421944
1772806436053071600,3.812071533203125,0.20245084166526794,0.026383403688669205,-0.07099081575870514
1772806436063002400,3.82200244140625,0.2898608446121216,0.056359414011240005,-0.15761733055114746
1772806436072934400,3.831934326171875,0.3918742835521698,0.08939699083566666,-0.25783634185791016
1772806436082865400,3.841865478515625,0.4965357184410095,0.09485194087028503,-0.36272358894348145
1772806436092797400,3.85179736328125,0.5865793228149414,0.07093755900859833,-0.452224463224411
1772806436102728400,3.861728515625,0.6466996669769287,0.0234089195728302,-0.520328164100647
1772806436112660500,3.871660400390625,0.6838289499282837,-0.04770760238170624,-0.5606987476348877
1772806436122591500,3.881591552734375,0.6847719550132751,-0.13224005699157715,-0.5578941702842712
1772806436132522200,3.891522216796875,0.6759020090103149,-0.20659898221492767,-0.5395526885986328
1772806436142454300,3.901454345703125,0.6751731038093567,-0.24468351900577545,-0.5253274440765381
1772806436152385500,3.911385498046875,0.682092010974884,-0.24595651030540466,-0.5231961011886597
1772806436162317600,3.921317626953125,0.7066218256950378,-0.22613513469696045,-0.53333580493927
1772806436172248300,3.931248291015625,0.7447196841239929,-0.23247665166854858,-0.5573927164077759
1772806436182180400,3.941180419921875,0.7809985876083374,-0.2715817093849182,-0.5459349751472473
1772806436192111600,3.951111572265625,0.801192045211792,-0.3068278431892395,-0.4899364113807678
1772806436202043600,3.961043701171875,0.796333909034729,-0.30670133233070374,-0.39685627818107605
1772806436211974400,3.970974365234375,0.7545228004455566,-0.29770413041114807,-0.26709213852882385
1772806436221906400,3.980906494140625,0.6836827397346497,-0.2908611297607422,-0.08951869606971741
1772806436231836700,3.990836669921875,0.5646202564239502,-0.3188064694404602,0.1252143830060959
1772806436241767400,4.000767333984375,0.3884561359882355,-0.38201501965522766,0.371343731880188
1772806436251699500,4.010699462890625,0.17412759363651276,-0.41931071877479553,0.6488288640975952
1772806436261630500,4.02063037109375,-0.03184767812490463,-0.4087158739566803,0.9413038492202759
1772806436271562200,4.030562255859375,-0.18212665617465973,-0.36417290568351746,1.2292866706848145
1772806436281493500,4.040493408203125,-0.2440483570098877,-0.26758402585983276,1.4610189199447632
1772806436291424500,4.050424560546875,-0.1964062601327896,-0.16072842478752136,1.5942894220352173
1772806436301356500,4.0603564453125,-0.03652738407254219,-0.10687265545129776,1.5815563201904297
1772806436311287300,4.070287353515625,0.2036340832710266,-0.1228494867682457,1.3921592235565186
1772806436321219300,4.08021923828125,0.4831927716732025,-0.20525434613227844,1.0664820671081543
1772806436331150600,4.090150634765625,0.7578959465026855,-0.3326530456542969,0.632035493850708
1772806436341082400,4.100082275390625,0.9895696640014648,-0.5014391541481018,0.14768533408641815
1772806436351013400,4.110013427734375,1.1353065967559814,-0.7135362029075623,-0.30586645007133484
1772806436360945400,4.1199453125,1.1710238456726074,-0.9030443429946899,-0.6334666609764099
1772806436370876700,4.129876708984375,1.0970112085342407,-1.0053461790084839,-0.778333306312561
1772806436380808400,4.139808349609375,0.9597126841545105,-0.9910927414894104,-0.763760507106781
1772806436390739500,4.149739501953125,0.7727369666099548,-0.8537404537200928,-0.6317774653434753
1772806436400671500,4.15967138671875,0.5683934092521667,-0.6060672998428345,-0.40557172894477844
1772806436410602200,4.169602294921875,0.37705621123313904,-0.3316647410392761,-0.16100859642028809
1772806436420533500,4.179533447265625,0.2231140434741974,-0.09679951518774033,0.041420675814151764
1772806436430465500,4.189465576171875,0.1143777072429657,0.04366385564208031,0.16670988500118256
1772806436440396500,4.199396484375,0.045517683029174805,0.08136569708585739,0.21925032138824463
1772806436450328300,4.209328369140625,0.014643125236034393,0.020475713536143303,0.20740005373954773
1772806436460259300,4.21925927734375,0.007880027405917645,-0.09512758255004883,0.17026680707931519
1772806436470191400,4.22919140625,0.018582206219434738,-0.22199897468090057,0.1267680674791336
1772806436480122400,4.239122314453125,0.028659608215093613,-0.30483368039131165,0.09604477137327194
1772806436490054400,4.249054443359375,0.030104106292128563,-0.3319113552570343,0.08634394407272339
1772806436499985400,4.2589853515625,0.03358326107263565,-0.327555775642395,0.07228165119886398
1772806436509917400,4.26891748046875,0.039381492882966995,-0.29249364137649536,0.053279466927051544
1772806436519848400,4.278848388671875,0.05043361335992813,-0.24220997095108032,0.025947177782654762
1772806436529779500,4.288779541015625,0.07318633049726486,-0.2029363363981247,-0.02538684941828251
1772806436539711500,4.29871142578125,0.08737538754940033,-0.19662624597549438,-0.08685899525880814
1772806436549642200,4.308642333984375,0.09604344516992569,-0.21120359003543854,-0.15144091844558716
1772806436559574300,4.31857421875,0.10400469601154327,-0.23195227980613708,-0.1976073533296585
1772806436569505500,4.328505615234375,0.11018509417772293,-0.2698003351688385,-0.22049802541732788
1772806436579437600,4.3384375,0.10282544791698456,-0.29403403401374817,-0.21708092093467712
1772806436589368300,4.348368408203125,0.08122002333402634,-0.29512885212898254,-0.19396601617336273
1772806436599300400,4.35830029296875,0.03575639799237251,-0.24907134473323822,-0.15472805500030518
1772806436609232400,4.368232421875,-0.024831047281622887,-0.16714425384998322,-0.08669894188642502
1772806436619163400,4.378163330078125,-0.09010672569274902,-0.0949866995215416,-0.024281371384859085
1772806436629095700,4.388095703125,-0.1716252863407135,-0.018022943288087845,0.014972025528550148
1772806436639026400,4.3980263671875,-0.24238866567611694,0.05934667959809303,0.03662858530879021
1772806436648957400,4.40795751953125,-0.2808745503425598,0.08231085538864136,0.025297366082668304
1772806436658889500,4.417889404296875,-0.2986532747745514,0.06437180191278458,0.006746053230017424
1772806436668820500,4.427820556640625,-0.3074265122413635,0.04362098127603531,-0.018267421051859856
1772806436678752500,4.43775244140625,-0.3038429617881775,0.008381500840187073,-0.052988648414611816
1772806436688683500,4.44768359375,-0.3262558877468109,0.0037729002069681883,-0.06686851382255554
1772806436698615600,4.457615478515625,-0.3645673096179962,0.03208762779831886,-0.0459698885679245
1772806436708546300,4.46754638671875,-0.40097352862358093,0.07990974932909012,-0.0037976677995175123
1772806436718478300,4.477478271484375,-0.4260493218898773,0.11706004291772842,0.0251570176333189
1772806436728409600,4.48740966796875,-0.4316725730895996,0.16516339778900146,0.07403028756380081
1772806436738341400,4.49734130859375,-0.4314861595630646,0.19128793478012085,0.15300659835338593
1772806436748272400,4.5072724609375,-0.4218260645866394,0.19211192429065704,0.2382059097290039
1772806436758203400,4.517203369140625,-0.3934948444366455,0.1688569337129593,0.3047950565814972
1772806436768135400,4.527135498046875,-0.3579501509666443,0.10989826917648315,0.339138925075531
1772806436778066400,4.53706640625,-0.30408239364624023,0.02141394466161728,0.3260452151298523
1772806436787998500,4.54699853515625,-0.24117879569530487,-0.08145677298307419,0.2720775902271271
1772806436797929500,4.556929443359375,-0.19505657255649567,-0.18062463402748108,0.2094312459230423
1772806436807861200,4.566861328125,-0.16970621049404144,-0.27026742696762085,0.16830246150493622
1772806436817792500,4.57679248046875,-0.18137352168560028,-0.3253389596939087,0.1689394861459732
1772806436827724500,4.586724609375,-0.21634401381015778,-0.32146698236465454,0.20494648814201355
1772806436837655600,4.596655517578125,-0.2664601802825928,-0.25319764018058777,0.2686391770839691
1772806436847587300,4.60658740234375,-0.30937063694000244,-0.15995371341705322,0.3225215971469879
1772806436857518300,4.616518310546875,-0.33905234932899475,-0.08071988075971603,0.35309574007987976
1772806436867450400,4.626450439453125,-0.3581347167491913,-0.06398484110832214,0.3517953157424927
1772806436877381400,4.63638134765625,-0.3546920418739319,-0.07279324531555176,0.29625189304351807
1772806436887312400,4.6463125,-0.3320154845714569,-0.07763194292783737,0.19597163796424866
1772806436897244400,4.656244384765625,-0.3014381527900696,-0.05776476114988327,0.07683485746383667
1772806436907175400,4.666175537109375,-0.2626042068004608,0.0029324067290872335,-0.042943473905324936
1772806436917107500,4.676107421875,-0.2289479672908783,0.06156376004219055,-0.12861549854278564
1772806436927038500,4.68603857421875,-0.207601398229599,0.05726701766252518,-0.13410453498363495
1772806436936970500,4.695970458984375,-0.22054249048233032,-0.002834402257576585,-0.05910220369696617
1772806436946901200,4.7059013671875,-0.2859177589416504,-0.07815871387720108,0.1072889044880867
1772806436956833300,4.715833251953125,-0.39620593190193176,-0.11937033385038376,0.3405543863773346
1772806436966764500,4.7257646484375,-0.5352455973625183,-0.10323956608772278,0.5761938095092773
1772806436976696600,4.735696533203125,-0.6537037491798401,-0.023273097351193428,0.7737619876861572
1772806436986627300,4.74562744140625,-0.7275061011314392,0.09398215264081955,0.9161157011985779
1772806436996559400,4.755559326171875,-0.7430784106254578,0.24712030589580536,0.9865946769714355
1772806437006490400,4.765490478515625,-0.7061116099357605,0.3911565840244293,0.9737158417701721
1772806437016421600,4.775421630859375,-0.6308197379112244,0.5123538374900818,0.8775994777679443
1772806437026353400,4.785353515625,-0.5171406269073486,0.5812641978263855,0.6864454746246338
1772806437036284400,4.795284423828125,-0.35990890860557556,0.5773661136627197,0.4020316004753113
1772806437046216400,4.805216552734375,-0.18113942444324493,0.4982263147830963,0.07162784785032272
1772806437056147500,4.8151474609375,-0.006903712637722492,0.38042402267456055,-0.2339419275522232
1772806437066079500,4.82507958984375,0.12767034769058228,0.2555263042449951,-0.4784350097179413
1772806437076010500,4.835010498046875,0.20971886813640594,0.13979864120483398,-0.6370230913162231
1772806437085942500,4.844942626953125,0.24195058643817902,0.05480172857642174,-0.6979734897613525
1772806437095873300,4.854873291015625,0.2261234074831009,0.022418756037950516,-0.6551749110221863
1772806437105805300,4.864805419921875,0.15996064245700836,0.011611915193498135,-0.508373498916626
1772806437115736600,4.874736572265625,0.06215684860944748,0.04084010794758797,-0.3031558692455292
1772806437125668600,4.884668701171875,-0.05445418879389763,0.09948664158582687,-0.0706012025475502
1772806437135599400,4.894599365234375,-0.18052716553211212,0.16353513300418854,0.13677462935447693
1772806437145530400,4.9045302734375,-0.3011268079280853,0.2202111929655075,0.27238333225250244
1772806437155462400,4.91446240234375,-0.4118221700191498,0.26653262972831726,0.33893731236457825
1772806437165393400,4.924393310546875,-0.5036197304725647,0.3113134205341339,0.3650360405445099
1772806437175325400,4.934325439453125,-0.572700023651123,0.34627723693847656,0.3655199110507965
1772806437185256400,4.94425634765625,-0.60805743932724,0.3675442039966583,0.3635057806968689
1772806437195188500,4.9541884765625,-0.5950745344161987,0.3741195499897003,0.3452620506286621
1772806437205119500,4.964119384765625,-0.5533332228660583,0.3838142454624176,0.3194746673107147
1772806437215051500,4.974051513671875,-0.5000755786895752,0.4070708155632019,0.2839864492416382
1772806437224982500,4.983982421875,-0.4066615104675293,0.42463091015815735,0.2304696887731552
1772806437234914800,4.993914794921875,-0.28153395652770996,0.38685449957847595,0.13534477353096008
1772806437244845800,5.003845703125,-0.14061543345451355,0.31895482540130615,0.02334766648709774
1772806437254776800,5.01377685546875,0.013578658923506737,0.23142416775226593,-0.10140971094369888
1772806437264708900,5.023708984375,0.18055939674377441,0.13098038733005524,-0.23342101275920868
1772806437274640000,5.033639892578125,0.33632367849349976,0.034138262271881104,-0.354571670293808
1772806437284572000,5.043572021484375,0.4606752097606659,-0.05313805118203163,-0.4544953405857086
1772806437294502700,5.053502685546875,0.5593897700309753,-0.12350542843341827,-0.5416464805603027
1772806437304434700,5.0634345703125,0.6293968558311462,-0.1738801896572113,-0.6183055639266968
1772806437314366000,5.073365966796875,0.6772224307060242,-0.2146126925945282,-0.6972733736038208
1772806437324298000,5.083298095703125,0.7022875547409058,-0.23103854060173035,-0.7543755173683167
1772806437334228700,5.093228759765625,0.6898503303527832,-0.24911954998970032,-0.77504563331604
1772806437344160800,5.103160888671875,0.6458452939987183,-0.2764987051486969,-0.7393550276756287
1772806437354091800,5.113091796875,0.5595604777336121,-0.2957397699356079,-0.635026216506958
1772806437364023800,5.12302392578125,0.4478720426559448,-0.29032984375953674,-0.47740277647972107
1772806437373954800,5.132954833984375,0.3333556056022644,-0.254713237285614,-0.30292606353759766
1772806437383886800,5.142886962890625,0.25173237919807434,-0.17400561273097992,-0.13618047535419464
1772806437393817900,5.15281787109375,0.2268536537885666,-0.10612883418798447,-0.01782373897731304
1772806437403748900,5.162748779296875,0.26522552967071533,-0.050454117357730865,0.0248494241386652
1772806437413681000,5.172680908203125,0.3593110144138336,-0.031188013032078743,0.005623264703899622
1772806437423612000,5.18261181640625,0.48852813243865967,-0.07633551955223083,-0.06960543990135193
1772806437433544000,5.1925439453125,0.6177095770835876,-0.1838100403547287,-0.18107657134532928
1772806437443474700,5.202474609375,0.7130514979362488,-0.3328282833099365,-0.2987672686576843
1772806437453406700,5.21240673828125,0.7703899145126343,-0.45974230766296387,-0.407622367143631
1772806437463338000,5.222337890625,0.7848215699195862,-0.5498005747795105,-0.47594842314720154
1772806437473269800,5.232269775390625,0.7974241971969604,-0.5746672749519348,-0.48845863342285156
1772806437483200800,5.24220068359375,0.8102757930755615,-0.5391071438789368,-0.45220687985420227
1772806437493132800,5.2521328125,0.8329946994781494,-0.47043755650520325,-0.3899184763431549
1772806437503063800,5.262063720703125,0.8608289957046509,-0.41047701239585876,-0.32733872532844543
1772806437512995800,5.271995849609375,0.8719295859336853,-0.3746582865715027,-0.2845100164413452
1772806437522926800,5.2819267578125,0.8609102368354797,-0.3547287881374359,-0.25763580203056335
1772806437532857900,5.29185791015625,0.8287120461463928,-0.3549184203147888,-0.25005245208740234
1772806437542789600,5.30178955078125,0.793118417263031,-0.37007632851600647,-0.24222807586193085
1772806437552721000,5.311720947265625,0.762490451335907,-0.38192445039749146,-0.23043987154960632
1772806437562653000,5.32165283203125,0.7544703483581543,-0.365408331155777,-0.22699986398220062
1772806437572584000,5.331583984375,0.7646673321723938,-0.335893839597702,-0.24047546088695526
1772806437582515700,5.341515625,0.7904490828514099,-0.31214699149131775,-0.24747557938098907
1772806437592446700,5.35144677734375,0.819953441619873,-0.3026147186756134,-0.23117755353450775
1772806437602378800,5.361378662109375,0.8422382473945618,-0.2892685532569885,-0.18848522007465363
1772806437612310000,5.37131005859375,0.8791715502738953,-0.2985574007034302,-0.14387807250022888
1772806437622241800,5.38124169921875,0.9225200414657593,-0.32767799496650696,-0.11356757581233978
1772806437632172800,5.3911728515625,0.9795072078704834,-0.3865184187889099,-0.11425759643316269
1772806437642104800,5.401104736328125,1.0412698984146118,-0.47713619470596313,-0.154385045170784
1772806437652035800,5.411035888671875,1.0907807350158691,-0.5763933062553406,-0.22322162985801697
1772806437661966800,5.420966796875,1.112844467163086,-0.678287148475647,-0.30646219849586487
1772806437671899000,5.43089892578125,1.105580449104309,-0.7633357048034668,-0.3853791058063507
1772806437681830000,5.440829833984375,1.0744377374649048,-0.8327541947364807,-0.4538559019565582
1772806437691761700,5.45076171875,1.0046825408935547,-0.8046571016311646,-0.4810057580471039
1772806437701693000,5.46069287109375,0.8955020308494568,-0.7441577911376953,-0.4550181031227112
1772806437711625000,5.470625,0.777513325214386,-0.6825404763221741,-0.3504677414894104
1772806437721555700,5.4805556640625,0.6427608728408813,-0.6373804807662964,-0.17192116379737854
1772806437731487700,5.49048779296875,0.4808289408683777,-0.5854541659355164,0.062135543674230576
1772806437741418800,5.500418701171875,0.28961291909217834,-0.49813202023506165,0.3089357316493988
1772806437751350800,5.510350830078125,0.07042383402585983,-0.35526514053344727,0.5333083868026733
1772806437761281800,5.52028173828125,-0.12813585996627808,-0.19304722547531128,0.7058489918708801
1772806437771213800,5.5302138671875,-0.28398483991622925,-0.03882036730647087,0.8051478862762451
1772806437781144800,5.540144775390625,-0.37453579902648926,0.0726395845413208,0.8066709637641907
1772806437791075600,5.55007568359375,-0.38945454359054565,0.12947197258472443,0.7301756739616394
1772806437801007900,5.5600078125,-0.3389359712600708,0.11017976701259613,0.5875926613807678
1772806437810939000,5.56993896484375,-0.2347392737865448,0.03374304994940758,0.3888484239578247
1772806437820871000,5.579870849609375,-0.10604707151651382,-0.07634110748767853,0.14968723058700562
1772806437830801700,5.5898017578125,0.0001496696495451033,-0.19910190999507904,-0.0732736811041832
1772806437840733700,5.599733642578125,0.038783613592386246,-0.29252001643180847,-0.23272699117660522
1772806437850665000,5.6096650390625,0.0038099181838333607,-0.3511364459991455,-0.32601192593574524
1772806437860597000,5.619596923828125,-0.09056132286787033,-0.35687264800071716,-0.33783581852912903
1772806437870527700,5.62952783203125,-0.2403489500284195,-0.268720418214798,-0.26382073760032654
1772806437880459800,5.639459716796875,-0.42127132415771484,-0.10264834761619568,-0.1500464826822281
1772806437890390800,5.649390869140625,-0.5918880701065063,0.06848611682653427,-0.016404805704951286
1772806437900322800,5.65932275390625,-0.7248309254646301,0.21133701503276825,0.1285366714000702
1772806437910253800,5.66925390625,-0.7976087331771851,0.3005260229110718,0.25329405069351196
1772806437920184800,5.679184814453125,-0.8183249235153198,0.3542979061603546,0.3613233268260956
1772806437930116900,5.689116943359375,-0.82240891456604,0.36711329221725464,0.44085195660591125
1772806437940047600,5.699047607421875,-0.8201694488525391,0.36562246084213257,0.4871358275413513
1772806437949980000,5.70897998046875,-0.8046091198921204,0.3477790057659149,0.5168377757072449
1772806437959911000,5.718910888671875,-0.7897402048110962,0.3212536573410034,0.5384315252304077
1772806437969843000,5.728843017578125,-0.7684205174446106,0.3082915246486664,0.5759445428848267
1772806437979773700,5.738773681640625,-0.7351847887039185,0.30444884300231934,0.6361562013626099
1772806437989705700,5.748705810546875,-0.6823689937591553,0.32787054777145386,0.6987453103065491
1772806437999637000,5.758636962890625,-0.6153832674026489,0.332832008600235,0.7429236769676208
1772806438009569000,5.768569091796875,-0.5484527349472046,0.30209141969680786,0.7200630903244019
1772806438019499800,5.778499755859375,-0.47993889451026917,0.24960529804229736,0.6285475492477417
1772806438029430800,5.7884306640625,-0.41692879796028137,0.16101685166358948,0.5049140453338623
1772806438039362800,5.79836279296875,-0.38648751378059387,0.05757381394505501,0.40716084837913513
1772806438049293800,5.8082939453125,-0.38385364413261414,-0.027952006086707115,0.3298061192035675
1772806438059225900,5.818225830078125,-0.4058454930782318,-0.06583653390407562,0.2816026508808136
1772806438069156900,5.828156982421875,-0.44842520356178284,-0.03656972944736481,0.2608121633529663
1772806438079089000,5.8380888671875,-0.5036495923995972,0.048894837498664856,0.24915602803230286
1772806438089019600,5.84801953125,-0.5578345060348511,0.1697445660829544,0.2339658886194229
1772806438098952000,5.857951904296875,-0.6070199012756348,0.2938268184661865,0.20513451099395752
1772806438108883000,5.867883056640625,-0.638903021812439,0.3690648674964905,0.16251727938652039
1772806438118814700,5.877814697265625,-0.6547365784645081,0.379417359828949,0.09562612324953079
1772806438128745700,5.887745849609375,-0.6660536527633667,0.3769526183605194,0.01937396451830864
1772806438138677800,5.897677734375,-0.6829471588134766,0.3639393448829651,-0.03383519500494003
1772806438148609000,5.907609130859375,-0.7245867252349854,0.35967934131622314,-0.0426475964486599
1772806438158539800,5.917539794921875,-0.792072057723999,0.3836507201194763,-0.007167099043726921
1772806438168471800,5.927471923828125,-0.873742401599884,0.4148315489292145,0.05187305063009262
1772806438178402800,5.93740283203125,-0.935836911201477,0.4654547870159149,0.1258426159620285
1772806438188334600,5.94733447265625,-0.9870237112045288,0.5215848684310913,0.20804481208324432
1772806438198265900,5.957265869140625,-1.0204393863677979,0.5559788346290588,0.26574644446372986
1772806438208198000,5.967197998046875,-1.027976155281067,0.5423194766044617,0.28232064843177795
1772806438218129000,5.97712890625,-1.0280656814575195,0.5065276622772217,0.2840796709060669
1772806438228060700,5.987060791015625,-1.0487794876098633,0.44900068640708923,0.29427316784858704
1772806438237992000,5.996991943359375,-1.0719218254089355,0.37353524565696716,0.2969387173652649
1772806438247924000,6.006924072265625,-1.086782455444336,0.31257733702659607,0.28389349579811096
1772806438257855000,6.01685498046875,-1.0958985090255737,0.2863287031650543,0.2724429666996002
1772806438267787000,6.026787109375,-1.0943711996078491,0.28585225343704224,0.2824745774269104
1772806438277718000,6.036718017578125,-1.0897982120513916,0.3104926347732544,0.31428471207618713
1772806438287649800,6.04664990234375,-1.0772608518600464,0.3714846074581146,0.33739641308784485
1772806438297581000,6.0565810546875,-1.0485656261444092,0.43985408544540405,0.34253498911857605
1772806438307512000,6.066511962890625,-0.9807636737823486,0.4532492458820343,0.2988594174385071
1772806438317444000,6.076444091796875,-0.8998181819915771,0.38669124245643616,0.2225523740053177
1772806438327374800,6.086374755859375,-0.8315219879150391,0.2726946473121643,0.15777525305747986
1772806438337307000,6.096306884765625,-0.7913708090782166,0.12113068252801895,0.1049322709441185
1772806438347238100,6.106238037109375,-0.7773841619491577,-0.010910172015428543,0.08294974267482758
1772806438357170000,6.116169921875,-0.7852231860160828,-0.09572625905275345,0.08510610461235046
1772806438367101000,6.126100830078125,-0.8036871552467346,-0.1295878142118454,0.12469799071550369
1772806438377033000,6.136032958984375,-0.8195710182189941,-0.08263735473155975,0.17624373733997345
1772806438386964000,6.1459638671875,-0.8150087594985962,-0.013236443512141705,0.22462725639343262
1772806438396896000,6.15589599609375,-0.8072549700737,0.1289910078048706,0.3308170735836029
1772806438406827000,6.165826904296875,-0.8433554768562317,0.21086829900741577,0.4711664617061615
1772806438416759000,6.175759033203125,-0.6506850719451904,0.1290421336889267,0.34710922837257385
1772806438426689800,6.185689697265625,-0.4299154281616211,-0.12927941977977753,0.13475382328033447
1772806438436621000,6.19562109375,-0.28766295313835144,-0.25913703441619873,-0.08755648136138916
1772806438446553000,6.205552978515625,-0.24922128021717072,-0.3779906928539276,-0.3423251211643219
1772806438456484000,6.215484130859375,-0.24274685978889465,-0.5768683552742004,-0.6060835123062134
1772806438466415900,6.225415771484375,-0.24840661883354187,-0.7534950971603394,-0.7624358534812927
1772806438476347000,6.235346923828125,-0.2621826231479645,-0.8078075647354126,-0.7073664665222168
1772806438486279000,6.24527880859375,-0.3141920268535614,-0.7229816317558289,-0.48059192299842834
1772806438496210200,6.255210205078125,-0.3886271119117737,-0.5692797303199768,-0.22017870843410492
1772806438506142000,6.265141845703125,-0.43510138988494873,-0.4288637340068817,-0.022937273606657982
1772806438516073000,6.275072998046875,-0.4091819226741791,-0.2913631498813629,0.10556583851575851
1772806438526005000,6.2850048828125,-0.3121930658817291,-0.09232806414365768,0.16579562425613403
1772806438535936000,6.29493603515625,-0.16950461268424988,0.1435968428850174,0.20359572768211365
1772806438545868000,6.304867919921875,-0.022470688447356224,0.41468745470046997,0.23599335551261902
1772806438555799000,6.314799072265625,0.09528949856758118,0.5986799597740173,0.2735937237739563
1772806438565730000,6.32472998046875,0.15392431616783142,0.6021974682807922,0.28189826011657715
1772806438575661800,6.334661865234375,0.1464962363243103,0.5029776692390442,0.26935875415802
1772806438585593000,6.344593017578125,0.0721314549446106,0.33883026242256165,0.21535705029964447
1772806438595525000,6.354525146484375,-0.038130342960357666,0.1811647266149521,0.13630270957946777
1772806438605456000,6.364455810546875,-0.14219628274440765,0.07693446427583694,0.06030594930052757
1772806438615388000,6.374387939453125,-0.20597420632839203,0.04717789962887764,0.002133192028850317
1772806438625319000,6.38431884765625,-0.20798195898532867,0.0635419562458992,-0.017110010609030724
1772806438635251000,6.3942509765625,-0.15422844886779785,0.09484395384788513,-0.025601500645279884
1772806438645182000,6.404181884765625,-0.0927610993385315,0.08970165997743607,-0.034753452986478806
1772806438655114000,6.414114013671875,-0.057727742940187454,0.08113080263137817,-0.012736568227410316
1772806438665045000,6.424044921875,-0.05919594690203667,0.1204313412308693,0.027065971866250038
1772806438674977000,6.43397705078125,-0.08399184048175812,0.20572306215763092,0.06234167143702507
1772806438684908000,6.443907958984375,-0.13473331928253174,0.32983994483947754,0.06880063563585281
1772806438694839000,6.453839111328125,-0.18839547038078308,0.43754592537879944,0.013786385767161846
1772806438704771000,6.46377099609375,-0.22373536229133606,0.49014440178871155,-0.06715933233499527
1772806438714701800,6.473701904296875,-0.22689013183116913,0.4637002944946289,-0.15696218609809875
1772806438724633900,6.4836337890625,-0.20587725937366486,0.3572803735733032,-0.2546192407608032
1772806438734565000,6.493565185546875,-0.15185850858688354,0.19200246036052704,-0.36600354313850403
1772806438744497200,6.5034970703125,-0.08567948639392853,0.035182755440473557,-0.4545038640499115
1772806438754428000,6.513427978515625,-0.016636233776807785,-0.0864747017621994,-0.48614832758903503
1772806438764360000,6.52335986328125,0.02749633975327015,-0.14279283583164215,-0.4731430411338806
1772806438774291000,6.533291015625,0.04569345340132713,-0.14658677577972412,-0.4246029555797577
1772806438784223000,6.543222900390625,0.036671195179224014,-0.12547031044960022,-0.3367929458618164
1772806438794154000,6.553154052734375,0.013229519128799438,-0.08910590410232544,-0.21396900713443756
1772806438804086000,6.5630859375,-0.03416303172707558,-0.03313664719462395,-0.08271724730730057
1772806438814017000,6.57301708984375,-0.08249727636575699,0.006077599711716175,0.004959338344633579
1772806438823948000,6.582947998046875,-0.11622354388237,0.004799282643944025,0.026271818205714226
1772806438833880000,6.592880126953125,-0.12454325705766678,-0.02586754970252514,-0.008082693442702293
1772806438843811000,6.60281103515625,-0.08980418741703033,-0.0655640959739685,-0.10207443684339523
1772806438853743000,6.6127431640625,-0.022417956963181496,-0.08617269992828369,-0.22016938030719757
1772806438863673900,6.622673828125,0.06547141820192337,-0.0982019305229187,-0.3220454156398773
1772806438873606000,6.63260595703125,0.1618373692035675,-0.0985121950507164,-0.38457778096199036
1772806438883537200,6.642537109375,0.24279241263866425,-0.10988815128803253,-0.41240832209587097
1772806438893469200,6.65246923828125,0.28944912552833557,-0.09778248518705368,-0.40398767590522766
1772806438903400000,6.66239990234375,0.30197903513908386,-0.05246959999203682,-0.3714001774787903
1772806438913332000,6.67233203125,0.3057228922843933,-0.011137339286506176,-0.32730409502983093
1772806438923263000,6.682262939453125,0.3086435794830322,-0.01600906066596508,-0.2900230288505554
1772806438933194800,6.69219482421875,0.32724815607070923,-0.05632665380835533,-0.2733132839202881
1772806438943126000,6.7021259765625,0.35666623711586,-0.11309246718883514,-0.2717097997665405
1772806438953058000,6.71205810546875,0.395289808511734,-0.18196234107017517,-0.2895532548427582
1772806438962989000,6.721989013671875,0.43325236439704895,-0.22519449889659882,-0.30920419096946716
1772806438972920000,6.731920166015625,0.45394378900527954,-0.2412421852350235,-0.314336359500885
1772806438982852000,6.74185205078125,0.4588804841041565,-0.24592295289039612,-0.31287163496017456
1772806438992783000,6.751783203125,0.4495503902435303,-0.24401293694972992,-0.3112305700778961
1772806439002715000,6.76171484375,0.4455987811088562,-0.24329334497451782,-0.3215404748916626
1772806439012646000,6.77164599609375,0.45048728585243225,-0.2529086768627167,-0.33786964416503906
1772806439022578000,6.781577880859375,0.4713483452796936,-0.2575729489326477,-0.3505159318447113
1772806439032509200,6.79150927734375,0.5090429782867432,-0.24227654933929443,-0.3437669575214386
1772806439042441000,6.80144091796875,0.5437168478965759,-0.2701433300971985,-0.32991477847099304
1772806439052372000,6.8113720703125,0.5716192722320557,-0.2923242747783661,-0.31709885597229004
1772806439062304000,6.821303955078125,0.590349555015564,-0.3141920268535614,-0.3037084937095642
1772806439072234800,6.83123486328125,0.5981014966964722,-0.33382484316825867,-0.30048444867134094
1772806439082166000,6.841166015625,0.5975621938705444,-0.3399447798728943,-0.30868300795555115
1772806439092098000,6.85109814453125,0.6032006740570068,-0.3482173681259155,-0.3142543435096741
1772806439102029000,6.861029052734375,0.6109176874160767,-0.3600521981716156,-0.3310908377170563
1772806439111960800,6.8709609375,0.6229562759399414,-0.3577738404273987,-0.3400353491306305
1772806439121892000,6.88089208984375,0.6356118321418762,-0.3450298309326172,-0.3403674364089966
1772806439131824000,6.89082421875,0.6503149271011353,-0.31988054513931274,-0.3353082239627838
1772806439141755000,6.9007548828125,0.6757041215896606,-0.29601994156837463,-0.3095211088657379
1772806439151687000,6.91068701171875,0.7162121534347534,-0.29467931389808655,-0.26421913504600525
1772806439161618000,6.920617919921875,0.7570956945419312,-0.29766204953193665,-0.19152815639972687
1772806439171550000,6.930550048828125,0.7936744689941406,-0.29848310351371765,-0.1040148138999939
1772806439181481000,6.94048095703125,0.8119064569473267,-0.3045569658279419,-0.027710722759366035
1772806439191413000,6.9504130859375,0.8113996386528015,-0.3142261207103729,0.007218764163553715
1772806439201344000,6.960343994140625,0.8066262006759644,-0.327749639749527,0.015570437535643578
1772806439211276000,6.970276123046875,0.7860543727874756,-0.3560928702354431,-0.008225439116358757
1772806439221206800,6.980206787109375,0.7839989066123962,-0.39659661054611206,-0.03242185711860657
1772806439231137500,6.990137451171875,0.7978399395942688,-0.4415755271911621,-0.053048036992549896
1772806439241069600,7.000069580078125,0.815694272518158,-0.4474922716617584,-0.0664685070514679
1772806439251000600,7.01000048828125,0.8312090635299683,-0.44022053480148315,-0.045697979629039764
1772806439260932600,7.0199326171875,0.8170793652534485,-0.4490393102169037,-0.015082546509802341
1772806439270863600,7.029863525390625,0.7806433439254761,-0.4793652594089508,0.0006133259739726782
1772806439280795600,7.039795654296875,0.753975510597229,-0.4071142375469208,0.10008132457733154
1772806439290726700,7.0497265625,0.7206109166145325,-0.26900508999824524,0.2247641384601593
1772806439300658700,7.05965869140625,0.6986773610115051,-0.128571018576622,0.3288995921611786
1772806439310589400,7.06958935546875,0.6889709830284119,-0.012827381491661072,0.4046420156955719
1772806439320521500,7.079521484375,0.7147706151008606,0.04183186963200569,0.4097464978694916
1772806439330452700,7.08945263671875,0.7807525396347046,-0.006331931799650192,0.30904653668403625
1772806439340384800,7.099384765625,0.8788836598396301,-0.11356864124536514,0.13729287683963776
1772806439350315500,7.1093154296875,0.9835935235023499,-0.2021365910768509,-0.05263178423047066
1772806439360246800,7.119246826171875,1.0802258253097534,-0.2821485996246338,-0.27087491750717163
1772806439370178800,7.1291787109375,1.156092882156372,-0.35630059242248535,-0.46574026346206665
1772806439380109600,7.139109619140625,1.1886662244796753,-0.38691282272338867,-0.5605543851852417
1772806439390041600,7.14904150390625,1.1801971197128296,-0.37117356061935425,-0.5735847353935242
1772806439399972600,7.15897265625,1.1578305959701538,-0.33459022641181946,-0.520102322101593
1772806439409904600,7.168904541015625,1.1107618808746338,-0.28117334842681885,-0.4293135404586792
1772806439419835600,7.178835693359375,1.0207486152648926,-0.2392706423997879,-0.2773871421813965
1772806439429767700,7.188767578125,0.855148196220398,-0.24577434360980988,-0.08038458973169327
1772806439439698700,7.19869873046875,0.6281488537788391,-0.25427302718162537,0.13521693646907806
1772806439449630500,7.20863037109375,0.38393300771713257,-0.2411620169878006,0.3546387851238251
1772806439459561500,7.2185615234375,0.1971154659986496,-0.1908852607011795,0.5450534820556641
1772806439469493500,7.228493408203125,0.13538286089897156,-0.11266183108091354,0.6658600568771362
1772806439479424800,7.2384248046875,0.19483420252799988,-0.020613398402929306,0.6900290250778198
1772806439489355500,7.24835546875,0.4611585736274719,-0.015540343709290028,0.4844135642051697
1772806439499287600,7.25828759765625,0.7204159498214722,-0.12682053446769714,0.19583635032176971
1772806439509218800,7.26821875,0.948689877986908,-0.20013682544231415,-0.07050292938947678
1772806439519150600,7.278150634765625,1.079677939414978,-0.2733535170555115,-0.3013595640659332
1772806439529081600,7.28808154296875,1.0747686624526978,-0.3384864330291748,-0.43400150537490845
1772806439539013600,7.298013671875,0.9644363522529602,-0.35304275155067444,-0.48222389817237854
1772806439548944600,7.307944580078125,0.7732411026954651,-0.33998551964759827,-0.4832526743412018
1772806439558876400,7.31787646484375,0.5552014112472534,-0.31293952465057373,-0.4489285349845886
1772806439568807700,7.3278076171875,0.35818904638290405,-0.26212188601493835,-0.38992780447006226
1772806439578739700,7.33773974609375,0.22790692746639252,-0.2061031013727188,-0.3268798589706421
1772806439588670500,7.34767041015625,0.16466005146503448,-0.1694641262292862,-0.2753277122974396
1772806439598602500,7.3576025390625,0.1560993194580078,-0.14101570844650269,-0.18809933960437775
1772806439608533500,7.367533447265625,0.14233024418354034,-0.12067661434412003,-0.06942620873451233
1772806439618464800,7.37746484375,0.078714519739151,-0.08935011923313141,0.0697852075099945
1772806439628396500,7.387396484375,-0.030547788366675377,-0.0502900667488575,0.1975032240152359
1772806439638327600,7.39732763671875,-0.16210661828517914,-0.039390549063682556,0.27281928062438965
1772806439648259600,7.407259521484375,-0.28007373213768005,-0.048530783504247665,0.29769372940063477
1772806439658190600,7.417190673828125,-0.3723067343235016,-0.06684134900569916,0.2750707268714905
1772806439668122600,7.42712255859375,-0.43252265453338623,-0.06969758868217468,0.2320215106010437
1772806439678053600,7.4370537109375,-0.45183083415031433,-0.0731370598077774,0.17005188763141632
1772806439687985700,7.446985595703125,-0.42492517828941345,-0.08034437149763107,0.10654907673597336
1772806439697916400,7.45691650390625,-0.35594746470451355,-0.06920836865901947,0.06129717826843262
1772806439707848400,7.466848388671875,-0.281758189201355,-0.01762613095343113,0.043901942670345306
1772806439717779700,7.47677978515625,-0.2215811312198639,0.07615894824266434,0.04213413596153259
1772806439727711700,7.486711669921875,-0.1742817908525467,0.20992979407310486,0.06975085288286209
1772806439737642500,7.496642578125,-0.1659516841173172,0.35003843903541565,0.11524110287427902
1772806439747574500,7.506574462890625,-0.17922727763652802,0.4428431987762451,0.15224146842956543
1772806439757505500,7.516505615234375,-0.2034790813922882,0.5075294971466064,0.19389091432094574
1772806439767436500,7.5264365234375,-0.24623987078666687,0.5696962475776672,0.2387728989124298
1772806439777368600,7.53636865234375,-0.3139975965023041,0.592140257358551,0.2890682816505432
1772806439787299600,7.546299560546875,-0.3874609172344208,0.5715212821960449,0.30488401651382446
1772806439797231600,7.556231689453125,-0.4620336890220642,0.5030056238174438,0.2731947898864746
1772806439807162600,7.56616259765625,-0.53192138671875,0.39564719796180725,0.19460517168045044
1772806439817094700,7.5760947265625,-0.5929131507873535,0.27440333366394043,0.08657217770814896
1772806439827025700,7.586025634765625,-0.6503247618675232,0.16436603665351868,-0.01728098653256893
1772806439836957700,7.595957763671875,-0.6967782974243164,0.08879351615905762,-0.0994911715388298
1772806439846888400,7.605888427734375,-0.7295953631401062,0.05457775667309761,-0.14495612680912018
1772806439856820500,7.615820556640625,-0.7541161179542542,0.05979675427079201,-0.14266979694366455
1772806439866751700,7.625751708984375,-0.7748157978057861,0.1044212132692337,-0.0784950777888298
1772806439876683800,7.635683837890625,-0.7992034554481506,0.1719973236322403,0.01577363722026348
1772806439886614500,7.645614501953125,-0.8346993923187256,0.22624485194683075,0.12063001096248627
1772806439896545500,7.655545654296875,-0.8735501170158386,0.27250581979751587,0.1990547776222229
1772806439906477600,7.6654775390625,-0.9145579934120178,0.2843265235424042,0.24847638607025146
1772806439916408600,7.67540869140625,-0.9392998218536377,0.302266389131546,0.2508620619773865
1772806439926340600,7.685340576171875,-0.9349695444107056,0.3553101718425751,0.23195414245128632
1772806439936271600,7.695271728515625,-0.9032169580459595,0.4794861674308777,0.26068058609962463
1772806439946203600,7.70520361328125,-0.8299089074134827,0.654524564743042,0.31549590826034546
1772806439956134700,7.715134765625,-0.7163043022155762,0.8619840145111084,0.4077310264110565
1772806439966066700,7.725066650390625,-0.6302794218063354,1.0463112592697144,0.6000128388404846
1772806439975997700,7.734997802734375,-0.5586534142494202,1.1056454181671143,0.880090594291687
1772806439985929500,7.744929443359375,-0.517117440700531,0.9835434556007385,1.1714686155319214
1772806439995860500,7.754860595703125,-0.5322809219360352,0.7471472024917603,1.376009225845337
1772806440005792500,7.76479248046875,-0.5611780881881714,0.49007171392440796,1.421645164489746
1772806440015723800,7.774723876953125,-0.5771552324295044,0.29491180181503296,1.3228682279586792
1772806440025654500,7.784654541015625,-0.5718736052513123,0.18596693873405457,1.1466569900512695
1772806440035586600,7.794586669921875,-0.5413732528686523,0.20549190044403076,0.9477143883705139
1772806440045517600,7.804517578125,-0.49037396907806396,0.3043884038925171,0.7283015847206116
1772806440055449600,7.81444970703125,-0.44130149483680725,0.3992760181427002,0.5055726170539856
1772806440065380600,7.824380615234375,-0.3999175727367401,0.4349517226219177,0.3139347732067108
1772806440075312600,7.834312744140625,-0.37646764516830444,0.44564858078956604,0.13461293280124664
1772806440085243600,7.84424365234375,-0.3706957697868347,0.37366172671318054,-0.021698636934161186
1772806440095175400,7.854175537109375,-0.38998690247535706,0.21213196218013763,-0.12706899642944336
1772806440105106700,7.864106689453125,-0.44513192772865295,0.025303758680820465,-0.1710958480834961
1772806440115038700,7.874038818359375,-0.547452449798584,-0.14070278406143188,-0.16895413398742676
1772806440124969700,7.8839697265625,-0.6731059551239014,-0.26908472180366516,-0.14883768558502197
1772806440134901500,7.893901611328125,-0.7767767310142517,-0.34876304864883423,-0.10656426101922989
1772806440144832500,7.90383251953125,-0.8118742108345032,-0.3794732987880707,-0.042396191507577896
1772806440154763800,7.913763671875,-0.7838186621665955,-0.3663305938243866,0.031018368899822235
1772806440164695600,7.923695556640625,-0.695472240447998,-0.29821518063545227,0.0999084860086441
1772806440174626600,7.93362646484375,-0.5767336487770081,-0.19108499586582184,0.15298528969287872
1772806440184558600,7.94355859375,-0.4654310643672943,-0.025958895683288574,0.20613932609558105
1772806440194489600,7.953489501953125,-0.368765264749527,0.19814051687717438,0.2579207718372345
1772806440204421600,7.963421630859375,-0.30982205271720886,0.40904155373573303,0.26540955901145935
1772806440214352600,7.9733525390625,-0.29497039318084717,0.5169366002082825,0.2374650239944458
1772806440224284700,7.98328466796875,-0.3146202564239502,0.5470976829528809,0.2085992842912674
1772806440234215700,7.993215576171875,-0.3532528579235077,0.4952757954597473,0.16830778121948242
1772806440244147000,8.00314697265625,-0.39600539207458496,0.4359477460384369,0.11966248601675034
1772806440254079000,8.013078857421876,-0.413004606962204,0.3705804646015167,0.04761439189314842
1772806440264009700,8.023009765625,-0.40966713428497314,0.28225433826446533,-0.029035646468400955
1772806440273941800,8.032941650390624,-0.3992334008216858,0.2129381000995636,-0.0786423459649086
1772806440283872800,8.042872802734376,-0.37435123324394226,0.18412083387374878,-0.09051578491926193
1772806440293804800,8.0528046875,-0.33857646584510803,0.20527832210063934,-0.08901083469390869
1772806440303735800,8.06273583984375,-0.30358412861824036,0.2576057016849518,-0.07517198473215103
1772806440313666800,8.072666748046874,-0.27829501032829285,0.30808699131011963,-0.040103744715452194
1772806440323598800,8.082598876953124,-0.26302284002304077,0.3319065570831299,0.0007518103811889887
1772806440333529600,8.092529541015624,-0.24590083956718445,0.33794716000556946,0.04601782560348511
1772806440343461600,8.102461669921874,-0.2161775678396225,0.3150639533996582,0.08536363393068314
1772806440353393000,8.112392822265624,-0.2126701921224594,0.27960073947906494,0.12572090327739716
1772806440363325000,8.122324951171874,-0.2172449678182602,0.27922898530960083,0.15847966074943542
1772806440373255700,8.132255615234374,-0.19921696186065674,0.48493632674217224,0.300400048494339
1772806440383187700,8.142187744140625,-0.22025620937347412,0.49527525901794434,0.18997979164123535
1772806440393119000,8.152118896484374,-0.20609085261821747,0.4261816740036011,0.06983793526887894
1772806440403051000,8.162051025390625,-0.20087984204292297,0.3468482196331024,-0.0978088527917862
1772806440412981800,8.171981689453125,-0.17979586124420166,0.26557227969169617,-0.24059423804283142
1772806440422913800,8.181913818359375,-0.15235385298728943,0.18520846962928772,-0.32443132996559143
1772806440432844800,8.1918447265625,-0.12454912066459656,0.11009588092565536,-0.3581157922744751
1772806440442775800,8.20177587890625,-0.0970008447766304,0.07088828831911087,-0.34585753083229065
1772806440452707800,8.211707763671875,-0.08380062133073807,0.05266401171684265,-0.3373359441757202
1772806440462638800,8.221638916015625,-0.08021201193332672,0.022123944014310837,-0.3403567671775818
1772806440472571000,8.23157080078125,-0.07568144798278809,-0.007562312297523022,-0.3399985730648041
1772806440482501600,8.241501708984375,-0.059174638241529465,-0.03459019958972931,-0.33082160353660583
1772806440492433700,8.25143359375,-0.030015157535672188,-0.05548856034874916,-0.2958308458328247
