time,seconds_elapsed,z,y,x
1772806432316361200,0.075361328125,-0.024880189448595047,-0.04643148556351662,-0.15658719837665558
1772806432326292200,0.085292236328125,-0.07422803342342377,-0.17496389150619507,-0.2148025780916214
1772806432336223200,0.09522314453125,-0.11120428889989853,-0.24362210929393768,-0.2366972267627716
1772806432346155300,0.1051552734375,-0.1446373462677002,-0.2470133751630783,-0.22830107808113098
1772806432356086300,0.115086181640625,-0.1626894325017929,-0.19152355194091797,-0.20410709083080292
1772806432366018300,0.125018310546875,-0.16565991938114166,-0.1254904717206955,-0.1597857028245926
1772806432375949000,0.134948974609375,-0.1600090116262436,-0.05945172533392906,-0.09501487761735916
1772806432385881000,0.144881103515625,-0.12742523849010468,0.001463557593524456,-0.043832652270793915
1772806432395812400,0.154812255859375,-0.08744505792856216,0.04180380702018738,-0.02159525267779827
1772806432405744000,0.164744140625,-0.05282076448202133,0.06150214374065399,-0.04746520146727562
1772806432415675100,0.174675048828125,-0.03732450678944588,0.06758709251880646,-0.10935784131288528
1772806432425607200,0.184607177734375,-0.04219569265842438,0.04330279678106308,-0.1872348040342331
1772806432435538200,0.1945380859375,-0.05794530361890793,-0.025102511048316956,-0.2609190046787262
1772806432445469200,0.20446923828125,-0.09297119826078415,-0.09290605783462524,-0.291419118642807
1772806432455401200,0.214401123046875,-0.13225257396697998,-0.16067171096801758,-0.28864458203315735
1772806432465332200,0.224332275390625,-0.16351622343063354,-0.21753711998462677,-0.2605562210083008
1772806432475264000,0.234263916015625,-0.20023377239704132,-0.24090345203876495,-0.20843732357025146
1772806432485195300,0.2441953125,-0.22975251078605652,-0.23383675515651703,-0.13751281797885895
1772806432495127300,0.254127197265625,-0.23403075337409973,-0.21690885722637177,-0.07447152584791183
1772806432505058300,0.264058349609375,-0.20732378959655762,-0.1654275506734848,-0.008699432015419006
1772806432514990000,0.273989990234375,-0.1743326336145401,-0.08267834037542343,0.04109225422143936
1772806432524921000,0.283921142578125,-0.14251771569252014,0.024694716557860374,0.051037032157182693
1772806432534853000,0.29385302734375,-0.13150912523269653,0.1220819428563118,0.03146703913807869
1772806432544784400,0.303784423828125,-0.14024989306926727,0.18413279950618744,-0.005707226227968931
1772806432554715100,0.313715087890625,-0.164265975356102,0.19687475264072418,-0.016117073595523834
1772806432564647200,0.323647216796875,-0.20528849959373474,0.14717775583267212,0.02650601975619793
1772806432574578200,0.333578125,-0.25367623567581177,0.08438421785831451,0.12446659058332443
1772806432584510200,0.34351025390625,-0.31617048382759094,0.025129150599241257,0.27544891834259033
1772806432594441200,0.353441162109375,-0.37927067279815674,0.04029951989650726,0.4620060920715332
1772806432604373200,0.363373291015625,-0.4044274091720581,0.17809493839740753,0.6479916572570801
1772806432614304300,0.37330419921875,-0.4250192642211914,0.47650399804115295,0.7481678128242493
1772806432624236000,0.383236083984375,-0.4514316916465759,0.8749305009841919,0.6340673565864563
1772806432634167300,0.393167236328125,-0.46264371275901794,1.0896022319793701,0.34217047691345215
1772806432644099300,0.403099365234375,-0.5231052041053772,0.9939241409301758,-0.05315393954515457
1772806432654030000,0.413030029296875,-0.6346595883369446,0.7297011017799377,-0.5305593609809875
1772806432663962000,0.422962158203125,-0.7367547750473022,0.30417007207870483,-0.9643281102180481
1772806432673893000,0.43289306640625,-0.862359881401062,-0.22085487842559814,-1.244389533996582
1772806432683824400,0.442824462890625,-1.030134916305542,-0.6446809768676758,-1.3317314386367798
1772806432693756200,0.452756103515625,-1.2029423713684082,-0.893706202507019,-1.2392936944961548
1772806432703687200,0.462687255859375,-1.2760053873062134,-1.0053448677062988,-1.0367192029953003
1772806432713619200,0.472619140625,-1.2453798055648804,-0.7728149890899658,-0.7477464079856873
1772806432723550200,0.48255029296875,-1.1143633127212524,-0.1276455819606781,-0.5386624336242676
1772806432733482200,0.492482177734375,-0.8734061121940613,0.666913628578186,-0.6879844069480896
1772806432743413200,0.502413330078125,-0.5318580865859985,1.2757625579833984,-1.020518183708191
1772806432753345300,0.51234521484375,-0.2927016019821167,1.4769572019577026,-1.2676546573638916
1772806432763276000,0.522276123046875,-0.2003200203180313,1.462573528289795,-1.4473261833190918
1772806432773208000,0.5322080078125,-0.22035035490989685,1.2518563270568848,-1.5905404090881348
1772806432783139300,0.542139404296875,-0.3644028902053833,0.8674657940864563,-1.6503223180770874
1772806432793070000,0.552070068359375,-0.6103047132492065,0.530242919921875,-1.6245309114456177
1772806432803002000,0.562002197265625,-0.8961066603660583,0.3248332738876343,-1.6414265632629395
1772806432812933000,0.57193310546875,-1.0211445093154907,0.18030600249767303,-1.9189095497131348
1772806432822865200,0.581865234375,-0.8955743908882141,0.05658380314707756,-2.4001822471618652
1772806432832796200,0.591796142578125,-0.6514742970466614,-0.03995879366993904,-2.838231086730957
1772806432842728200,0.601728271484375,-0.4116300344467163,0.016812875866889954,-3.0819098949432373
1772806432852659200,0.6116591796875,-0.19686071574687958,0.20446638762950897,-3.106472969055176
1772806432862591200,0.62159130859375,-0.04478703439235687,0.43730735778808594,-2.9527206420898438
1772806432872522200,0.631522216796875,0.0834495797753334,0.6268554329872131,-2.7072131633758545
1772806432882454300,0.641454345703125,0.1381666362285614,0.7780553698539734,-2.5561773777008057
1772806432892385300,0.65138525390625,0.13333480060100555,0.8959996700286865,-2.662670135498047
1772806432902316000,0.66131591796875,0.15142859518527985,0.9175491333007812,-2.986821174621582
1772806432912248000,0.671248046875,0.1544942706823349,0.8451753854751587,-3.3190157413482666
1772806432922179300,0.681179443359375,0.16255566477775574,0.7392505407333374,-3.540670156478882
1772806432932111400,0.691111328125,0.21952052414417267,0.7651863098144531,-3.6936004161834717
1772806432942042000,0.7010419921875,0.33547747135162354,0.9994020462036133,-3.7710070610046387
1772806432951974100,0.71097412109375,0.42933839559555054,1.2142333984375,-3.7836315631866455
1772806432961905200,0.7209052734375,0.483580619096756,1.3148726224899292,-3.7397003173828125
1772806432971837200,0.730837158203125,0.5306625366210938,1.3665380477905273,-3.568155527114868
1772806432981768200,0.740768310546875,0.604541003704071,1.1495407819747925,-3.29740047454834
1772806432991700200,0.7507001953125,0.6953689455986023,0.8129733204841614,-3.0670547485351562
1772806433001631200,0.76063134765625,0.7283175587654114,0.4773135781288147,-2.94659686088562
1772806433011563300,0.770563232421875,0.7336339354515076,0.2352437824010849,-2.931509494781494
1772806433021494300,0.780494384765625,0.6846530437469482,0.1873074173927307,-2.951659917831421
1772806433031425300,0.79042529296875,0.5816927552223206,0.2604762017726898,-2.9479448795318604
1772806433041357300,0.800357421875,0.4505036473274231,0.4556797742843628,-2.893218755722046
1772806433051288000,0.8102880859375,0.3928026258945465,0.7614721059799194,-2.7398972511291504
1772806433061220000,0.82022021484375,0.3483036160469055,1.06448495388031,-2.470900297164917
1772806433071151400,0.8301513671875,0.23491708934307098,1.3015145063400269,-2.220484733581543
1772806433081083400,0.84008349609375,0.2334132045507431,1.2665504217147827,-1.9328092336654663
1772806433091014100,0.85001416015625,0.26567333936691284,0.846613347530365,-1.6260360479354858
1772806433100946200,0.8599462890625,0.29954156279563904,0.32322177290916443,-1.3424898386001587
1772806433110877200,0.869877197265625,0.2887309193611145,-0.04086005687713623,-1.1345202922821045
1772806433120809000,0.87980908203125,0.2651592791080475,-0.19229885935783386,-0.9423875212669373
1772806433130740200,0.889740234375,0.23195038735866547,-0.19825759530067444,-0.7535890340805054
1772806433140671200,0.899671142578125,0.2871555984020233,-0.21509143710136414,-0.5751556754112244
1772806433150603300,0.909603271484375,0.2566928267478943,-0.21787984669208527,-0.4240277409553528
1772806433160534000,0.919533935546875,0.2566310167312622,-0.2563047409057617,-0.27422600984573364
1772806433170466300,0.92946630859375,0.2834421396255493,-0.3360687792301178,-0.15076589584350586
1772806433180397300,0.939397216796875,0.214671328663826,-0.3582552969455719,-0.06312127411365509
1772806433190329000,0.9493291015625,0.1521172821521759,-0.38081857562065125,0.046262722462415695
1772806433200260000,0.959260009765625,0.08136267960071564,-0.4361119270324707,0.10556865483522415
1772806433210192100,0.969192138671875,0.018534351140260696,-0.4623427391052246,0.14517006278038025
1772806433220123400,0.979123291015625,-0.015085659921169281,-0.45413142442703247,0.20253561437129974
1772806433230055000,0.989054931640625,-0.035525497049093246,-0.4311615228652954,0.2646854519844055
1772806433239986000,0.99898583984375,-0.047012776136398315,-0.40886208415031433,0.3215159773826599
1772806433249917000,1.0089169921875,-0.057213809341192245,-0.358134388923645,0.3750235140323639
1772806433259849000,1.018848876953125,-0.06922519952058792,-0.2985685467720032,0.4230387210845947
1772806433269780000,1.028780029296875,-0.09321331977844238,-0.22786742448806763,0.4758688509464264
1772806433279712000,1.0387119140625,-0.10961226373910904,-0.14954093098640442,0.5349436402320862
1772806433289643000,1.04864306640625,-0.10897787660360336,-0.08909046649932861,0.5830966830253601
1772806433299574800,1.05857470703125,-0.09864827245473862,-0.05128822475671768,0.6041231751441956
1772806433309506000,1.068506103515625,-0.10248656570911407,-0.048536598682403564,0.6207037568092346
1772806433319438000,1.07843798828125,-0.13330653309822083,-0.1016291081905365,0.613060712814331
1772806433329368800,1.088368896484375,-0.18441765010356903,-0.1608508825302124,0.5523715615272522
1772806433339300900,1.09830078125,-0.23256999254226685,-0.16297262907028198,0.4563249349594116
1772806433349231900,1.10823193359375,-0.27339333295822144,-0.14894866943359375,0.3394499123096466
1772806433359164000,1.118163818359375,-0.27494141459465027,-0.14611347019672394,0.20489053428173065
1772806433369095000,1.128094970703125,-0.2559516429901123,-0.14662902057170868,0.07607641816139221
1772806433379026000,1.13802587890625,-0.23697341978549957,-0.1266808807849884,0.015458613634109497
1772806433388958000,1.1479580078125,-0.23144961893558502,-0.08296091854572296,0.0317409373819828
1772806433398888700,1.157888671875,-0.22107207775115967,-0.04818056523799896,0.10078497976064682
1772806433408821000,1.167821044921875,-0.2093105912208557,-0.017522510141134262,0.20106273889541626
1772806433418752000,1.177751953125,-0.19065408408641815,0.020189180970191956,0.31387266516685486
1772806433428684000,1.18768408203125,-0.17383897304534912,0.024848125874996185,0.4040575623512268
1772806433438614800,1.19761474609375,-0.15652602910995483,0.00375455804169178,0.45745980739593506
1772806433448546800,1.207546875,-0.12714605033397675,-0.04519516974687576,0.48463529348373413
1772806433458478000,1.21747802734375,-0.09630397707223892,-0.0974929928779602,0.48569124937057495
1772806433468410000,1.22741015625,-0.07222205400466919,-0.1438508778810501,0.4646229147911072
1772806433478340900,1.2373408203125,-0.06849575787782669,-0.2076929807662964,0.4232938587665558
1772806433488272000,1.24727197265625,-0.06659233570098877,-0.2500854730606079,0.36498862504959106
1772806433498204000,1.257203857421875,-0.08309834450483322,-0.2662476599216461,0.3175441324710846
1772806433508135000,1.267135009765625,-0.10301622748374939,-0.2562450170516968,0.2807775139808655
1772806433518067000,1.27706689453125,-0.11613043397665024,-0.23338228464126587,0.2518574595451355
1772806433527998000,1.286998046875,-0.13767872750759125,-0.1684771031141281,0.24810798466205597
1772806433537930000,1.296929931640625,-0.14500455558300018,-0.0869513526558876,0.2777937054634094
1772806433547860700,1.30686083984375,-0.14128895103931427,-0.07041877508163452,0.3057668209075928
1772806433557793000,1.31679296875,-0.13645637035369873,-0.04248061776161194,0.3137691020965576
1772806433567724000,1.32672412109375,-0.14827758073806763,0.004647535737603903,0.3213563561439514
1772806433577656000,1.336656005859375,-0.16612474620342255,-0.012851029634475708,0.2948957085609436
1772806433587586800,1.3465869140625,-0.16629549860954285,-0.041618283838033676,0.22193051874637604
1772806433597518000,1.35651806640625,-0.14672765135765076,-0.07090693712234497,0.15065954625606537
1772806433607450000,1.3664501953125,-0.1325286626815796,-0.10374012589454651,0.12372789531946182
1772806433617380900,1.376380859375,-0.12905190885066986,-0.11247449368238449,0.12167752534151077
1772806433627313000,1.38631298828125,-0.13548706471920013,-0.09038221836090088,0.14204464852809906
1772806433637244000,1.396243896484375,-0.14416125416755676,-0.07790211588144302,0.17965567111968994
1772806433647176000,1.406176025390625,-0.15681864321231842,-0.07664698362350464,0.22012384235858917
1772806433657107000,1.41610693359375,-0.1648840308189392,-0.058441873639822006,0.24548672139644623
1772806433667039000,1.4260390625,-0.16599193215370178,-0.03288636729121208,0.23274622857570648
1772806433676970000,1.435969970703125,-0.15422369539737701,-0.021841172128915787,0.1902347207069397
1772806433686902000,1.445902099609375,-0.12849731743335724,0.003983057104051113,0.13769884407520294
1772806433696832800,1.455832763671875,-0.09749651700258255,0.026715267449617386,0.08279086649417877
1772806433706764000,1.465763916015625,-0.08665180206298828,0.02287881076335907,0.027604717761278152
1772806433716696000,1.475696044921875,-0.08958154916763306,-0.0025863340124487877,-0.03654923662543297
1772806433726626800,1.485626708984375,-0.09271862357854843,-0.05219738185405731,-0.12098473310470581
1772806433736558800,1.495558837890625,-0.11331897228956223,-0.10248798131942749,-0.16445550322532654
1772806433746490000,1.505489990234375,-0.1465975046157837,-0.13682842254638672,-0.15407302975654602
1772806433756422100,1.515422119140625,-0.17249782383441925,-0.16575273871421814,-0.10128838568925858
1772806433766353000,1.525352783203125,-0.18881186842918396,-0.14586395025253296,-0.016452468931674957
1772806433776285000,1.535284912109375,-0.20710858702659607,-0.06486630439758301,0.0778426080942154
1772806433786216000,1.5452158203125,-0.20577788352966309,0.04148615896701813,0.13141940534114838
1772806433796147700,1.555147705078125,-0.18618181347846985,0.11526690423488617,0.11578318476676941
1772806433806079000,1.565078857421875,-0.15738549828529358,0.14713622629642487,0.05785052478313446
1772806433816010000,1.575010009765625,-0.14792807400226593,0.12797878682613373,0.0022541081998497248
1772806433825942000,1.58494189453125,-0.15115155279636383,0.05408275127410889,-0.0240252073854208
1772806433835872800,1.594872802734375,-0.18210947513580322,-0.051639948040246964,-0.003971604630351067
1772806433845805000,1.60480517578125,-0.2431337982416153,-0.16707178950309753,0.03555687516927719
1772806433855736000,1.614736083984375,-0.31969913840293884,-0.26792651414871216,0.07849076390266418
1772806433865667800,1.624667724609375,-0.39317837357521057,-0.3084178864955902,0.11622869968414307
1772806433875598800,1.634598876953125,-0.4530981481075287,-0.3050045371055603,0.1408967524766922
1772806433885531000,1.64453076171875,-0.4660426080226898,-0.27492135763168335,0.14848661422729492
1772806433895462100,1.654462158203125,-0.4391268491744995,-0.22076115012168884,0.14685408771038055
1772806433905394000,1.664393798828125,-0.37004655599594116,-0.15066032111644745,0.14030449092388153
1772806433915325000,1.674324951171875,-0.28711411356925964,-0.09104172885417938,0.1421215534210205
1772806433925256000,1.684255859375,-0.23484505712985992,-0.037543438374996185,0.14748859405517578
1772806433935188000,1.69418798828125,-0.2275426685810089,0.011880571022629738,0.16597464680671692
1772806433945119000,1.704118896484375,-0.2589910328388214,0.04533664137125015,0.20283637940883636
1772806433955051000,1.714051025390625,-0.32203763723373413,0.05903727188706398,0.24158351123332977
1772806433964982000,1.72398193359375,-0.40275952219963074,0.06869515031576157,0.25635048747062683
1772806433974913800,1.733913818359375,-0.4775341749191284,0.05606697499752045,0.22833004593849182
1772806433984844800,1.7438447265625,-0.5330552458763123,0.04597901925444603,0.16354282200336456
1772806433994777000,1.753777099609375,-0.5354704260826111,0.044512417167425156,0.07585904747247696
1772806434004708000,1.7637080078125,-0.4777373671531677,0.0378124974668026,-0.019505105912685394
1772806434014639900,1.773639892578125,-0.38274455070495605,0.041056226938962936,-0.06469708681106567
1772806434024571000,1.78357080078125,-0.26943203806877136,0.03601283207535744,-0.014600483700633049
1772806434034502100,1.793502197265625,-0.145003542304039,0.022960146889090538,0.12624426186084747
1772806434044434000,1.803433837890625,-0.056904397904872894,-0.007744633127003908,0.3059574365615845
1772806434054365000,1.813364990234375,-0.0344448946416378,-0.046995364129543304,0.4497945010662079
1772806434064297000,1.823296875,-0.06688520312309265,-0.07116500288248062,0.535161554813385
1772806434074228000,1.83322802734375,-0.15884414315223694,-0.06502535194158554,0.572226881980896
1772806434084159700,1.84315966796875,-0.26706644892692566,-0.041560184210538864,0.554551362991333
1772806434094091000,1.853091064453125,-0.35951781272888184,0.03932827338576317,0.4988977015018463
1772806434104023000,1.86302294921875,-0.41702452301979065,0.15329214930534363,0.44865337014198303
1772806434113953800,1.872953857421875,-0.42729899287223816,0.2681889235973358,0.4206768572330475
1772806434123885800,1.8828857421875,-0.4113922715187073,0.3787258565425873,0.39974695444107056
1772806434133816800,1.89281689453125,-0.34620019793510437,0.46852684020996094,0.3841211497783661
1772806434143748000,1.902748046875,-0.24144458770751953,0.5264378190040588,0.3426678478717804
1772806434153680000,1.912679931640625,-0.118360735476017,0.5517674088478088,0.2588576376438141
1772806434163611000,1.92261083984375,0.010652909055352211,0.5473495125770569,0.11254384368658066
1772806434173543000,1.93254296875,0.15061773359775543,0.4859684109687805,-0.09122366458177567
1772806434183474000,1.942473876953125,0.27863609790802,0.34936365485191345,-0.2996249794960022
1772806434193406000,1.952406005859375,0.35953202843666077,0.1775258481502533,-0.46163758635520935
1772806434203337000,1.9623369140625,0.3628478944301605,0.01698378287255764,-0.5320472717285156
1772806434213269000,1.97226904296875,0.2938709557056427,-0.09592652320861816,-0.4996911287307739
1772806434223199700,1.98219970703125,0.17550309002399445,-0.1447829306125641,-0.36745625734329224
1772806434233131500,1.992131591796875,0.0350373275578022,-0.09071249514818192,-0.1600777953863144
1772806434243062800,2.002062744140625,-0.09717047214508057,0.03546416386961937,0.08864939212799072
1772806434252993800,2.011993896484375,-0.2122427374124527,0.18014225363731384,0.32177531719207764
1772806434262925600,2.021925537109375,-0.29444584250450134,0.31426259875297546,0.4904303252696991
1772806434272856800,2.03185693359375,-0.3222409784793854,0.3967393636703491,0.5853107571601868
1772806434282788900,2.041788818359375,-0.3166801333427429,0.42966213822364807,0.5969977378845215
1772806434292719900,2.051719970703125,-0.29402434825897217,0.4123729169368744,0.5391858220100403
1772806434302651600,2.061651611328125,-0.2642471194267273,0.3426069915294647,0.4401009976863861
1772806434312582700,2.071582763671875,-0.22819271683692932,0.2411557137966156,0.3021913170814514
1772806434322514700,2.0815146484375,-0.19366607069969177,0.16851334273815155,0.16373074054718018
1772806434332445700,2.09144580078125,-0.15421132743358612,0.13492102921009064,0.04353322833776474
1772806434342377700,2.101377685546875,-0.1007407009601593,0.1371685266494751,-0.04623918607831001
1772806434352308700,2.111308837890625,-0.028661713004112244,0.15284734964370728,-0.09849119931459427
1772806434362239700,2.12123974609375,0.05469074100255966,0.18471533060073853,-0.1139456108212471
1772806434372171500,2.131171630859375,0.12181970477104187,0.2329246699810028,-0.08837766945362091
1772806434382102800,2.141102783203125,0.17816592752933502,0.2592238485813141,-0.04233265668153763
1772806434392034800,2.151034912109375,0.2083027958869934,0.25868481397628784,-0.011202167719602585
1772806434401965600,2.160965576171875,0.21814239025115967,0.23551414906978607,-0.0022209652233868837
1772806434411897600,2.170897705078125,0.20838190615177155,0.20715069770812988,-0.024298837408423424
1772806434421828900,2.180828857421875,0.20147807896137238,0.19159577786922455,-0.08366923779249191
1772806434431761000,2.190760986328125,0.20822785794734955,0.17898784577846527,-0.15617460012435913
1772806434441691600,2.200691650390625,0.22871731221675873,0.15752872824668884,-0.2321498543024063
1772806434451623700,2.210623779296875,0.2519699037075043,0.12707123160362244,-0.274971604347229
1772806434461554700,2.2205546875,0.2606814205646515,0.0887376144528389,-0.24960802495479584
1772806434471485700,2.230485595703125,0.25161415338516235,0.044926755130290985,-0.1662588119506836
1772806434481417700,2.240417724609375,0.2168060541152954,0.03380759060382843,-0.029606865718960762
1772806434491348700,2.2503486328125,0.1744396835565567,0.040343254804611206,0.12476059794425964
1772806434501280800,2.26028076171875,0.14478424191474915,0.05505311116576195,0.2322840392589569
1772806434511211500,2.27021142578125,0.13593590259552002,0.09016156196594238,0.2785463333129883
1772806434521143600,2.2801435546875,0.14943300187587738,0.12470626085996628,0.27637332677841187
1772806434531074800,2.29007470703125,0.19242841005325317,0.12386710196733475,0.21453924477100372
1772806434541006800,2.3000068359375,0.2657026946544647,0.09563545137643814,0.12449707090854645
1772806434550937600,2.3099375,0.34240785241127014,0.036756157875061035,0.02408524788916111
1772806434560869600,2.31986962890625,0.420622318983078,-0.03451763466000557,-0.053877092897892
1772806434570801000,2.32980078125,0.5001264810562134,-0.10842488706111908,-0.0945451632142067
1772806434580731600,2.339731689453125,0.5535007119178772,-0.17592163383960724,-0.08939993381500244
1772806434590663700,2.34966357421875,0.5655810832977295,-0.19986984133720398,-0.032193370163440704
1772806434600594700,2.3595947265625,0.5591087341308594,-0.1810140162706375,0.04332609847187996
1772806434610526700,2.369526611328125,0.5421569347381592,-0.13436368107795715,0.09263505041599274
1772806434620457700,2.379457763671875,0.5307884216308594,-0.07113651931285858,0.11250436305999756
1772806434630389800,2.3893896484375,0.5392804145812988,-0.022030223160982132,0.0797610655426979
1772806434640320800,2.39932080078125,0.5741382837295532,-0.007885109633207321,-0.005443307105451822
1772806434650252800,2.409252685546875,0.6270530819892883,-0.05299718305468559,-0.12223340570926666
1772806434660183600,2.41918359375,0.6768908500671387,-0.1481599658727646,-0.21128661930561066
1772806434670115600,2.429115478515625,0.7150278091430664,-0.27538102865219116,-0.25267294049263
1772806434680046800,2.439046875,0.7403075695037842,-0.38091185688972473,-0.23525914549827576
1772806434689977600,2.4489775390625,0.7427352666854858,-0.4285334348678589,-0.16558685898780823
1772806434699909600,2.45890966796875,0.7516913414001465,-0.4152717590332031,-0.09829195588827133
1772806434709841000,2.4688408203125,0.7633568048477173,-0.35081660747528076,-0.06339549273252487
1772806434719773000,2.47877294921875,0.7606947422027588,-0.3099287748336792,-0.04271053895354271
1772806434729703700,2.48870361328125,0.7374964952468872,-0.3348895311355591,-0.028194447979331017
1772806434739635700,2.4986357421875,0.6666274666786194,-0.39337706565856934,0.03673294931650162
1772806434749566700,2.508566650390625,0.5455692410469055,-0.45883649587631226,0.17773614823818207
1772806434759498800,2.518498779296875,0.39055848121643066,-0.47951754927635193,0.36413922905921936
1772806434769429800,2.5284296875,0.2240017205476761,-0.4627857208251953,0.5480217337608337
1772806434779361800,2.53836181640625,0.09837067872285843,-0.43620145320892334,0.692870557308197
1772806434789292800,2.548292724609375,0.04071643576025963,-0.39275625348091125,0.7725704312324524
1772806434799223600,2.5582236328125,0.04514988884329796,-0.3503612279891968,0.7884317636489868
1772806434809155600,2.568155517578125,0.1091802716255188,-0.3334349989891052,0.7337879538536072
1772806434819086800,2.5780869140625,0.20970410108566284,-0.34441280364990234,0.624194324016571
1772806434829019000,2.588018798828125,0.3182060718536377,-0.39637935161590576,0.4768637418746948
1772806434838949600,2.59794970703125,0.4158109128475189,-0.4688847064971924,0.3142274022102356
1772806434848881700,2.607881591796875,0.4750004708766937,-0.5406606197357178,0.16017180681228638
1772806434858813000,2.61781298828125,0.47629398107528687,-0.5820450782775879,0.029579658061265945
1772806434868744700,2.62774462890625,0.4368368685245514,-0.5812948346138,-0.0495295412838459
1772806434878675700,2.63767578125,0.3609302043914795,-0.5515413880348206,-0.0775163397192955
1772806434888607700,2.647607666015625,0.28121915459632874,-0.5212305784225464,-0.059522684663534164
1772806434898538800,2.657538818359375,0.2230580896139145,-0.4862353205680847,-0.03871647268533707
1772806434908469800,2.6674697265625,0.17797183990478516,-0.43738415837287903,-0.012392192147672176
1772806434918401800,2.67740185546875,0.15204037725925446,-0.3867044746875763,-0.00007746918709017336
1772806434928332800,2.687332763671875,0.1463846117258072,-0.33389586210250854,0.00045542934094555676
1772806434938264800,2.697264892578125,0.14623697102069855,-0.30115607380867004,0.00309087336063385
1772806434948195600,2.707195556640625,0.13031552731990814,-0.29638636112213135,-0.0057966276071965694
1772806434958127600,2.717127685546875,0.08726079761981964,-0.30534979701042175,-0.027677016332745552
1772806434968059000,2.727058837890625,0.027622496709227562,-0.33566775918006897,-0.045390766113996506
1772806434977990700,2.73699072265625,-0.04050418362021446,-0.3749180734157562,-0.05208845064043999
1772806434987921700,2.746921630859375,-0.09414584189653397,-0.39454957842826843,-0.04656638577580452
1772806434997853700,2.756853759765625,-0.11617200076580048,-0.3929944336414337,-0.025190645828843117
1772806435007785000,2.766784912109375,-0.10910210758447647,-0.3812115490436554,-0.0026938593946397305
1772806435017715700,2.7767158203125,-0.07814593613147736,-0.3568381667137146,-0.007736761588603258
1772806435027647700,2.786647705078125,-0.03129693493247032,-0.322775274515152,-0.043690767139196396
1772806435037578800,2.796578857421875,0.015257680788636208,-0.2845354974269867,-0.07576753199100494
1772806435047510500,2.806510498046875,0.05629060044884682,-0.26080113649368286,-0.09458915889263153
1772806435057441800,2.81644189453125,0.07178978621959686,-0.255472332239151,-0.11223631352186203
1772806435067373800,2.826373779296875,0.06218402832746506,-0.26302480697631836,-0.11700256913900375
1772806435077304800,2.836304931640625,0.01763891987502575,-0.28120318055152893,-0.12259995937347412
1772806435087236600,2.846236572265625,-0.037198495119810104,-0.2801610827445984,-0.13954006135463715
1772806435097167600,2.856167724609375,-0.08761291205883026,-0.2748388350009918,-0.1638292521238327
1772806435107099600,2.866099609375,-0.12285132706165314,-0.26245617866516113,-0.1817573755979538
1772806435117030700,2.87603076171875,-0.1300484538078308,-0.21812206506729126,-0.19633378088474274
1772806435126962700,2.885962646484375,-0.11743465065956116,-0.16468147933483124,-0.1840779036283493
1772806435136893700,2.895893798828125,-0.11276093870401382,-0.08798518776893616,-0.146595761179924
1772806435146825000,2.905824951171875,-0.12330732494592667,-0.01862395368516445,-0.09418901056051254
1772806435156756700,2.9157568359375,-0.1472061723470688,0.025602266192436218,-0.044826459139585495
1772806435166687700,2.925687744140625,-0.18116360902786255,0.0534386932849884,0.000025432334950892255
1772806435176619800,2.935619873046875,-0.21551835536956787,0.04878469929099083,0.0201378483325243
1772806435186550500,2.945550537109375,-0.24922704696655273,0.019462764263153076,0.02007633075118065
1772806435196482600,2.955482666015625,-0.26972445845603943,-0.006767560727894306,0.00512239383533597
1772806435206413800,2.965413818359375,-0.27113673090934753,-0.02432578057050705,-0.04953179508447647
1772806435216345900,2.975345947265625,-0.26095157861709595,-0.03241006284952164,-0.1354563981294632
1772806435226276400,2.9852763671875,-0.2500840127468109,-0.0020982304122298956,-0.21543990075588226
1772806435236208400,2.99520849609375,-0.2350277155637741,0.06055102497339249,-0.2657948434352875
1772806435246139600,3.0051396484375,-0.21238179504871368,0.11485234647989273,-0.29818183183670044
1772806435256070400,3.0150703125,-0.17437945306301117,0.1764443963766098,-0.3288062810897827
1772806435266002400,3.02500244140625,-0.12174952775239944,0.23252737522125244,-0.3713260591030121
1772806435275933400,3.034933349609375,-0.0498015470802784,0.2455824911594391,-0.4248867928981781
1772806435285865500,3.044865478515625,0.0353865846991539,0.19583116471767426,-0.4843306839466095
1772806435295796500,3.05479638671875,0.11977788060903549,0.10893192887306213,-0.524677038192749
1772806435305728500,3.064728515625,0.19063687324523926,0.014842977747321129,-0.5205445885658264
1772806435315659500,3.074659423828125,0.21147264540195465,-0.07768215984106064,-0.44078609347343445
1772806435325591300,3.08459130859375,0.19529660046100616,-0.15728351473808289,-0.28970175981521606
1772806435335522300,3.094522216796875,0.15489760041236877,-0.1979909986257553,-0.1055922731757164
1772806435345454300,3.104454345703125,0.10760066658258438,-0.175464928150177,0.08854151517152786
1772806435355385600,3.114385498046875,0.06943599879741669,-0.11112688481807709,0.24494728446006775
1772806435365316400,3.12431640625,0.027298931032419205,-0.05048483610153198,0.3431966304779053
1772806435375248400,3.134248291015625,-0.023111380636692047,-0.008732499554753304,0.38366439938545227
1772806435385179400,3.144179443359375,-0.08209507912397385,0.029933137819170952,0.379803866147995
1772806435395111400,3.154111328125,-0.15601453185081482,0.03377755731344223,0.3300977945327759
1772806435405042400,3.16404248046875,-0.24200507998466492,0.005389589816331863,0.2510136067867279
1772806435414974500,3.173974365234375,-0.32732918858528137,-0.027164209634065628,0.17642946541309357
1772806435424905500,3.183905517578125,-0.40361061692237854,-0.050670333206653595,0.12974238395690918
1772806435434837200,3.193837158203125,-0.4542819857597351,-0.035939693450927734,0.11714091151952744
1772806435444768500,3.2037685546875,-0.4647604525089264,0.02029082179069519,0.127175435423851
1772806435454700500,3.213700439453125,-0.4397224485874176,0.08747004717588425,0.15199947357177734
1772806435464631600,3.223631591796875,-0.3933165967464447,0.15598012506961823,0.16509023308753967
1772806435474562300,3.233562255859375,-0.3481405973434448,0.21532517671585083,0.15395401418209076
1772806435484494300,3.243494384765625,-0.3137413263320923,0.24923761188983917,0.08905650675296783
1772806435494425600,3.253425537109375,-0.2840574383735657,0.2564620077610016,-0.01902104541659355
1772806435504357400,3.263357421875,-0.2735251784324646,0.23900340497493744,-0.1335361748933792
1772806435514288400,3.273288330078125,-0.25996607542037964,0.19443285465240479,-0.2190798968076706
1772806435524220400,3.283220458984375,-0.24177001416683197,0.13403715193271637,-0.251426637172699
1772806435534151700,3.293151611328125,-0.2242228388786316,0.07513290643692017,-0.2167283445596695
1772806435544083500,3.30308349609375,-0.21985125541687012,0.032889049500226974,-0.12684719264507294
1772806435554014500,3.313014404296875,-0.24403856694698334,0.009077418595552444,0.016972701996564865
1772806435563946500,3.322946533203125,-0.2971486449241638,0.014453009702265263,0.2050832211971283
1772806435573877200,3.332877197265625,-0.38044682145118713,0.05510355159640312,0.3859652876853943
1772806435583808500,3.34280859375,-0.4751259386539459,0.10525034368038177,0.5533444285392761
1772806435593740500,3.352740478515625,-0.5520040392875671,0.17404326796531677,0.6917777061462402
1772806435603671600,3.362671630859375,-0.5970852375030518,0.22817760705947876,0.7786495089530945
1772806435613603300,3.372603271484375,-0.6183621287345886,0.2733907699584961,0.8228110074996948
1772806435623534300,3.382534423828125,-0.6207485795021057,0.33016642928123474,0.8277788758277893
1772806435633466400,3.39246630859375,-0.5914934873580933,0.359090119600296,0.7751829624176025
1772806435643397400,3.4023974609375,-0.5340083837509155,0.36916619539260864,0.6731327772140503
1772806435653329400,3.412329345703125,-0.4547242820262909,0.3586759865283966,0.5390976667404175
1772806435663260400,3.422260498046875,-0.34099772572517395,0.3075089454650879,0.3901207149028778
1772806435673192400,3.4321923828125,-0.203825905919075,0.24663230776786804,0.2367945909500122
1772806435683123500,3.44212353515625,-0.05441166087985039,0.17879705131053925,0.08557417243719101
1772806435693055500,3.452055419921875,0.0897635892033577,0.11479954421520233,-0.06348450481891632
1772806435702986500,3.461986572265625,0.1993425339460373,0.058921366930007935,-0.19656185805797577
1772806435712917200,3.471917236328125,0.24829016625881195,0.01361025869846344,-0.2891390025615692
1772806435722849300,3.481849365234375,0.22181862592697144,-0.008445775136351585,-0.2958395183086395
1772806435732780500,3.491780517578125,0.12927274405956268,-0.01896001398563385,-0.2114163488149643
1772806435742712600,3.501712646484375,-0.012707558460533619,-0.0023030065931379795,-0.04312347248196602
1772806435752643300,3.511643310546875,-0.19128283858299255,0.03492634370923042,0.17568625509738922
1772806435762575400,3.521575439453125,-0.3709751069545746,0.12794551253318787,0.3956071436405182
1772806435772506400,3.53150634765625,-0.5146359801292419,0.2425098717212677,0.5648120641708374
1772806435782438400,3.5414384765625,-0.6047565340995789,0.3419869542121887,0.6633636951446533
1772806435792369400,3.551369384765625,-0.6505321264266968,0.408022940158844,0.7153163552284241
1772806435802301400,3.561301513671875,-0.6414044499397278,0.4235214591026306,0.7121708989143372
1772806435812232400,3.571232421875,-0.58395916223526,0.42390918731689453,0.6450862884521484
1772806435822163500,3.58116357421875,-0.4889357089996338,0.413899689912796,0.5475032329559326
1772806435832095500,3.591095458984375,-0.3755471110343933,0.3875146806240082,0.42309364676475525
1772806435842026500,3.601026611328125,-0.23915012180805206,0.3576523959636688,0.25713610649108887
1772806435851958500,3.61095849609375,-0.07474222034215927,0.32587769627571106,0.04476682469248772
1772806435861889300,3.62088916015625,0.10290873050689697,0.28708237409591675,-0.18377180397510529
1772806435871821300,3.6308212890625,0.2723965048789978,0.25900712609291077,-0.3734351396560669
1772806435881752600,3.640752685546875,0.4244491457939148,0.2353912889957428,-0.5228784084320068
1772806435891684600,3.6506845703125,0.5376687049865723,0.21314753592014313,-0.6325000524520874
1772806435901615400,3.660615478515625,0.6049110889434814,0.16643941402435303,-0.6845602989196777
1772806435911547400,3.67054736328125,0.6221233010292053,0.10669807344675064,-0.6631613969802856
1772806435921478400,3.680478515625,0.5924373269081116,0.01947714388370514,-0.5851475596427917
1772806435931410400,3.690410400390625,0.5339387655258179,-0.09097505360841751,-0.48496270179748535
1772806435941341400,3.700341552734375,0.4503418505191803,-0.16381517052650452,-0.3806685209274292
1772806435951272400,3.7102724609375,0.35287800431251526,-0.18083404004573822,-0.2639903724193573
1772806435961204500,3.72020458984375,0.24803096055984497,-0.13288728892803192,-0.14717799425125122
1772806435971135500,3.730135498046875,0.1591774970293045,-0.055304914712905884,-0.043422527611255646
1772806435981067500,3.740067626953125,0.10096346586942673,0.005023671314120293,0.04061511904001236
1772806435990998500,3.74999853515625,0.06796789169311523,0.03814927488565445,0.09304893761873245
1772806436000930600,3.7599306640625,0.06204315647482872,0.05246483162045479,0.11073871701955795
1772806436010861300,3.769861328125,0.05998051166534424,0.055103596299886703,0.10117214173078537
1772806436020793300,3.77979345703125,0.06696518510580063,0.03532642871141434,0.07525160163640976
1772806436030724600,3.789724609375,0.09435032308101654,0.015603644773364067,0.03716415539383888
1772806436040656400,3.799656494140625,0.13280849158763885,0.017233233898878098,-0.0006644499371759593
1772806436050587400,3.80958740234375,0.1853189915418625,0.01921876147389412,-0.05522868409752846
1772806436060518400,3.819518310546875,0.2625572979450226,0.04288467764854431,-0.13632753491401672
1772806436070450400,3.829450439453125,0.36636054515838623,0.07691109925508499,-0.23112405836582184
1772806436080381400,3.83938134765625,0.4738965928554535,0.09020506590604782,-0.33678391575813293
1772806436090313500,3.8493134765625,0.567799985408783,0.07385654747486115,-0.435035765171051
1772806436100244500,3.859244384765625,0.6359001994132996,0.029516521841287613,-0.5066747665405273
1772806436110176300,3.86917626953125,0.6768167018890381,-0.032025936990976334,-0.5505799055099487
1772806436120107500,3.879107421875,0.68839430809021,-0.11661166697740555,-0.5595462322235107
1772806436130039600,3.88903955078125,0.679878830909729,-0.19235332310199738,-0.5434029698371887
1772806436139970600,3.898970458984375,0.6738936305046082,-0.24355898797512054,-0.5283939242362976
1772806436149902300,3.90890234375,0.6816192269325256,-0.2553861439228058,-0.5221133232116699
1772806436159833300,3.918833251953125,0.6998205780982971,-0.23394420742988586,-0.5315808653831482
1772806436169765400,3.928765380859375,0.738785445690155,-0.234277606010437,-0.5519193410873413
1772806436179696400,3.9386962890625,0.775244414806366,-0.2651878595352173,-0.552688717842102
1772806436189627400,3.94862744140625,0.8000215291976929,-0.3046171963214874,-0.5050649642944336
1772806436199559400,3.958559326171875,0.8032375574111938,-0.31380030512809753,-0.4234553277492523
1772806436209490400,3.968490478515625,0.7696000933647156,-0.3073679208755493,-0.3020537793636322
1772806436219422500,3.97842236328125,0.706519365310669,-0.2962905168533325,-0.138177752494812
1772806436229353500,3.988353515625,0.5984616279602051,-0.3127013146877289,0.06863024830818176
1772806436239284500,3.998284423828125,0.44108590483665466,-0.3714282810688019,0.3075101971626282
1772806436249216500,4.008216552734375,0.229553684592247,-0.42008736729621887,0.5764153599739075
1772806436259147500,4.0181474609375,0.015403039753437042,-0.41854751110076904,0.8676919937133789
1772806436269079600,4.02807958984375,-0.15267130732536316,-0.3829440772533417,1.16147780418396
1772806436279010600,4.038010498046875,-0.2359403669834137,-0.3038308620452881,1.411411166191101
1772806436288942300,4.0479423828125,-0.21804314851760864,-0.19074562191963196,1.574379563331604
1772806436298873300,4.057873291015625,-0.08386588841676712,-0.11573316156864166,1.5991754531860352
1772806436308805400,4.067805419921875,0.1411481350660324,-0.11523523926734924,1.4523385763168335
1772806436318736600,4.077736572265625,0.410780131816864,-0.1837059110403061,1.1586869955062866
1772806436328667400,4.08766748046875,0.6889409422874451,-0.3043358325958252,0.747797966003418
1772806436338599400,4.097599365234375,0.9397851228713989,-0.45973607897758484,0.2660941183567047
1772806436348530400,4.107530517578125,1.1095120906829834,-0.6658944487571716,-0.201320618391037
1772806436358462200,4.117462158203125,1.1735448837280273,-0.8674163818359375,-0.5678418874740601
1772806436368393500,4.1273935546875,1.1268254518508911,-0.9956318736076355,-0.7564535140991211
1772806436378325500,4.137325439453125,0.9970952272415161,-1.007089614868164,-0.777758777141571
1772806436388256500,4.147256591796875,0.8226206302642822,-0.9066851735115051,-0.6759228110313416
1772806436398188300,4.157188232421875,0.6216422319412231,-0.680982768535614,-0.4704335927963257
1772806436408119600,4.16711962890625,0.42260411381721497,-0.4031252861022949,-0.21859309077262878
1772806436418051600,4.177051513671875,0.2597438395023346,-0.15379935503005981,-0.003249887842684984
1772806436427982300,4.186982421875,0.13637061417102814,0.01379663310945034,0.14076882600784302
1772806436437913300,4.196913330078125,0.06205937638878822,0.07820890843868256,0.21401028335094452
1772806436447845400,4.206845458984375,0.022911688312888145,0.03373169153928757,0.2158857136964798
1772806436457776600,4.216776611328125,0.009614791721105576,-0.06800292432308197,0.1813035011291504
1772806436467708400,4.22670849609375,0.01356735359877348,-0.19507548213005066,0.13893437385559082
1772806436477639400,4.236639404296875,0.026529492810368538,-0.2949163317680359,0.1007760763168335
1772806436487571500,4.246571533203125,0.03070106729865074,-0.33328789472579956,0.08629997074604034
1772806436497502200,4.256502197265625,0.033837735652923584,-0.3384256660938263,0.07789956033229828
1772806436507434500,4.2664345703125,0.03737586736679077,-0.3082706332206726,0.059385817497968674
1772806436517365500,4.276365478515625,0.0496373288333416,-0.260570228099823,0.03308230638504028
1772806436527297500,4.286297607421875,0.06837407499551773,-0.21323944628238678,-0.010326582938432693
1772806436537228300,4.296228271484375,0.08469312638044357,-0.20069676637649536,-0.07203495502471924
1772806436547160300,4.306160400390625,0.09205693751573563,-0.2122277468442917,-0.13360650837421417
1772806436557091600,4.316091552734375,0.10442838817834854,-0.22849033772945404,-0.19035740196704865
1772806436567022300,4.326022216796875,0.10789066553115845,-0.2705850899219513,-0.2161930501461029
1772806436576954400,4.335954345703125,0.10598596930503845,-0.29613783955574036,-0.21862052381038666
1772806436586885400,4.345885498046875,0.09005869925022125,-0.30306705832481384,-0.20159821212291718
1772806436596817400,4.3558173828125,0.05111609771847725,-0.2702134847640991,-0.1638585478067398
1772806436606750500,4.36575048828125,-0.008229585364460945,-0.19517622888088226,-0.10420842468738556
1772806436616681200,4.37568115234375,-0.07294625788927078,-0.11624307185411453,-0.03992556780576706
1772806436626613500,4.385613525390625,-0.14858101308345795,-0.04444372281432152,0.006165861617773771
1772806436636544500,4.39554443359375,-0.22675997018814087,0.0364370122551918,0.03198494017124176
1772806436646475500,4.4054755859375,-0.2758558690547943,0.07712185382843018,0.029913002625107765
1772806436656407300,4.4154072265625,-0.2943432629108429,0.06445638835430145,0.010981922037899494
1772806436666338600,4.425338623046875,-0.3057362139225006,0.04379471391439438,-0.008333268575370312
1772806436676270600,4.4352705078125,-0.3034040927886963,0.010990162380039692,-0.042808420956134796
1772806436686201300,4.445201416015625,-0.31543028354644775,-0.0029141115956008434,-0.06538326293230057
1772806436696133400,4.45513330078125,-0.35536038875579834,0.017687568441033363,-0.053621407598257065
1772806436706064400,4.465064453125,-0.3926382064819336,0.063633032143116,-0.016797160729765892
1772806436715996400,4.474996337890625,-0.42167943716049194,0.10226484388113022,0.020173106342554092
1772806436725927400,4.484927490234375,-0.43088456988334656,0.14526396989822388,0.05788569897413254
1772806436735859500,4.494859375,-0.4297391474246979,0.18072794377803802,0.13353438675403595
1772806436745790500,4.50479052734375,-0.4250129163265228,0.18774980306625366,0.21646136045455933
1772806436755721200,4.51472119140625,-0.404121458530426,0.17270427942276,0.2893451452255249
1772806436765653200,4.5246533203125,-0.36861881613731384,0.12383036315441132,0.33453014492988586
1772806436775584500,4.53458447265625,-0.3158453702926636,0.04032775014638901,0.33395305275917053
1772806436785516500,4.5445166015625,-0.25650107860565186,-0.06013121455907822,0.2869572937488556
1772806436795447300,4.554447265625,-0.20349432528018951,-0.16131483018398285,0.22621673345565796
1772806436805379300,4.56437939453125,-0.1729513704776764,-0.25577789545059204,0.1736510694026947
1772806436815310600,4.574310546875,-0.17491571605205536,-0.3195350170135498,0.16706614196300507
1772806436825242600,4.58424267578125,-0.20556706190109253,-0.33809611201286316,0.19574777781963348
1772806436835173400,4.59417333984375,-0.254509299993515,-0.2807721197605133,0.2525266408920288
1772806436845105400,4.60410546875,-0.2983382046222687,-0.19132262468338013,0.3096906542778015
1772806436855036400,4.614036376953125,-0.3313371539115906,-0.10248276591300964,0.34790727496147156
1772806436864968400,4.623968505859375,-0.3540653586387634,-0.06939126551151276,0.35659635066986084
1772806436874899500,4.6338994140625,-0.35818740725517273,-0.07851206511259079,0.31560444831848145
1772806436884830500,4.64383056640625,-0.3385530412197113,-0.0860561951994896,0.22245703637599945
1772806436894762500,4.653762451171875,-0.30834051966667175,-0.06976857036352158,0.10922980308532715
1772806436904693200,4.663693359375,-0.2697821855545044,-0.021128222346305847,-0.017436115071177483
1772806436914625300,4.673625244140625,-0.23477011919021606,0.047734733670949936,-0.11499623209238052
1772806436924556500,4.683556640625,-0.21213430166244507,0.05701516568660736,-0.14059452712535858
1772806436934488600,4.693488525390625,-0.21341048181056976,0.011724384501576424,-0.08329475671052933
1772806436944419300,4.70341943359375,-0.2640012204647064,-0.0664420947432518,0.058819159865379333
1772806436954351400,4.713351318359375,-0.36339226365089417,-0.12119428813457489,0.2774801254272461
1772806436964282600,4.72328271484375,-0.5002362132072449,-0.12080264091491699,0.5225192308425903
1772806436974214700,4.733214599609375,-0.6259317994117737,-0.05460551008582115,0.7324727177619934
1772806436984145400,4.7431455078125,-0.7132153511047363,0.059998415410518646,0.8873105049133301
1772806436994077400,4.753077392578125,-0.7443508505821228,0.20157207548618317,0.9741295576095581
1772806437004008400,4.763008544921875,-0.7170242667198181,0.3536778688430786,0.9860838055610657
1772806437013939500,4.772939453125,-0.6513763070106506,0.4773334860801697,0.9088071584701538
1772806437023871500,4.78287158203125,-0.5472400784492493,0.565254807472229,0.7405607104301453
1772806437033802500,4.792802490234375,-0.4028381407260895,0.5795564651489258,0.47787660360336304
1772806437043734500,4.802734619140625,-0.22539739310741425,0.5190714001655579,0.1552019715309143
1772806437053665300,4.812665283203125,-0.046726442873477936,0.4066377580165863,-0.16330569982528687
1772806437063597600,4.82259765625,0.09685979783535004,0.2830486297607422,-0.4259779155254364
1772806437073528600,4.832528564453125,0.19067177176475525,0.16136187314987183,-0.6094670295715332
1772806437083460400,4.84246044921875,0.2396325021982193,0.06445536762475967,-0.6952189207077026
1772806437093391400,4.852391357421875,0.2380433976650238,0.024446962401270866,-0.6751043200492859
1772806437103323400,4.862323486328125,0.18349970877170563,0.0063035753555595875,-0.5522891283035278
1772806437113254700,4.872254638671875,0.09067841619253159,0.021541116759181023,-0.36112475395202637
1772806437123186400,4.8821865234375,-0.027197901159524918,0.07581790536642075,-0.13055196404457092
1772806437133117400,4.892117431640625,-0.14885908365249634,0.14344994723796844,0.09083156287670135
1772806437143048400,4.90204833984375,-0.26994937658309937,0.20176401734352112,0.24486389756202698
1772806437152980200,4.911980224609375,-0.38671329617500305,0.24910864233970642,0.32646849751472473
1772806437162911500,4.921911376953125,-0.4791063070297241,0.2973902225494385,0.35963010787963867
1772806437172843500,4.931843505859375,-0.5586618781089783,0.33257031440734863,0.36661770939826965
1772806437182774500,4.9417744140625,-0.6036369204521179,0.3604159355163574,0.3642885386943817
1772806437192706300,4.951706298828125,-0.6024177074432373,0.36679553985595703,0.35174399614334106
1772806437202637300,4.96163720703125,-0.562940776348114,0.37317201495170593,0.33002427220344543
1772806437212569600,4.971569580078125,-0.5152573585510254,0.39215850830078125,0.294871062040329
1772806437222500400,4.981500244140625,-0.4336237907409668,0.42005252838134766,0.24564313888549805
1772806437232433000,4.991432861328125,-0.3144758343696594,0.39335885643959045,0.1642867624759674
1772806437242364000,5.001364013671875,-0.17535650730133057,0.33439311385154724,0.05125356838107109
1772806437252294700,5.011294677734375,-0.024356074631214142,0.24955439567565918,-0.07188168168067932
1772806437262227000,5.02122705078125,0.13595706224441528,0.1528371423482895,-0.19946660101413727
1772806437272158000,5.031157958984375,0.29979607462882996,0.05187750980257988,-0.32487669587135315
1772806437282089700,5.04108984375,0.43356502056121826,-0.03740609809756279,-0.43161267042160034
1772806437292020700,5.051020751953125,0.5371526479721069,-0.1105804443359375,-0.5196506381034851
1772806437301952800,5.060952880859375,0.6140101552009583,-0.16671425104141235,-0.602576732635498
1772806437311884000,5.070884033203125,0.6667159795761108,-0.21017996966838837,-0.6771250367164612
1772806437321815800,5.08081591796875,0.697586178779602,-0.2311326563358307,-0.7422769069671631
1772806437331746800,5.090746826171875,0.6980682015419006,-0.2502610683441162,-0.7738679051399231
1772806437341678800,5.100678955078125,0.6606776714324951,-0.27454468607902527,-0.7539446949958801
1772806437351609600,5.110609619140625,0.5851991772651672,-0.29786890745162964,-0.6691272258758545
1772806437361541600,5.120541748046875,0.4777020215988159,-0.2980321943759918,-0.5197953581809998
1772806437371473000,5.130472900390625,0.3615671396255493,-0.2728525400161743,-0.3484680950641632
1772806437381405000,5.140405029296875,0.26937246322631836,-0.2033630609512329,-0.1729201078414917
1772806437391335700,5.150335693359375,0.22370964288711548,-0.12857110798358917,-0.04025180637836456
1772806437401266700,5.1602666015625,0.2503833770751953,-0.06801619380712509,0.02107268013060093
1772806437411199000,5.170198974609375,0.331473171710968,-0.0370902381837368,0.01673865132033825
1772806437421129700,5.180129638671875,0.45389387011528015,-0.06406066566705704,-0.04679363593459129
1772806437431061800,5.190061767578125,0.5877129435539246,-0.16126525402069092,-0.15099860727787018
1772806437440992800,5.19999267578125,0.6927239298820496,-0.2986448109149933,-0.26907849311828613
1772806437450924800,5.2099248046875,0.7606947422027588,-0.43618136644363403,-0.37908488512039185
1772806437460855800,5.219855712890625,0.7861502170562744,-0.5399429798126221,-0.4631381332874298
1772806437470787800,5.229787841796875,0.7956079244613647,-0.5849735736846924,-0.49055859446525574
1772806437480718800,5.23971875,0.8036788702011108,-0.560635507106781,-0.4672050178050995
1772806437490651000,5.24965087890625,0.8268347978591919,-0.49334967136383057,-0.40584924817085266
1772806437500581600,5.25958154296875,0.8582735061645508,-0.42925360798835754,-0.34146350622177124
1772806437510513700,5.269513671875,0.8731403350830078,-0.38549894094467163,-0.2894650101661682
1772806437520445000,5.27944482421875,0.8656656742095947,-0.3646848797798157,-0.261746346950531
1772806437530375700,5.289375732421875,0.8372046947479248,-0.3545992076396942,-0.2535715103149414
1772806437540307700,5.2993076171875,0.8007850050926208,-0.36937421560287476,-0.2501510679721832
1772806437550238700,5.30923876953125,0.7704369425773621,-0.3834511637687683,-0.2359023541212082
1772806437560171000,5.3191708984375,0.7530911564826965,-0.3740311563014984,-0.22806605696678162
1772806437570101800,5.329101806640625,0.7602568864822388,-0.3521495759487152,-0.23443393409252167
1772806437580033800,5.33903369140625,0.7847501039505005,-0.32340535521507263,-0.24518322944641113
1772806437589964800,5.34896484375,0.8133708238601685,-0.3099161684513092,-0.23778337240219116
1772806437599896800,5.358896728515625,0.8392782211303711,-0.2963312566280365,-0.20221959054470062
1772806437609827800,5.368827880859375,0.8681942820549011,-0.30087462067604065,-0.1559162735939026
1772806437619759900,5.378759765625,0.9106793999671936,-0.3226564824581146,-0.11790933459997177
1772806437629691000,5.38869091796875,0.9652991890907288,-0.3741135597229004,-0.10547077655792236
1772806437639623000,5.398622802734375,1.0245320796966553,-0.45893019437789917,-0.1403856873512268
1772806437649553700,5.4085537109375,1.0819144248962402,-0.5559696555137634,-0.20280511677265167
1772806437659485000,5.41848486328125,1.1079442501068115,-0.6583911180496216,-0.28396522998809814
1772806437669417000,5.4284169921875,1.1100393533706665,-0.7448961734771729,-0.3663248121738434
1772806437679347700,5.43834765625,1.0864980220794678,-0.8290286660194397,-0.44265320897102356
1772806437689279700,5.44827978515625,1.0262764692306519,-0.8234240412712097,-0.4784967005252838
1772806437699211000,5.4582109375,0.9254917502403259,-0.7670382261276245,-0.47074732184410095
1772806437709143000,5.46814306640625,0.8112296462059021,-0.7009018063545227,-0.38164061307907104
1772806437719073800,5.47807373046875,0.6776705980300903,-0.6524753570556641,-0.22350013256072998
1772806437729005800,5.488005859375,0.5225486755371094,-0.6088988184928894,-0.000006853700142528396
1772806437738936800,5.497936767578125,0.3404960036277771,-0.5278692245483398,0.24576935172080994
1772806437748868600,5.50786865234375,0.12531845271587372,-0.3981655240058899,0.48213955760002136
1772806437758800000,5.5177998046875,-0.08139491081237793,-0.24131350219249725,0.6692569851875305
1772806437768732000,5.52773193359375,-0.24733196198940277,-0.07886920124292374,0.7921253442764282
1772806437778663000,5.537662841796875,-0.3587324321269989,0.0428188294172287,0.8176835775375366
1772806437788593700,5.54759375,-0.3933998644351959,0.11665550619363785,0.7573952078819275
1772806437798525700,5.557525634765625,-0.3559727668762207,0.11626648157835007,0.6313549876213074
1772806437808457000,5.56745703125,-0.26584795117378235,0.05201132968068123,0.4424354135990143
1772806437818388700,5.577388671875,-0.135245218873024,-0.04992230236530304,0.20854605734348297
1772806437828319700,5.58731982421875,-0.021734092384576797,-0.17789092659950256,-0.023441646248102188
1772806437838251800,5.597251708984375,0.037439264357089996,-0.27813050150871277,-0.2011938840150833
1772806437848183000,5.60718310546875,0.021653644740581512,-0.34810319542884827,-0.30724015831947327
1772806437858114800,5.61711474609375,-0.06123378127813339,-0.3696604371070862,-0.33858156204223633
1772806437868045800,5.6270458984375,-0.197947159409523,-0.3083598017692566,-0.28709253668785095
1772806437877977900,5.636977783203125,-0.3734070956707001,-0.14996449649333954,-0.18033555150032043
1772806437887908600,5.64690869140625,-0.5520785450935364,0.018424782902002335,-0.05196532979607582
1772806437897840600,5.656840576171875,-0.6953014731407166,0.17314793169498444,0.09149379283189774
1772806437907772000,5.66677197265625,-0.7847605347633362,0.2783774137496948,0.22244088351726532
1772806437917703000,5.676702880859375,-0.8107532858848572,0.3380720615386963,0.33774417638778687
1772806437927634700,5.686634765625,-0.8203310966491699,0.361958771944046,0.4254407286643982
1772806437937565700,5.696565673828125,-0.8196870684623718,0.36222830414772034,0.47841426730155945
1772806437947497700,5.706497802734375,-0.8098387122154236,0.3522379696369171,0.5115213394165039
1772806437957429000,5.716428955078125,-0.7946302890777588,0.3226982653141022,0.5329949259757996
1772806437967360800,5.72636083984375,-0.7748291492462158,0.3059139549732208,0.5630431175231934
1772806437977291800,5.736291748046875,-0.7435942888259888,0.2952609062194824,0.619983971118927
1772806437987223800,5.746223876953125,-0.6962464451789856,0.3138819932937622,0.6852980256080627
1772806437997154800,5.75615478515625,-0.6305518746376038,0.327157199382782,0.735964834690094
1772806438007086800,5.7660869140625,-0.568606972694397,0.3050210177898407,0.7325935363769531
1772806438017017900,5.776017822265625,-0.49580684304237366,0.26063594222068787,0.6565927863121033
1772806438026948900,5.785948974609375,-0.4303615093231201,0.17855039238929749,0.5347713232040405
1772806438036880600,5.795880615234375,-0.39086705446243286,0.07765181362628937,0.4294660985469818
1772806438046812000,5.80581201171875,-0.3835873007774353,-0.016118619590997696,0.34750357270240784
1772806438056744000,5.815743896484375,-0.39786872267723083,-0.06603489816188812,0.28988248109817505
1772806438066674700,5.8256748046875,-0.4343987703323364,-0.055814217776060104,0.2616700232028961
1772806438076606700,5.835606689453125,-0.49009600281715393,0.01757011190056801,0.2500368654727936
1772806438086537700,5.845537841796875,-0.5450716614723206,0.13363732397556305,0.2387610226869583
1772806438096469800,5.8554697265625,-0.5954765677452087,0.25981900095939636,0.21583959460258484
1772806438106400800,5.86540087890625,-0.631105363368988,0.3513670265674591,0.1749744564294815
1772806438116332800,5.875332763671875,-0.6505228877067566,0.37810060381889343,0.11625571548938751
1772806438126263800,5.885263916015625,-0.6632629036903381,0.36952388286590576,0.036539316177368164
1772806438136195800,5.89519580078125,-0.6769244074821472,0.36450818181037903,-0.0274092648178339
1772806438146126800,5.905126953125,-0.7113849520683289,0.3530283570289612,-0.04733956232666969
1772806438156057900,5.915057861328125,-0.7730047106742859,0.3713324964046478,-0.01753241941332817
1772806438165990000,5.924989990234375,-0.8535522818565369,0.40369710326194763,0.034124113619327545
1772806438175920600,5.934920654296875,-0.921629786491394,0.44730448722839355,0.10552516579627991
1772806438185852700,5.944852783203125,-0.9760448336601257,0.5013964772224426,0.1877976655960083
1772806438195784000,5.954783935546875,-1.0142908096313477,0.5461466312408447,0.25514471530914307
1772806438205716000,5.964716064453125,-1.0258995294570923,0.5458694100379944,0.2783389687538147
1772806438215646700,5.974646728515625,-1.0268449783325195,0.5093669891357422,0.27966564893722534
1772806438225578800,5.984578857421875,-1.039576768875122,0.459334135055542,0.29052284359931946
1772806438235509800,5.994509765625,-1.065320372581482,0.3871869146823883,0.2943505644798279
1772806438245441800,6.00444189453125,-1.0825304985046387,0.32143157720565796,0.2867507040500641
1772806438255373000,6.014373046875,-1.0915796756744385,0.28504320979118347,0.2731701135635376
1772806438265305000,6.02430517578125,-1.0938782691955566,0.28145697712898254,0.2784900367259979
1772806438275235800,6.03423583984375,-1.0911602973937988,0.2961460053920746,0.30873236060142517
1772806438285167900,6.04416796875,-1.0803982019424438,0.348340779542923,0.33031007647514343
1772806438295099100,6.05409912109375,-1.057361364364624,0.4192064702510834,0.3438069522380829
1772806438305030000,6.06402978515625,-1.0005569458007812,0.45341476798057556,0.31347140669822693
1772806438314962000,6.0739619140625,-0.9161354899406433,0.4047392010688782,0.24424348771572113
1772806438324893000,6.083892822265625,-0.8452003598213196,0.29774805903434753,0.17295359075069427
1772806438334825000,6.093824951171875,-0.799224853515625,0.15634609758853912,0.11876510828733444
1772806438344756000,6.103755859375,-0.7779941558837891,0.009354526177048683,0.08390699326992035
1772806438354688000,6.11368798828125,-0.7794011235237122,-0.08489655703306198,0.07939625531435013
1772806438364619000,6.123618896484375,-0.8000091910362244,-0.13244517147541046,0.1087818443775177
1772806438374551000,6.133551025390625,-0.8157185316085815,-0.10429579764604568,0.16553254425525665
1772806438384481800,6.143481689453125,-0.8171989917755127,-0.035706352442502975,0.21225103735923767
1772806438394413800,6.153413818359375,-0.7711512446403503,0.07657729834318161,0.2873658537864685
1772806438404345000,6.163344970703125,-0.8666069507598877,0.1988249123096466,0.45516738295555115
1772806438414277000,6.173277099609375,-0.7072330713272095,0.17093440890312195,0.39421847462654114
1772806438424208000,6.183207763671875,-0.479557603597641,-0.07414139807224274,0.1874716877937317
1772806438434139100,6.19313916015625,-0.30909913778305054,-0.24469830095767975,-0.030495353043079376
1772806438444071200,6.2030712890625,-0.2507154643535614,-0.3456643223762512,-0.2764984667301178
1772806438454002000,6.213001953125,-0.2421606332063675,-0.5321911573410034,-0.5457367897033691
1772806438463934000,6.222933837890625,-0.2432248294353485,-0.7199538946151733,-0.7393932938575745
1772806438473865000,6.232864990234375,-0.2554391026496887,-0.8142728209495544,-0.7423346042633057
1772806438483797000,6.242796875,-0.30063772201538086,-0.7609156370162964,-0.5419506430625916
1772806438493728000,6.25272802734375,-0.3706490397453308,-0.6142458915710449,-0.28111183643341064
1772806438503660000,6.262659912109375,-0.4275709390640259,-0.4678839147090912,-0.0638415589928627
1772806438513591000,6.272591064453125,-0.4209238588809967,-0.3360399007797241,0.07801981270313263
1772806438523523000,6.282523193359375,-0.3430285155773163,-0.14825108647346497,0.15435773134231567
1772806438533453800,6.292453857421875,-0.20864659547805786,0.07570470124483109,0.19541583955287933
1772806438543385900,6.3023857421875,-0.0570453517138958,0.34448716044425964,0.2282281219959259
1772806438553317000,6.312317138671875,0.07110545039176941,0.5665640234947205,0.26384684443473816
1772806438563247900,6.322247802734375,0.14548008143901825,0.609268844127655,0.2833864390850067
1772806438573180000,6.332179931640625,0.15199877321720123,0.5286224484443665,0.27321678400039673
1772806438583111200,6.342111083984375,0.09549473971128464,0.3811933100223541,0.2336944043636322
1772806438593043200,6.352043212890625,-0.007656289730221033,0.21106716990470886,0.1556217223405838
1772806438602974000,6.361973876953125,-0.12113944441080093,0.091734379529953,0.07909312844276428
1772806438612906000,6.371906005859375,-0.19404108822345734,0.04399694874882698,0.014584708027541637
1772806438622837000,6.3818369140625,-0.21162725985050201,0.05013979598879814,-0.01328793540596962
1772806438632768800,6.391768798828125,-0.16968058049678802,0.08819941431283951,-0.019942497834563255
1772806438642700000,6.401699951171875,-0.10634473711252213,0.08945029973983765,-0.032933663576841354
1772806438652632000,6.411632080078125,-0.06441695243120193,0.0745156928896904,-0.023676825687289238
1772806438662563000,6.42156298828125,-0.056574746966362,0.10268981009721756,0.015510791912674904
1772806438672494800,6.431494873046875,-0.07546907663345337,0.17522047460079193,0.05482251197099686
1772806438682425900,6.44142578125,-0.1219356432557106,0.29394447803497314,0.07248832285404205
1772806438692357000,6.451357177734375,-0.17623740434646606,0.41151028871536255,0.03343099728226662
1772806438702289000,6.461288818359375,-0.21401061117649078,0.47835269570350647,-0.044134631752967834
1772806438712220000,6.471219970703125,-0.22900767624378204,0.47086116671562195,-0.13297098875045776
1772806438722152000,6.48115185546875,-0.21207210421562195,0.389754056930542,-0.22774356603622437
1772806438732083200,6.491083251953125,-0.16739311814308167,0.22989866137504578,-0.3395157754421234
1772806438742015000,6.501014892578125,-0.10199947655200958,0.06686580181121826,-0.4356391131877899
1772806438751946000,6.510946044921875,-0.03298326954245567,-0.0690794512629509,-0.4846649467945099
1772806438761878000,6.5208779296875,0.023751646280288696,-0.14090117812156677,-0.48095330595970154
1772806438771808800,6.530808837890625,0.04336794465780258,-0.15325188636779785,-0.4414684474468231
1772806438781740800,6.54074072265625,0.04203157126903534,-0.13550591468811035,-0.3609440326690674
1772806438791672000,6.550672119140625,0.021028900519013405,-0.10710012167692184,-0.2504779100418091
1772806438801604000,6.56060400390625,-0.019462864845991135,-0.05375620350241661,-0.11153731495141983
1772806438811534800,6.570534912109375,-0.07099396735429764,-0.003441102569922805,-0.011171562597155571
1772806438821465900,6.5804658203125,-0.10864946991205215,0.0006705517880618572,0.025828268378973007
1772806438831398000,6.59039794921875,-0.12597496807575226,-0.023068038746714592,0.008005451411008835
1772806438841329200,6.6003291015625,-0.10303956270217896,-0.059361863881349564,-0.07389527559280396
1772806438851261000,6.610260986328125,-0.04234173148870468,-0.08728275448083878,-0.19209542870521545
1772806438861192000,6.62019189453125,0.04306371137499809,-0.1026792824268341,-0.29406121373176575
1772806438871124000,6.6301240234375,0.14134356379508972,-0.10338521748781204,-0.37256988883018494
1772806438881055000,6.640054931640625,0.22754822671413422,-0.11065272241830826,-0.4093337655067444
1772806438890987000,6.649987060546875,0.2814476490020752,-0.1131349503993988,-0.40691104531288147
1772806438900918000,6.65991796875,0.30144184827804565,-0.06935764104127884,-0.382101833820343
1772806438910850000,6.66985009765625,0.30759701132774353,-0.02282358705997467,-0.33768230676651
1772806438920780800,6.67978076171875,0.31050145626068115,-0.01716916635632515,-0.2981806993484497
1772806438930712800,6.689712890625,0.32067322731018066,-0.05012248083949089,-0.274278461933136
1772806438940644000,6.69964404296875,0.3487764894962311,-0.10211111605167389,-0.27327126264572144
1772806438950576000,6.709576171875,0.3868085741996765,-0.16759878396987915,-0.28169509768486023
1772806438960507000,6.7195068359375,0.42507073283195496,-0.22210143506526947,-0.30722737312316895
1772806438970438000,6.72943798828125,0.4498087763786316,-0.24216248095035553,-0.31537699699401855
1772806438980370000,6.739369873046875,0.45883023738861084,-0.2537440359592438,-0.3123311400413513
1772806438990301000,6.749301025390625,0.45547106862068176,-0.2513342797756195,-0.3115556836128235
1772806439000233000,6.75923291015625,0.4490158259868622,-0.24968579411506653,-0.31705912947654724
1772806439010164000,6.7691640625,0.4504694640636444,-0.25633516907691956,-0.3298032879829407
1772806439020096000,6.779095947265625,0.4656484127044678,-0.26742804050445557,-0.3492491543292999
1772806439030027000,6.789027099609375,0.500322699546814,-0.24773365259170532,-0.3484857678413391
1772806439039959000,6.798958984375,0.5349512696266174,-0.2658676505088806,-0.3342655599117279
1772806439049890000,6.80889013671875,0.5654463171958923,-0.29159125685691833,-0.31890901923179626
1772806439059822000,6.818822021484375,0.5859348177909851,-0.3140241205692291,-0.3062821924686432
1772806439069752800,6.8287529296875,0.597217321395874,-0.33075639605522156,-0.3012971878051758
1772806439079684000,6.83868408203125,0.5974551439285278,-0.34298375248908997,-0.30758199095726013
1772806439089616100,6.8486162109375,0.6028029322624207,-0.35055598616600037,-0.31487685441970825
1772806439099547000,6.858546875,0.6091085076332092,-0.36421266198158264,-0.3294909596443176
1772806439109479000,6.86847900390625,0.6172718405723572,-0.36205926537513733,-0.33572471141815186
1772806439119410000,6.878409912109375,0.6338949799537659,-0.3519810736179352,-0.34064143896102905
1772806439129342000,6.888342041015625,0.6479782462120056,-0.33255162835121155,-0.3396459221839905
1772806439139273000,6.89827294921875,0.6704041361808777,-0.3055570423603058,-0.319767564535141
1772806439149205000,6.908205078125,0.7061122059822083,-0.3012664318084717,-0.2798841893672943
1772806439159136000,6.918135986328125,0.7476540207862854,-0.30322545766830444,-0.2149137407541275
1772806439169068000,6.928068115234375,0.7839601635932922,-0.3048665523529053,-0.12345530837774277
1772806439178999000,6.9379990234375,0.8100348711013794,-0.303541362285614,-0.04384836554527283
1772806439188931000,6.94793115234375,0.8128984570503235,-0.31949612498283386,0.0030160178430378437
1772806439198862000,6.957862060546875,0.8119378685951233,-0.3267524242401123,0.015413298271596432
1772806439208793900,6.9677939453125,0.7919713854789734,-0.352324903011322,-0.0009728649165481329
1772806439218724900,6.977724853515625,0.7854200005531311,-0.3888123333454132,-0.0284431055188179
1772806439228655600,6.987655517578125,0.7960600256919861,-0.44174158573150635,-0.04829254373908043
1772806439238587600,6.997587646484375,0.8150358200073242,-0.45607390999794006,-0.06516101211309433
1772806439248518700,7.0075185546875,0.8301721811294556,-0.4453253746032715,-0.050650548189878464
1772806439258450400,7.017450439453125,0.8220000267028809,-0.4491898715496063,-0.02205672115087509
1772806439268381700,7.027381591796875,0.7913058996200562,-0.4787626564502716,-0.004497906193137169
1772806439278313700,7.037313720703125,0.760759711265564,-0.44583266973495483,0.0646851658821106
1772806439288244700,7.04724462890625,0.7295323014259338,-0.3094947934150696,0.19519053399562836
1772806439298176500,7.057176513671875,0.7044399976730347,-0.16496986150741577,0.30342939496040344
1772806439308107500,7.067107421875,0.6891888976097107,-0.03930148482322693,0.3924752175807953
1772806439318039600,7.07703955078125,0.7028378248214722,0.030781462788581848,0.4195747375488281
1772806439327970600,7.086970458984375,0.7600739002227783,0.007801026105880737,0.3456844687461853
1772806439337902600,7.096902587890625,0.8518080711364746,-0.09149147570133209,0.18304042518138885
1772806439347833600,7.10683349609375,0.959494948387146,-0.18801601231098175,-0.0026137602981179953
1772806439357764600,7.1167646484375,1.0578566789627075,-0.2623690962791443,-0.2158336192369461
1772806439367696600,7.126696533203125,1.1432007551193237,-0.345814973115921,-0.4236191213130951
1772806439377627600,7.136627685546875,1.1842032670974731,-0.39238885045051575,-0.5457103848457336
1772806439387559700,7.1465595703125,1.1839643716812134,-0.3827141523361206,-0.5779522657394409
1772806439397490400,7.156490478515625,1.1670434474945068,-0.3491165041923523,-0.5412411689758301
1772806439407422500,7.16642236328125,1.1278538703918457,-0.30473825335502625,-0.4545323848724365
1772806439417353700,7.176353759765625,1.0497156381607056,-0.251442551612854,-0.32106834650039673
1772806439427285800,7.18628564453125,0.9023804068565369,-0.24735882878303528,-0.13088634610176086
1772806439437216500,7.196216552734375,0.6867357492446899,-0.2595611810684204,0.08176599442958832
1772806439447148500,7.2061484375,0.44199642539024353,-0.25336870551109314,0.30000296235084534
1772806439457079600,7.21607958984375,0.23477321863174438,-0.21093815565109253,0.5029118657112122
1772806439467011600,7.226011474609375,0.14046187698841095,-0.14275327324867249,0.6440101861953735
1772806439476942600,7.235942626953125,0.17230874300003052,-0.055975232273340225,0.6904048323631287
1772806439486873600,7.24587353515625,0.3864871859550476,-0.0042501953430473804,0.5601917505264282
1772806439496805600,7.2558056640625,0.658562958240509,-0.10452140867710114,0.2648594081401825
1772806439506736600,7.265736572265625,0.9004443287849426,-0.18899932503700256,-0.0038051772862672806
1772806439516668700,7.275668701171875,1.0602556467056274,-0.26006442308425903,-0.25002267956733704
1772806439526599700,7.285599609375,1.086114764213562,-0.3310171067714691,-0.4078843593597412
1772806439536531700,7.29553173828125,1.0006667375564575,-0.35606279969215393,-0.47904083132743835
1772806439546462500,7.30546240234375,0.827001690864563,-0.3486669361591339,-0.4838058352470398
1772806439556394500,7.31539453125,0.6113516688346863,-0.3257744312286377,-0.46293437480926514
1772806439566325800,7.32532568359375,0.4031955897808075,-0.283337265253067,-0.4031987190246582
1772806439576257800,7.3352578125,0.2566133439540863,-0.2219407558441162,-0.33923760056495667
1772806439586188500,7.3451884765625,0.1787433624267578,-0.18588995933532715,-0.28932929039001465
1772806439596120600,7.35512060546875,0.15926820039749146,-0.15005579590797424,-0.21313492953777313
1772806439606051600,7.365051513671875,0.150629922747612,-0.13330116868019104,-0.10185115039348602
1772806439615982600,7.374982666015625,0.09873583167791367,-0.0994286835193634,0.03281691297888756
1772806439625914600,7.38491455078125,-0.0011857592035084963,-0.06039544194936752,0.16998204588890076
1772806439635845600,7.394845703125,-0.1303219199180603,-0.04200604557991028,0.2590163052082062
1772806439645777700,7.404777587890625,-0.2544512450695038,-0.04968399181962013,0.29567646980285645
1772806439655708700,7.414708740234375,-0.3525804877281189,-0.0687175989151001,0.28451383113861084
1772806439665640700,7.424640625,-0.4196231961250305,-0.07259153574705124,0.24378462135791779
1772806439675571700,7.43457177734375,-0.44986793398857117,-0.077091746032238,0.18699032068252563
1772806439685503700,7.444503662109375,-0.4333326816558838,-0.08373381942510605,0.11987337470054626
1772806439695434500,7.4544345703125,-0.37560147047042847,-0.08016066253185272,0.0714656263589859
1772806439705366500,7.464366455078125,-0.29736328125,-0.04075165465474129,0.04626854136586189
1772806439715297800,7.4742978515625,-0.23190094530582428,0.04616779461503029,0.03758477047085762
1772806439725229600,7.4842294921875,-0.18177351355552673,0.16973966360092163,0.056886933743953705
1772806439735160600,7.49416064453125,-0.16296866536140442,0.3151780962944031,0.10594156384468079
1772806439745092600,7.504092529296875,-0.1757546216249466,0.4172809422016144,0.14588814973831177
1772806439755023600,7.514023681640625,-0.19627054035663605,0.4878200888633728,0.1849372833967209
1772806439764954600,7.52395458984375,-0.23571613430976868,0.5491318702697754,0.2251524180173874
1772806439774886700,7.53388671875,-0.2966545820236206,0.5876126885414124,0.2755471467971802
1772806439784817700,7.543817626953125,-0.36672720313072205,0.5773861408233643,0.30739259719848633
1772806439794749400,7.55374951171875,-0.4416043758392334,0.5191680788993835,0.285787433385849
1772806439804680700,7.5636806640625,-0.5140551924705505,0.4200899004936218,0.21740712225437164
1772806439814612700,7.57361279296875,-0.576117753982544,0.2986271381378174,0.11682858318090439
1772806439824543700,7.583543701171875,-0.6360898017883301,0.18531252443790436,0.00976848416030407
1772806439834475500,7.5934755859375,-0.6881639361381531,0.0964130088686943,-0.0852014422416687
1772806439844406500,7.603406494140625,-0.7206934094429016,0.054202914237976074,-0.13566678762435913
1772806439854338600,7.613338623046875,-0.7467707991600037,0.04973306506872177,-0.14855462312698364
1772806439864269600,7.62326953125,-0.7680608034133911,0.08518131077289581,-0.0995548889040947
1772806439874201600,7.63320166015625,-0.792269766330719,0.15201707184314728,-0.008999161422252655
1772806439884132600,7.643132568359375,-0.8248915076255798,0.20983096957206726,0.0939054861664772
1772806439894063600,7.653063720703125,-0.8638991117477417,0.2592557966709137,0.1788986772298813
1772806439903995400,7.662995361328125,-0.9032618403434753,0.28043341636657715,0.24045419692993164
1772806439913926700,7.6729267578125,-0.9350794553756714,0.2895222306251526,0.2567428946495056
1772806439923858700,7.682858642578125,-0.9376397132873535,0.33429574966430664,0.23313522338867188
1772806439933789400,7.69278955078125,-0.9150412082672119,0.43800032138824463,0.24893681704998016
1772806439943721500,7.702721435546875,-0.853686511516571,0.5994191765785217,0.29960986971855164
1772806439953652700,7.71265283203125,-0.7446138262748718,0.8058120608329773,0.3768993318080902
1772806439963584800,7.722584716796875,-0.6479544043540955,0.9991369247436523,0.5428935885429382
1772806439973515500,7.732515625,-0.5730457901954651,1.1004682779312134,0.805610179901123
1772806439983447600,7.742447509765625,-0.5207294821739197,1.024682879447937,1.1017296314239502
1772806439993378600,7.752378662109375,-0.525709867477417,0.8048439621925354,1.336877703666687
1772806440003310600,7.762310546875,-0.555536687374115,0.5439093708992004,1.4244199991226196
1772806440013241600,7.77224169921875,-0.574287474155426,0.3350224196910858,1.3567466735839844
1772806440023172600,7.782172607421875,-0.5742542147636414,0.19636698067188263,1.1982299089431763
1772806440033104600,7.792104736328125,-0.5495576858520508,0.18681955337524414,0.9988608956336975
1772806440043035400,7.802035400390625,-0.5030342936515808,0.273089736700058,0.7889015674591064
1772806440052967400,7.811967529296875,-0.45327308773994446,0.37774237990379333,0.5568406581878662
1772806440062898700,7.821898681640625,-0.4046485126018524,0.42423105239868164,0.35802462697029114
1772806440072830700,7.831830810546875,-0.38218262791633606,0.44283056259155273,0.17836670577526093
1772806440082761500,7.841761474609375,-0.36868003010749817,0.39360812306404114,0.011766140349209309
1772806440092693500,7.851693603515625,-0.38098517060279846,0.24971964955329895,-0.10558898001909256
1772806440102624800,7.861624755859375,-0.42397990822792053,0.06533361971378326,-0.16648054122924805
1772806440112556800,7.871556884765625,-0.5184209942817688,-0.10843843966722488,-0.1719336211681366
1772806440122487600,7.881487548828125,-0.641523003578186,-0.25058257579803467,-0.15620581805706024
1772806440132419600,7.891419677734375,-0.7543891072273254,-0.33714383840560913,-0.12075195461511612
1772806440142350600,7.9013505859375,-0.8062573075294495,-0.3793729245662689,-0.06273302435874939
1772806440152281600,7.911281494140625,-0.7977080345153809,-0.382843017578125,0.011844274587929249
1772806440162213600,7.921213623046875,-0.7182705998420715,-0.32256296277046204,0.08134236931800842
1772806440172144600,7.93114453125,-0.6062889695167542,-0.22690381109714508,0.13904987275600433
1772806440182076700,7.94107666015625,-0.4916232228279114,-0.07989832758903503,0.19208303093910217
1772806440192007400,7.95100732421875,-0.3911253809928894,0.13773146271705627,0.24800993502140045
1772806440201939500,7.960939453125,-0.31696659326553345,0.3571169376373291,0.271542489528656
1772806440211870700,7.97087060546875,-0.2936338484287262,0.49617335200309753,0.2454482913017273
1772806440221802800,7.980802734375,-0.30465632677078247,0.541471004486084,0.21536928415298462
1772806440231732500,7.990732421875,-0.339661180973053,0.5061958432197571,0.17967866361141205
1772806440241664000,8.0006640625,-0.3856234848499298,0.44432175159454346,0.13088342547416687
1772806440251595800,8.010595703125,-0.40893518924713135,0.3811070919036865,0.06872870028018951
1772806440261526800,8.02052685546875,-0.41112834215164185,0.29864513874053955,-0.012008368968963623
1772806440271458800,8.030458740234375,-0.3991563618183136,0.2213468849658966,-0.07169459760189056
1772806440281389800,8.040389892578125,-0.37803658843040466,0.1824251115322113,-0.08986879140138626
1772806440291321900,8.05032177734375,-0.3470251262187958,0.19195309281349182,-0.09042272716760635
1772806440301252900,8.0602529296875,-0.31176015734672546,0.2383299618959427,-0.07973454147577286
1772806440311185000,8.070184814453125,-0.2823388874530792,0.29129332304000854,-0.0500141978263855
1772806440321115600,8.08011572265625,-0.26545050740242004,0.32418981194496155,-0.013053125701844692
1772806440331047700,8.090047607421875,-0.25189822912216187,0.3333902359008789,0.03554796800017357
1772806440340979000,8.09997900390625,-0.22261160612106323,0.3208068609237671,0.07559375464916229
1772806440350909700,8.10990966796875,-0.21009714901447296,0.28208157420158386,0.11276748776435852
1772806440360841700,8.119841796875,-0.215171217918396,0.2720293402671814,0.15348681807518005
1772806440370772700,8.129772705078125,-0.2097088098526001,0.44897934794425964,0.2947174608707428
1772806440380704800,8.139704833984375,-0.2122759073972702,0.4999338984489441,0.21278148889541626
1772806440390635800,8.1496357421875,-0.20798315107822418,0.4426964223384857,0.10709552466869354
1772806440400567800,8.15956787109375,-0.20351622998714447,0.3630977272987366,-0.05548699200153351
1772806440410498800,8.169498779296875,-0.18508049845695496,0.27799561619758606,-0.21062597632408142
1772806440420430800,8.179430908203125,-0.15846432745456696,0.1974915713071823,-0.30823591351509094
1772806440430361900,8.18936181640625,-0.12769922614097595,0.12098454684019089,-0.353030800819397
1772806440440294000,8.1992939453125,-0.10357018560171127,0.07229717820882797,-0.35129281878471375
1772806440450225000,8.209224853515625,-0.08501780778169632,0.05536453053355217,-0.3368542492389679
1772806440460157000,8.219156982421875,-0.08051888644695282,0.026072993874549866,-0.34054097533226013
1772806440470087700,8.229087646484375,-0.07659552246332169,-0.0034814360551536083,-0.34155672788619995
1772806440480019000,8.23901904296875,-0.06198648735880852,-0.03833366930484772,-0.33306434750556946
1772806440489951000,8.248950927734375,-0.03669418394565582,-0.055056989192962646,-0.30358901619911194
1772806440499881700,8.2588818359375,-0.008427641354501247,-0.083057701587677,-0.2714604139328003
