time,seconds_elapsed,z,y,x
1772806946629697500,0.059697509765625,-0.996734619140625,-0.021331787109375,-0.00830078125
1772806946639629600,0.069629638671875,-0.9963836669921875,-0.0219573974609375,-0.0077056884765625
1772806946649560600,0.079560546875,-0.9970245361328125,-0.0223388671875,-0.0091400146484375
1772806946659492600,0.08949267578125,-0.99737548828125,-0.0228424072265625,-0.0064849853515625
1772806946669424600,0.099424560546875,-0.9964141845703125,-0.0221710205078125,-0.0092010498046875
1772806946679356700,0.109356689453125,-0.9952239990234375,-0.0224761962890625,-0.0099639892578125
1772806946689287400,0.119287353515625,-0.9958953857421875,-0.022979736328125,-0.0099639892578125
1772806946699219500,0.129219482421875,-0.9957275390625,-0.0234375,-0.009674072265625
1772806946709151500,0.1391513671875,-0.99462890625,-0.0220947265625,-0.00927734375
1772806946719083500,0.14908349609375,-0.996368408203125,-0.024169921875,-0.009674072265625
1772806946729014500,0.1590146484375,-0.9954071044921875,-0.0239105224609375,-0.0094757080078125
1772806946738946600,0.168946533203125,-0.9955902099609375,-0.0238800048828125,-0.0097198486328125
1772806946748878600,0.178878662109375,-0.9966278076171875,-0.02471923828125,-0.008941650390625
1772806946758810600,0.188810546875,-0.99560546875,-0.02398681640625,-0.00677490234375
1772806946768741600,0.19874169921875,-0.9975128173828125,-0.024566650390625,-0.0060882568359375
1772806946778673700,0.208673583984375,-0.997039794921875,-0.025726318359375,-0.006195068359375
1772806946788605400,0.21860546875,-0.995880126953125,-0.0236663818359375,-0.0076141357421875
1772806946798537500,0.228537353515625,-0.99505615234375,-0.0244293212890625,-0.0096282958984375
1772806946808468500,0.238468505859375,-0.99658203125,-0.0261688232421875,-0.0103759765625
1772806946818400500,0.248400390625,-0.996795654296875,-0.025299072265625,-0.009918212890625
1772806946828332500,0.25833251953125,-0.996002197265625,-0.0241241455078125,-0.010406494140625
1772806946838264600,0.2682646484375,-0.995697021484375,-0.0242462158203125,-0.009613037109375
1772806946848195600,0.278195556640625,-0.996978759765625,-0.0222015380859375,-0.0089111328125
1772806946858127600,0.288127685546875,-0.9960174560546875,-0.0229339599609375,-0.0084381103515625
1772806946868059600,0.2980595703125,-0.9970703125,-0.0225830078125,-0.0084686279296875
1772806946877991400,0.307991455078125,-0.996795654296875,-0.0229949951171875,-0.0106353759765625
1772806946887922400,0.31792236328125,-0.997314453125,-0.0232086181640625,-0.0109100341796875
1772806946897854500,0.3278544921875,-0.9958038330078125,-0.022613525390625,-0.0114288330078125
1772806946907786500,0.337786376953125,-0.996337890625,-0.0220947265625,-0.0083465576171875
1772806946917717500,0.347717529296875,-0.9966583251953125,-0.0211639404296875,-0.0070953369140625
1772806946927649500,0.3576494140625,-0.995819091796875,-0.021728515625,-0.0082855224609375
1772806946937581600,0.36758154296875,-0.998291015625,-0.0228118896484375,-0.008880615234375
1772806946947513600,0.377513671875,-0.997344970703125,-0.0224609375,-0.0105133056640625
1772806946957444400,0.3874443359375,-0.9946746826171875,-0.0218658447265625,-0.0117950439453125
1772806946967376400,0.39737646484375,-0.9964447021484375,-0.022979736328125,-0.0088348388671875
1772806946977308400,0.407308349609375,-0.99420166015625,-0.02227783203125,-0.006866455078125
1772806946987240400,0.417240478515625,-0.9963836669921875,-0.0250244140625,-0.00823974609375
1772806946997171700,0.427171630859375,-0.9964141845703125,-0.024383544921875,-0.0093994140625
1772806947007103500,0.437103515625,-0.9956512451171875,-0.02490234375,-0.0100555419921875
1772806947017035500,0.447035400390625,-0.9949188232421875,-0.0235748291015625,-0.0098419189453125
1772806947026967600,0.456967529296875,-0.99609375,-0.0234527587890625,-0.0109405517578125
1772806947036898600,0.466898681640625,-0.9974822998046875,-0.0228118896484375,-0.0130462646484375
1772806947046830600,0.47683056640625,-0.997100830078125,-0.02301025390625,-0.0093536376953125
1772806947056762400,0.486762451171875,-0.9959564208984375,-0.022491455078125,-0.0095367431640625
1772806947066694400,0.4966943359375,-0.9971923828125,-0.0228729248046875,-0.007171630859375
1772806947076625700,0.506625732421875,-0.995880126953125,-0.0225982666015625,-0.0082855224609375
1772806947086557700,0.5165576171875,-0.9952850341796875,-0.0228118896484375,-0.0066375732421875
1772806947096489500,0.526489501953125,-0.9955291748046875,-0.023345947265625,-0.0088653564453125
1772806947106421500,0.53642138671875,-0.995147705078125,-0.02142333984375,-0.010101318359375
1772806947116352500,0.5463525390625,-0.99566650390625,-0.02374267578125,-0.010955810546875
1772806947126284500,0.556284423828125,-0.9946746826171875,-0.0232086181640625,-0.009613037109375
1772806947136216600,0.566216552734375,-0.9981231689453125,-0.02337646484375,-0.0082244873046875
1772806947146148400,0.5761484375,-0.9964447021484375,-0.023284912109375,-0.00799560546875
1772806947156079600,0.58607958984375,-0.99676513671875,-0.023406982421875,-0.0082855224609375
1772806947166011600,0.59601171875,-0.9962615966796875,-0.0240020751953125,-0.011383056640625
1772806947175943700,0.605943603515625,-0.997406005859375,-0.0233917236328125,-0.01214599609375
1772806947185874400,0.61587451171875,-0.995819091796875,-0.0235443115234375,-0.0107269287109375
1772806947195806500,0.625806396484375,-0.9962921142578125,-0.025146484375,-0.009185791015625
1772806947205738500,0.635738525390625,-0.9967498779296875,-0.0259552001953125,-0.006378173828125
1772806947215670500,0.64567041015625,-0.995758056640625,-0.025604248046875,-0.0068359375
1772806947225601500,0.6556015625,-0.997161865234375,-0.0258941650390625,-0.00830078125
1772806947235533600,0.665533447265625,-0.9970855712890625,-0.025238037109375,-0.0103759765625
1772806947245465600,0.675465576171875,-0.9968109130859375,-0.025238037109375,-0.0109710693359375
1772806947255397600,0.685397705078125,-0.9957275390625,-0.023773193359375,-0.010345458984375
1772806947265328600,0.69532861328125,-0.9967803955078125,-0.0250396728515625,-0.012359619140625
1772806947275260400,0.705260498046875,-0.9960784912109375,-0.025421142578125,-0.009124755859375
1772806947285192400,0.7151923828125,-0.9958343505859375,-0.0247039794921875,-0.0071868896484375
1772806947295124500,0.72512451171875,-0.9956512451171875,-0.0239715576171875,-0.0076446533203125
1772806947305055700,0.7350556640625,-0.9955291748046875,-0.02313232421875,-0.00836181640625
1772806947314987500,0.744987548828125,-0.9965972900390625,-0.0211334228515625,-0.0099945068359375
1772806947324919600,0.75491943359375,-0.99664306640625,-0.0220184326171875,-0.0111083984375
1772806947334851600,0.7648515625,-0.99700927734375,-0.02178955078125,-0.0114593505859375
1772806947344782600,0.774782470703125,-0.9959564208984375,-0.0210113525390625,-0.0099639892578125
1772806947354714600,0.784714599609375,-0.996307373046875,-0.020172119140625,-0.00830078125
1772806947364646400,0.794646484375,-0.996490478515625,-0.0207977294921875,-0.00640869140625
1772806947374578400,0.804578369140625,-0.995635986328125,-0.0216064453125,-0.006072998046875
1772806947384509400,0.814509521484375,-0.9953155517578125,-0.02093505859375,-0.0092926025390625
1772806947394441700,0.824441650390625,-0.99700927734375,-0.0210113525390625,-0.0125885009765625
1772806947404373800,0.834373779296875,-0.9955291748046875,-0.0221099853515625,-0.0127105712890625
1772806947414305500,0.844305419921875,-0.996978759765625,-0.023223876953125,-0.0113525390625
1772806947424236500,0.854236572265625,-0.997161865234375,-0.024688720703125,-0.0094757080078125
1772806947434168600,0.86416845703125,-0.9973907470703125,-0.02490234375,-0.0049896240234375
1772806947444100600,0.8741005859375,-0.997161865234375,-0.0253448486328125,-0.00592041015625
1772806947454032400,0.884032470703125,-0.9976043701171875,-0.0243072509765625,-0.006744384765625
1772806947463964000,0.8939638671875,-0.9947662353515625,-0.0250701904296875,-0.0095672607421875
1772806947473896000,0.90389599609375,-0.995941162109375,-0.0255126953125,-0.0132904052734375
1772806947483827700,0.91382763671875,-0.9952239990234375,-0.02447509765625,-0.0126953125
1772806947493759000,0.923759033203125,-0.9951629638671875,-0.0259857177734375,-0.0102386474609375
1772806947503691000,0.93369091796875,-0.995880126953125,-0.0237884521484375,-0.0081787109375
1772806947513623000,0.943623046875,-0.9960784912109375,-0.0239105224609375,-0.0072021484375
1772806947523554800,0.953554931640625,-0.9950408935546875,-0.0229949951171875,-0.00567626953125
1772806947533485800,0.96348583984375,-0.995147705078125,-0.023101806640625,-0.006378173828125
1772806947543417900,0.97341796875,-0.996063232421875,-0.023895263671875,-0.009796142578125
1772806947553350000,0.983349853515625,-0.9972991943359375,-0.0237884521484375,-0.01080322265625
1772806947563282000,0.993281982421875,-0.9966583251953125,-0.0230255126953125,-0.0115203857421875
1772806947573213000,1.003212890625,-0.9977264404296875,-0.0229644775390625,-0.0078582763671875
1772806947583145000,1.01314501953125,-0.9958038330078125,-0.0221405029296875,-0.0074005126953125
1772806947593077000,1.023076904296875,-0.995330810546875,-0.0230560302734375,-0.0051116943359375
1772806947603009000,1.033009033203125,-0.99652099609375,-0.02392578125,-0.00604248046875
1772806947612939800,1.042939697265625,-0.9954833984375,-0.0233917236328125,-0.0086212158203125
1772806947622871800,1.052871826171875,-0.995147705078125,-0.0234375,-0.0115203857421875
1772806947632803800,1.062803955078125,-0.9953460693359375,-0.0239715576171875,-0.011749267578125
1772806947642735900,1.07273583984375,-0.9963226318359375,-0.021881103515625,-0.010711669921875
1772806947652667000,1.0826669921875,-0.9962005615234375,-0.0231781005859375,-0.009429931640625
1772806947662599000,1.092598876953125,-0.99652099609375,-0.0238494873046875,-0.0062255859375
1772806947672531000,1.102531005859375,-0.995208740234375,-0.02197265625,-0.004913330078125
1772806947682463000,1.112462890625,-0.9951934814453125,-0.0197601318359375,-0.00848388671875
1772806947692394000,1.12239404296875,-0.9943695068359375,-0.0181427001953125,-0.0101165771484375
1772806947702325800,1.13232568359375,-0.997833251953125,-0.0160980224609375,-0.013702392578125
1772806947712257800,1.1422578125,-0.996368408203125,-0.015594482421875,-0.0144500732421875
1772806947722189000,1.15218896484375,-1.0003662109375,-0.0156097412109375,-0.012237548828125
1772806947732121000,1.16212109375,-0.9924468994140625,-0.0157928466796875,-0.007904052734375
1772806947742052900,1.172052978515625,-0.997344970703125,-0.0176544189453125,-0.00640869140625
1772806947751985000,1.18198486328125,-0.993560791015625,-0.0177459716796875,-0.0035552978515625
1772806947761916000,1.191916015625,-0.9987945556640625,-0.02130126953125,-0.00714111328125
1772806947771848000,1.201847900390625,-0.994354248046875,-0.0255279541015625,-0.0099334716796875
1772806947781780000,1.211780029296875,-0.9961700439453125,-0.028961181640625,-0.0131072998046875
1772806947791711700,1.221711669921875,-0.9950103759765625,-0.0344085693359375,-0.0136260986328125
1772806947801643000,1.23164306640625,-0.99676513671875,-0.0370330810546875,-0.011962890625
1772806947811575000,1.241574951171875,-0.9972686767578125,-0.0397491455078125,-0.006591796875
1772806947821507000,1.251507080078125,-0.99609375,-0.038909912109375,-0.0052032470703125
1772806947831439000,1.261439208984375,-0.995849609375,-0.0373077392578125,-0.00579833984375
1772806947841369900,1.271369873046875,-0.996795654296875,-0.033935546875,-0.008636474609375
1772806947851302000,1.281302001953125,-0.9968414306640625,-0.0301666259765625,-0.013214111328125
1772806947861234000,1.29123388671875,-0.99652099609375,-0.02520751953125,-0.01373291015625
1772806947871166000,1.301166015625,-0.9986419677734375,-0.0206298828125,-0.011749267578125
1772806947881097000,1.311096923828125,-0.9960174560546875,-0.017181396484375,-0.00909423828125
1772806947891029000,1.321029052734375,-0.995635986328125,-0.0122528076171875,-0.0043792724609375
1772806947900961000,1.3309609375,-0.9946746826171875,-0.0113067626953125,-0.0036163330078125
1772806947910893000,1.34089306640625,-0.996063232421875,-0.008941650390625,-0.0079193115234375
1772806947920823800,1.35082373046875,-0.9945526123046875,-0.0095977783203125,-0.0141754150390625
1772806947930755800,1.360755859375,-0.9957275390625,-0.0113372802734375,-0.01519775390625
1772806947940688000,1.37068798828125,-0.9966888427734375,-0.0143890380859375,-0.015350341796875
1772806947950620000,1.380619873046875,-0.9962310791015625,-0.0190887451171875,-0.0135345458984375
1772806947960551000,1.390551025390625,-0.9966888427734375,-0.0211029052734375,-0.0044097900390625
1772806947970483000,1.40048291015625,-0.996002197265625,-0.025054931640625,-0.00152587890625
1772806947980415000,1.4104150390625,-0.996490478515625,-0.0306396484375,-0.001922607421875
1772806947990346000,1.420345947265625,-0.996612548828125,-0.031951904296875,-0.00604248046875
1772806948000278000,1.430278076171875,-0.9955596923828125,-0.0331573486328125,-0.0123138427734375
1772806948010209800,1.440209716796875,-0.9969482421875,-0.033599853515625,-0.015380859375
1772806948020141800,1.450141845703125,-0.995391845703125,-0.033203125,-0.0140228271484375
1772806948030072800,1.46007275390625,-0.995880126953125,-0.0327911376953125,-0.008636474609375
1772806948040004900,1.4700048828125,-0.995208740234375,-0.0304412841796875,-0.006256103515625
1772806948049937000,1.47993701171875,-0.996124267578125,-0.0277099609375,-0.0031890869140625
1772806948059869000,1.489868896484375,-0.9951324462890625,-0.0254058837890625,-0.005126953125
1772806948069800000,1.499800048828125,-0.9961700439453125,-0.0236968994140625,-0.01092529296875
1772806948079732000,1.50973193359375,-0.9971466064453125,-0.02001953125,-0.014617919921875
1772806948089664000,1.5196640625,-0.9970855712890625,-0.0186004638671875,-0.013671875
1772806948099596000,1.529595947265625,-0.996063232421875,-0.016082763671875,-0.0107421875
1772806948109526800,1.53952685546875,-0.9950103759765625,-0.0165252685546875,-0.0077972412109375
1772806948119458800,1.549458740234375,-0.9958953857421875,-0.016754150390625,-0.0055389404296875
1772806948129390800,1.559390869140625,-0.9971160888671875,-0.017425537109375,-0.00628662109375
1772806948139323000,1.569322998046875,-0.996734619140625,-0.0191497802734375,-0.0102691650390625
1772806948149254000,1.57925390625,-0.9954681396484375,-0.0195159912109375,-0.014556884765625
1772806948159186000,1.58918603515625,-0.99761962890625,-0.0211639404296875,-0.01251220703125
1772806948169118000,1.599117919921875,-0.9956817626953125,-0.0220794677734375,-0.011322021484375
1772806948179050000,1.609050048828125,-0.995086669921875,-0.0246734619140625,-0.00628662109375
1772806948188980700,1.618980712890625,-0.996490478515625,-0.0287628173828125,-0.004180908203125
1772806948198912800,1.628912841796875,-0.9959564208984375,-0.0308685302734375,-0.0020294189453125
1772806948208844800,1.6388447265625,-0.9978790283203125,-0.032440185546875,-0.00372314453125
1772806948218776000,1.648776123046875,-0.9970703125,-0.0339508056640625,-0.0089263916015625
1772806948228708000,1.6587080078125,-0.9958953857421875,-0.033721923828125,-0.0131988525390625
1772806948238639900,1.668639892578125,-0.99603271484375,-0.0334320068359375,-0.014251708984375
1772806948248572000,1.678572021484375,-0.994903564453125,-0.0312652587890625,-0.0109710693359375
1772806948258503000,1.6885029296875,-0.99737548828125,-0.03057861328125,-0.0079345703125
1772806948268435000,1.69843505859375,-0.995452880859375,-0.0273895263671875,-0.0045928955078125
1772806948278366700,1.70836669921875,-0.9968414306640625,-0.0246429443359375,-0.0060882568359375
1772806948288298800,1.718298828125,-0.99578857421875,-0.020416259765625,-0.0087890625
1772806948298230000,1.72822998046875,-0.9962158203125,-0.0170745849609375,-0.0118408203125
1772806948308162000,1.738162109375,-0.9963226318359375,-0.01519775390625,-0.0147857666015625
1772806948318094000,1.748093994140625,-0.995880126953125,-0.0130157470703125,-0.014495849609375
1772806948328025900,1.75802587890625,-0.99566650390625,-0.011566162109375,-0.0111846923828125
1772806948337956900,1.767956787109375,-0.9969482421875,-0.01141357421875,-0.0074615478515625
1772806948347889000,1.777888916015625,-0.996612548828125,-0.013671875,-0.0064849853515625
1772806948357821000,1.787821044921875,-0.9963226318359375,-0.0132293701171875,-0.0074310302734375
1772806948367753000,1.7977529296875,-0.9953765869140625,-0.0142669677734375,-0.00946044921875
1772806948377684000,1.80768408203125,-0.997100830078125,-0.0161590576171875,-0.0122528076171875
1772806948387616000,1.817615966796875,-0.9962005615234375,-0.018035888671875,-0.0133056640625
1772806948397548000,1.827548095703125,-0.996337890625,-0.0220947265625,-0.012664794921875
1772806948407480000,1.83747998046875,-0.996185302734375,-0.0243377685546875,-0.0081939697265625
1772806948417410800,1.847410888671875,-0.996734619140625,-0.027984619140625,-0.0051116943359375
1772806948427342800,1.8573427734375,-0.997650146484375,-0.0294647216796875,-0.004730224609375
1772806948437275000,1.86727490234375,-0.997344970703125,-0.0296478271484375,-0.007354736328125
1772806948447206100,1.8772060546875,-0.99639892578125,-0.0299530029296875,-0.0118560791015625
1772806948457137400,1.887137451171875,-0.99591064453125,-0.0292510986328125,-0.0136871337890625
1772806948467069400,1.8970693359375,-0.9967193603515625,-0.02947998046875,-0.0113372802734375
1772806948477001500,1.90700146484375,-0.9972686767578125,-0.029022216796875,-0.0074920654296875
1772806948486932500,1.916932373046875,-0.995452880859375,-0.0279388427734375,-0.006103515625
1772806948496864300,1.9268642578125,-0.99639892578125,-0.0262603759765625,-0.0028076171875
1772806948506796300,1.93679638671875,-0.996673583984375,-0.0240020751953125,-0.0050048828125
1772806948516728300,1.946728271484375,-0.9942169189453125,-0.0226898193359375,-0.01025390625
1772806948526659600,1.95665966796875,-0.9957122802734375,-0.0210723876953125,-0.01495361328125
1772806948536591400,1.96659130859375,-0.99652099609375,-0.0205078125,-0.013885498046875
1772806948546523400,1.9765234375,-0.997833251953125,-0.01971435546875,-0.0116729736328125
1772806948556455400,1.986455322265625,-0.996826171875,-0.0185699462890625,-0.008819580078125
1772806948566386400,1.996386474609375,-0.995941162109375,-0.01788330078125,-0.005584716796875
1772806948576318500,2.006318359375,-0.9957122802734375,-0.019744873046875,-0.003143310546875
1772806948586250200,2.016250244140625,-0.9976959228515625,-0.0199737548828125,-0.0070343017578125
1772806948596182300,2.026182373046875,-0.9972076416015625,-0.019378662109375,-0.0109405517578125
1772806948606113500,2.036113525390625,-0.99700927734375,-0.021026611328125,-0.0118255615234375
1772806948616045600,2.046045654296875,-0.9965972900390625,-0.0221710205078125,-0.0091552734375
1772806948625977600,2.0559775390625,-0.9952239990234375,-0.0221405029296875,-0.0089569091796875
1772806948635908400,2.065908447265625,-0.9947357177734375,-0.0245208740234375,-0.0084381103515625
1772806948645840400,2.07584033203125,-0.9948883056640625,-0.0256195068359375,-0.00830078125
1772806948655772400,2.0857724609375,-0.99603271484375,-0.02587890625,-0.0101318359375
1772806948665704400,2.095704345703125,-0.997100830078125,-0.025390625,-0.009979248046875
1772806948675635500,2.105635498046875,-0.9969329833984375,-0.0262298583984375,-0.009918212890625
1772806948685567500,2.1155673828125,-0.9956207275390625,-0.025146484375,-0.0106658935546875
1772806948695499500,2.12549951171875,-0.9964447021484375,-0.0265655517578125,-0.0068511962890625
1772806948705431600,2.135431640625,-0.9962005615234375,-0.0257720947265625,-0.0027313232421875
1772806948715362300,2.1453623046875,-0.994842529296875,-0.0261993408203125,-0.0057373046875
1772806948725294300,2.15529443359375,-0.99591064453125,-0.026641845703125,-0.0090179443359375
1772806948735226400,2.165226318359375,-0.997650146484375,-0.0261077880859375,-0.0118255615234375
1772806948745158400,2.175158447265625,-0.9954833984375,-0.0256805419921875,-0.0143890380859375
1772806948755089400,2.18508935546875,-0.9967193603515625,-0.0243377685546875,-0.015533447265625
1772806948765021400,2.195021484375,-0.995513916015625,-0.0231781005859375,-0.016632080078125
1772806948774953500,2.204953369140625,-0.99517822265625,-0.0236358642578125,-0.01031494140625
1772806948784885500,2.214885498046875,-0.995513916015625,-0.0207672119140625,-0.006622314453125
1772806948794816500,2.22481640625,-0.9965972900390625,-0.020050048828125,-0.0050811767578125
1772806948804748300,2.234748291015625,-0.997161865234375,-0.01971435546875,-0.005218505859375
1772806948814680300,2.244680419921875,-0.9971771240234375,-0.0196380615234375,-0.0045013427734375
1772806948824612400,2.2546123046875,-0.996795654296875,-0.019805908203125,-0.0089111328125
1772806948834543400,2.26454345703125,-0.9954376220703125,-0.020660400390625,-0.0096588134765625
1772806948844475400,2.274475341796875,-0.9961395263671875,-0.0211029052734375,-0.0111083984375
1772806948854407400,2.284407470703125,-0.9963226318359375,-0.021759033203125,-0.0105438232421875
1772806948864338400,2.29433837890625,-0.9967803955078125,-0.02313232421875,-0.0095977783203125
1772806948874270500,2.3042705078125,-0.9968109130859375,-0.02423095703125,-0.009521484375
1772806948884202500,2.314202392578125,-0.99774169921875,-0.025299072265625,-0.010772705078125
1772806948894134500,2.324134521484375,-0.99658203125,-0.026336669921875,-0.010101318359375
1772806948904065300,2.334065185546875,-0.9961090087890625,-0.026336669921875,-0.0086212158203125
1772806948913997300,2.343997314453125,-0.995361328125,-0.0268707275390625,-0.0068817138671875
1772806948923929300,2.353929443359375,-0.9965057373046875,-0.028076171875,-0.0064697265625
1772806948933861400,2.363861328125,-0.99578857421875,-0.0282135009765625,-0.006011962890625
1772806948943792400,2.37379248046875,-0.99700927734375,-0.026458740234375,-0.0075836181640625
1772806948953724400,2.383724365234375,-0.996551513671875,-0.0267181396484375,-0.0088653564453125
1772806948963656400,2.393656494140625,-0.9967193603515625,-0.0254669189453125,-0.01202392578125
1772806948973588500,2.40358837890625,-0.996551513671875,-0.0252838134765625,-0.014404296875
1772806948983519200,2.413519287109375,-0.996002197265625,-0.0228118896484375,-0.0126800537109375
1772806948993451300,2.423451171875,-0.995513916015625,-0.0228424072265625,-0.0084228515625
1772806949003383300,2.43338330078125,-0.996856689453125,-0.021514892578125,-0.007354736328125
1772806949013315300,2.4433154296875,-0.9970703125,-0.02056884765625,-0.0060882568359375
1772806949023246600,2.45324658203125,-0.9965972900390625,-0.0204925537109375,-0.0054473876953125
1772806949033178400,2.463178466796875,-0.9966888427734375,-0.0188446044921875,-0.0061798095703125
1772806949043110400,2.4731103515625,-0.996490478515625,-0.019500732421875,-0.0091552734375
1772806949053041400,2.48304150390625,-0.9952392578125,-0.0214385986328125,-0.01129150390625
1772806949062973400,2.492973388671875,-0.99591064453125,-0.02093505859375,-0.0145721435546875
1772806949072905200,2.5029052734375,-0.996185302734375,-0.0217132568359375,-0.0146636962890625
1772806949082837200,2.512837158203125,-0.9954376220703125,-0.0218658447265625,-0.010406494140625
1772806949092768500,2.5227685546875,-0.996063232421875,-0.022674560546875,-0.0041961669921875
1772806949102700500,2.532700439453125,-0.9970855712890625,-0.0240325927734375,-0.0013885498046875
1772806949112632600,2.542632568359375,-0.9958953857421875,-0.0252532958984375,-0.0075531005859375
1772806949122564400,2.552564453125,-0.9954376220703125,-0.026763916015625,-0.0163116455078125
1772806949132495400,2.562495361328125,-0.9971923828125,-0.0277862548828125,-0.0162811279296875
1772806949142427400,2.572427490234375,-0.9972991943359375,-0.0298614501953125,-0.0069122314453125
1772806949152359400,2.582359375,-0.99700927734375,-0.0286407470703125,0.0002593994140625
1772806949162291500,2.59229150390625,-0.9965972900390625,-0.0274658203125,-0.002532958984375
1772806949172222500,2.602222412109375,-0.9955596923828125,-0.026123046875,-0.00970458984375
1772806949182154500,2.612154541015625,-0.9973907470703125,-0.0226593017578125,-0.015625
1772806949192086500,2.62208642578125,-0.993408203125,-0.0216217041015625,-0.018463134765625
1772806949202018600,2.6320185546875,-0.9954986572265625,-0.0207061767578125,-0.016021728515625
1772806949211949300,2.64194921875,-0.9948883056640625,-0.01739501953125,-0.010589599609375
1772806949221881300,2.65188134765625,-0.9961090087890625,-0.0157928466796875,-0.0040435791015625
1772806949231813400,2.6618134765625,-0.9958038330078125,-0.0157012939453125,0.00103759765625
1772806949241744600,2.67174462890625,-0.996551513671875,-0.0162200927734375,-0.0007476806640625
1772806949251676400,2.681676513671875,-0.9961700439453125,-0.0171051025390625,-0.00830078125
1772806949261608400,2.6916083984375,-0.9974212646484375,-0.0172119140625,-0.0183868408203125
1772806949271540500,2.70154052734375,-0.996429443359375,-0.0191497802734375,-0.0223541259765625
1772806949281471500,2.711471435546875,-0.9965667724609375,-0.02142333984375,-0.01800537109375
1772806949291403300,2.7214033203125,-0.9906158447265625,-0.022735595703125,-0.0082244873046875
1772806949301335300,2.731335205078125,-1.0060577392578125,-0.023895263671875,0.000274658203125
1772806949311267300,2.741267333984375,-0.9921112060546875,-0.024871826171875,0.0026092529296875
1772806949321198300,2.7511982421875,-0.996826171875,-0.027587890625,-0.0049285888671875
1772806949331130600,2.761130615234375,-0.995819091796875,-0.027557373046875,-0.01300048828125
1772806949341062400,2.7710625,-0.9939727783203125,-0.028106689453125,-0.0168304443359375
1772806949350994400,2.780994384765625,-0.9987640380859375,-0.0303802490234375,-0.0145263671875
1772806949360925400,2.790925537109375,-0.995361328125,-0.029541015625,-0.006988525390625
1772806949370857500,2.800857421875,-0.996551513671875,-0.0295562744140625,-0.0019683837890625
1772806949380789500,2.81078955078125,-0.9949188232421875,-0.029754638671875,-0.00274658203125
1772806949390721300,2.82072119140625,-0.9965362548828125,-0.02813720703125,-0.007415771484375
1772806949400652300,2.83065234375,-0.995635986328125,-0.0268096923828125,-0.0149688720703125
1772806949410584600,2.84058447265625,-0.996307373046875,-0.0247344970703125,-0.019134521484375
1772806949420516600,2.8505166015625,-0.995147705078125,-0.02142333984375,-0.01568603515625
1772806949430448400,2.860448486328125,-0.995574951171875,-0.0204315185546875,-0.007232666015625
1772806949440379400,2.87037939453125,-0.9981689453125,-0.020416259765625,-0.0006866455078125
1772806949450311400,2.8803115234375,-0.995361328125,-0.0188751220703125,0.0039520263671875
1772806949460243500,2.890243408203125,-0.997039794921875,-0.0196075439453125,-0.00140380859375
1772806949470174200,2.90017431640625,-0.99578857421875,-0.0194854736328125,-0.0076446533203125
1772806949480106200,2.910106201171875,-0.994873046875,-0.0214996337890625,-0.01812744140625
1772806949490038300,2.920038330078125,-0.996673583984375,-0.0214080810546875,-0.0215911865234375
1772806949499970600,2.929970458984375,-0.9964752197265625,-0.0229034423828125,-0.01849365234375
1772806949509901600,2.939901611328125,-0.99688720703125,-0.024078369140625,-0.0132293701171875
1772806949519833300,2.949833251953125,-0.995697021484375,-0.0256500244140625,-0.0050506591796875
1772806949529765400,2.959765380859375,-0.9960174560546875,-0.02716064453125,0.000213623046875
1772806949539697400,2.969697509765625,-0.9957122802734375,-0.0283355712890625,-0.0013885498046875
1772806949549628400,2.97962841796875,-0.9964599609375,-0.0283966064453125,-0.0061492919921875
1772806949559560200,2.989560302734375,-0.9954071044921875,-0.0262298583984375,-0.01092529296875
1772806949569492200,2.9994921875,-0.9951171875,-0.0271759033203125,-0.013885498046875
1772806949579424300,3.00942431640625,-0.996002197265625,-0.025909423828125,-0.0144805908203125
1772806949589355500,3.01935546875,-0.9979095458984375,-0.02630615234375,-0.0102081298828125
1772806949599287600,3.02928759765625,-0.99542236328125,-0.0244140625,-0.00701904296875
1772806949609219300,3.03921923828125,-0.9945220947265625,-0.0219268798828125,-0.0096893310546875
1772806949619151400,3.0491513671875,-0.996337890625,-0.0201568603515625,-0.014984130859375
1772806949629082400,3.059082275390625,-0.9954376220703125,-0.01837158203125,-0.01605224609375
1772806949639014400,3.069014404296875,-0.99658203125,-0.0177459716796875,-0.011962890625
1772806949648946400,3.078946533203125,-0.9962310791015625,-0.0179901123046875,-0.0058441162109375
1772806949658877400,3.08887744140625,-0.9958953857421875,-0.01727294921875,-0.0067901611328125
1772806949668809500,3.0988095703125,-0.9965362548828125,-0.0175628662109375,-0.0095062255859375
1772806949678741500,3.108741455078125,-0.9968109130859375,-0.019317626953125,-0.00958251953125
1772806949688673500,3.118673583984375,-0.997314453125,-0.0194549560546875,-0.005645751953125
1772806949698604300,3.128604248046875,-0.995208740234375,-0.0208892822265625,-0.0056304931640625
1772806949708536300,3.138536376953125,-0.9967193603515625,-0.02203369140625,-0.0128173828125
1772806949718468400,3.14846826171875,-0.9954681396484375,-0.0234832763671875,-0.0211181640625
1772806949728400400,3.158400390625,-0.997100830078125,-0.0250091552734375,-0.0205841064453125
1772806949738331400,3.168331298828125,-0.9966583251953125,-0.024993896484375,-0.01165771484375
1772806949748263400,3.178263427734375,-0.9954376220703125,-0.0274200439453125,-0.0032501220703125
1772806949758195500,3.188195556640625,-0.99609375,-0.0268402099609375,0.000885009765625
1772806949768127500,3.19812744140625,-0.9962005615234375,-0.02716064453125,-0.0013580322265625
1772806949778058500,3.20805859375,-0.9956817626953125,-0.027557373046875,-0.004180908203125
1772806949787990300,3.217990234375,-0.9966278076171875,-0.0274200439453125,-0.0074615478515625
1772806949797922300,3.22792236328125,-0.9959869384765625,-0.0266265869140625,-0.011444091796875
1772806949807854300,3.237854248046875,-0.9967803955078125,-0.02374267578125,-0.016143798828125
1772806949817785600,3.24778564453125,-0.99505615234375,-0.0239105224609375,-0.0138702392578125
1772806949827717400,3.25771728515625,-0.9958648681640625,-0.0238800048828125,-0.008392333984375
1772806949837649400,3.2676494140625,-0.996490478515625,-0.02325439453125,-0.0041961669921875
1772806949847580400,3.277580322265625,-0.9949798583984375,-0.0227508544921875,-0.00555419921875
1772806949857512400,3.287512451171875,-0.9944000244140625,-0.021453857421875,-0.009063720703125
1772806949867444500,3.297444580078125,-0.9954833984375,-0.021270751953125,-0.011566162109375
1772806949877376300,3.307376220703125,-0.99725341796875,-0.0201568603515625,-0.0103302001953125
1772806949887307500,3.3173076171875,-0.9968719482421875,-0.0206298828125,-0.0080108642578125
1772806949897239600,3.327239501953125,-0.994720458984375,-0.0215911865234375,-0.00634765625
1772806949907171600,3.337171630859375,-0.99652099609375,-0.022918701171875,-0.0072021484375
1772806949917103600,3.347103515625,-0.9940185546875,-0.023651123046875,-0.0107269287109375
1772806949927034400,3.357034423828125,-0.9948577880859375,-0.0240631103515625,-0.0107269287109375
1772806949936966400,3.36696630859375,-0.995819091796875,-0.0252838134765625,-0.0118255615234375
1772806949946898400,3.3768984375,-0.99676513671875,-0.0263671875,-0.012451171875
1772806949956830500,3.38683056640625,-0.996490478515625,-0.0242919921875,-0.0111846923828125
1772806949966761500,3.396761474609375,-0.9972686767578125,-0.025604248046875,-0.00872802734375
1772806949976693500,3.406693603515625,-0.9959259033203125,-0.02532958984375,-0.006866455078125
1772806949986625500,3.41662548828125,-0.9976959228515625,-0.0240936279296875,-0.003753662109375
1772806949996557600,3.4265576171875,-0.9947967529296875,-0.0233917236328125,-0.006011962890625
1772806950006488300,3.43648828125,-0.996246337890625,-0.0229644775390625,-0.0116424560546875
1772806950016420400,3.44642041015625,-0.9980010986328125,-0.0232391357421875,-0.01446533203125
1772806950026352400,3.456352294921875,-0.996917724609375,-0.0229034423828125,-0.0122833251953125
1772806950036284400,3.466284423828125,-0.9969482421875,-0.0231781005859375,-0.0121917724609375
1772806950046215200,3.476215087890625,-0.9962310791015625,-0.0211944580078125,-0.01129150390625
1772806950056147500,3.4861474609375,-0.9970245361328125,-0.0215606689453125,-0.0091552734375
1772806950066079500,3.49607958984375,-0.9954986572265625,-0.0234527587890625,-0.00628662109375
1772806950076010500,3.506010498046875,-0.995513916015625,-0.0234222412109375,-0.00628662109375
1772806950085942500,3.515942626953125,-0.997039794921875,-0.023956298828125,-0.0108795166015625
1772806950095874300,3.525874267578125,-0.9958038330078125,-0.024383544921875,-0.012420654296875
1772806950105806300,3.535806396484375,-0.9955291748046875,-0.023712158203125,-0.008758544921875
1772806950115737300,3.5457373046875,-0.9948577880859375,-0.0231475830078125,-0.00775146484375
1772806950125669400,3.55566943359375,-0.9989013671875,-0.023651123046875,-0.0079803466796875
1772806950135601400,3.565601318359375,-0.995697021484375,-0.0237579345703125,-0.008636474609375
1772806950145533400,3.575533447265625,-0.9971923828125,-0.0231170654296875,-0.0125885009765625
1772806950155464400,3.58546435546875,-0.9957427978515625,-0.0223846435546875,-0.013336181640625
1772806950165396500,3.595396484375,-0.9972991943359375,-0.0224761962890625,-0.0089263916015625
1772806950175328500,3.60532861328125,-0.990142822265625,-0.0206298828125,-0.0058135986328125
1772806950185260300,3.61526025390625,-0.9990692138671875,-0.02239990234375,-0.00537109375
1772806950195191300,3.62519140625,-0.9958953857421875,-0.02166748046875,-0.0069122314453125
1772806950205123300,3.635123291015625,-0.9980316162109375,-0.0225372314453125,-0.00701904296875
1772806950215055400,3.645055419921875,-0.9945220947265625,-0.0227508544921875,-0.0106658935546875
1772806950224987400,3.6549873046875,-0.996551513671875,-0.0236053466796875,-0.012542724609375
1772806950234918400,3.66491845703125,-0.996673583984375,-0.024169921875,-0.011749267578125
1772806950244850400,3.674850341796875,-0.9947357177734375,-0.025115966796875,-0.011260986328125
1772806950254782500,3.684782470703125,-0.997589111328125,-0.0247344970703125,-0.009002685546875
1772806950264713500,3.69471337890625,-0.9966888427734375,-0.026336669921875,-0.007171630859375
1772806950274645200,3.704645263671875,-0.9947967529296875,-0.0260162353515625,-0.00665283203125
1772806950284577300,3.714577392578125,-0.9963531494140625,-0.025665283203125,-0.0084991455078125
1772806950294509300,3.72450927734375,-0.9954833984375,-0.0249786376953125,-0.0099029541015625
1772806950304440600,3.734440673828125,-0.9961395263671875,-0.0244598388671875,-0.008514404296875
1772806950314372400,3.744372314453125,-0.99639892578125,-0.0232696533203125,-0.0109100341796875
1772806950324304400,3.754304443359375,-0.996002197265625,-0.0237884521484375,-0.009979248046875
1772806950334236400,3.764236328125,-0.9964752197265625,-0.0215301513671875,-0.00848388671875
1772806950344167400,3.77416748046875,-0.996368408203125,-0.0210113525390625,-0.0059051513671875
1772806950354099500,3.784099365234375,-0.9959259033203125,-0.021240234375,-0.0071258544921875
1772806950364031200,3.79403125,-0.9980621337890625,-0.022796630859375,-0.00823974609375
1772806950373963300,3.80396337890625,-0.9954376220703125,-0.0223846435546875,-0.0100250244140625
1772806950383894500,3.81389453125,-0.9963531494140625,-0.021240234375,-0.0087432861328125
1772806950393826600,3.82382666015625,-0.9964752197265625,-0.0237884521484375,-0.008331298828125
1772806950403758600,3.833758544921875,-0.996673583984375,-0.0232391357421875,-0.0089111328125
1772806950413690400,3.8436904296875,-0.99615478515625,-0.023529052734375,-0.0082550048828125
1772806950423621400,3.853621337890625,-0.9969024658203125,-0.0229034423828125,-0.0090484619140625
1772806950433553400,3.863553466796875,-0.9967803955078125,-0.0240325927734375,-0.012298583984375
1772806950443485400,3.8734853515625,-0.995819091796875,-0.0247344970703125,-0.013641357421875
1772806950453416400,3.88341650390625,-0.9954071044921875,-0.0244293212890625,-0.0108795166015625
1772806950463348700,3.8933486328125,-0.9950714111328125,-0.0241546630859375,-0.0100860595703125
1772806950473280800,3.90328076171875,-0.9963226318359375,-0.024749755859375,-0.008209228515625
1772806950483212800,3.913212890625,-0.9975433349609375,-0.0238189697265625,-0.0058135986328125
1772806950493143600,3.9231435546875,-0.997711181640625,-0.0237579345703125,-0.0047760009765625
1772806950503075600,3.93307568359375,-0.99444580078125,-0.0231170654296875,-0.0044403076171875
1772806950513007600,3.943007568359375,-0.997222900390625,-0.022735595703125,-0.008453369140625
1772806950522939600,3.952939697265625,-0.9969482421875,-0.022918701171875,-0.012908935546875
1772806950532870700,3.96287060546875,-0.997039794921875,-0.0223236083984375,-0.0133819580078125
1772806950542802700,3.972802734375,-0.9961700439453125,-0.021575927734375,-0.0125274658203125
1772806950552734700,3.982734619140625,-0.9970855712890625,-0.0229034423828125,-0.00958251953125
1772806950562664700,3.992664794921875,-0.99560546875,-0.02337646484375,-0.0071563720703125
1772806950572596500,4.002596435546875,-0.996185302734375,-0.0231475830078125,-0.008392333984375
1772806950582528500,4.012528564453125,-0.99517822265625,-0.0227813720703125,-0.0081329345703125
1772806950592459800,4.022459716796875,-0.9970245361328125,-0.0230865478515625,-0.0089569091796875
1772806950602391800,4.032391845703125,-0.9954681396484375,-0.0234527587890625,-0.0101776123046875
1772806950612323800,4.04232373046875,-0.9952850341796875,-0.023223876953125,-0.009552001953125
1772806950622255600,4.052255615234375,-0.9962921142578125,-0.0242919921875,-0.007537841796875
1772806950632186600,4.0621865234375,-0.99658203125,-0.0232086181640625,-0.006500244140625
1772806950642118700,4.07211865234375,-0.9952545166015625,-0.0249176025390625,-0.00775146484375
1772806950652050700,4.08205078125,-0.9969635009765625,-0.0243682861328125,-0.009033203125
1772806950661982700,4.091982666015625,-0.9958648681640625,-0.023834228515625,-0.01080322265625
1772806950671913700,4.101913818359375,-0.995330810546875,-0.02484130859375,-0.01080322265625
1772806950681845800,4.111845703125,-0.9967041015625,-0.0234375,-0.009918212890625
1772806950691777800,4.12177783203125,-0.99700927734375,-0.0234222412109375,-0.0080108642578125
1772806950701709800,4.131709716796875,-0.996826171875,-0.02313232421875,-0.0076141357421875
1772806950711640600,4.141640625,-0.9960479736328125,-0.0217742919921875,-0.00701904296875
1772806950721572600,4.151572509765625,-0.9958343505859375,-0.022216796875,-0.0078887939453125
1772806950731504600,4.161504638671875,-0.9968719482421875,-0.022125244140625,-0.010101318359375
1772806950741435600,4.171435546875,-0.996673583984375,-0.022979736328125,-0.011444091796875
1772806950751367700,4.18136767578125,-0.9961090087890625,-0.023193359375,-0.0127716064453125
1772806950761299700,4.1912998046875,-0.996124267578125,-0.023284912109375,-0.0122222900390625
1772806950771231700,4.201231689453125,-0.996734619140625,-0.023406982421875,-0.0099639892578125
1772806950781162800,4.211162841796875,-0.99627685546875,-0.0248870849609375,-0.0069732666015625
1772806950791094500,4.221094482421875,-0.995391845703125,-0.0239105224609375,-0.006866455078125
1772806950801026600,4.231026611328125,-0.9967498779296875,-0.02349853515625,-0.005462646484375
1772806950810958600,4.24095849609375,-0.99700927734375,-0.0234222412109375,-0.009857177734375
1772806950820889600,4.2508896484375,-0.9965057373046875,-0.0241241455078125,-0.0095367431640625
1772806950830821600,4.260821533203125,-0.9964447021484375,-0.023712158203125,-0.012176513671875
1772806950840753700,4.270753662109375,-0.9952850341796875,-0.02520751953125,-0.0100250244140625
1772806950850685700,4.280685791015625,-0.995361328125,-0.0261077880859375,-0.008331298828125
1772806950860616700,4.29061669921875,-0.995849609375,-0.0240478515625,-0.009033203125
1772806950870548700,4.300548828125,-0.9959259033203125,-0.023773193359375,-0.009429931640625
1772806950880480800,4.310480712890625,-0.99591064453125,-0.0247344970703125,-0.0102386474609375
1772806950890412500,4.32041259765625,-0.9968414306640625,-0.0234527587890625,-0.0098419189453125
1772806950900343600,4.330343505859375,-0.996978759765625,-0.023223876953125,-0.0096893310546875
1772806950910276600,4.340276611328125,-0.9966278076171875,-0.0223846435546875,-0.009185791015625
1772806950920208600,4.350208740234375,-0.99664306640625,-0.021820068359375,-0.0065460205078125
1772806950930140700,4.360140625,-0.9973297119140625,-0.02197265625,-0.0069580078125
1772806950940072700,4.37007275390625,-0.9973602294921875,-0.0211944580078125,-0.00799560546875
1772806950950003700,4.380003662109375,-0.99664306640625,-0.02142333984375,-0.0097808837890625
1772806950959935700,4.389935791015625,-0.9960479736328125,-0.023162841796875,-0.0113677978515625
1772806950969867800,4.39986767578125,-0.9947357177734375,-0.02276611328125,-0.012420654296875
1772806950979799800,4.4097998046875,-0.996368408203125,-0.0238800048828125,-0.0118408203125
1772806950989730600,4.41973046875,-0.9968719482421875,-0.0236358642578125,-0.009613037109375
1772806950999662600,4.42966259765625,-0.9947509765625,-0.02386474609375,-0.0059661865234375
1772806951009594600,4.4395947265625,-0.9953460693359375,-0.0252838134765625,-0.00634765625
1772806951019526700,4.449526611328125,-0.996673583984375,-0.0258026123046875,-0.0072784423828125
1772806951029457700,4.459457763671875,-0.99554443359375,-0.0250091552734375,-0.0086517333984375
1772806951039389700,4.4693896484375,-0.997467041015625,-0.023895263671875,-0.010986328125
1772806951049321700,4.47932177734375,-0.99493408203125,-0.0237274169921875,-0.0110931396484375
1772806951059253800,4.489253662109375,-0.99664306640625,-0.023468017578125,-0.0096893310546875
1772806951069184500,4.4991845703125,-0.9961090087890625,-0.0234375,-0.009124755859375
1772806951079116500,4.509116455078125,-0.9959716796875,-0.0233001708984375,-0.008880615234375
1772806951089048600,4.519048583984375,-0.996795654296875,-0.02130126953125,-0.00897216796875
1772806951098979600,4.5289794921875,-0.9962310791015625,-0.0223388671875,-0.010162353515625
1772806951108911900,4.538911865234375,-0.9957275390625,-0.021270751953125,-0.00982666015625
1772806951118843600,4.54884375,-0.9966888427734375,-0.022796630859375,-0.011077880859375
1772806951128775700,4.558775634765625,-0.9960784912109375,-0.022735595703125,-0.010040283203125
1772806951138706700,4.568706787109375,-0.9971466064453125,-0.022918701171875,-0.0101165771484375
1772806951148638700,4.578638671875,-0.9971466064453125,-0.022247314453125,-0.008087158203125
1772806951158570800,4.58857080078125,-0.9971466064453125,-0.0227508544921875,-0.0076751708984375
1772806951168502500,4.59850244140625,-0.9967041015625,-0.0215911865234375,-0.0087127685546875
1772806951178433500,4.60843359375,-0.9964599609375,-0.0220489501953125,-0.010101318359375
1772806951188365800,4.61836572265625,-0.9963531494140625,-0.023651123046875,-0.01019287109375
1772806951198297900,4.6282978515625,-0.996826171875,-0.0231475830078125,-0.00823974609375
1772806951208229600,4.638229736328125,-0.9939727783203125,-0.0234222412109375,-0.0077667236328125
1772806951218160600,4.64816064453125,-0.9957427978515625,-0.0244140625,-0.007476806640625
1772806951228092700,4.6580927734375,-0.996795654296875,-0.0233154296875,-0.006591796875
1772806951238024700,4.668024658203125,-0.996551513671875,-0.0232391357421875,-0.00830078125
1772806951247956700,4.677956787109375,-0.9953765869140625,-0.024932861328125,-0.0092010498046875
1772806951257887500,4.687887451171875,-0.995849609375,-0.0244903564453125,-0.0108489990234375
1772806951267819500,4.697819580078125,-0.9956817626953125,-0.0236968994140625,-0.011016845703125
1772806951277751800,4.707751708984375,-0.9966583251953125,-0.022216796875,-0.0091400146484375
1772806951287683800,4.717683837890625,-0.9955902099609375,-0.0229949951171875,-0.009765625
1772806951297614600,4.727614501953125,-0.996063232421875,-0.0230712890625,-0.0069427490234375
1772806951307546600,4.737546630859375,-0.9954071044921875,-0.022186279296875,-0.0072784423828125
1772806951317478700,4.747478759765625,-0.996612548828125,-0.0228271484375,-0.0069580078125
1772806951327409700,4.75740966796875,-0.994903564453125,-0.023773193359375,-0.0081939697265625
1772806951337341400,4.767341552734375,-0.997283935546875,-0.02325439453125,-0.00885009765625
1772806951347273500,4.7772734375,-0.9957733154296875,-0.023712158203125,-0.009521484375
1772806951357205500,4.78720556640625,-0.9961395263671875,-0.0235443115234375,-0.011199951171875
1772806951367136800,4.79713671875,-0.996337890625,-0.02294921875,-0.0106048583984375
1772806951377068800,4.80706884765625,-0.99676513671875,-0.0236358642578125,-0.009246826171875
1772806951387000600,4.81700048828125,-0.994384765625,-0.022552490234375,-0.0084991455078125
1772806951396932600,4.8269326171875,-0.99713134765625,-0.022003173828125,-0.0086212158203125
1772806951406863600,4.836863525390625,-0.9952545166015625,-0.0219573974609375,-0.0111236572265625
1772806951416795600,4.846795654296875,-0.99609375,-0.0228424072265625,-0.0097503662109375
1772806951426727700,4.856727783203125,-0.9954376220703125,-0.0238037109375,-0.008758544921875
1772806951436659500,4.866659423828125,-0.9951171875,-0.0233001708984375,-0.008453369140625
1772806951446590700,4.8765908203125,-0.9954986572265625,-0.0235443115234375,-0.0083160400390625
1772806951456522800,4.886522705078125,-0.9969024658203125,-0.0228424072265625,-0.0069427490234375
1772806951466455300,4.896455322265625,-0.995635986328125,-0.0236968994140625,-0.0088958740234375
1772806951476387300,4.90638720703125,-0.9953155517578125,-0.0235748291015625,-0.0110626220703125
1772806951486318300,4.916318359375,-0.996429443359375,-0.0232391357421875,-0.011871337890625
1772806951496250400,4.92625048828125,-0.9960479736328125,-0.02325439453125,-0.010955810546875
1772806951506182100,4.93618212890625,-0.997314453125,-0.024688720703125,-0.0092315673828125
1772806951516114200,4.9461142578125,-0.9969024658203125,-0.0243377685546875,-0.0092315673828125
1772806951526045400,4.95604541015625,-0.996063232421875,-0.025787353515625,-0.0069580078125
1772806951535977500,4.9659775390625,-0.9973907470703125,-0.024261474609375,-0.00787353515625
1772806951545909200,4.9759091796875,-0.9967803955078125,-0.0250091552734375,-0.0103759765625
1772806951555840300,4.98584033203125,-0.9955902099609375,-0.024566650390625,-0.0087432861328125
1772806951565772300,4.995772216796875,-0.996612548828125,-0.0243072509765625,-0.00909423828125
1772806951575704300,5.005704345703125,-0.9969329833984375,-0.024261474609375,-0.0096893310546875
1772806951585636400,5.01563623046875,-0.99468994140625,-0.023101806640625,-0.0093231201171875
1772806951595567000,5.025567138671875,-0.99542236328125,-0.023040771484375,-0.009002685546875
1772806951605499400,5.03549951171875,-0.99609375,-0.023345947265625,-0.0101776123046875
1772806951615431400,5.045431396484375,-0.9963836669921875,-0.02349853515625,-0.0093536376953125
1772806951625363500,5.055363525390625,-0.9962310791015625,-0.0225677490234375,-0.00970458984375
1772806951635294200,5.065294189453125,-0.9954071044921875,-0.0218963623046875,-0.0098419189453125
1772806951645226200,5.075226318359375,-0.9959716796875,-0.023223876953125,-0.0095672607421875
1772806951655158300,5.085158203125,-0.9962310791015625,-0.02154541015625,-0.00762939453125
1772806951665090300,5.09509033203125,-0.996978759765625,-0.0230865478515625,-0.0072784423828125
1772806951675021000,5.10502099609375,-0.9961700439453125,-0.0218658447265625,-0.009674072265625
1772806951684953000,5.114953125,-0.9968414306640625,-0.0237884521484375,-0.0094757080078125
1772806951694885400,5.124885498046875,-0.99560546875,-0.0227813720703125,-0.01177978515625
1772806951704817400,5.1348173828125,-0.99578857421875,-0.022735595703125,-0.012359619140625
1772806951714748400,5.14474853515625,-0.9970550537109375,-0.02337646484375,-0.0114898681640625
1772806951724680200,5.15468017578125,-0.9968109130859375,-0.02301025390625,-0.0107574462890625
1772806951734612200,5.1646123046875,-0.99542236328125,-0.02398681640625,-0.0076751708984375
1772806951744544300,5.174544189453125,-0.9952545166015625,-0.025054931640625,-0.0059051513671875
1772806951754475300,5.184475341796875,-0.996795654296875,-0.0242767333984375,-0.0063018798828125
1772806951764407300,5.1944072265625,-0.9962005615234375,-0.0253753662109375,-0.00897216796875
1772806951774339000,5.204339111328125,-0.9947052001953125,-0.0247650146484375,-0.01031494140625
1772806951784270300,5.214270263671875,-0.995849609375,-0.0232086181640625,-0.01019287109375
1772806951794202400,5.224202392578125,-0.9952545166015625,-0.0230560302734375,-0.0116119384765625
1772806951804134400,5.234134521484375,-0.9961090087890625,-0.0243377685546875,-0.01129150390625
1772806951814066200,5.244066162109375,-0.995941162109375,-0.0233917236328125,-0.0096435546875
1772806951823997200,5.2539970703125,-0.9948272705078125,-0.0225677490234375,-0.0084228515625
1772806951833929200,5.26392919921875,-0.9961090087890625,-0.0219268798828125,-0.0090179443359375
1772806951843861200,5.273861328125,-0.9959869384765625,-0.02288818359375,-0.0099334716796875
1772806951853793300,5.283793212890625,-0.9962615966796875,-0.0222625732421875,-0.0080108642578125
1772806951863724300,5.293724365234375,-0.99774169921875,-0.0229034423828125,-0.0096435546875
1772806951873656300,5.30365625,-0.9958953857421875,-0.022247314453125,-0.0088958740234375
1772806951883588400,5.31358837890625,-0.9969329833984375,-0.0220184326171875,-0.007537841796875
1772806951893520400,5.323520263671875,-0.9956817626953125,-0.021484375,-0.0088043212890625
1772806951903451100,5.333451171875,-0.9947052001953125,-0.0239715576171875,-0.008514404296875
1772806951913383200,5.343383056640625,-0.9961700439453125,-0.0223846435546875,-0.0104217529296875
1772806951923315200,5.353315185546875,-0.9965362548828125,-0.0230560302734375,-0.012176513671875
1772806951933247200,5.363247314453125,-0.9959716796875,-0.024383544921875,-0.0103759765625
1772806951943178200,5.37317822265625,-0.9963531494140625,-0.0216827392578125,-0.008270263671875
1772806951953110300,5.3831103515625,-0.995819091796875,-0.0231170654296875,-0.0087127685546875
1772806951963042300,5.393042236328125,-0.996002197265625,-0.023406982421875,-0.0066680908203125
1772806951972973300,5.402973388671875,-0.995758056640625,-0.02447509765625,-0.00628662109375
1772806951982905300,5.4129052734375,-0.9963226318359375,-0.025238037109375,-0.008209228515625
1772806951992837000,5.422837158203125,-0.9950714111328125,-0.0254364013671875,-0.011199951171875
1772806952002769200,5.43276904296875,-0.99688720703125,-0.0249481201171875,-0.01129150390625
1772806952012700400,5.442700439453125,-0.99615478515625,-0.025238037109375,-0.0093536376953125
1772806952022632400,5.452632568359375,-0.9974212646484375,-0.0238037109375,-0.0093231201171875
1772806952032564500,5.462564453125,-0.9945526123046875,-0.0225067138671875,-0.0080718994140625
1772806952042496300,5.472496337890625,-0.9955596923828125,-0.0232086181640625,-0.0089874267578125
1772806952052427300,5.48242724609375,-0.9961395263671875,-0.02239990234375,-0.0091552734375
1772806952062359300,5.492359375,-0.9966888427734375,-0.0220184326171875,-0.0086669921875
1772806952072291300,5.502291259765625,-0.9967498779296875,-0.0226898193359375,-0.01019287109375
1772806952082223000,5.51222314453125,-0.996429443359375,-0.0224151611328125,-0.0099639892578125
1772806952092154400,5.522154296875,-0.996337890625,-0.0232086181640625,-0.0101470947265625
1772806952102086400,5.53208642578125,-0.9951934814453125,-0.0234222412109375,-0.008758544921875
1772806952112018400,5.542018310546875,-0.996002197265625,-0.0225067138671875,-0.0092315673828125
1772806952121950500,5.551950439453125,-0.996551513671875,-0.023529052734375,-0.00872802734375
1772806952131881200,5.561881103515625,-0.996551513671875,-0.024017333984375,-0.0090179443359375
1772806952141813200,5.571813232421875,-0.9959716796875,-0.023529052734375,-0.0101776123046875
1772806952151745300,5.581745361328125,-0.996551513671875,-0.024078369140625,-0.00982666015625
1772806952161677300,5.59167724609375,-0.996490478515625,-0.0252838134765625,-0.008148193359375
1772806952171608300,5.6016083984375,-0.996124267578125,-0.02484130859375,-0.007720947265625
1772806952181540400,5.611540283203125,-0.996856689453125,-0.0245361328125,-0.0047760009765625
1772806952191472400,5.621472412109375,-0.9966888427734375,-0.023956298828125,-0.0065155029296875
1772806952201403400,5.6314033203125,-0.9955291748046875,-0.02435302734375,-0.010345458984375
1772806952211335200,5.641335205078125,-0.9951171875,-0.0240020751953125,-0.0129547119140625
1772806952221267200,5.65126708984375,-0.9962005615234375,-0.02423095703125,-0.013031005859375
1772806952231199200,5.66119921875,-0.9958648681640625,-0.0231781005859375,-0.0099945068359375
1772806952241130200,5.671130126953125,-0.99627685546875,-0.023193359375,-0.0092010498046875
1772806952251062300,5.681062255859375,-0.996185302734375,-0.0218658447265625,-0.007476806640625
1772806952260994300,5.690994384765625,-0.995635986328125,-0.02276611328125,-0.00689697265625
1772806952270926300,5.70092626953125,-0.99603271484375,-0.0221405029296875,-0.00701904296875
1772806952280857300,5.710857421875,-0.99664306640625,-0.0222625732421875,-0.0087738037109375
1772806952290789400,5.720789306640625,-0.9960174560546875,-0.0229949951171875,-0.0102996826171875
1772806952300721200,5.73072119140625,-0.99639892578125,-0.023834228515625,-0.0101165771484375
1772806952310653200,5.740653076171875,-0.9959259033203125,-0.0243072509765625,-0.008575439453125
1772806952320584200,5.750584228515625,-0.9976348876953125,-0.0238189697265625,-0.009674072265625
1772806952330516200,5.76051611328125,-0.996368408203125,-0.02459716796875,-0.008331298828125
1772806952340448300,5.7704482421875,-0.996612548828125,-0.0250396728515625,-0.0088043212890625
1772806952350380300,5.78038037109375,-0.9960174560546875,-0.024993896484375,-0.008819580078125
1772806952360311300,5.790311279296875,-0.99517822265625,-0.02459716796875,-0.0090179443359375
1772806952370243300,5.800243408203125,-0.997314453125,-0.02655029296875,-0.0097808837890625
1772806952380175400,5.81017529296875,-0.9960784912109375,-0.0260772705078125,-0.008026123046875
1772806952390107400,5.820107421875,-0.9954376220703125,-0.0245819091796875,-0.008209228515625
1772806952400038100,5.8300380859375,-0.9958648681640625,-0.022003173828125,-0.00799560546875
1772806952409970200,5.83997021484375,-0.995452880859375,-0.023773193359375,-0.0098724365234375
1772806952419902200,5.849902099609375,-0.9958648681640625,-0.0234375,-0.010345458984375
1772806952429834200,5.859834228515625,-0.996612548828125,-0.0223236083984375,-0.0120849609375
1772806952439765200,5.86976513671875,-0.9972076416015625,-0.02215576171875,-0.0118255615234375
1772806952449697300,5.879697265625,-0.99700927734375,-0.0214996337890625,-0.0102386474609375
1772806952459629300,5.88962939453125,-0.995574951171875,-0.022430419921875,-0.00848388671875
1772806952469560300,5.899560302734375,-0.99609375,-0.02294921875,-0.007904052734375
1772806952479492000,5.9094921875,-0.996185302734375,-0.02264404296875,-0.00823974609375
1772806952489424100,5.919424072265625,-0.9966888427734375,-0.022705078125,-0.0089569091796875
1772806952499356200,5.929356201171875,-0.9966278076171875,-0.0216064453125,-0.0095062255859375
1772806952509287400,5.939287353515625,-0.996978759765625,-0.0216217041015625,-0.0126495361328125
1772806952519219500,5.949219482421875,-0.9963836669921875,-0.022796630859375,-0.011474609375
1772806952529151200,5.959151123046875,-0.9968109130859375,-0.0232696533203125,-0.0103759765625
1772806952539083300,5.969083251953125,-0.995758056640625,-0.02349853515625,-0.0094146728515625
1772806952549014300,5.97901416015625,-0.995452880859375,-0.023651123046875,-0.0081024169921875
1772806952558946300,5.9889462890625,-0.995758056640625,-0.023651123046875,-0.0090789794921875
1772806952568878000,5.998878173828125,-0.9974365234375,-0.02386474609375,-0.00921630859375
1772806952578810000,6.00881005859375,-0.9951324462890625,-0.024169921875,-0.009002685546875
1772806952588741400,6.018741455078125,-0.9968414306640625,-0.025054931640625,-0.010711669921875
1772806952598673400,6.02867333984375,-0.997283935546875,-0.0251617431640625,-0.0091705322265625
1772806952608605400,6.03860546875,-0.996246337890625,-0.02386474609375,-0.009429931640625
1772806952618537200,6.048537109375,-0.994781494140625,-0.0257720947265625,-0.0072174072265625
1772806952628468200,6.05846826171875,-0.9965362548828125,-0.02435302734375,-0.0083465576171875
1772806952638400300,6.068400146484375,-0.9957122802734375,-0.0241851806640625,-0.0108184814453125
1772806952648332300,6.078332275390625,-0.995452880859375,-0.024261474609375,-0.0122833251953125
1772806952658264300,6.088264404296875,-0.9966278076171875,-0.0232696533203125,-0.011199951171875
1772806952668195300,6.0981953125,-0.99554443359375,-0.021087646484375,-0.009552001953125
1772806952678127400,6.10812744140625,-0.99713134765625,-0.02386474609375,-0.00933837890625
1772806952688059400,6.118059326171875,-0.9950714111328125,-0.0228729248046875,-0.0076141357421875
1772806952697990100,6.127990234375,-0.995208740234375,-0.0222930908203125,-0.00677490234375
1772806952707922200,6.137922119140625,-0.995880126953125,-0.022369384765625,-0.0074462890625
1772806952717854200,6.147854248046875,-0.996673583984375,-0.022003173828125,-0.0075531005859375
1772806952727786200,6.1577861328125,-0.9958953857421875,-0.0238189697265625,-0.01129150390625
1772806952737717500,6.167717529296875,-0.995086669921875,-0.0231781005859375,-0.0130157470703125
1772806952747649300,6.177649169921875,-0.9972076416015625,-0.0224609375,-0.009490966796875
1772806952757581300,6.187581298828125,-0.9967803955078125,-0.0228118896484375,-0.007476806640625
1772806952767513300,6.197513427734375,-0.995758056640625,-0.0235595703125,-0.007232666015625
1772806952777444400,6.2074443359375,-0.9947509765625,-0.0230255126953125,-0.006988525390625
1772806952787376400,6.21737646484375,-0.9970245361328125,-0.0234222412109375,-0.0080108642578125
1772806952797308200,6.22730810546875,-0.9978790283203125,-0.0227813720703125,-0.01007080078125
1772806952807240200,6.237240234375,-0.9954376220703125,-0.0238037109375,-0.0099945068359375
1772806952817171500,6.24717138671875,-0.9963531494140625,-0.0237579345703125,-0.01116943359375
1772806952827103500,6.257103515625,-0.9947357177734375,-0.0226287841796875,-0.008392333984375
1772806952837035300,6.26703515625,-0.996246337890625,-0.0240325927734375,-0.0081634521484375
1772806952846967300,6.27696728515625,-0.9976043701171875,-0.02435302734375,-0.009246826171875
1772806952856898300,6.286898193359375,-0.99658203125,-0.02325439453125,-0.009002685546875
1772806952866830300,6.296830322265625,-0.9951934814453125,-0.0234375,-0.0123443603515625
1772806952876762400,6.306762451171875,-0.996429443359375,-0.024139404296875,-0.0116119384765625
1772806952886694100,6.316694091796875,-0.996734619140625,-0.02325439453125,-0.0106964111328125
1772806952896625400,6.32662548828125,-0.995849609375,-0.023895263671875,-0.01031494140625
1772806952906557400,6.336557373046875,-0.9945068359375,-0.023284912109375,-0.0074920654296875
1772806952916489500,6.346489501953125,-0.9959716796875,-0.0220947265625,-0.0067901611328125
1772806952926420200,6.356420166015625,-0.9971923828125,-0.0234222412109375,-0.0086212158203125
1772806952936352300,6.366352294921875,-0.995330810546875,-0.0226898193359375,-0.0092010498046875
1772806952946284300,6.3762841796875,-0.9964141845703125,-0.02154541015625,-0.0106964111328125
1772806952956216300,6.38621630859375,-0.995880126953125,-0.0224456787109375,-0.012603759765625
1772806952966147000,6.39614697265625,-0.996185302734375,-0.02130126953125,-0.0129547119140625
1772806952976079000,6.4060791015625,-0.995758056640625,-0.023345947265625,-0.0087432861328125
1772806952986011400,6.416011474609375,-0.9958343505859375,-0.023193359375,-0.008514404296875
1772806952995943400,6.425943359375,-0.9951629638671875,-0.02362060546875,-0.0089569091796875
1772806953005874400,6.43587451171875,-0.9956817626953125,-0.0233612060546875,-0.008148193359375
1772806953015806200,6.44580615234375,-0.9950408935546875,-0.0248260498046875,-0.0103912353515625
1772806953025738200,6.45573828125,-0.996002197265625,-0.0253448486328125,-0.0100250244140625
1772806953035670300,6.465670166015625,-0.9960479736328125,-0.0255126953125,-0.01025390625
1772806953045601300,6.475601318359375,-0.996063232421875,-0.024993896484375,-0.0091094970703125
1772806953055533000,6.485532958984375,-0.9957122802734375,-0.0243072509765625,-0.0092620849609375
1772806953065465000,6.495465087890625,-0.99713134765625,-0.023468017578125,-0.0071563720703125
1772806953075397400,6.5053974609375,-0.9948272705078125,-0.0245513916015625,-0.0076141357421875
1772806953085328400,6.515328369140625,-0.9958953857421875,-0.02264404296875,-0.0106201171875
1772806953095260400,6.525260498046875,-0.9963226318359375,-0.0232391357421875,-0.01116943359375
1772806953105192200,6.535192138671875,-0.9965972900390625,-0.0221710205078125,-0.0097503662109375
1772806953115123200,6.545123291015625,-0.997314453125,-0.023284912109375,-0.0091400146484375
1772806953125055200,6.55505517578125,-0.9959259033203125,-0.0218658447265625,-0.0084381103515625
1772806953134987300,6.5649873046875,-0.996063232421875,-0.0210723876953125,-0.0081939697265625
1772806953144919300,6.574919189453125,-0.9960479736328125,-0.0234375,-0.0090484619140625
1772806953154850300,6.584850341796875,-0.9947052001953125,-0.0230865478515625,-0.0106353759765625
1772806953164782300,6.5947822265625,-0.995697021484375,-0.023529052734375,-0.009918212890625
1772806953174714400,6.60471435546875,-0.99493408203125,-0.0228729248046875,-0.0094146728515625
1772806953184646400,6.614646484375,-0.99578857421875,-0.0241546630859375,-0.01019287109375
1772806953194577200,6.6245771484375,-0.994903564453125,-0.023681640625,-0.0097198486328125
1772806953204509200,6.63450927734375,-0.9953765869140625,-0.0238189697265625,-0.00830078125
1772806953214441200,6.644441162109375,-0.9961395263671875,-0.024017333984375,-0.0081634521484375
1772806953224373200,6.654373291015625,-0.99786376953125,-0.0248870849609375,-0.0085601806640625
1772806953234304300,6.66430419921875,-0.9964599609375,-0.0241851806640625,-0.010345458984375
1772806953244236300,6.674236328125,-0.9964752197265625,-0.0246124267578125,-0.0089111328125
1772806953254168300,6.684168212890625,-0.9954071044921875,-0.0238494873046875,-0.0109405517578125
1772806953264100400,6.694100341796875,-0.9964447021484375,-0.0231475830078125,-0.008453369140625
1772806953274031400,6.70403125,-0.995819091796875,-0.0242919921875,-0.008270263671875
1772806953283963100,6.713963134765625,-0.9960174560546875,-0.0231475830078125,-0.0088043212890625
1772806953293895200,6.723895263671875,-0.9959716796875,-0.0233917236328125,-0.0087127685546875
1772806953303827200,6.7338271484375,-0.99591064453125,-0.0224151611328125,-0.0096435546875
1772806953313758500,6.743758544921875,-0.9960479736328125,-0.0226593017578125,-0.0108489990234375
1772806953323690200,6.753690185546875,-0.9953155517578125,-0.0247955322265625,-0.009521484375
1772806953333622300,6.763622314453125,-0.99676513671875,-0.0236358642578125,-0.0096282958984375
1772806953343554300,6.77355419921875,-0.99713134765625,-0.0229949951171875,-0.0105133056640625
1772806953353485300,6.7834853515625,-0.9971160888671875,-0.0223846435546875,-0.009796142578125
1772806953363417300,6.793417236328125,-0.9945831298828125,-0.0223541259765625,-0.009552001953125
1772806953373349000,6.80334912109375,-0.995880126953125,-0.0236968994140625,-0.0101776123046875
1772806953383280400,6.8132802734375,-0.9964599609375,-0.0225982666015625,-0.0085296630859375
1772806953393212400,6.82321240234375,-0.9957275390625,-0.022613525390625,-0.0077972412109375
1772806953403144400,6.83314453125,-0.996734619140625,-0.02392578125,-0.0095062255859375
1772806953413076500,6.843076416015625,-0.9976806640625,-0.024200439453125,-0.0096435546875
1772806953423007200,6.85300732421875,-1.0168304443359375,-0.0245819091796875,-0.006072998046875
1772806953432939300,6.862939208984375,-0.9420318603515625,-0.020233154296875,-0.0089569091796875
1772806953442871300,6.872871337890625,-1.038787841796875,-0.0250091552734375,-0.0142974853515625
1772806953452803300,6.88280322265625,-0.9534759521484375,-0.023956298828125,-0.009735107421875
1772806953462734000,6.892734130859375,-1.022552490234375,-0.0258941650390625,-0.0066070556640625
1772806953472666000,6.902666015625,-0.9802398681640625,-0.0242767333984375,-0.0094146728515625
1772806953482598100,6.91259814453125,-0.999908447265625,-0.023101806640625,-0.0085296630859375
1772806953492530000,6.922530029296875,-0.995025634765625,-0.0241851806640625,-0.005950927734375
1772806953502461000,6.9324609375,-0.9961090087890625,-0.02252197265625,-0.008026123046875
1772806953512393000,6.94239306640625,-0.9995574951171875,-0.0227203369140625,-0.0108184814453125
1772806953522325000,6.952324951171875,-1.002471923828125,-0.0247039794921875,-0.0065765380859375
1772806953532256800,6.9622568359375,-0.9758453369140625,-0.02117919921875,-0.0099945068359375
1772806953542188000,6.97218798828125,-1.0094146728515625,-0.023468017578125,-0.013214111328125
1772806953552120000,6.9821201171875,-0.9733123779296875,-0.022491455078125,-0.00836181640625
1772806953562052000,6.992052001953125,-1.033843994140625,-0.0239105224609375,-0.0077056884765625
1772806953571984100,7.001984130859375,-0.9691162109375,-0.0203399658203125,-0.011993408203125
1772806953581915000,7.011914794921875,-1.001129150390625,-0.0226898193359375,-0.0111846923828125
1772806953591847000,7.021846923828125,-0.99615478515625,-0.023590087890625,-0.0095062255859375
1772806953601779000,7.031779052734375,-0.980224609375,-0.0238189697265625,-0.0096282958984375
1772806953611710000,7.0417099609375,-1.0138702392578125,-0.023345947265625,-0.009307861328125
1772806953621642000,7.05164208984375,-0.99066162109375,-0.0243072509765625,-0.0048370361328125
1772806953631574000,7.061573974609375,-0.9858551025390625,-0.0226898193359375,-0.0081939697265625
1772806953641506000,7.071506103515625,-1.017822265625,-0.0251007080078125,-0.009246826171875
1772806953651437000,7.08143701171875,-0.968170166015625,-0.0245361328125,-0.0082855224609375
1772806953661368800,7.091368896484375,-1.023956298828125,-0.025390625,-0.0113372802734375
1772806953671300900,7.10130078125,-0.9793548583984375,-0.0234375,-0.0116119384765625
1772806953681233000,7.11123291015625,-1.001190185546875,-0.0237274169921875,-0.0084075927734375
1772806953691164000,7.121163818359375,-1.002471923828125,-0.0236968994140625,-0.0099639892578125
1772806953701096000,7.131095947265625,-0.9871826171875,-0.022979736328125,-0.0105438232421875
1772806953711028000,7.141028076171875,-1.0062408447265625,-0.023101806640625,-0.007049560546875
1772806953720960000,7.1509599609375,-0.9899444580078125,-0.02398681640625,-0.0087127685546875
1772806953730891000,7.16089111328125,-0.9967803955078125,-0.023406982421875,-0.009674072265625
1772806953740823000,7.170822998046875,-0.999481201171875,-0.02276611328125,-0.0096893310546875
1772806953750754800,7.1807548828125,-0.990692138671875,-0.021392822265625,-0.0102691650390625
1772806953760686800,7.190686767578125,-1.0001983642578125,-0.0222930908203125,-0.010223388671875
1772806953770617900,7.200617919921875,-0.9910430908203125,-0.022491455078125,-0.0091705322265625
1772806953780550000,7.2105498046875,-0.9985198974609375,-0.0238189697265625,-0.0098114013671875
1772806953790482000,7.22048193359375,-0.99615478515625,-0.02490234375,-0.0088653564453125
1772806953800414000,7.2304140625,-0.9965667724609375,-0.0243377685546875,-0.0092315673828125
1772806953810345000,7.240344970703125,-0.9989471435546875,-0.0240020751953125,-0.0091094970703125
1772806953820277000,7.250277099609375,-0.9941558837890625,-0.0232086181640625,-0.0094451904296875
1772806953830209000,7.260208984375,-0.9994659423828125,-0.023529052734375,-0.009857177734375
1772806953840139800,7.270139892578125,-0.994537353515625,-0.021820068359375,-0.0094451904296875
1772806953850071800,7.28007177734375,-0.9954986572265625,-0.0218505859375,-0.0089263916015625
1772806953860003800,7.29000390625,-0.9959564208984375,-0.021820068359375,-0.0098114013671875
1772806953869935900,7.299935791015625,-0.9942626953125,-0.022308349609375,-0.0077056884765625
1772806953879867000,7.309866943359375,-0.9969482421875,-0.022491455078125,-0.0103302001953125
1772806953889799000,7.319798828125,-0.9948883056640625,-0.0229339599609375,-0.009002685546875
1772806953899731000,7.32973095703125,-0.99481201171875,-0.0242462158203125,-0.0102386474609375
1772806953909663000,7.3396630859375,-0.9971771240234375,-0.0232086181640625,-0.009246826171875
1772806953919594000,7.349593994140625,-0.995025634765625,-0.0254058837890625,-0.0107574462890625
1772806953929525800,7.35952587890625,-1.00360107421875,-0.0243988037109375,-0.0129852294921875
1772806953939457800,7.369457763671875,-1.0107421875,-0.02484130859375,-0.009796142578125
1772806953949389800,7.379389892578125,-0.974151611328125,-0.021087646484375,0.0008392333984375
1772806953959321000,7.389321044921875,-0.998687744140625,-0.0223388671875,-0.0090179443359375
1772806953969253000,7.399253173828125,-0.981414794921875,-0.0243072509765625,-0.0147857666015625
1772806953979185000,7.409184814453125,-1.00213623046875,-0.0237274169921875,-0.01263427734375
1772806953989117000,7.419116943359375,-0.9954071044921875,-0.0234527587890625,-0.0066375732421875
1772806953999048000,7.4290478515625,-0.9935760498046875,-0.0238800048828125,-0.0048980712890625
1772806954008980000,7.43897998046875,-1.0001068115234375,-0.0242767333984375,-0.00726318359375
1772806954018911700,7.448911865234375,-0.994110107421875,-0.0233001708984375,-0.0107879638671875
1772806954028843800,7.45884375,-0.9972686767578125,-0.0244140625,-0.011627197265625
1772806954038775000,7.468775146484375,-0.99835205078125,-0.021209716796875,-0.01336669921875
1772806954048707000,7.47870703125,-0.9954071044921875,-0.0233001708984375,-0.0111083984375
1772806954058639000,7.48863916015625,-0.9956512451171875,-0.0224456787109375,-0.0111083984375
1772806954068569900,7.49856982421875,-0.9971160888671875,-0.020843505859375,-0.0086669921875
1772806954078502000,7.508501953125,-0.99432373046875,-0.0208892822265625,-0.007843017578125
1772806954088434000,7.518433837890625,-0.99530029296875,-0.0228118896484375,-0.0073699951171875
1772806954098366000,7.528365966796875,-0.9969024658203125,-0.0224609375,-0.007904052734375
1772806954108297000,7.538296875,-0.9962158203125,-0.02301025390625,-0.008880615234375
1772806954118229000,7.54822900390625,-0.9963226318359375,-0.023651123046875,-0.0101165771484375
1772806954128161000,7.5581611328125,-0.9967803955078125,-0.023590087890625,-0.010986328125
1772806954138093000,7.568093017578125,-0.9949493408203125,-0.023284912109375,-0.0102081298828125
1772806954148023800,7.57802392578125,-0.9968109130859375,-0.02484130859375,-0.0098114013671875
1772806954157955800,7.587955810546875,-0.996917724609375,-0.02520751953125,-0.0095062255859375
1772806954167888000,7.597887939453125,-0.9949798583984375,-0.024871826171875,-0.0085601806640625
1772806954177820000,7.60781982421875,-0.9966278076171875,-0.0248870849609375,-0.009552001953125
1772806954187751200,7.617751220703125,-0.9957427978515625,-0.0238189697265625,-0.010284423828125
1772806954197683000,7.627682861328125,-0.9981231689453125,-0.0233001708984375,-0.0109405517578125
1772806954207615000,7.637614990234375,-1.0092010498046875,-0.0224609375,-0.0177001953125
1772806954217547000,7.647547119140625,-0.9772491455078125,-0.024505615234375,0.0034637451171875
1772806954227478000,7.65747802734375,-1.00177001953125,-0.0233612060546875,-0.0113372802734375
1772806954237410000,7.66741015625,-1.005462646484375,-0.02215576171875,-0.0127105712890625
1772806954247341800,7.677341796875,-1.0126800537109375,-0.0229949951171875,-0.0155181884765625
1772806954257273900,7.68727392578125,-0.955230712890625,-0.023895263671875,0.02154541015625
1772806954267205000,7.697205078125,-1.0004425048828125,-0.0238189697265625,-0.0068359375
1772806954277137200,7.70713720703125,-1.010955810546875,-0.02435302734375,-0.016021728515625
1772806954287069000,7.71706884765625,-0.9755706787109375,-0.024200439453125,0.010711669921875
1772806954297001000,7.7270009765625,-1.001861572265625,-0.024871826171875,-0.008758544921875
1772806954306932000,7.736931884765625,-0.9966888427734375,-0.025909423828125,-0.0043792724609375
1772806954316864000,7.746864013671875,-0.98883056640625,-0.0250091552734375,0.0006561279296875
1772806954326796000,7.756796142578125,-0.991790771484375,-0.024200439453125,-0.00213623046875
1772806954336726800,7.766726806640625,-1.0000762939453125,-0.022857666015625,-0.009613037109375
1772806954346659000,7.7766591796875,-1.011016845703125,-0.0220489501953125,-0.02001953125
1772806954356591000,7.786591064453125,-0.97943115234375,-0.0235137939453125,0.0035552978515625
1772806954366523100,7.796523193359375,-0.9971771240234375,-0.0210723876953125,-0.0108489990234375
1772806954376454000,7.806453857421875,-1.0096588134765625,-0.0220794677734375,-0.0190277099609375
