time,seconds_elapsed,z,y,x
1772806946629697500,0.059697509765625,-0.000630636524874717,0.005845372099429369,-0.0008114652009680867
1772806946639629600,0.069629638671875,-0.0014524880098178983,0.0023177489638328552,-0.00105301383882761
1772806946649560600,0.079560546875,-0.0012381036067381501,0.009967945516109467,-0.0012452941155061126
1772806946659492600,0.08949267578125,-0.002587793627753854,0.0037521275226026773,-0.0017531589837744832
1772806946669424600,0.099424560546875,-0.00022370553051587194,0.003870904678478837,-0.0009502158500254154
1772806946679356700,0.109356689453125,-0.0019600866362452507,0.007891745306551456,0.001564873498864472
1772806946689287400,0.119287353515625,-0.0032024511601775885,0.006939931306988001,0.00001757686368364375
1772806946699219500,0.129219482421875,-0.0033963292371481657,0.005030977539718151,0.0005222458858042955
1772806946709151500,0.1391513671875,0.0011121360585093498,0.004462658893316984,-0.0006820355774834752
1772806946719083500,0.14908349609375,-0.0031196267809718847,0.005964948330074549,-0.0009912285022437572
1772806946729014500,0.1590146484375,0.00010679275874281302,0.006743123754858971,0.0010753844399005175
1772806946738946600,0.168946533203125,-0.0009038768475875258,0.008026501163840294,-0.0020623519085347652
1772806946748878600,0.178878662109375,-0.0018130800453945994,0.007254184223711491,-0.0024671524297446012
1772806946758810600,0.188810546875,-0.002388855442404747,0.006019809283316135,-0.00027510453946888447
1772806946768741600,0.19874169921875,-0.0017102820565924048,0.007517038378864527,0.0026370619889348745
1772806946778673700,0.208673583984375,-0.0028101676143705845,0.008441687561571598,0.000014913702216290403
1772806946788605400,0.21860546875,-0.0026405241806060076,0.007504255045205355,0.0012623383663594723
1772806946798537500,0.228537353515625,0.0008679241873323917,0.005533782299607992,-0.0015776565996930003
1772806946808468500,0.238468505859375,-0.0009747169679030776,0.008296012878417969,0.0009355684742331505
1772806946818400500,0.248400390625,-0.0035627768374979496,0.005790511146187782,0.0015896408585831523
1772806946828332500,0.25833251953125,0.000009054747351910919,0.007837949320673943,-0.000014647385796706658
1772806946838264600,0.2682646484375,-0.0014732606941834092,0.006792924832552671,0.0007837683078832924
1772806946848195600,0.278195556640625,-0.0010306433541700244,0.00785552617162466,-0.00021731393644586205
1772806946858127600,0.288127685546875,0.00021438446128740907,0.007152451667934656,0.0012090750969946384
1772806946868059600,0.2980595703125,-0.0010820423485711217,0.005351355765014887,0.000746750389225781
1772806946877991400,0.307991455078125,0.000395745737478137,0.0027387947775423527,-0.0002620550512801856
1772806946887922400,0.31792236328125,-0.0020578245166689157,0.0081514036282897,0.000502804818097502
1772806946897854500,0.3278544921875,-0.0008258462767116725,0.008265919052064419,-0.00037444045301526785
1772806946907786500,0.337786376953125,-0.0002210423699580133,0.005915945861488581,-0.0020599551498889923
1772806946917717500,0.347717529296875,-0.0033995250705629587,0.0072983927093446255,0.0025451830588281155
1772806946927649500,0.3576494140625,-0.003674363251775503,0.004998753312975168,0.0024469124618917704
1772806946937581600,0.36758154296875,-0.0011968245962634683,0.005909021943807602,0.00032570460462011397
1772806946947513600,0.377513671875,-0.00024714134633541107,0.008343417197465897,0.0006042712484486401
1772806946957444400,0.3874443359375,-0.004357464145869017,0.004485828336328268,-0.0014136058744043112
1772806946967376400,0.39737646484375,-0.0018216022290289402,0.0062605589628219604,0.0005233111442066729
1772806946977308400,0.407308349609375,0.00013635384675581008,0.0041702440939843655,-0.000022370553779182956
1772806946987240400,0.417240478515625,-0.0001382180635118857,0.006232063286006451,-0.0017379788914695382
1772806946997171700,0.427171630859375,-0.001032507512718439,0.0068176924251019955,-0.002787530655041337
1772806947007103500,0.437103515625,-0.000371777277905494,0.006056028418242931,0.0012114719720557332
1772806947017035500,0.447035400390625,-0.0016727314796298742,0.0036163064651191235,-0.0001776328426785767
1772806947026967600,0.456967529296875,0.0014562164433300495,0.0037734329234808683,-0.00035952674807049334
1772806947036898600,0.466898681640625,-0.0004852279380429536,0.00381417921744287,-0.0007552724564447999
1772806947046830600,0.47683056640625,-0.002111886627972126,0.005221926141530275,-0.0006841660942882299
1772806947056762400,0.486762451171875,-0.0028064390644431114,0.008124505169689655,-0.0027427896857261658
1772806947066694400,0.4966943359375,-0.0019291938515380025,0.006569752003997564,-0.0019382486352697015
1772806947076625700,0.506625732421875,-0.0008490157779306173,0.005166798830032349,0.0008314388687722385
1772806947086557700,0.5165576171875,-0.00022423815971706063,0.005511145573109388,-0.0008053398923948407
1772806947096489500,0.526489501953125,-0.0009653958841226995,0.004427771549671888,0.0004929511342197657
1772806947106421500,0.53642138671875,-0.001178448786959052,0.006764162797480822,0.00038988678716123104
1772806947116352500,0.5463525390625,-0.000630902883131057,0.005489840172231197,-0.0009081379394046962
1772806947126284500,0.556284423828125,-0.0009092031978070736,0.0054941014386713505,-0.0009113337146118283
1772806947136216600,0.566216552734375,0.0004876247840002179,0.005299690645188093,0.002418949268758297
1772806947146148400,0.5761484375,-0.0022743395529687405,0.0048951562494039536,-0.0015744607662782073
1772806947156079600,0.58607958984375,-0.0011819108622148633,0.0027230822015553713,0.0007510114228352904
1772806947166011600,0.59601171875,-0.002438656520098448,0.0073079802095890045,-0.002020007697865367
1772806947175943700,0.605943603515625,0.000014114753867033869,0.007837682962417603,0.0009329052991233766
1772806947185874400,0.61587451171875,0.00043755737715400755,0.0075607141479849815,0.00006364954606397077
1772806947195806500,0.625806396484375,-0.0010407633380964398,0.0072925337590277195,-0.0004213120846543461
1772806947205738500,0.635738525390625,-0.0009864348685368896,0.007535147946327925,0.0016442356863990426
1772806947215670500,0.64567041015625,0.0004069310089107603,0.006579339504241943,0.0006332996999844909
1772806947225601500,0.6556015625,-0.0014048174489289522,0.006557767745107412,0.0016018913593143225
1772806947235533600,0.665533447265625,-0.0017414409667253494,0.0029081718530505896,0.0015185344964265823
1772806947245465600,0.675465576171875,-0.0005158542771823704,0.006874950136989355,0.00008122641156660393
1772806947255397600,0.685397705078125,-0.001458080718293786,0.006410228554159403,-0.0010106696281582117
1772806947265328600,0.69532861328125,-0.00043516053119674325,0.00857111718505621,0.0022863238118588924
1772806947275260400,0.705260498046875,-0.0006796387024223804,0.008801214396953583,0.0021576930303126574
1772806947285192400,0.7151923828125,-0.0013816480059176683,0.00618279492482543,-0.00019201391842216253
1772806947295124500,0.72512451171875,-0.0012628709664568305,0.006622748915106058,0.0007480819476768374
1772806947305055700,0.7350556640625,-0.0034879420418292284,0.005614476278424263,0.0005496764206327498
1772806947314987500,0.744987548828125,-0.0021587584633380175,0.006068544927984476,0.0014655375853180885
1772806947324919600,0.75491943359375,0.0015880429418757558,0.005615807604044676,-0.0008237157016992569
1772806947334851600,0.7648515625,-0.0003635214816313237,0.005370797123759985,0.00011531487689353526
1772806947344782600,0.774782470703125,-0.0024810009635984898,0.009059274569153786,-0.0008135957177728415
1772806947354714600,0.784714599609375,-0.0008655273704789579,0.005164402071386576,-0.0014982944121584296
1772806947364646400,0.794646484375,-0.0007281082216650248,0.004775047767907381,0.0015004249289631844
1772806947374578400,0.804578369140625,-0.0005635248962789774,0.0046847667545080185,-0.0008697884040884674
1772806947384509400,0.814509521484375,-0.001973402453586459,0.007481085602194071,-0.0010436928132548928
1772806947394441700,0.824441650390625,-0.000844754686113447,0.0067423246800899506,0.0008415589109063148
1772806947404373800,0.834373779296875,-0.0025595640763640404,0.004920190200209618,-0.00017337177996523678
1772806947414305500,0.844305419921875,-0.0010956244077533484,0.004820853937417269,-0.0022248048335313797
1772806947424236500,0.854236572265625,-0.0009150621481239796,0.007434213999658823,-0.00033688987605273724
1772806947434168600,0.86416845703125,-0.0019196064677089453,0.004911668132990599,0.0015901734586805105
1772806947444100600,0.8741005859375,-0.0008527441532351077,0.006127933505922556,-0.0014213290996849537
1772806947454032400,0.884032470703125,-0.003424825146794319,0.004372910596430302,-0.0027915253303945065
1772806947463964000,0.8939638671875,-0.0010607370641082525,0.0057130130007863045,0.0012229235144332051
1772806947473896000,0.90389599609375,-0.003427221905440092,0.006872819736599922,0.0004463458026293665
1772806947483827700,0.91382763671875,-0.001591771375387907,0.008990831673145294,-0.00250470289029181
1772806947493759000,0.923759033203125,-0.0026429209392517805,0.005191033706068993,0.0008423578692600131
1772806947503691000,0.93369091796875,-0.0008655273704789579,0.008717059157788754,0.00012729909212794155
1772806947513623000,0.943623046875,-0.0009749832679517567,0.006590258330106735,-0.0013616742799058557
1772806947523554800,0.953554931640625,0.00016192019393201917,0.003180346917361021,0.0026117621455341578
1772806947533485800,0.96348583984375,0.0006002765148878098,0.004875981714576483,0.0002271676348755136
1772806947543417900,0.97341796875,0.00032197617110796273,0.005642172880470753,-0.0011153318919241428
1772806947553350000,0.983349853515625,-0.0019651465117931366,0.005665076430886984,0.002258094260469079
1772806947563282000,0.993281982421875,-0.00028522455249913037,0.00788269005715847,0.0036434705834835768
1772806947573213000,1.003212890625,0.0009771138429641724,0.008468586020171642,0.000010652644050423987
1772806947583145000,1.01314501953125,0.000054328484111465514,0.007240602280944586,0.0003552656853571534
1772806947593077000,1.023076904296875,-0.00017683389887679368,0.003846403444185853,0.0000045273736759554595
1772806947603009000,1.033009033203125,-0.0025800704024732113,0.005078115500509739,-0.0004689826746471226
1772806947612939800,1.042939697265625,-0.0005946838646195829,0.004597947467118502,0.00048602689639665186
1772806947622871800,1.052871826171875,-0.0015028218040242791,0.005536711774766445,-0.000723048229701817
1772806947632803800,1.062803955078125,-0.0006311691831797361,0.00364666641689837,0.0015188007382676005
1772806947642735900,1.07273583984375,-0.0027387947775423527,0.009733587503433228,0.00155262288171798
1772806947652667000,1.0826669921875,-0.0013438310706987977,0.007214769721031189,0.0016018913593143225
1772806947662599000,1.092598876953125,-0.0021260015200823545,0.00515854312106967,-0.0006159891490824521
1772806947672531000,1.102531005859375,-0.0010900318156927824,0.006313555873930454,-0.0013579458463937044
1772806947682463000,1.112462890625,-0.004403004422783852,0.00478303711861372,-0.0008916263468563557
1772806947692394000,1.12239404296875,-0.002457298804074526,0.007184942252933979,-0.0014780544443055987
1772806947702325800,1.13232568359375,-0.0024503744207322598,0.005361742340028286,-0.0030868700705468655
1772806947712257800,1.1422578125,-0.00005246427463134751,0.0062363240867853165,0.000218645524000749
1772806947722189000,1.15218896484375,-0.0018032263033092022,0.00691995769739151,-0.0011976235546171665
1772806947732121000,1.16212109375,-0.00105328019708395,0.008410795591771603,-0.0018394453218206763
1772806947742052900,1.172052978515625,-0.0013289173366501927,0.004975051153451204,0.0008695221040397882
1772806947751985000,1.18198486328125,-0.0016197345685213804,0.0062554990872740746,-0.0025869945529848337
1772806947761916000,1.191916015625,-0.0009739180095493793,0.004875448998063803,0.001799764228053391
1772806947771848000,1.201847900390625,-0.0005315669695846736,0.006274407263845205,-0.00031372037483379245
1772806947781780000,1.211780029296875,-0.0021584921050816774,0.0079708406701684,-0.001442900625988841
1772806947791711700,1.221711669921875,0.0005893575726076961,0.0076299565844237804,0.0009020126308314502
1772806947801643000,1.23164306640625,-0.0026618295814841986,0.008775115944445133,0.0015736619243398309
1772806947811575000,1.241574951171875,-0.001255414099432528,0.007862716913223267,0.001532382913865149
1772806947821507000,1.251507080078125,-0.0016322514275088906,0.005136971361935139,0.0010735202813521028
1772806947831439000,1.261439208984375,-0.0013856426812708378,0.0030075078830122948,-0.0011464908020570874
1772806947841369900,1.271369873046875,-0.0021113541442900896,0.0046669235453009605,0.00014674017438665032
1772806947851302000,1.281302001953125,0.0007542071980424225,0.004861334338784218,-0.0005065332516096532
1772806947861234000,1.29123388671875,-0.00413509039208293,0.005453088786453009,0.0007800398743711412
1772806947871166000,1.301166015625,-0.0019795275293290615,0.008925584144890308,0.0009643306257203221
1772806947881097000,1.311096923828125,-0.0014831144362688065,0.007184675894677639,-0.0011259844759479165
1772806947891029000,1.321029052734375,-0.0005291700945235789,0.0065740132704377174,-0.0013584784464910626
1772806947900961000,1.3309609375,-0.0009779128013178706,0.005559082608669996,-0.0007693872321397066
1772806947910893000,1.34089306640625,-0.0011140003334730864,0.004959604702889919,-0.0007355650886893272
1772806947920823800,1.35082373046875,0.0025779400020837784,0.005587311927229166,-0.0014298511669039726
1772806947930755800,1.360755859375,-0.0008295746520161629,0.00755112711340189,0.0010359697043895721
1772806947940688000,1.37068798828125,-0.0013994910987094045,0.008928247727453709,0.000010386328540334944
1772806947950620000,1.380619873046875,-0.00035233621019870043,0.007144195958971977,-0.000035952674807049334
1772806947960551000,1.390551025390625,-0.000017843178284238093,0.005533249583095312,-0.0011478224769234657
1772806947970483000,1.40048291015625,-0.001511343871243298,0.004741758108139038,-0.0010495517635717988
1772806947980415000,1.4104150390625,-0.002237321576103568,0.00436065997928381,-0.0009691243176348507
1772806947990346000,1.420345947265625,-0.0008468852029182017,0.0038783615455031395,0.00042770366417244077
1772806948000278000,1.430278076171875,-0.0009893643436953425,0.006683468818664551,-0.0005699164466932416
1772806948010209800,1.440209716796875,-0.0031579763162881136,0.007457117084413767,-0.0012697952333837748
1772806948020141800,1.450141845703125,-0.002691656816750765,0.010326140560209751,0.0006229133578017354
1772806948030072800,1.46007275390625,-0.0008705873624421656,0.0070946612395346165,0.0012599414912983775
1772806948040004900,1.4700048828125,-0.003912982530891895,0.008354602381587029,0.00012383698776829988
1772806948049937000,1.47993701171875,-0.0021313277538865805,0.005816610064357519,-0.001216531964018941
1772806948059869000,1.489868896484375,-0.0010277138790115714,0.003817375050857663,0.001389637473039329
1772806948069800000,1.499800048828125,-0.001472461735829711,0.008711998350918293,-0.001294029993005097
1772806948079732000,1.50973193359375,-0.0014833806781098247,0.006166016682982445,-0.001365402713418007
1772806948089664000,1.5196640625,-0.002642388455569744,0.007513842545449734,0.0008873652550391853
1772806948099596000,1.529595947265625,-0.00018455706594977528,0.007012103218585253,-0.00015046859334688634
1772806948109526800,1.53952685546875,0.00010386328358436003,0.004744687583297491,0.00112465291749686
1772806948119458800,1.549458740234375,-0.002516420790925622,0.006420881487429142,-0.00046685212873853743
1772806948129390800,1.559390869140625,-0.003328418591991067,0.003981159534305334,-0.0005699164466932416
1772806948139323000,1.569322998046875,-0.002282062778249383,0.005882390309125185,0.0008588694618083537
1772806948149254000,1.57925390625,-0.0021086910273879766,0.006366552785038948,-0.002284992253407836
1772806948159186000,1.58918603515625,0.0015371765475720167,0.005322327371686697,-0.0009635316673666239
1772806948169118000,1.599117919921875,-0.0022455775178968906,0.008822520263493061,0.000859934720210731
1772806948179050000,1.609050048828125,-0.0008410262526012957,0.005020325072109699,0.0006205165409483016
1772806948188980700,1.618980712890625,-0.003210174385458231,0.005962018854916096,-0.00213612150400877
1772806948198912800,1.628912841796875,-0.0026783409994095564,0.00564137427136302,-0.0015456987312063575
1772806948208844800,1.6388447265625,-0.0024796691723167896,0.004686897154897451,0.0008234494016505778
1772806948218776000,1.648776123046875,-0.003049053018912673,0.0046610645949840546,-0.001547030289657414
1772806948228708000,1.6587080078125,-0.0013462279457598925,0.006687996443361044,-0.0018341189716011286
1772806948238639900,1.668639892578125,0.0012362393317744136,0.007786017842590809,0.0004772384709212929
1772806948248572000,1.678572021484375,-0.00037284253630787134,0.00887871254235506,0.0006572681595571339
1772806948258503000,1.6885029296875,0.0004487426485866308,0.0070496536791324615,-0.0015752597246319056
1772806948268435000,1.69843505859375,-0.0013646037550643086,0.004159591160714626,0.00037284253630787134
1772806948278366700,1.70836669921875,-0.0033665020018815994,0.0057676080614328384,-0.00219551008194685
1772806948288298800,1.718298828125,-0.001219727797433734,0.004464257042855024,-0.00009454221435589716
1772806948298230000,1.72822998046875,-0.0013257216196507215,0.007367635145783424,-0.00011398329661460593
1772806948308162000,1.738162109375,-0.0025153555907309055,0.0065404572524130344,0.0011523497523739934
1772806948318094000,1.748093994140625,-0.0010902981739491224,0.009680057875812054,0.003724963404238224
1772806948328025900,1.75802587890625,-0.0007166566210798919,0.008172708563506603,-0.0023869911674410105
1772806948337956900,1.767956787109375,-0.0006716492353007197,0.007275755982846022,0.0005366269615478814
1772806948347889000,1.777888916015625,0.0010229201288893819,0.0030722226947546005,0.0023182816803455353
1772806948357821000,1.787821044921875,-0.001216798322275281,0.0038959383964538574,0.0011741877533495426
1772806948367753000,1.7977529296875,-0.002551840851083398,0.004293814767152071,0.00019707392493728548
1772806948377684000,1.80768408203125,-0.0006162554491311312,0.005502090789377689,0.0002282329078298062
1772806948387616000,1.817615966796875,-0.001487375469878316,0.00660570478066802,-0.0011081412667408586
1772806948397548000,1.827548095703125,-0.0026959178503602743,0.007429953198879957,-0.0005928196478635073
1772806948407480000,1.83747998046875,-0.0026290726382285357,0.005204082932323217,-0.0017411747248843312
1772806948417410800,1.847410888671875,-0.0015912387752905488,0.005115665961056948,0.0007882956997491419
1772806948427342800,1.8573427734375,-0.002008289797231555,0.002912699244916439,-0.002028529765084386
1772806948437275000,1.86727490234375,-0.0008908273885026574,0.002757969545200467,0.0006476807757280767
1772806948447206100,1.8772060546875,-0.0022295983508229256,0.0023190807551145554,0.0001555285998620093
1772806948457137400,1.887137451171875,0.0007339671719819307,0.0038485340774059296,0.00031851406674832106
1772806948467069400,1.8970693359375,0.001056476030498743,0.005332713946700096,0.0000029294772048160667
1772806948477001500,1.90700146484375,0.0005227785441093147,0.007911984808743,-0.0002998719282913953
1772806948486932500,1.916932373046875,-0.0008074704091995955,0.005562810692936182,-0.0001954760227818042
1772806948496864300,1.9268642578125,-0.00014221279707271606,0.004208859521895647,0.001814411603845656
1772806948506796300,1.93679638671875,-0.0013672668719664216,0.005880792159587145,-0.00006338323146337643
1772806948516728300,1.946728271484375,-0.0021608888637274504,0.005605954211205244,-0.000025300030756625347
1772806948526659600,1.95665966796875,0.00023702133330516517,0.006530869752168655,-0.001407480682246387
1772806948536591400,1.96659130859375,-0.0017209346406161785,0.00954050850123167,0.0002079928817693144
1772806948546523400,1.9765234375,0.0000327568814100232,0.007571367081254721,0.0005837649223394692
1772806948556455400,1.986455322265625,-0.002142246812582016,0.005543103441596031,0.00021731393644586205
1772806948566386400,1.996386474609375,-0.0012338425731286407,0.0052048820070922375,0.0006487460341304541
1772806948576318500,2.006318359375,-0.0031465247739106417,0.004476773552596569,-0.0006119944155216217
1772806948586250200,2.016250244140625,-0.0021931130904704332,0.0037614486645907164,0.0009704558760859072
1772806948596182300,2.026182373046875,-0.002541188383474946,0.006662430241703987,-0.0012207929976284504
1772806948606113500,2.036113525390625,0.00020506340661086142,0.00609251344576478,-0.0005193164106458426
1772806948616045600,2.046045654296875,-0.001287904684431851,0.006987868342548609,-0.00029108350281603634
1772806948625977600,2.0559775390625,-0.0010215885704383254,0.009690177626907825,0.00058323226403445
1772806948635908400,2.065908447265625,-0.0004649879119824618,0.0056980992667376995,0.002150768879801035
1772806948645840400,2.07584033203125,-0.0012426309986039996,0.00395719101652503,0.0012921657180413604
1772806948655772400,2.0857724609375,0.00011930961773032323,0.007622765842825174,0.0005973470397293568
1772806948665704400,2.095704345703125,-0.0009629990672692657,0.006749249063432217,-0.0012173309223726392
1772806948675635500,2.105635498046875,-0.003225354477763176,0.007948203943669796,-0.00130920996889472
1772806948685567500,2.1155673828125,-0.0011547466274350882,0.008138620294630527,-0.00013129384024068713
1772806948695499500,2.12549951171875,-0.00221947836689651,0.009022523649036884,-0.0022325278259813786
1772806948705431600,2.135431640625,0.0004918858758173883,0.00287408335134387,-0.002406432293355465
1772806948715362300,2.1453623046875,-0.003400856629014015,0.00615323381498456,0.001068193931132555
1772806948725294300,2.15529443359375,-0.001713744131848216,0.006397445686161518,0.0007861651247367263
1772806948735226400,2.165226318359375,-0.0014801849611103535,0.005560680292546749,-0.00025353292585350573
1772806948745158400,2.175158447265625,0.0011041465913876891,0.0038248319178819656,-0.0006860303110443056
1772806948755089400,2.18508935546875,-0.00039228363311849535,0.006651777308434248,-0.00003728425508597866
1772806948765021400,2.195021484375,-0.0021350563038140535,0.006404635962098837,0.0005291700945235789
1772806948774953500,2.204953369140625,0.0008828379213809967,0.009994843043386936,0.0014511564513668418
1772806948784885500,2.214885498046875,0.0009235842735506594,0.005708219483494759,-0.0014397049089893699
1772806948794816500,2.22481640625,-0.000803209375590086,0.004978246986865997,0.0002913498319685459
1772806948804748300,2.234748291015625,-0.0021315941121429205,0.007053648587316275,-0.0006540723843500018
1772806948814680300,2.244680419921875,-0.0009446232579648495,0.0057526943273842335,-0.0012950951931998134
1772806948824612400,2.2546123046875,-0.0010599381057545543,0.003733485471457243,-0.000245543458731845
1772806948834543400,2.26454345703125,-0.003335342975333333,0.005396363325417042,-0.0001294296234846115
1772806948844475400,2.274475341796875,-0.0011800467036664486,0.004222175572067499,0.0008993495139293373
1772806948854407400,2.284407470703125,0.00015659387281630188,0.005627791862934828,-0.0015792545164003968
1772806948864338400,2.29433837890625,0.0012570120161399245,0.005882656667381525,-0.000023169501218944788
1772806948874270500,2.3042705078125,-0.00364719913341105,0.007200921420007944,0.0014295848086476326
1772806948884202500,2.314202392578125,-0.0025569009594619274,0.004244279582053423,0.001014664419926703
1772806948894134500,2.324134521484375,-0.0015038870042189956,0.010816961526870728,0.00047857005847617984
1772806948904065300,2.334065185546875,-0.00221974472515285,0.005228584166616201,-0.000150202278746292
1772806948913997300,2.343997314453125,0.00025060345069505274,0.006959904916584492,-0.0021222729701548815
1772806948923929300,2.353929443359375,-0.002525741932913661,0.0043952809646725655,-0.00009427589975530282
1772806948933861400,2.363861328125,-0.004604605492204428,0.00890880636870861,-0.000018109494703821838
1772806948943792400,2.37379248046875,0.00029081720276735723,0.00401657959446311,0.0004980111261829734
1772806948953724400,2.383724365234375,-0.0015161376213654876,0.0038189729675650597,0.0003989415417890996
1772806948963656400,2.393656494140625,0.0006021407316438854,0.0073564499616622925,0.001142496126703918
1772806948973588500,2.40358837890625,-0.004478371702134609,0.005107410252094269,0.0013704627053812146
1772806948983519200,2.413519287109375,0.00009986854274757206,0.0037113812286406755,0.003680754918605089
1772806948993451300,2.423451171875,-0.0010120011866092682,0.00743314903229475,0.0005328985280357301
1772806949003383300,2.43338330078125,-0.000550475378986448,0.004923918284475803,0.00031318774563260376
1772806949013315300,2.4433154296875,0.0012895026011392474,0.006853378843516111,0.0009795106016099453
1772806949023246600,2.45324658203125,-0.00030546457855962217,0.004592887591570616,-0.0000798948312876746
1772806949033178400,2.463178466796875,-0.0003174488083459437,0.00384374032728374,-0.001207743538543582
1772806949043110400,2.4731103515625,-0.0013795174891129136,0.003935087006539106,-0.001448759576305747
1772806949053041400,2.48304150390625,-0.0004348942020442337,0.005617139395326376,-0.001335841603577137
1772806949062973400,2.492973388671875,0.000940095866099,0.004187554586678743,-0.00041252365917898715
1772806949072905200,2.5029052734375,-0.0015315839555114508,0.01038393098860979,-0.0007334345718845725
1772806949082837200,2.512837158203125,-0.00027510453946888447,0.01005210168659687,0.0018911106744781137
1772806949092768500,2.5227685546875,0.0017784589435905218,0.005593437235802412,-0.0024205471854656935
1772806949102700500,2.532700439453125,0.00042530681821517646,0.0036045885644853115,-0.0013009541435167193
1772806949112632600,2.542632568359375,-0.0006258428329601884,0.0037611823063343763,0.001216798322275281
1772806949122564400,2.552564453125,-0.0025686188600957394,0.008243548683822155,0.0017180051654577255
1772806949132495400,2.562495361328125,0.0014096111990511417,0.011365572921931744,0.0011052117915824056
1772806949142427400,2.572427490234375,-0.0010847054654732347,0.006225671619176865,-0.000368847802747041
1772806949152359400,2.582359375,-0.00015153386630117893,0.003177151083946228,-0.0012926984345540404
1772806949162291500,2.59229150390625,-0.0019481023773550987,0.0038978024385869503,0.0014514228096231818
1772806949172222500,2.602222412109375,-0.0025891251862049103,0.007555121555924416,0.0005139900604262948
1772806949182154500,2.612154541015625,0.00015046859334688634,0.004974252078682184,0.0003483414766378701
1772806949192086500,2.62208642578125,-0.0014442323008552194,0.00839961040765047,-0.0014676681021228433
1772806949202018600,2.6320185546875,0.0016620787791907787,0.010537595488131046,0.0005169195355847478
1772806949211949300,2.64194921875,-0.0007858988246880472,0.009379120543599129,-0.0021912488155066967
1772806949221881300,2.65188134765625,0.00008069378236541525,0.006829410325735807,0.0008804410463199019
1772806949231813400,2.6618134765625,-0.0010673949727788568,0.0057436395436525345,-0.0006013417732901871
1772806949241744600,2.67174462890625,0.0011289139511063695,0.0030953921377658844,-0.0013603427214547992
1772806949251676400,2.681676513671875,0.00021225394448265433,0.0028911277186125517,0.0014735270524397492
1772806949261608400,2.6916083984375,0.00022983079543337226,0.004190484061837196,-0.0021084246691316366
1772806949271540500,2.70154052734375,-0.00007110639853635803,0.0095658078789711,0.0028333370573818684
1772806949281471500,2.711471435546875,-0.002089516259729862,0.007664311211556196,0.005991845857352018
1772806949291403300,2.7214033203125,-0.0009685916593298316,0.009668073616921902,-0.0006540723843500018
1772806949301335300,2.731335205078125,-0.0036874127108603716,0.007003314793109894,-0.002499110298231244
1772806949311267300,2.741267333984375,-0.0007717840489931405,0.0012090750969946384,0.0013158678775653243
1772806949321198300,2.7511982421875,-0.0026636936236172915,-0.0018013621447607875,-0.000526506919413805
1772806949331130600,2.761130615234375,0.0007107976707629859,0.005108475685119629,0.001490571303293109
1772806949341062400,2.7710625,-0.0006412891671061516,0.009296562522649765,0.00008388957212446257
1772806949350994400,2.780994384765625,-0.0009808422764763236,0.008686432614922523,-0.000041278995922766626
1772806949360925400,2.790925537109375,0.004071706905961037,0.003151318524032831,0.0029878003988415003
1772806949370857500,2.800857421875,-0.001097755040973425,0.00785659160465002,0.0008474178612232208
1772806949380789500,2.81078955078125,-0.0033920682035386562,0.004804875236004591,0.0006380933918990195
1772806949390721300,2.82072119140625,-0.0033715618774294853,0.004363323096185923,0.0009025452891364694
1772806949400652300,2.83065234375,-0.0016684704460203648,0.005218996666371822,0.0008223841432482004
1772806949410584600,2.84058447265625,-0.0007803061744198203,0.01038366463035345,0.0003502056933939457
1772806949420516600,2.8505166015625,0.00003328951424919069,0.009673932567238808,0.0021797972731292248
1772806949430448400,2.860448486328125,0.0011667308863252401,0.007354319095611572,0.00047351003740914166
1772806949440379400,2.87037939453125,0.000045540054998127744,0.005275455769151449,0.00009720538218971342
1772806949450311400,2.8803115234375,-0.004066647030413151,0.003861050819978118,-0.002266882685944438
1772806949460243500,2.890243408203125,-0.001255414099432528,0.0006213154993019998,0.0008088020258583128
1772806949470174200,2.90017431640625,-0.0021486382465809584,0.0035033884923905134,-0.0005347627447918057
1772806949480106200,2.910106201171875,-0.0005379585199989378,0.007567372173070908,0.0005605954211205244
1772806949490038300,2.920038330078125,-0.0032690302468836308,0.009491506032645702,-0.0014514228096231818
1772806949499970600,2.929970458984375,-0.0013057478936389089,0.009349293075501919,-0.00036192359402775764
1772806949509901600,2.939901611328125,0.0009805759182199836,0.007968178018927574,0.0010090717114508152
1772806949519833300,2.949833251953125,0.0010881676571443677,0.005854426883161068,0.001680987305007875
1772806949529765400,2.959765380859375,-0.0011318434262648225,0.00446958327665925,-0.000040480048483004794
1772806949539697400,2.969697509765625,-0.000898550555575639,0.005361742340028286,0.0016085492679849267
1772806949549628400,2.97962841796875,-0.0009869674686342478,0.003284476464614272,-0.00015712650201749057
1772806949559560200,2.989560302734375,-0.0007488809060305357,0.004957474302500486,-0.00008362325752386823
1772806949569492200,2.9994921875,-0.0009171926649287343,0.007977765053510666,0.00029081720276735723
1772806949579424300,3.00942431640625,-0.0004165183927398175,0.00815193634480238,0.0011699266033247113
1772806949589355500,3.01935546875,-0.0018967032665386796,0.007653126027435064,0.0002490055630914867
1772806949599287600,3.02928759765625,-0.0030860709957778454,0.005565473809838295,0.001657551503740251
1772806949609219300,3.03921923828125,-0.001989913871511817,0.003418167121708393,-0.000857005245052278
1772806949619151400,3.0491513671875,-0.0036570527590811253,0.005919940769672394,0.0005241101025603712
1772806949629082400,3.059082275390625,0.0002990729990415275,0.009250756353139877,0.00036911413189955056
1772806949639014400,3.069014404296875,-0.000645550258923322,0.00933144986629486,-0.0011398328933864832
1772806949648946400,3.078946533203125,-0.0026141589041799307,0.002867691917344928,-0.001139300293289125
1772806949658877400,3.08887744140625,-0.0017451694002375007,0.005593437235802412,-0.0012839100090786815
1772806949668809500,3.0988095703125,-0.0018402442801743746,0.0059694754891097546,0.001148088718764484
1772806949678741500,3.108741455078125,-0.0036844832357019186,0.006197175942361355,-0.00014168016787152737
1772806949688673500,3.118673583984375,-0.0003251719754189253,0.00711836339905858,0.0010402307379990816
1772806949698604300,3.128604248046875,-0.002386192325502634,0.004356665071099997,-0.000853809411637485
1772806949708536300,3.138536376953125,-0.0006103964988142252,0.0021931130904704332,-0.00010439591278554872
1772806949718468400,3.14846826171875,-0.0017230651574209332,0.0065130265429615974,-0.0010468886466696858
1772806949728400400,3.158400390625,-0.0002463423879817128,0.010009224526584148,0.0015789881581440568
1772806949738331400,3.168331298828125,-0.001202150946483016,0.007425958290696144,-0.000303334032651037
1772806949748263400,3.178263427734375,-0.0018708707066252828,0.004144411068409681,0.0004732437082566321
1772806949758195500,3.188195556640625,-0.0003070624661631882,0.004768123384565115,0.0009291769238188863
1772806949768127500,3.19812744140625,0.00039254993316717446,0.002772350562736392,-0.00024527712957933545
1772806949778058500,3.20805859375,-0.0018753979820758104,0.001663410454057157,0.00002103897168126423
1772806949787990300,3.217990234375,0.0015795208746567369,0.003293797606602311,0.002175003755837679
1772806949797922300,3.22792236328125,-0.0000031957933970261365,0.005136172287166119,-0.001237571006640792
1772806949807854300,3.237854248046875,-0.00047084689140319824,0.006739129312336445,0.0011326423846185207
1772806949817785600,3.24778564453125,0.0016620787791907787,0.007958324626088142,-0.0002822950773406774
1772806949827717400,3.25771728515625,0.0003576625313144177,0.006066414527595043,-0.0004316983977332711
1772806949837649400,3.2676494140625,-0.0022413162514567375,0.004593153949826956,-0.0015635418239980936
1772806949847580400,3.277580322265625,-0.0008466189028695226,0.004923918284475803,0.00007057376933516935
1772806949857512400,3.287512451171875,-0.003358246060088277,0.005135107319802046,-0.000979244359768927
1772806949867444500,3.297444580078125,0.00027803401462733746,0.006668821442872286,0.0008870989549905062
1772806949877376300,3.307376220703125,-0.0008420915110036731,0.007701063062995672,0.00033662354690022767
1772806949887307500,3.3173076171875,-0.001785116852261126,0.005495699122548103,-0.00023968449386302382
1772806949897239600,3.327239501953125,-0.0036136433482170105,0.00472631212323904,0.0007198524544946849
1772806949907171600,3.337171630859375,-0.0001459412305848673,0.004050401505082846,-0.0025563682429492474
1772806949917103600,3.347103515625,-0.0010468886466696858,0.006859237793833017,-0.0004980111261829734
1772806949927034400,3.357034423828125,-0.0021174794528633356,0.0073356772772967815,-0.0011984225129708648
1772806949936966400,3.36696630859375,-0.0009294432238675654,0.0070698936469852924,0.0016932378057390451
1772806949946898400,3.3768984375,-0.00009454221435589716,0.006040049251168966,0.0012985573848709464
1772806949956830500,3.38683056640625,-0.0013701963471248746,0.009523198008537292,0.0018048242200165987
1772806949966761500,3.396761474609375,-0.0005853627808392048,0.0075545888394117355,0.0018868496408686042
1772806949976693500,3.406693603515625,0.0007041397620923817,0.00321949552744627,-0.0012743226252496243
1772806949986625500,3.41662548828125,-0.0020911141764372587,0.004936168901622295,0.00036432043998502195
1772806949996557600,3.4265576171875,-0.000368847802747041,0.0027286747936159372,-0.0009305084822699428
1772806950006488300,3.43648828125,0.00014327807002700865,0.0037760960403829813,0.000907338981050998
1772806950016420400,3.44642041015625,-0.0009046758059412241,0.009016931056976318,-0.0001715075777610764
1772806950026352400,3.456352294921875,-0.0002902845444623381,0.006085589528083801,-0.00030173614504747093
1772806950036284400,3.466284423828125,0.0002463423879817128,0.005103415343910456,0.0002798982313834131
1772806950046215200,3.476215087890625,-0.0006620618514716625,0.00657667638733983,-0.0017723336350172758
1772806950056147500,3.4861474609375,-0.002567553659901023,0.007773767225444317,-0.0015694007743149996
1772806950066079500,3.49607958984375,-0.0009760485263541341,0.00449754623696208,0.0003515372518450022
1772806950076010500,3.506010498046875,0.00007536746124969795,0.004248540848493576,-0.0015520902816206217
1772806950085942500,3.515942626953125,0.00020772656716872007,0.003964381758123636,0.001377919572405517
1772806950095874300,3.525874267578125,-0.00022983079543337226,0.006946589332073927,-0.001967277145013213
1772806950105806300,3.535806396484375,0.00016405072528868914,0.008217450231313705,-0.00046312372433021665
1772806950115737300,3.5457373046875,-0.0006852313526906073,0.005254150368273258,0.00177925790194422
1772806950125669400,3.55566943359375,-0.003308178624138236,0.004916994366794825,-0.0007597998483106494
1772806950135601400,3.565601318359375,-0.0017768610268831253,0.006711432244628668,-0.0038488004356622696
1772806950145533400,3.575533447265625,0.0001994707708945498,0.005789978429675102,0.00005885586142539978
1772806950155464400,3.58546435546875,-0.0024924525059759617,0.006996390409767628,0.0025963156949728727
1772806950165396500,3.595396484375,0.0013339773286134005,0.006301837973296642,0.000990695902146399
1772806950175328500,3.60532861328125,-0.00015925703337416053,0.006080795545130968,-0.002758235903456807
1772806950185260300,3.61526025390625,-0.0010045443195849657,0.003230414353311062,-0.0015036207623779774
1772806950195191300,3.62519140625,-0.0021672805305570364,0.0016479641199111938,0.0022919164039194584
1772806950205123300,3.635123291015625,-0.0016306535108014941,0.0030799456872045994,-0.0004308994684834033
1772806950215055400,3.645055419921875,-0.000028229507734067738,0.005000883713364601,-0.00126713200006634
1772806950224987400,3.6549873046875,-0.0007579356315545738,0.00654551712796092,0.0021885856986045837
1772806950234918400,3.66491845703125,0.0004913532175123692,0.008051801472902298,-0.00022157499915920198
1772806950244850400,3.674850341796875,-0.0020724718924611807,0.00866139866411686,0.000316916179144755
1772806950254782500,3.684782470703125,0.00039707732503302395,0.005501291714608669,-0.0015102786710485816
1772806950264713500,3.69471337890625,-0.0006556702428497374,0.007125287316739559,-0.0014178669080138206
1772806950274645200,3.704645263671875,-0.0024975123815238476,0.005275455769151449,-0.0012918994762003422
1772806950284577300,3.714577392578125,-0.0012990899849683046,0.006859237793833017,-0.0008855010382831097
1772806950294509300,3.72450927734375,-0.0025414545089006424,0.0023427826818078756,-0.0004916195175610483
1772806950304440600,3.734440673828125,-0.0007475492893718183,0.006097307428717613,-0.001148355077020824
1772806950314372400,3.744372314453125,-0.0018730012234300375,0.0052355085499584675,0.0011608719360083342
1772806950324304400,3.754304443359375,-0.0001102548703784123,0.00506906071677804,-0.0004295678809285164
1772806950334236400,3.764236328125,0.0002921487612184137,0.006050435826182365,-0.001201618229970336
1772806950344167400,3.77416748046875,0.0006817692192271352,0.006101568229496479,0.0018791264155879617
1772806950354099500,3.784099365234375,-0.0023790018167346716,0.004047738388180733,-0.0000500674286740832
1772806950364031200,3.79403125,-0.003563842037692666,0.004609931726008654,-0.001023452845402062
1772806950373963300,3.80396337890625,0.0026586337480694056,0.005319664254784584,-0.0010069411946460605
1772806950383894500,3.81389453125,0.00012650014832615852,0.005828327964991331,0.00007110639853635803
1772806950393826600,3.82382666015625,0.0010721886064857244,0.005285575985908508,0.00018908442871179432
1772806950403758600,3.833758544921875,-0.0014330470003187656,0.0052205948159098625,-0.0012570120161399245
1772806950413690400,3.8436904296875,-0.0006474144756793976,0.004253867082297802,-0.0013291836949065328
1772806950423621400,3.853621337890625,-0.001094825565814972,0.006305033806711435,0.0015329155139625072
1772806950433553400,3.863553466796875,-0.002005093963816762,0.0037939392495900393,0.00018562232435215265
1772806950443485400,3.8734853515625,-0.001939313835464418,0.006911169271916151,-0.002156095113605261
1772806950453416400,3.88341650390625,-0.0009827064350247383,0.007196127437055111,0.001216531964018941
1772806950463348700,3.8933486328125,0.00007243797881528735,0.006964432541280985,-0.0023188143968582153
1772806950473280800,3.90328076171875,-0.001418932224623859,0.008416388183832169,0.0014642059104517102
1772806950483212800,3.913212890625,0.0012306467397138476,0.0044381581246852875,0.000022636868379777297
1772806950493143600,3.9231435546875,-0.0014085458824411035,0.004229366313666105,-0.0013158678775653243
1772806950503075600,3.93307568359375,-0.0014093448407948017,0.002773682354018092,0.0012258529895916581
1772806950513007600,3.943007568359375,0.00023222764139063656,0.003254915354773402,-0.0004876247840002179
1772806950522939600,3.952939697265625,-0.000011451592399680521,0.005437642335891724,0.0015733955660834908
1772806950532870700,3.96287060546875,0.00019654128118418157,0.005226986017078161,0.002600310370326042
1772806950542802700,3.972802734375,-0.001614940818399191,0.008657936938107014,0.00039787625428289175
1772806950552734700,3.982734619140625,0.00027324032271280885,0.007408381439745426,-0.0009957558941096067
1772806950562664700,3.992664794921875,-0.0002937466779258102,0.005133775528520346,0.0006601976347155869
1772806950572596500,4.002596435546875,0.0005904228310100734,0.005630454979836941,0.0012090750969946384
1772806950582528500,4.012528564453125,0.00014434332842938602,0.0068091703578829765,0.0011086739832535386
1772806950592459800,4.022459716796875,-0.0011398328933864832,0.0033957967534661293,-0.00009720538218971342
1772806950602391800,4.032391845703125,-0.001487641828134656,0.005095958709716797,-0.0007440872141160071
1772806950612323800,4.04232373046875,-0.0004948153509758413,0.00660570478066802,0.00016698020044714212
1772806950622255600,4.052255615234375,-0.000669518718495965,0.004837898537516594,-0.00012250541476532817
1772806950632186600,4.0621865234375,-0.0013944311067461967,0.006249640136957169,-0.003999801818281412
1772806950642118700,4.07211865234375,-0.00105328019708395,0.006942860782146454,-0.00038962045800872147
1772806950652050700,4.08205078125,-0.0011864382540807128,0.006214752793312073,0.00006178533658385277
1772806950661982700,4.091982666015625,0.0008391620358452201,0.007129814941436052,0.0011400992516428232
1772806950671913700,4.101913818359375,0.0007739146240055561,0.007589210290461779,0.0023614249657839537
1772806950681845800,4.111845703125,0.0011771172285079956,0.010152502916753292,0.0010743191232904792
1772806950691777800,4.12177783203125,-0.0015744607662782073,0.007210508454591036,0.00010839065362233669
1772806950701709800,4.131709716796875,-0.0009717874927446246,0.008882973343133926,0.0003611246356740594
1772806950711640600,4.141640625,-0.0009803095599636436,0.006838465109467506,-0.002290584845468402
1772806950721572600,4.151572509765625,-0.0009108011145144701,0.004484497010707855,-0.0005917543894611299
1772806950731504600,4.161504638671875,0.0002460760879330337,0.006910103838890791,-0.002974750939756632
1772806950741435600,4.171435546875,-0.002067944500595331,0.0049103363417088985,0.0007755124825052917
1772806950751367700,4.18136767578125,-0.0015531554818153381,0.0059572248719632626,-0.0016141419764608145
1772806950761299700,4.1912998046875,-0.001258609932847321,0.005624063778668642,0.0016743293963372707
1772806950771231700,4.201231689453125,-0.0014628743520006537,0.006833671126514673,0.00009480853623244911
1772806950781162800,4.211162841796875,-0.0021755362395197153,0.005916478578001261,-0.0003861583536490798
1772806950791094500,4.221094482421875,-0.00014034859486855567,0.005615541245788336,0.0024825986474752426
1772806950801026600,4.231026611328125,0.0007488809060305357,0.005603024736046791,-0.0015006912872195244
1772806950810958600,4.24095849609375,-0.0035689021460711956,0.005562810692936182,0.0005201153689995408
1772806950820889600,4.2508896484375,-0.00011371697473805398,0.0056922403164207935,0.0011576761025935411
1772806950830821600,4.260821533203125,-0.00037523938226513565,0.004048271104693413,0.0009515474666841328
1772806950840753700,4.270753662109375,-0.001204547705128789,0.006654440425336361,-0.00035206988104619086
1772806950850685700,4.280685791015625,-0.000865793670527637,0.004948685877025127,-0.00013741910515818745
1772806950860616700,4.29061669921875,-0.0024493092205375433,0.005708219483494759,-0.0016277240356430411
1772806950870548700,4.300548828125,-0.0017217335989698768,0.00672421557828784,-0.0012650014832615852
1772806950880480800,4.310480712890625,-0.001097755040973425,0.007535147946327925,-0.00026365293888375163
1772806950890412500,4.32041259765625,-0.0004319647268857807,0.00621208967640996,0.00015153386630117893
1772806950900343600,4.330343505859375,-0.0008820389630272985,0.005344431847333908,-0.0010868359822779894
1772806950910276600,4.340276611328125,-0.00152359448838979,0.005256813485175371,0.000022370553779182956
1772806950920208600,4.350208740234375,-0.0025246767327189445,0.005852296482771635,0.0018913770327344537
1772806950930140700,4.360140625,-0.000010918960470007733,0.0032381375785917044,0.0007600661483593285
1772806950940072700,4.37007275390625,-0.0005744438385590911,0.007192665245383978,-0.000049801110435510054
1772806950950003700,4.380003662109375,-0.0005845638806931674,0.006465356331318617,0.0016812535468488932
1772806950959935700,4.389935791015625,0.0011179950088262558,0.005401955917477608,-0.0011741877533495426
1772806950969867800,4.39986767578125,-0.0012271846644580364,0.0049066077917814255,0.0008881642133928835
1772806950979799800,4.4097998046875,-0.0020042951218783855,0.0070640346966683865,-0.0009483516332693398
1772806950989730600,4.41973046875,-0.00015419702685903758,0.0065681543201208115,-0.0005131911602802575
1772806950999662600,4.42966259765625,-0.002329733222723007,0.006849117577075958,0.0005004079430364072
1772806951009594600,4.4395947265625,-0.0007297061383724213,0.006909305229783058,0.0007992146420292556
1772806951019526700,4.449526611328125,-0.000059388490626588464,0.005081311333924532,-0.0012724583502858877
1772806951029457700,4.459457763671875,-0.000565389113035053,0.0031305458396673203,0.0010996191995218396
1772806951039389700,4.4693896484375,-0.0008735168376006186,0.006036054342985153,0.0011954930378124118
1772806951049321700,4.47932177734375,-0.001038632821291685,0.0065015750005841255,0.0013454289874061942
1772806951059253800,4.489253662109375,-0.0002460760879330337,0.006306897848844528,0.0020042951218783855
1772806951069184500,4.4991845703125,-0.0012844426091760397,0.008156729862093925,-0.0023076289799064398
1772806951079116500,4.509116455078125,-0.0032895365729928017,0.004874117206782103,-0.0011515507940202951
1772806951089048600,4.519048583984375,-0.0012591425329446793,0.006934605073183775,-0.0028391960076987743
1772806951098979600,4.5289794921875,-0.0005619269795715809,0.006758037488907576,0.001990180229768157
1772806951108911900,4.538911865234375,0.0004679173871409148,0.003820304526016116,0.0010932276491075754
1772806951118843600,4.54884375,-0.0013249226612970233,0.006157228257507086,-0.00017204020696226507
1772806951128775700,4.558775634765625,0.0000018642127770363004,0.006937534548342228,-0.001347825862467289
1772806951138706700,4.568706787109375,-0.00029534456552937627,0.0054339137859642506,0.00227886694483459
1772806951148638700,4.578638671875,-0.0032357405871152878,0.009023589082062244,0.00008894957863958552
1772806951158570800,4.58857080078125,0.0001246359315700829,0.003962517250329256,-0.0009888317435979843
1772806951168502500,4.59850244140625,0.001422128058038652,0.004553206264972687,-0.0006716492353007197
1772806951178433500,4.60843359375,-0.00008921589324017987,0.004988367203623056,-0.0010823087068274617
1772806951188365800,4.61836572265625,-0.0032317459117621183,0.007954595610499382,0.00029294771957211196
1772806951198297900,4.6282978515625,-0.000666322885081172,0.0054608117789030075,-0.0010697918478399515
1772806951208229600,4.638229736328125,-0.003605387406423688,0.005100485868752003,0.0007805725326761603
1772806951218160600,4.64816064453125,-0.0012937636347487569,0.006703709252178669,0.0015454323729500175
1772806951228092700,4.6580927734375,-0.0027750139124691486,0.00570049649104476,-0.0009574064170010388
1772806951238024700,4.668024658203125,-0.0010378338629379869,0.006685599684715271,0.0001174454009742476
1772806951247956700,4.677956787109375,-0.0033683660440146923,0.00788801722228527,-0.0012639362830668688
1772806951257887500,4.687887451171875,0.0014660701854154468,0.004988633096218109,0.0007033408619463444
1772806951267819500,4.697819580078125,0.00155288923997432,0.008381234481930733,-0.00028336033574305475
1772806951277751800,4.707751708984375,0.00035499935620464385,0.00603419030085206,-0.0014679343439638615
1772806951287683800,4.717683837890625,0.0005352954030968249,0.005319664254784584,-0.00196381495334208
1772806951297614600,4.727614501953125,-0.001404284848831594,0.009496832266449928,0.00021944446780253202
1772806951307546600,4.737546630859375,-0.0026261431630700827,0.0035385421942919493,0.00010679275874281302
1772806951317478700,4.747478759765625,-0.002347842790186405,0.004768656101077795,-0.0013334447285160422
1772806951327409700,4.75740966796875,-0.00086872314568609,0.005136705003678799,-0.0010090717114508152
1772806951337341400,4.767341552734375,0.0003400856803636998,0.006366552785038948,-0.0013696637470275164
1772806951347273500,4.7772734375,-0.0009590042755007744,0.003966778516769409,-0.001668736687861383
1772806951357205500,4.78720556640625,0.00037763622822239995,0.004772118292748928,0.0006900250446051359
1772806951367136800,4.79713671875,-0.0016114787431433797,0.0075964005663990974,0.0005898901727050543
1772806951377068800,4.80706884765625,5.326322138898831e-7,0.00535561703145504,0.0007547398563474417
1772806951387000600,4.81700048828125,-0.00026764770154841244,0.003969175275415182,-0.0002671150432433933
1772806951396932600,4.8269326171875,-0.0026261431630700827,0.007601194549351931,-0.0006029396899975836
1772806951406863600,4.836863525390625,-0.0034730283077806234,0.005787315312772989,0.00046046054922044277
1772806951416795600,4.846795654296875,-0.00221921200864017,0.00515907583758235,-0.0008799084462225437
1772806951426727700,4.856727783203125,-0.0014543522847816348,0.007693073246628046,0.000600809114985168
1772806951436659500,4.866659423828125,-0.0007507451227866113,0.004157727118581533,-0.00037816885742358863
1772806951446590700,4.8765908203125,-0.0013680658303201199,0.0064927865751087666,-0.002016279147937894
1772806951456522800,4.886522705078125,-0.000547279603779316,0.004201136529445648,0.0023345269728451967
1772806951466455300,4.896455322265625,-0.00011105381418019533,0.0043777041137218475,0.00037204360705800354
1772806951476387300,4.90638720703125,-0.0004135889175813645,0.005042162723839283,-0.0011057445080950856
1772806951486318300,4.916318359375,-0.0015254586469382048,0.007375091779977083,-0.00014700648898724467
1772806951496250400,4.92625048828125,-0.0011896340874955058,0.006367618218064308,-0.0024732777383178473
1772806951506182100,4.93618212890625,-0.0019923108629882336,0.00583605095744133,-0.0008383630774915218
1772806951516114200,4.9461142578125,0.0004596615908667445,0.006848584860563278,0.0012186624808236957
1772806951526045400,4.95604541015625,-0.0005254416610114276,0.0039265644736588,0.00021758026559837162
1772806951535977500,4.9659775390625,-0.003245860803872347,0.005081844050437212,-0.0004106594424229115
1772806951545909200,4.9759091796875,-0.0006583334179595113,0.007161772809922695,-0.00014540860138367862
1772806951555840300,4.98584033203125,-0.002359027974307537,0.007044593803584576,-0.002487126039341092
1772806951565772300,4.995772216796875,-0.0011800467036664486,0.007547132205218077,-0.000176301269675605
1772806951575704300,5.005704345703125,-0.0025065671652555466,0.007047523278743029,-0.0009123989730142057
1772806951585636400,5.01563623046875,-0.003203516360372305,0.0062634884379804134,-0.002110022585839033
1772806951595567000,5.025567138671875,-0.0035228293854743242,0.007062437012791634,0.0019489012192934752
1772806951605499400,5.03549951171875,0.0013627394801005721,0.0046693203039467335,-0.0007057376787997782
1772806951615431400,5.045431396484375,-0.001205080421641469,0.008183361031115055,0.0012476909905672073
1772806951625363500,5.055363525390625,-0.0012389025650918484,0.006644853390753269,0.0024799355305731297
1772806951635294200,5.065294189453125,-0.0005249090609140694,0.006024869158864021,0.0011491540353745222
1772806951645226200,5.075226318359375,-0.001079911831766367,0.0062552327290177345,-0.001297225710004568
1772806951655158300,5.085158203125,-0.0011502192355692387,0.006749249063432217,-0.0007033408619463444
1772806951665090300,5.09509033203125,-0.001032507512718439,0.0062792012467980385,-0.0008207862265408039
1772806951675021000,5.10502099609375,-0.002073537092655897,0.006126868538558483,0.0006048039067536592
1772806951684953000,5.114953125,-0.0005089300684630871,0.006876281928271055,-0.0008988168556243181
1772806951694885400,5.124885498046875,-0.00007696535612922162,0.005714078433811665,0.0009139968897216022
1772806951704817400,5.1348173828125,-0.0006759102689102292,0.005497829522937536,-0.0014865765115246177
1772806951714748400,5.14474853515625,-0.000979244359768927,0.006177202332764864,0.0011310444679111242
1772806951724680200,5.15468017578125,0.000035686356568476185,0.006330067757517099,0.004164917394518852
1772806951734612200,5.1646123046875,-0.0003808320325333625,0.004923119675368071,-0.001353418454527855
1772806951744544300,5.174544189453125,-0.0007965514669194818,0.00569889834150672,0.0009438242996111512
1772806951754475300,5.184475341796875,-0.0022857910953462124,0.006146575789898634,0.0015217302134260535
1772806951764407300,5.1944072265625,-0.0010673949727788568,0.005538309924304485,0.002273274352774024
1772806951774339000,5.204339111328125,-0.0011134676169604063,0.007982824929058552,-0.0026490462478250265
1772806951784270300,5.214270263671875,0.0000013315805063029984,0.005788380745798349,0.0007874967413954437
1772806951794202400,5.224202392578125,-0.001008539111353457,0.006828611250966787,-0.001973136095330119
1772806951804134400,5.234134521484375,0.000553404854144901,0.007245395798236132,0.000529702752828598
1772806951814066200,5.244066162109375,-0.0013555489713326097,0.005054413340985775,-0.001817341079004109
1772806951823997200,5.2539970703125,-0.0012351741315796971,0.004311657976359129,0.0023196132387965918
1772806951833929200,5.26392919921875,-0.0011851066956296563,0.007638478651642799,-0.0017768610268831253
1772806951843861200,5.273861328125,-0.0026192190125584602,0.007172158919274807,0.0022325278259813786
1772806951853793300,5.283793212890625,-0.001234641415067017,0.004935103934258223,-0.0024748756550252438
1772806951863724300,5.293724365234375,-0.003026416292414069,0.007257113698869944,-0.00041998049709945917
1772806951873656300,5.30365625,0.0005174521938897669,0.007208644412457943,-0.0002479403046891093
1772806951883588400,5.31358837890625,-0.0015358449891209602,0.005665608681738377,0.0018431737553328276
1772806951893520400,5.323520263671875,-0.002240251051262021,0.00782756321132183,0.0004926847759634256
1772806951903451100,5.333451171875,0.0013827132061123848,0.003888747887685895,0.0015928366919979453
1772806951913383200,5.343383056640625,0.001386707997880876,0.004634699318557978,0.001216798322275281
1772806951923315200,5.353315185546875,-0.0008535431115888059,0.00643845833837986,0.0000798948312876746
1772806951933247200,5.363247314453125,-0.0024647556710988283,0.006131662055850029,0.00023515711654908955
1772806951943178200,5.37317822265625,0.0014929680619388819,0.006479737348854542,0.000824248360004276
1772806951953110300,5.3831103515625,0.0002061286650132388,0.0062246061861515045,0.0013933659065514803
1772806951963042300,5.393042236328125,0.00037630466977134347,0.006691991351544857,-0.0012245214311406016
1772806951972973300,5.402973388671875,-0.0020996362436562777,0.006848851218819618,0.0012828446924686432
1772806951982905300,5.4129052734375,0.00037284253630787134,0.006166549399495125,0.0005938849062658846
1772806951992837000,5.422837158203125,0.0008910936885513365,0.004893824923783541,0.002208026824519038
1772806952002769200,5.43276904296875,-0.0015824503498151898,0.007213970646262169,0.003326288191601634
1772806952012700400,5.442700439453125,0.0007163903210312128,0.006396912969648838,0.0008934905636124313
1772806952022632400,5.452632568359375,-0.0007643272401764989,0.006488792132586241,0.0014101437991485
1772806952032564500,5.462564453125,-0.0025992451701313257,0.008144212886691093,-0.00011265171633567661
1772806952042496300,5.472496337890625,0.00028336033574305475,0.0037678403314203024,0.00041625206358730793
1772806952052427300,5.48242724609375,-0.0007187871960923076,0.004739894066005945,-0.0009347695158794522
1772806952062359300,5.492359375,0.00007936220208648592,0.004802212119102478,0.00020426444825716317
1772806952072291300,5.502291259765625,-0.0029963224660605192,0.007259777281433344,-0.0009470200748182833
1772806952082223000,5.51222314453125,0.002260757377371192,0.007483482826501131,0.0017366473330184817
1772806952092154400,5.522154296875,-0.0009321063989773393,0.007894407957792282,0.0011486213188618422
1772806952102086400,5.53208642578125,-0.0014319816837087274,0.00785765703767538,-0.00016431703988928348
1772806952112018400,5.542018310546875,-0.002546514617279172,0.007594802882522345,0.00046099317842163146
1772806952121950500,5.551950439453125,-0.00011291803093627095,0.005619536153972149,0.001686846255324781
1772806952131881200,5.561881103515625,-0.001895105466246605,0.006424609571695328,0.0006178533658385277
1772806952141813200,5.571813232421875,-0.000051132694352418184,0.0054879761300981045,-0.0012258529895916581
1772806952151745300,5.581745361328125,-0.0020575581584125757,0.006601177155971527,0.0013749900972470641
1772806952161677300,5.59167724609375,-0.002255697501823306,0.004400607198476791,0.0006479470757767558
1772806952171608300,5.6016083984375,-0.0005691175465472043,0.005708219483494759,-0.0009701895760372281
1772806952181540400,5.611540283203125,-0.000526506919413805,0.007340470794588327,0.0024927188642323017
1772806952191472400,5.621472412109375,0.0001680454588495195,0.0033310819417238235,-0.0010663296561688185
1772806952201403400,5.6314033203125,-0.0008042746339924634,0.006127400789409876,0.000031957933970261365
1772806952211335200,5.641335205078125,-0.0005707154050469398,0.006444317288696766,-0.0020298613235354424
1772806952221267200,5.65126708984375,-0.0000774979853304103,0.005865079816430807,0.0032538501545786858
1772806952231199200,5.66119921875,-0.0015939018921926618,0.006630206014961004,0.001532116555608809
1772806952241130200,5.671130126953125,-0.0008554073283448815,0.007285609841346741,-0.0008852347382344306
1772806952251062300,5.681062255859375,0.0004290352517273277,0.0067788101732730865,0.0036426717415452003
1772806952260994300,5.690994384765625,-0.0013568805297836661,0.005539374891668558,-0.002532399957999587
1772806952270926300,5.70092626953125,-0.0017214673571288586,0.006905843038111925,-0.0025987126864492893
1772806952280857300,5.710857421875,-0.0002772350562736392,0.005188902840018272,0.0017366473330184817
1772806952290789400,5.720789306640625,-0.00318966805934906,0.0070943948812782764,0.00016351809608750045
1772806952300721200,5.73072119140625,-0.001017061178572476,0.005489573813974857,0.001050350721925497
1772806952310653200,5.740653076171875,-0.0006490123341791332,0.007507983595132828,-0.0015704660909250379
1772806952320584200,5.750584228515625,-0.0016998957144096494,0.004475175868719816,0.0014301175251603127
1772806952330516200,5.76051611328125,-0.0012785836588591337,0.004838697146624327,-0.0018082864116877317
1772806952340448300,5.7704482421875,-0.002216548891738057,0.006369215901941061,0.00004234426160110161
1772806952350380300,5.78038037109375,-0.0027614317368716,0.0044378917664289474,0.0032533176708966494
1772806952360311300,5.790311279296875,0.0004338289436418563,0.007835818454623222,-0.0010785802733153105
1772806952370243300,5.800243408203125,-0.0007744472241029143,0.008559399284422398,0.00034727618913166225
1772806952380175400,5.81017529296875,-0.0017273263074457645,0.006107693538069725,-0.0013174657942727208
1772806952390107400,5.820107421875,-0.0008740494376979768,0.007135940250009298,-0.000022370553779182956
1772806952400038100,5.8300380859375,0.0009036105475388467,0.0068022459745407104,-0.0015129417879506946
1772806952409970200,5.83997021484375,-0.0018580874893814325,0.006355367600917816,0.00024767397553659976
1772806952419902200,5.849902099609375,-0.0010551444720476866,0.00708667142316699,-0.0011526161106303334
1772806952429834200,5.859834228515625,-0.0004511394945438951,0.005380650516599417,-0.0006130596739239991
1772806952439765200,5.86976513671875,-0.0007352987886406481,0.006795055698603392,0.0013382384786382318
1772806952449697300,5.879697265625,-0.002305764937773347,0.005480785388499498,-0.0011560781858861446
1772806952459629300,5.88962939453125,-0.00256435782648623,0.0067657604813575745,0.00008868326403899118
1772806952469560300,5.899560302734375,-0.003993942867964506,0.006389988586306572,0.00159470085054636
1772806952479492000,5.9094921875,-0.0012330436147749424,0.005516471806913614,0.0015542207984253764
1772806952489424100,5.919424072265625,-0.00210682675242424,0.005879460833966732,-0.003593403147533536
1772806952499356200,5.929356201171875,-0.00013315805699676275,0.004626177251338959,-0.0009773800848051906
1772806952509287400,5.939287353515625,-0.0005102616851218045,0.006099171470850706,-0.0023670175578445196
1772806952519219500,5.949219482421875,0.0011283813510090113,0.006756173446774483,-0.002636795863509178
1772806952529151200,5.959151123046875,-0.0013126720441505313,0.0054485611617565155,-0.0007142598042264581
1772806952539083300,5.969083251953125,-0.002109756227582693,0.00774793466553092,0.0004825647920370102
1772806952549014300,5.97901416015625,-0.0010833739070221782,0.0037462685722857714,0.0005898901727050543
1772806952558946300,5.9889462890625,-0.0025012409314513206,0.005446963477879763,-0.0015267902053892612
1772806952568878000,5.998878173828125,-0.0012239888310432434,0.003612311789765954,-0.0018341189716011286
1772806952578810000,6.00881005859375,-0.002174204681068659,0.006767891347408295,0.00016831177345011383
1772806952588741400,6.018741455078125,0.0003432814555708319,0.008912534452974796,0.000055926382628967986
1772806952598673400,6.02867333984375,0.0023968450259417295,0.006638195365667343,-0.0011560781858861446
1772806952608605400,6.03860546875,-0.001526257605291903,0.005936718545854092,0.0026466494891792536
1772806952618537200,6.048537109375,-0.003288471372798085,0.006572148762643337,-0.0001757686259225011
1772806952628468200,6.05846826171875,-0.0007747135823592544,0.006655505858361721,0.0015563513152301311
1772806952638400300,6.068400146484375,0.00016884441720321774,0.00523657351732254,-0.0014980280539020896
1772806952648332300,6.078332275390625,-0.0008133294177241623,0.004162254277616739,0.0004679173871409148
1772806952658264300,6.088264404296875,-0.00043782367720268667,0.00498144282028079,-0.0011528824688866735
1772806952668195300,6.0981953125,0.00039414784987457097,0.006030728109180927,-0.0010479538468644023
1772806952678127400,6.10812744140625,-0.000041278995922766626,0.006119411438703537,0.0015651397407054901
1772806952688059400,6.118059326171875,-0.001984853995963931,0.006398244295269251,-0.0010351707460358739
1772806952697990100,6.127990234375,-0.0013965616235509515,0.005088767968118191,0.0002764361270237714
1772806952707922200,6.137922119140625,-0.0013374395202845335,0.004677842371165752,-0.00020240024605300277
1772806952717854200,6.147854248046875,0.0009116000146605074,0.005032042972743511,0.0008338357438333333
1772806952727786200,6.1577861328125,-0.004273840691894293,0.006145243998616934,0.0006916229031048715
1772806952737717500,6.167717529296875,-0.00079735042527318,0.0048946235328912735,0.0036709012929350138
1772806952747649300,6.177649169921875,0.0013174657942727208,0.0051779840141534805,-0.000336090917699039
1772806952757581300,6.187581298828125,0.0004082625964656472,0.00566933723166585,-0.0005201153689995408
1772806952767513300,6.197513427734375,-0.0012663330417126417,0.004562793765217066,-0.0002162486780434847
1772806952777444400,6.2074443359375,-0.0029108349699527025,0.005661614239215851,-0.0035718316212296486
1772806952787376400,6.21737646484375,-0.0013488910626620054,0.007694671396166086,0.0003635214816313237
1772806952797308200,6.22730810546875,-0.0014455638593062758,0.0067753479816019535,-0.0001131843455368653
1772806952807240200,6.237240234375,-0.0003384877636563033,0.005695702508091927,-0.00029827404068782926
1772806952817171500,6.24717138671875,-0.001201884588226676,0.007840346544981003,-0.00017177389236167073
1772806952827103500,6.257103515625,-0.0022027005907148123,0.009552492760121822,0.0002932140196207911
1772806952837035300,6.26703515625,-0.00170815153978765,0.0034906051587313414,-0.000107858024421148
1772806952846967300,6.27696728515625,-0.0022269352339208126,0.005873601883649826,0.0025007082149386406
1772806952856898300,6.286898193359375,-0.001145159243606031,0.004588892683386803,0.0009816411184147
1772806952866830300,6.296830322265625,-0.0029707562644034624,0.004598480183631182,0.0013488910626620054
1772806952876762400,6.306762451171875,-0.003174754325300455,0.005118062719702721,-0.000675377668812871
1772806952886694100,6.316694091796875,-0.002435993403196335,0.006083192303776741,0.0015986956423148513
1772806952896625400,6.32662548828125,0.001344896387308836,0.005858155433088541,-0.0001203748834086582
1772806952906557400,6.336557373046875,-0.00159443449229002,0.006256564520299435,0.000322775129461661
1772806952916489500,6.346489501953125,0.00008974852971732616,0.006996390409767628,0.0013108078856021166
1772806952926420200,6.356420166015625,-0.002034122357144952,0.003479952458292246,-0.0006167881074361503
1772806952936352300,6.366352294921875,0.0011867046123370528,0.006187854800373316,-0.00227806787006557
1772806952946284300,6.3762841796875,-0.0014109427575021982,0.006656038574874401,0.0007797735743224621
1772806952956216300,6.38621630859375,-0.0003483414766378701,0.006169745232909918,0.000032490566809428856
1772806952966147000,6.39614697265625,-0.0013662016717717052,0.005898635368794203,0.0020362529903650284
1772806952976079000,6.4060791015625,-0.00022024342615623027,0.006266417913138866,0.0003299656673334539
1772806952986011400,6.416011474609375,-0.003055977402254939,0.005065065808594227,0.0009020126308314502
1772806952995943400,6.425943359375,-0.0012831110507249832,0.006570817437022924,-0.0015001586871221662
1772806953005874400,6.43587451171875,-0.0010242518037557602,0.007699997629970312,0.0005773733137175441
1772806953015806200,6.44580615234375,-0.002161954063922167,0.006317550782114267,-0.00010040117194876075
1772806953025738200,6.45573828125,-0.0009885653853416443,0.00708667142316699,-0.0015765913994982839
1772806953035670300,6.465670166015625,-0.0010687265312299132,0.005527124274522066,0.0004620584368240088
1772806953045601300,6.475601318359375,-0.0004362257895991206,0.005884520709514618,-0.001674861996434629
1772806953055533000,6.485532958984375,-0.0004340952436905354,0.007951133884489536,0.001008539111353457
1772806953065465000,6.495465087890625,-0.0029502499382942915,0.006674148142337799,0.0014953649369999766
1772806953075397400,6.5053974609375,-0.0021254688035696745,0.006422479171305895,-0.003510579001158476
1772806953085328400,6.515328369140625,-0.0014367754338309169,0.005317267496138811,0.0009211873984895647
1772806953095260400,6.525260498046875,-0.002320678671821952,0.0057319216430187225,0.0010604707058519125
1772806953105192200,6.535192138671875,-0.0016530241118744016,0.008827313780784607,0.0003352919884491712
1772806953115123200,6.545123291015625,0.000031957933970261365,0.005501558072865009,-0.0009896307019516826
1772806953125055200,6.55505517578125,-0.0012279836228117347,0.006725014187395573,-0.0012562130577862263
1772806953134987300,6.5649873046875,-0.004305266309529543,0.006798517424613237,-0.0007723167072981596
1772806953144919300,6.574919189453125,-0.003632818115875125,0.006177734583616257,-0.002088717184960842
1772806953154850300,6.584850341796875,-0.0027265443932265043,0.0049345712177455425,-0.0006090649403631687
1772806953164782300,6.5947822265625,-0.00016058860637713224,0.0065196845680475235,-0.0014500912511721253
1772806953174714400,6.60471435546875,-0.0035981968976557255,0.007195062469691038,0.000499875342939049
1772806953184646400,6.614646484375,0.0007390272221527994,0.003712446428835392,0.0003656520275399089
1772806953194577200,6.6245771484375,-0.00005912217602599412,0.00628958735615015,-0.0013294500531628728
1772806953204509200,6.63450927734375,-0.0014183996245265007,0.008825715631246567,-0.0007760451408103108
1772806953214441200,6.644441162109375,-0.0005219795857556164,0.007170827593654394,0.00012756542128045112
1772806953224373200,6.654373291015625,-0.0038695731200277805,0.006651777308434248,0.0014452975010499358
1772806953234304300,6.66430419921875,-0.0005888249143026769,0.004111920483410358,0.001383778522722423
1772806953244236300,6.674236328125,0.0008617989369668067,0.005994243081659079,0.0004242415598127991
1772806953254168300,6.684168212890625,0.00036432043998502195,0.007250988855957985,-0.0012546151410788298
1772806953264100400,6.694100341796875,0.00044022052315995097,0.0051873051561415195,0.002511094557121396
1772806953274031400,6.70403125,-0.002092445734888315,0.00612420542165637,-0.0017038905061781406
1772806953283963100,6.713963134765625,-0.002590723102912307,0.006480003707110882,-0.0001280980504816398
1772806953293895200,6.723895263671875,-0.0011323761427775025,0.004108458757400513,-0.0009110674145631492
1772806953303827200,6.7338271484375,-0.0006325007416307926,0.006624347064644098,-0.0005475459038279951
1772806953313758500,6.743758544921875,-0.001169394003227353,0.006073871627449989,-0.0003890878288075328
1772806953323690200,6.753690185546875,-0.0016674051294103265,0.008894159458577633,0.00015686018741689622
1772806953333622300,6.763622314453125,-0.0013379721203818917,0.0037087181117385626,0.0008096009842120111
1772806953343554300,6.77355419921875,-0.002621349412947893,0.0054094125516712666,0.0009571401169523597
1772806953353485300,6.7834853515625,-0.0002894856152124703,0.005003014579415321,-0.0011520835105329752
1772806953363417300,6.793417236328125,0.0006878945278003812,0.005555087700486183,-0.0008969526388682425
1772806953373349000,6.80334912109375,-0.0006298375665210187,0.006200105417519808,-0.0014037522487342358
1772806953383280400,6.8132802734375,0.001142496126703918,0.0065468489192426205,0.0009464874165132642
1772806953393212400,6.82321240234375,-0.0028700886759907007,0.007499461527913809,0.0006727144937030971
1772806953403144400,6.83314453125,-0.0013456953456625342,0.006166283041238785,-0.00022130868455860764
1772806953413076500,6.843076416015625,-0.005262672435492277,-0.011830028146505356,0.016288159415125847
1772806953423007200,6.85300732421875,-0.009131446480751038,-0.05618364363908768,0.0016503608785569668
1772806953432939300,6.862939208984375,-0.0004492752777878195,0.049256227910518646,-0.017600033432245255
1772806953442871300,6.872871337890625,-0.009869941510260105,0.03443893417716026,-0.006530337035655975
1772806953452803300,6.88280322265625,-0.0021608888637274504,-0.0017363809747621417,0.006615025922656059
1772806953462734000,6.892734130859375,0.0041281660087406635,-0.00663526589050889,-0.005593703594058752
1772806953472666000,6.902666015625,-0.0017158746486529708,0.022011825814843178,-0.003291400847956538
1772806953482598100,6.91259814453125,-0.0024711471050977707,0.009399893693625927,0.0023616913240402937
1772806953492530000,6.922530029296875,-0.0003480751474853605,-0.0016610135789960623,-0.0033904702868312597
1772806953502461000,6.9324609375,-0.001181378262117505,0.009012669324874878,-0.0011608719360083342
1772806953512393000,6.94239306640625,-0.001757952617481351,0.00848722830414772,0.0040852888487279415
1772806953522325000,6.952324951171875,-0.00030786142451688647,-0.005520999431610107,0.004200603812932968
1772806953532256800,6.9622568359375,-0.0009315737406723201,0.013109942898154259,-0.0054791877046227455
1772806953542188000,6.97218798828125,-0.0036104475148022175,0.01912495866417885,-0.0008157262345775962
1772806953552120000,6.9821201171875,-0.002508165081962943,0.008202003315091133,-0.0011318434262648225
1772806953562052000,6.992052001953125,-0.003602191573008895,-0.0046386937610805035,0.0004577973741106689
1772806953571984100,7.001984130859375,-0.002834668615832925,0.014783473685383797,0.001967010786756873
1772806953581915000,7.011914794921875,-0.0016343819443136454,0.009920541197061539,-0.0004854942671954632
1772806953591847000,7.021846923828125,0.0002972087822854519,0.003194727934896946,-0.004113518632948399
1772806953601779000,7.031779052734375,-0.002100701443850994,0.01955053210258484,-0.003391801845282316
1772806953611710000,7.0417099609375,0.0015614113071933389,0.0040735709480941296,0.004510063212364912
1772806953621642000,7.05164208984375,-0.001882854849100113,0.0023843280505388975,-0.0018519621808081865
1772806953631574000,7.061573974609375,-0.0021022993605583906,0.012711800634860992,-0.00048389637959189713
1772806953641506000,7.071506103515625,-0.0013707289472222328,0.009240636602044106,0.0017134778900071979
1772806953651437000,7.08143701171875,-0.0010721886064857244,0.004173705819994211,-0.0008551410282962024
1772806953661368800,7.091368896484375,-0.0003382214636076242,0.0029438582714647055,0.0019976370967924595
1772806953671300900,7.10130078125,-0.0020122844725847244,0.012046276591718197,0.0014990933705121279
1772806953681233000,7.11123291015625,0.00035926041891798377,-0.00032437301706522703,0.00395719101652503
1772806953691164000,7.121163818359375,-0.00031318774563260376,0.005499427672475576,-0.001472728094086051
1772806953701096000,7.131095947265625,-0.0032581111881881952,0.011069429107010365,0.0009374326909892261
1772806953711028000,7.141028076171875,0.0004468784318305552,0.0018453042721375823,0.0025683525018393993
1772806953720960000,7.1509599609375,-0.001392300589941442,0.010732272639870644,-0.0000828243064461276
1772806953730891000,7.16089111328125,-0.003579554846510291,0.007390804588794708,-0.00036139096482656896
1772806953740823000,7.170822998046875,0.00101146858651191,0.008881908841431141,-0.00130894361063838
1772806953750754800,7.1807548828125,-0.000657534459605813,0.007135673891752958,0.0011406318517401814
1772806953760686800,7.190686767578125,-0.00227833422832191,0.008682171814143658,0.0032583775464445353
1772806953770617900,7.200617919921875,0.00035446672700345516,0.003355316584929824,-0.0005558017292059958
1772806953780550000,7.2105498046875,-0.000024767397917457856,0.0068389978259801865,0.0024578312877565622
1772806953790482000,7.22048193359375,-0.0009451558580622077,0.008045143447816372,0.00045034053619019687
1772806953800414000,7.2304140625,-0.000949150591623038,0.003049585735425353,0.000026897927455138415
1772806953810345000,7.240344970703125,0.001698830397799611,0.006066148169338703,-0.0009203884401358664
1772806953820277000,7.250277099609375,0.00015446334145963192,0.00817910023033619,0.0015398397808894515
1772806953830209000,7.260208984375,0.0003802994033321738,0.004114051349461079,0.00023968449386302382
1772806953840139800,7.270139892578125,-0.0002300971100339666,0.006971090566366911,0.0026929883752018213
1772806953850071800,7.28007177734375,-0.00022077605535741895,0.007361509837210178,0.000538491178303957
1772806953860003800,7.29000390625,0.0004918858758173883,0.0040948763489723206,0.0004948153509758413
1772806953869935900,7.299935791015625,-0.001990446588024497,0.007643538527190685,-0.000358461489668116
1772806953879867000,7.309866943359375,-0.002042910782620311,0.004579837899655104,0.0034325483720749617
1772806953889799000,7.319798828125,0.0003885551996063441,0.005847236607223749,-0.0006897587445564568
1772806953899731000,7.32973095703125,-0.000770452490542084,0.007671501953154802,0.001586178783327341
1772806953909663000,7.3396630859375,-0.0032474587205797434,0.00535614974796772,-0.00014647385978605598
1772806953919594000,7.349593994140625,0.000687361869495362,0.005623531062155962,-0.002055161399766803
1772806953929525800,7.35952587890625,-0.002267415402457118,-0.01894998922944069,0.014240721240639687
1772806953939457800,7.369457763671875,0.0025840650778263807,0.005787581671029329,0.007926099933683872
1772806953949389800,7.379389892578125,-0.0033366745337843895,0.015309980139136314,-0.0008996158139780164
1772806953959321000,7.389321044921875,0.0018093516118824482,-0.011147459968924522,-0.0073111760430037975
1772806953969253000,7.399253173828125,-0.002216282533481717,0.027227891609072685,-0.005878129042685032
1772806953979185000,7.409184814453125,0.0004942826926708221,0.00872345082461834,0.0007262440049089491
1772806953989117000,7.419116943359375,-0.0020005665719509125,-0.0009867012267932296,-0.0056922403164207935
1772806953999048000,7.4290478515625,-0.0016668725293129683,0.011156514286994934,-0.0009243832319043577
1772806954008980000,7.43897998046875,-0.002213353058323264,0.01264016143977642,0.0012942962348461151
1772806954018911700,7.448911865234375,0.001139566651545465,0.0014231932582333684,-0.0004953479510731995
1772806954028843800,7.45884375,-0.0010596717474982142,0.00759906368330121,0.0013771206140518188
1772806954038775000,7.468775146484375,-0.0003802994033321738,0.00666322885081172,0.001913481275551021
1772806954048707000,7.47870703125,-0.0021728731226176023,0.005860019475221634,-0.003002181416377425
1772806954058639000,7.48863916015625,-0.00011717908637365326,0.007702660746872425,-0.000559263804461807
1772806954068569900,7.49856982421875,-0.0003203782835043967,0.0067899953573942184,-0.00047697214176878333
1772806954078502000,7.508501953125,-0.0015342470724135637,0.004740426782518625,-0.000464188982732594
1772806954088434000,7.518433837890625,0.0008655273704789579,0.008761267177760601,0.0014378406340256333
1772806954098366000,7.528365966796875,-0.002313754288479686,0.00592606607824564,0.00043329631444066763
1772806954108297000,7.538296875,-0.0014199974248185754,0.006715693045407534,-0.002356897573918104
1772806954118229000,7.54822900390625,0.00022530343267135322,0.0075639099813997746,0.0010522148804739118
1772806954128161000,7.5581611328125,-0.0015363775892183185,0.006673881784081459,0.0004588626616168767
1772806954138093000,7.568093017578125,0.0004239752306602895,0.006308229640126228,0.003418167121708393
1772806954148023800,7.57802392578125,-0.002529204124584794,0.005612345412373543,0.0014942996203899384
1772806954157955800,7.587955810546875,-0.0013957626651972532,0.00564137427136302,-0.0015219965716823936
1772806954167888000,7.597887939453125,-0.0031166973058134317,0.007976699620485306,-0.0013174657942727208
1772806954177820000,7.60781982421875,-0.0011590076610445976,0.005540973041206598,-0.0018996327416971326
1772806954187751200,7.617751220703125,-0.0019022959750145674,0.006570284720510244,0.0036495958920568228
1772806954197683000,7.627682861328125,-0.003948935307562351,0.13850247859954834,0.01636885292828083
1772806954207615000,7.637614990234375,-0.0035782232880592346,0.06783390790224075,0.005147091578692198
1772806954217547000,7.647547119140625,-0.0005704491049982607,0.010973555035889149,-0.0003866909828502685
1772806954227478000,7.65747802734375,-0.004289287142455578,0.09862404316663742,0.009338640607893467
1772806954237410000,7.66741015625,-0.00660384027287364,0.22365359961986542,0.015036740340292454
1772806954247341800,7.677341796875,-0.0044139232486486435,0.10481350123882294,0.009674198925495148
1772806954257273900,7.68727392578125,0.0018631474813446403,-0.10407979786396027,-0.007537811063230038
1772806954267205000,7.697205078125,-0.002189651131629944,0.08533966541290283,0.005185441114008427
1772806954277137200,7.70713720703125,-0.0001203748834086582,-0.01738245226442814,-0.0024349282030016184
1772806954287069000,7.71706884765625,0.0006697850185446441,-0.0436319001019001,-0.002097771968692541
1772806954297001000,7.7270009765625,-0.0008143946761265397,-0.008949019946157932,-0.0006000102148391306
1772806954306932000,7.736931884765625,0.00014807176194153726,-0.045289717614650726,-0.00595562718808651
1772806954316864000,7.746864013671875,-0.0007017429452389479,-0.09541493654251099,-0.006482134107500315
1772806954326796000,7.756796142578125,0.0015315839555114508,-0.15765699744224548,-0.01571211777627468
1772806954336726800,7.766726806640625,-0.00013156015484128147,0.0013960290234535933,-0.00009507485083304346
1772806954346659000,7.7766591796875,-0.0018844527658075094,-0.04153226315975189,-0.009413475170731544
1772806954356591000,7.786591064453125,0.0001203748834086582,-0.11066552996635437,-0.015388810075819492
1772806954366523100,7.796523193359375,0.001062068622559309,-0.03127643093466759,-0.0033747577108442783
1772806954376454000,7.806453857421875,-0.002511360915377736,0.06138905882835388,0.010553575120866299
