time,seconds_elapsed,z,y,x
1772871634509851400,0.055851318359375,-0.7989501953125,0.23614501953125,0.2146148681640625
1772871634519783400,0.065783447265625,-0.7786712646484375,0.2203521728515625,0.21771240234375
1772871634529716500,0.075716552734375,-0.7362823486328125,0.216064453125,0.2431182861328125
1772871634539649500,0.0856494140625,-0.7054901123046875,0.2173919677734375,0.256256103515625
1772871634549582600,0.09558251953125,-0.714691162109375,0.21875,0.257232666015625
1772871634559515400,0.105515380859375,-0.7401123046875,0.22784423828125,0.2550811767578125
1772871634569448400,0.115448486328125,-0.770721435546875,0.240081787109375,0.246917724609375
1772871634579381500,0.125381591796875,-0.785400390625,0.255645751953125,0.23272705078125
1772871634589314600,0.135314453125,-0.7908935546875,0.274749755859375,0.2055816650390625
1772871634599247400,0.145247314453125,-0.78961181640625,0.28460693359375,0.175506591796875
1772871634609180400,0.155180419921875,-0.7446746826171875,0.28094482421875,0.16497802734375
1772871634619112400,0.165112548828125,-0.6919403076171875,0.26898193359375,0.202545166015625
1772871634629045500,0.17504541015625,-0.6428070068359375,0.2384033203125,0.25750732421875
1772871634638978600,0.184978515625,-0.5657196044921875,0.2059783935546875,0.2946624755859375
1772871634648911400,0.194911376953125,-0.5325927734375,0.1885833740234375,0.320159912109375
1772871634658844400,0.204844482421875,-0.5371856689453125,0.1939849853515625,0.3130035400390625
1772871634668777500,0.214777587890625,-0.5638885498046875,0.216949462890625,0.297271728515625
1772871634678710500,0.22471044921875,-0.59136962890625,0.25201416015625,0.29119873046875
1772871634688643300,0.234643310546875,-0.6070098876953125,0.289581298828125,0.3016357421875
1772871634698576400,0.244576416015625,-0.637420654296875,0.3126220703125,0.3556365966796875
1772871634708509400,0.254509521484375,-0.6933441162109375,0.302642822265625,0.4121856689453125
1772871634718441500,0.26444140625,-0.727325439453125,0.309844970703125,0.430419921875
1772871634728374500,0.27437451171875,-0.74078369140625,0.36285400390625,0.4105682373046875
1772871634738307600,0.2843076171875,-0.8133392333984375,0.434234619140625,0.36419677734375
1772871634748240400,0.294240478515625,-0.908538818359375,0.5191802978515625,0.334503173828125
1772871634758173400,0.30417333984375,-0.9789886474609375,0.6011962890625,0.288299560546875
1772871634768106500,0.3141064453125,-1.07366943359375,0.68426513671875,0.2325592041015625
1772871634778039600,0.32403955078125,-1.1606903076171875,0.750946044921875,0.164306640625
1772871634787972400,0.333972412109375,-1.1905670166015625,0.78961181640625,0.0769805908203125
1772871634797905400,0.343905517578125,-1.1873321533203125,0.797882080078125,0.001800537109375
1772871634807837400,0.35383740234375,-1.1580963134765625,0.787139892578125,-0.0381011962890625
1772871634817770500,0.3637705078125,-1.11322021484375,0.75860595703125,-0.0451507568359375
1772871634827703600,0.37370361328125,-1.0555572509765625,0.702117919921875,-0.0251312255859375
1772871634837636400,0.38363623046875,-0.9547119140625,0.6419830322265625,0.0047149658203125
1772871634847569400,0.3935693359375,-0.8479156494140625,0.5826263427734375,0.0460357666015625
1772871634857502500,0.40350244140625,-0.7356414794921875,0.530914306640625,0.061279296875
1772871634867435500,0.413435546875,-0.601165771484375,0.50091552734375,0.0813446044921875
1772871634877368600,0.42336865234375,-0.5128631591796875,0.4878387451171875,0.089385986328125
1772871634887301400,0.43330126953125,-0.4933929443359375,0.4808807373046875,0.0924835205078125
1772871634897234400,0.443234375,-0.506439208984375,0.5,0.101287841796875
1772871634907166500,0.45316650390625,-0.523895263671875,0.5255889892578125,0.0972442626953125
1772871634917099500,0.463099609375,-0.559356689453125,0.55621337890625,0.0946044921875
1772871634927032600,0.473032470703125,-0.6015625,0.5768890380859375,0.1138916015625
1772871634936965400,0.48296533203125,-0.5983734130859375,0.5801544189453125,0.124176025390625
1772871634946898400,0.4928984375,-0.5813446044921875,0.5742034912109375,0.09722900390625
1772871634956831500,0.50283154296875,-0.6026763916015625,0.5812530517578125,0.05426025390625
1772871634966764500,0.5127646484375,-0.651397705078125,0.60772705078125,-0.0109405517578125
1772871634976697300,0.522697265625,-0.7011871337890625,0.6417083740234375,-0.065582275390625
1772871634986630400,0.53263037109375,-0.7106475830078125,0.674102783203125,-0.1262969970703125
1772871634996563500,0.5425634765625,-0.6625213623046875,0.7125091552734375,-0.1952667236328125
1772871635006495500,0.55249560546875,-0.6208953857421875,0.720306396484375,-0.264129638671875
1772871635016428500,0.562428466796875,-0.5881195068359375,0.7421112060546875,-0.2309112548828125
1772871635026361300,0.572361328125,-0.5710906982421875,0.7526092529296875,-0.1325225830078125
1772871635036294400,0.58229443359375,-0.61077880859375,0.7476043701171875,-0.0287017822265625
1772871635046227500,0.5922275390625,-0.66522216796875,0.7843170166015625,0.0570526123046875
1772871635056160500,0.602160400390625,-0.703338623046875,0.84588623046875,0.09954833984375
1772871635066093600,0.612093505859375,-0.723236083984375,0.9118194580078125,0.146820068359375
1772871635076026400,0.6220263671875,-0.7493438720703125,0.9581298828125,0.172515869140625
1772871635085959400,0.63195947265625,-0.7621002197265625,1.0130462646484375,0.2307891845703125
1772871635095892500,0.641892578125,-0.7826385498046875,1.093902587890625,0.2905426025390625
1772871635105824500,0.651824462890625,-0.8856658935546875,1.1875762939453125,0.324951171875
1772871635115757600,0.661757568359375,-1.0755157470703125,1.29876708984375,0.359619140625
1772871635125690400,0.6716904296875,-1.319091796875,1.409912109375,0.3842010498046875
1772871635135623400,0.68162353515625,-1.5221710205078125,1.4811248779296875,0.404815673828125
1772871635145556500,0.691556396484375,-1.5788116455078125,1.490966796875,0.390350341796875
1772871635155489500,0.701489501953125,-1.5000762939453125,1.4826507568359375,0.4125518798828125
1772871635165422300,0.71142236328125,-1.4008941650390625,1.4453887939453125,0.5032806396484375
1772871635175355400,0.72135546875,-1.3476409912109375,1.3562774658203125,0.6510772705078125
1772871635185288400,0.731288330078125,-1.314239501953125,1.2663726806640625,0.8104400634765625
1772871635195221500,0.741221435546875,-1.25665283203125,1.1961822509765625,0.9471282958984375
1772871635205153500,0.751153564453125,-1.1125030517578125,1.1306610107421875,0.988555908203125
1772871635215085600,0.76108544921875,-0.9407806396484375,1.1138763427734375,0.931365966796875
1772871635225018600,0.7710185546875,-0.8836822509765625,1.190643310546875,0.8452606201171875
1772871635234951400,0.780951416015625,-0.937469482421875,1.31329345703125,0.756256103515625
1772871635244884500,0.790884521484375,-1.003509521484375,1.4654541015625,0.6368408203125
1772871635254817500,0.800817626953125,-1.038482666015625,1.6069793701171875,0.471710205078125
1772871635264750600,0.81075048828125,-1.0137786865234375,1.6801910400390625,0.2824554443359375
1772871635274683400,0.820683349609375,-0.92413330078125,1.6717681884765625,0.104034423828125
1772871635284616400,0.830616455078125,-0.7833404541015625,1.595733642578125,-0.051788330078125
1772871635294549500,0.840549560546875,-0.6085662841796875,1.4697723388671875,-0.117889404296875
1772871635304481500,0.8504814453125,-0.425201416015625,1.302398681640625,-0.11578369140625
1772871635314414600,0.86041455078125,-0.2815093994140625,1.14080810546875,-0.09307861328125
1772871635324347400,0.870347412109375,-0.186431884765625,1.018402099609375,-0.040771484375
1772871635334280400,0.880280517578125,-0.1551361083984375,0.912322998046875,0.019866943359375
1772871635344213500,0.890213623046875,-0.199615478515625,0.7851715087890625,0.0600128173828125
1772871635354146600,0.900146484375,-0.3389129638671875,0.63482666015625,0.036224365234375
1772871635364079400,0.910079345703125,-0.5290985107421875,0.516815185546875,0.0091400146484375
1772871635374012400,0.920012451171875,-0.665679931640625,0.382568359375,-0.001373291015625
1772871635383945500,0.929945556640625,-0.7010955810546875,0.24285888671875,0.0169219970703125
1772871635393878500,0.93987841796875,-0.606353759765625,0.0938262939453125,0.04791259765625
1772871635403810600,0.949810546875,-0.37994384765625,-0.0176849365234375,0.071258544921875
1772871635413743600,0.95974365234375,-0.0631866455078125,-0.082427978515625,0.068084716796875
1772871635423676400,0.969676513671875,0.3136749267578125,-0.13275146484375,-0.019561767578125
1772871635433609500,0.979609375,0.662506103515625,-0.15911865234375,-0.0811767578125
1772871635443542500,0.98954248046875,0.8505096435546875,-0.186676025390625,-0.116912841796875
1772871635453475600,0.9994755859375,0.7901763916015625,-0.1421661376953125,-0.1525421142578125
1772871635463408400,1.009408447265625,0.580169677734375,-0.08892822265625,-0.14385986328125
1772871635473341400,1.019341552734375,0.2414703369140625,-0.0430450439453125,-0.013946533203125
1772871635483274500,1.0292744140625,-0.1514739990234375,-0.040924072265625,0.1531524658203125
1772871635493207600,1.03920751953125,-0.508392333984375,-0.0516815185546875,0.2811126708984375
1772871635503139600,1.0491396484375,-0.7115631103515625,-0.0188446044921875,0.3387908935546875
1772871635513072400,1.059072265625,-0.70867919921875,0.0530853271484375,0.34375
1772871635523005400,1.06900537109375,-0.5907440185546875,0.11798095703125,0.292755126953125
1772871635532938500,1.0789384765625,-0.34857177734375,0.1566619873046875,0.1621246337890625
1772871635542871600,1.08887158203125,-0.0733642578125,0.1970672607421875,0.0272674560546875
1772871635552804400,1.098804443359375,0.14471435546875,0.2169189453125,-0.048736572265625
1772871635562737400,1.1087373046875,0.26934814453125,0.20892333984375,-0.0964813232421875
1772871635572670500,1.11867041015625,0.3331451416015625,0.208404541015625,-0.113525390625
1772871635582603500,1.128603515625,0.2786865234375,0.2230224609375,-0.143463134765625
1772871635592535600,1.13853564453125,0.1302032470703125,0.23486328125,-0.1843719482421875
1772871635602468600,1.148468505859375,0.0219573974609375,0.22088623046875,-0.103515625
1772871635612401400,1.1584013671875,-0.098388671875,0.153228759765625,0.03656005859375
1772871635622334500,1.16833447265625,-0.189483642578125,0.1311798095703125,0.12841796875
1772871635632267500,1.178267578125,-0.200592041015625,0.186065673828125,0.1591949462890625
1772871635642200600,1.18820068359375,-0.1928558349609375,0.2238006591796875,0.23284912109375
1772871635652133400,1.19813330078125,-0.18841552734375,0.346343994140625,0.2804107666015625
1772871635662066400,1.20806640625,-0.21649169921875,0.6023712158203125,0.307342529296875
1772871635671999500,1.21799951171875,-0.2146148681640625,0.933990478515625,0.4455718994140625
1772871635681932500,1.2279326171875,-0.2720947265625,1.432098388671875,0.53277587890625
1772871635691864600,1.237864501953125,-0.4428558349609375,2.068145751953125,0.4315948486328125
1772871635701797400,1.24779736328125,-0.9384002685546875,2.5924530029296875,0.0833587646484375
1772871635711730400,1.25773046875,-1.77252197265625,2.9385223388671875,-0.2178955078125
1772871635721663500,1.26766357421875,-2.71160888671875,3.090789794921875,-0.013946533203125
1772871635731596500,1.277596435546875,-3.41900634765625,2.898956298828125,0.538604736328125
1772871635741529300,1.287529296875,-3.52874755859375,2.67144775390625,0.9895782470703125
1772871635751462400,1.29746240234375,-2.7852325439453125,2.3275909423828125,0.94073486328125
1772871635761395500,1.3073955078125,-1.9332427978515625,2.1134490966796875,0.64508056640625
1772871635771328500,1.31732861328125,-1.4024810791015625,1.995697021484375,0.358917236328125
1772871635781261600,1.327261474609375,-1.0689544677734375,1.9179229736328125,0.2024078369140625
1772871635791193600,1.337193603515625,-0.8354644775390625,1.842041015625,0.101531982421875
1772871635801126400,1.34712646484375,-0.773345947265625,1.7760009765625,0.0489654541015625
1772871635811059500,1.3570595703125,-0.8839569091796875,1.717742919921875,0.069366455078125
1772871635820992500,1.366992431640625,-1.0867919921875,1.63916015625,0.2090301513671875
1772871635830925600,1.376925537109375,-1.284423828125,1.577362060546875,0.3743896484375
1772871635840858400,1.3868583984375,-1.3961944580078125,1.5568695068359375,0.5041046142578125
1772871635850791400,1.39679150390625,-1.3568115234375,1.5555419921875,0.55096435546875
1772871635860724500,1.406724365234375,-1.2133331298828125,1.508087158203125,0.4477996826171875
1772871635870657500,1.416657470703125,-1.0025634765625,1.4146575927734375,0.2289886474609375
1772871635880589600,1.426589599609375,-0.72747802734375,1.273590087890625,0.028778076171875
1772871635890522400,1.4365224609375,-0.4345855712890625,1.03912353515625,-0.0457305908203125
1772871635900455400,1.446455322265625,-0.211761474609375,0.743133544921875,-0.0167236328125
1772871635910388500,1.456388427734375,-0.010467529296875,0.4798736572265625,0.055511474609375
1772871635920321500,1.466321533203125,0.1874542236328125,0.2605743408203125,0.1167144775390625
1772871635930254300,1.47625439453125,0.3608856201171875,0.093841552734375,0.1275482177734375
1772871635940187400,1.4861875,0.4927978515625,-0.0040283203125,0.106475830078125
1772871635950120400,1.496120361328125,0.54302978515625,-0.07427978515625,0.0474853515625
1772871635960053500,1.506053466796875,0.555816650390625,-0.134246826171875,0.0045166015625
1772871635969986600,1.515986572265625,0.57977294921875,-0.1654205322265625,-0.0305023193359375
1772871635979918600,1.525918701171875,0.60528564453125,-0.196868896484375,-0.066497802734375
1772871635989851400,1.535851318359375,0.594451904296875,-0.189971923828125,-0.071380615234375
1772871635999784400,1.545784423828125,0.4571075439453125,-0.14007568359375,-0.06689453125
1772871636009717500,1.555717529296875,0.2294921875,-0.0851898193359375,-0.0290069580078125
1772871636019650600,1.565650634765625,0.001556396484375,-0.0232086181640625,0.031005859375
1772871636029583400,1.575583251953125,-0.19476318359375,0.0365447998046875,0.0879058837890625
1772871636039516400,1.585516357421875,-0.347869873046875,0.085235595703125,0.0741424560546875
1772871636049449500,1.595449462890625,-0.4322357177734375,0.139434814453125,0.02069091796875
1772871636059381500,1.605381591796875,-0.4505615234375,0.196014404296875,-0.0410308837890625
1772871636069314600,1.615314453125,-0.423248291015625,0.2161712646484375,-0.0749053955078125
1772871636079247400,1.625247314453125,-0.3592529296875,0.19866943359375,-0.0843505859375
1772871636089180400,1.635180419921875,-0.2548675537109375,0.1776123046875,-0.0972900390625
1772871636099113500,1.645113525390625,-0.1426544189453125,0.1376190185546875,-0.0946197509765625
1772871636109046500,1.655046630859375,-0.090362548828125,0.0751953125,-0.0528564453125
1772871636118979300,1.664979248046875,-0.07684326171875,0.032958984375,-0.0003814697265625
1772871636128912400,1.674912353515625,-0.069305419921875,0.022491455078125,0.02777099609375
1772871636138845400,1.684845458984375,-0.0731964111328125,0.0260162353515625,0.023712158203125
1772871636148778500,1.694778564453125,-0.04266357421875,0.0491790771484375,0.0036163330078125
1772871636158710500,1.70471044921875,0.0149993896484375,0.08026123046875,-0.0399932861328125
1772871636168643600,1.7146435546875,0.047332763671875,0.09722900390625,-0.082427978515625
1772871636178576400,1.724576416015625,0.07672119140625,0.103912353515625,-0.06390380859375
1772871636188509400,1.734509521484375,0.06048583984375,0.1395263671875,-0.02679443359375
1772871636198442500,1.7444423828125,0.0168304443359375,0.248870849609375,-0.103515625
1772871636208375800,1.754375732421875,-0.0433807373046875,0.363677978515625,-0.1007080078125
1772871636218308900,1.764308837890625,-0.181549072265625,0.5011749267578125,0.023590087890625
1772871636228242000,1.774241943359375,-0.439422607421875,0.6832733154296875,0.218841552734375
1772871636238175000,1.784175048828125,-0.7324981689453125,0.9518585205078125,0.3715667724609375
1772871636248107000,1.79410693359375,-0.9587860107421875,1.2486572265625,0.435516357421875
1772871636258040000,1.8040400390625,-1.1456756591796875,1.5302581787109375,0.444061279296875
1772871636267972900,1.813972900390625,-1.362640380859375,1.727783203125,0.4096527099609375
1772871636277906000,1.823906005859375,-1.7281036376953125,1.90838623046875,0.389495849609375
1772871636287839000,1.8338388671875,-2.002227783203125,2.1925811767578125,0.3369293212890625
1772871636297772000,1.84377197265625,-2.1000518798828125,2.421600341796875,0.1824798583984375
1772871636307704800,1.853704833984375,-2.0570068359375,2.5213470458984375,0.0072479248046875
1772871636317638000,1.863637939453125,-1.9589080810546875,2.514373779296875,0.024261474609375
1772871636327571000,1.873571044921875,-1.8509979248046875,2.4105072021484375,0.213104248046875
1772871636337503000,1.8835029296875,-1.7086181640625,2.2491607666015625,0.445343017578125
1772871636347436000,1.89343603515625,-1.6174163818359375,2.0171051025390625,0.6503753662109375
1772871636357368800,1.903368896484375,-1.5854949951171875,1.7881317138671875,0.75299072265625
1772871636367302000,1.913302001953125,-1.5623931884765625,1.6778564453125,0.75030517578125
1772871636377235000,1.92323486328125,-1.52020263671875,1.662872314453125,0.6054229736328125
1772871636387168000,1.93316796875,-1.4363861083984375,1.69891357421875,0.3354339599609375
1772871636397100800,1.943100830078125,-1.3583984375,1.7433319091796875,0.01043701171875
1772871636407033900,1.953033935546875,-1.3054046630859375,1.742767333984375,-0.2753448486328125
1772871636416967000,1.962966796875,-1.248443603515625,1.69970703125,-0.4567718505859375
1772871636426899000,1.97289892578125,-1.1947479248046875,1.6154022216796875,-0.4995880126953125
1772871636436832000,1.98283203125,-1.151580810546875,1.4786224365234375,-0.41864013671875
1772871636446765000,1.99276513671875,-1.0567169189453125,1.323150634765625,-0.28851318359375
1772871636456697900,2.00269775390625,-0.92864990234375,1.1578826904296875,-0.182403564453125
1772871636466631000,2.012630859375,-0.7798004150390625,0.9884033203125,-0.139923095703125
1772871636476564000,2.02256396484375,-0.6075286865234375,0.8284454345703125,-0.1632843017578125
1772871636486497000,2.0324970703125,-0.4268646240234375,0.6582794189453125,-0.189208984375
1772871636496429800,2.042429931640625,-0.1145477294921875,0.2755584716796875,-0.0691680908203125
1772871636506363000,2.05236279296875,0.238983154296875,-0.1407012939453125,0.2489776611328125
1772871636516295000,2.062294921875,0.122711181640625,0.014190673828125,0.0445098876953125
1772871636526228000,2.07222802734375,0.3109588623046875,-0.0118865966796875,-0.072540283203125
1772871636536161000,2.0821611328125,0.486663818359375,-0.1160430908203125,-0.041656494140625
1772871636546093800,2.09209375,0.6286468505859375,-0.13671875,0.05023193359375
1772871636556027000,2.10202685546875,0.8134002685546875,-0.3753814697265625,0.286956787109375
1772871636565960000,2.1119599609375,0.8108978271484375,-0.3299560546875,0.386077880859375
1772871636575893000,2.12189306640625,0.6934967041015625,-0.145965576171875,0.3009490966796875
1772871636585826000,2.131825927734375,0.4890594482421875,-0.0345916748046875,0.2404022216796875
1772871636595758800,2.1417587890625,0.294219970703125,0.078338623046875,0.2033233642578125
1772871636605691000,2.15169091796875,0.1268310546875,0.144805908203125,0.1634368896484375
1772871636615624000,2.1616240234375,-0.033966064453125,0.2079620361328125,0.1392822265625
1772871636625557000,2.171556884765625,-0.194915771484375,0.2108917236328125,0.13848876953125
1772871636635490000,2.181489990234375,-0.3428955078125,0.1672515869140625,0.1513214111328125
1772871636645422800,2.1914228515625,-0.410186767578125,0.123504638671875,0.2149658203125
1772871636655356000,2.20135595703125,-0.4024200439453125,0.0799713134765625,0.2402191162109375
1772871636665289000,2.2112890625,-0.29669189453125,0.0695953369140625,0.1841583251953125
1772871636675222000,2.221221923828125,-0.0968780517578125,0.0550994873046875,0.0684661865234375
1772871636685154800,2.23115478515625,0.087646484375,0.037261962890625,-0.04833984375
1772871636695086800,2.2410869140625,0.20953369140625,0.0601043701171875,-0.1208038330078125
1772871636705020000,2.25102001953125,0.2294769287109375,0.0821533203125,-0.166168212890625
1772871636714953000,2.260952880859375,0.14471435546875,0.1151885986328125,-0.14813232421875
1772871636724886000,2.270885986328125,-0.0439605712890625,0.126678466796875,-0.043792724609375
1772871636734818800,2.28081884765625,-0.2985382080078125,0.10772705078125,0.0811614990234375
1772871636744751900,2.290751953125,-0.4937896728515625,0.124267578125,0.1503753662109375
1772871636754685000,2.300684814453125,-0.6368865966796875,0.163177490234375,0.1650543212890625
1772871636764618000,2.310617919921875,-0.6916961669921875,0.3361053466796875,0.03875732421875
1772871636774551000,2.320551025390625,-0.606658935546875,0.5983734130859375,-0.17041015625
1772871636784483000,2.330483154296875,-0.5061187744140625,0.7930145263671875,-0.3096771240234375
1772871636794415900,2.340415771484375,-0.5020294189453125,0.9339447021484375,-0.3112030029296875
1772871636804349000,2.350348876953125,-0.6417236328125,1.0630950927734375,-0.232025146484375
1772871636814282000,2.360281982421875,-0.9323272705078125,1.201263427734375,-0.0443878173828125
1772871636824215000,2.370215087890625,-1.4286651611328125,1.4440155029296875,0.175445556640625
1772871636834147800,2.38014794921875,-2.00750732421875,1.81982421875,0.3423614501953125
1772871636844081000,2.390080810546875,-2.483001708984375,2.1348876953125,0.4061279296875
1772871636854014000,2.400013916015625,-2.7225494384765625,2.3213653564453125,0.32830810546875
1772871636863947000,2.409947021484375,-2.580047607421875,2.4502105712890625,0.0975189208984375
1772871636873879000,2.419879150390625,-2.1862945556640625,2.4317626953125,-0.091461181640625
1772871636883811800,2.429811767578125,-1.82659912109375,2.327117919921875,-0.1105804443359375
1772871636893745000,2.439744873046875,-1.502960205078125,2.1971893310546875,0.0072021484375
1772871636903678000,2.449677978515625,-1.2857818603515625,2.0174102783203125,0.189422607421875
1772871636913611000,2.459611083984375,-1.2238922119140625,1.820587158203125,0.434844970703125
1772871636923543800,2.469543701171875,-1.30645751953125,1.637115478515625,0.7527618408203125
1772871636933476900,2.479476806640625,-1.42193603515625,1.5350494384765625,1.0185089111328125
1772871636943410000,2.489409912109375,-1.4670257568359375,1.54730224609375,1.0363311767578125
1772871636953343000,2.499343017578125,-1.441925048828125,1.622650146484375,0.771820068359375
1772871636963275000,2.50927490234375,-1.3892059326171875,1.703887939453125,0.4022979736328125
1772871636973208000,2.5192080078125,-1.3439788818359375,1.6843109130859375,0.08203125
1772871636983140900,2.529140869140625,-1.3194732666015625,1.5844573974609375,-0.13153076171875
1772871636993074000,2.539073974609375,-1.3007965087890625,1.438720703125,-0.2147674560546875
1772871637003007000,2.549007080078125,-1.220855712890625,1.296905517578125,-0.2165985107421875
1772871637012940000,2.55893994140625,-1.071441650390625,1.1464691162109375,-0.1948394775390625
1772871637022872800,2.568872802734375,-0.896881103515625,0.9478607177734375,-0.1648712158203125
1772871637032806000,2.578805908203125,-0.7047882080078125,0.727813720703125,-0.1302337646484375
1772871637042739000,2.588739013671875,-0.508209228515625,0.5081634521484375,-0.11126708984375
1772871637052671000,2.5986708984375,-0.28973388671875,0.282501220703125,-0.1032562255859375
1772871637062604000,2.60860400390625,-0.047882080078125,0.0477142333984375,-0.0440521240234375
1772871637072536800,2.618536865234375,0.1665496826171875,-0.189056396484375,0.03955078125
1772871637082470000,2.628469970703125,0.3629608154296875,-0.2415924072265625,0.0470733642578125
1772871637092403000,2.63840283203125,0.4348602294921875,-0.1651458740234375,-0.083740234375
1772871637102336000,2.6483359375,0.5244598388671875,-0.0946807861328125,-0.2201080322265625
1772871637112268800,2.658268798828125,0.624542236328125,-0.0413665771484375,-0.2702178955078125
1772871637122201900,2.668201904296875,0.67230224609375,0.0232391357421875,-0.2577972412109375
1772871637132135000,2.678135009765625,0.690155029296875,0.069793701171875,-0.2031402587890625
1772871637142067000,2.68806689453125,0.6242828369140625,0.0606536865234375,-0.13287353515625
1772871637152000000,2.698,0.5204620361328125,0.0532379150390625,-0.024261474609375
1772871637161933000,2.70793310546875,0.3531036376953125,0.03717041015625,0.119659423828125
1772871637171865900,2.717865966796875,0.123077392578125,0.031219482421875,0.2481536865234375
1772871637181799000,2.727798828125,-0.1453704833984375,0.0215606689453125,0.3585205078125
1772871637191732000,2.73773193359375,-0.387420654296875,0.00592041015625,0.4471893310546875
1772871637201665000,2.7476650390625,-0.536773681640625,0.0135345458984375,0.4879302978515625
1772871637211597600,2.75759765625,-0.555450439453125,0.048187255859375,0.4658966064453125
1772871637221529600,2.767529541015625,-0.44757080078125,0.108856201171875,0.3729095458984375
1772871637231462700,2.777462646484375,-0.2567901611328125,0.1673583984375,0.2265472412109375
1772871637241395700,2.787395751953125,-0.029449462890625,0.209686279296875,0.0553436279296875
1772871637251328800,2.797328857421875,0.1743927001953125,0.2368621826171875,-0.1052093505859375
1772871637261261800,2.80726171875,0.309722900390625,0.2261810302734375,-0.2492828369140625
1772871637271194600,2.817194580078125,0.3569488525390625,0.1874237060546875,-0.3189697265625
1772871637281127700,2.827127685546875,0.2792205810546875,0.150299072265625,-0.287322998046875
1772871637291060700,2.837060791015625,0.078521728515625,0.118865966796875,-0.19146728515625
1772871637300993800,2.846993896484375,-0.1238250732421875,0.07879638671875,-0.0415191650390625
1772871637310925800,2.85692578125,-0.32989501953125,0.0037078857421875,0.1475677490234375
1772871637320858600,2.866858642578125,-0.4927520751953125,-0.0924835205078125,0.319244384765625
1772871637330791700,2.876791748046875,-0.5727386474609375,-0.0059051513671875,0.3376617431640625
1772871637340724700,2.886724853515625,-0.566375732421875,0.1540374755859375,0.1662750244140625
1772871637350657800,2.89665771484375,-0.495697021484375,0.274688720703125,0.0863494873046875
1772871637360590600,2.906590576171875,-0.490631103515625,0.4094085693359375,0.0983123779296875
1772871637370523600,2.916523681640625,-0.529815673828125,0.57867431640625,0.231719970703125
1772871637380456700,2.926456787109375,-0.62408447265625,0.8383636474609375,0.40411376953125
1772871637390388700,2.936388671875,-0.756744384765625,1.19818115234375,0.4571533203125
1772871637400321800,2.94632177734375,-0.8658447265625,1.67340087890625,0.3349151611328125
1772871637410254600,2.956254638671875,-1.032135009765625,2.1086578369140625,0.1295013427734375
1772871637420187600,2.966187744140625,-1.449859619140625,2.4096832275390625,-0.0281829833984375
1772871637430120700,2.97612060546875,-1.9273529052734375,2.5695953369140625,-0.0336151123046875
1772871637440053800,2.9860537109375,-2.2708892822265625,2.4891815185546875,0.14007568359375
1772871637449986800,2.99598681640625,-2.53253173828125,2.2381744384765625,0.557342529296875
1772871637459919600,3.005919677734375,-2.5838165283203125,2.0538787841796875,1.0340423583984375
1772871637469852700,3.015852783203125,-2.3627471923828125,1.909271240234375,1.2985076904296875
1772871637479784700,3.02578466796875,-1.88580322265625,1.7978973388671875,1.26544189453125
1772871637489717800,3.0357177734375,-1.3564910888671875,1.7297515869140625,1.0616455078125
1772871637499650800,3.04565087890625,-0.936859130859375,1.6601715087890625,0.8148193359375
1772871637509583600,3.05558349609375,-0.649688720703125,1.5895233154296875,0.5733184814453125
1772871637519516700,3.0655166015625,-0.6185150146484375,1.5611724853515625,0.4225006103515625
1772871637529449700,3.07544970703125,-0.8511199951171875,1.6413726806640625,0.3848724365234375
1772871637539382800,3.0853828125,-1.240234375,1.744720458984375,0.42315673828125
1772871637549315600,3.095315673828125,-1.6114959716796875,1.793853759765625,0.426239013671875
1772871637559248600,3.10524853515625,-1.8224639892578125,1.8244171142578125,0.348358154296875
1772871637569180700,3.1151806640625,-1.8754730224609375,1.795562744140625,0.2445068359375
1772871637579113700,3.12511376953125,-1.8072509765625,1.7131500244140625,0.1611328125
1772871637589046800,3.135046875,-1.626953125,1.5819549560546875,0.080078125
1772871637598979600,3.1449794921875,-1.328125,1.3841094970703125,-0.043060302734375
1772871637608912600,3.15491259765625,-0.9771270751953125,1.171417236328125,-0.1388702392578125
1772871637618845700,3.164845703125,-0.6529541015625,0.9222564697265625,-0.1882171630859375
1772871637628778800,3.17477880859375,-0.40869140625,0.6613922119140625,-0.1795196533203125
1772871637638711800,3.1847119140625,-0.2174072265625,0.4183349609375,-0.101287841796875
1772871637648643800,3.194643798828125,-0.05303955078125,0.2249298095703125,-0.0453643798828125
1772871637658576600,3.20457666015625,0.0963897705078125,0.0649871826171875,-0.0125579833984375
1772871637668509700,3.214509765625,0.234161376953125,-0.120330810546875,0.07611083984375
1772871637678442800,3.22444287109375,0.361724853515625,-0.2967529296875,0.1975555419921875
1772871637688375800,3.234375732421875,0.4521942138671875,-0.4620208740234375,0.3541717529296875
1772871637698308600,3.24430859375,0.5845947265625,-0.699432373046875,0.5620880126953125
1772871637708241700,3.25424169921875,0.7789459228515625,-0.75433349609375,0.7419586181640625
1772871637718174700,3.2641748046875,0.679351806640625,-0.5226898193359375,0.695098876953125
1772871637728107800,3.274107666015625,0.4491119384765625,-0.332366943359375,0.499114990234375
1772871637738039800,3.284039794921875,0.293426513671875,-0.1293792724609375,0.3479461669921875
1772871637747972600,3.29397265625,0.13360595703125,0.013580322265625,0.206939697265625
1772871637757905700,3.30390576171875,0.0180511474609375,0.135406494140625,0.0691680908203125
1772871637767838700,3.313838623046875,-0.0656890869140625,0.22503662109375,-0.059295654296875
1772871637777771800,3.323771728515625,-0.165008544921875,0.279327392578125,-0.14739990234375
1772871637787704800,3.333704833984375,-0.2421875,0.33746337890625,-0.206085205078125
1772871637797637600,3.3436376953125,-0.2801513671875,0.364501953125,-0.244232177734375
1772871637807570700,3.35357080078125,-0.295379638671875,0.352569580078125,-0.26806640625
1772871637817502700,3.363502685546875,-0.2709197998046875,0.3328399658203125,-0.259490966796875
1772871637827435800,3.373435791015625,-0.2109375,0.311370849609375,-0.23199462890625
1772871637837368800,3.383368896484375,-0.1324920654296875,0.2541961669921875,-0.2086181640625
1772871637847301600,3.393301513671875,-0.05340576171875,0.167724609375,-0.16180419921875
1772871637857234700,3.403234619140625,0.022857666015625,0.053741455078125,-0.0804595947265625
1772871637867167700,3.413167724609375,0.137725830078125,-0.03564453125,0.007781982421875
1772871637877100800,3.423100830078125,0.2513275146484375,-0.0443572998046875,0.0282440185546875
1772871637887033600,3.43303369140625,0.30328369140625,-0.05780029296875,-0.0159454345703125
1772871637896966700,3.442966552734375,0.3437652587890625,-0.02490234375,-0.1058197021484375
1772871637906898700,3.452898681640625,0.33404541015625,0.0265655517578125,-0.150238037109375
1772871637916831700,3.462831787109375,0.2418212890625,0.0856170654296875,-0.1477203369140625
1772871637926764800,3.472764892578125,0.0737457275390625,0.2335205078125,-0.1887359619140625
1772871637936697600,3.482697509765625,-0.102203369140625,0.3544464111328125,-0.14361572265625
1772871637946630700,3.492630615234375,-0.342437744140625,0.388641357421875,0.1777191162109375
1772871637956563700,3.502563720703125,-0.6295928955078125,0.5738525390625,0.515228271484375
1772871637966496800,3.512496826171875,-0.966522216796875,0.8397064208984375,0.7151031494140625
1772871637976429800,3.522429931640625,-1.2892608642578125,1.086669921875,0.8095703125
1772871637986361900,3.53236181640625,-1.561126708984375,1.406646728515625,0.8089141845703125
1772871637996294700,3.542294677734375,-1.8133087158203125,1.66119384765625,0.753204345703125
1772871638006227700,3.552227783203125,-2.000701904296875,1.93304443359375,0.66650390625
1772871638016160800,3.562160888671875,-2.067779541015625,2.282562255859375,0.518096923828125
1772871638026093800,3.57209375,-2.084442138671875,2.4871368408203125,0.2852325439453125
1772871638036026600,3.582026611328125,-2.1759185791015625,2.4134521484375,0.1551513671875
1772871638045959700,3.591959716796875,-2.3304290771484375,2.1592559814453125,0.330963134765625
1772871638055892700,3.601892822265625,-2.37347412109375,1.9151763916015625,0.6522979736328125
1772871638065824800,3.61182470703125,-2.33251953125,1.73956298828125,0.88330078125
1772871638075757800,3.6217578125,-2.2369537353515625,1.61248779296875,0.900115966796875
1772871638085690600,3.631690673828125,-1.98760986328125,1.582977294921875,0.7520904541015625
1772871638095623700,3.641623779296875,-1.69415283203125,1.6127471923828125,0.525115966796875
1772871638105556700,3.651556640625,-1.45648193359375,1.6002349853515625,0.3148193359375
1772871638115489800,3.66148974609375,-1.2944793701171875,1.53033447265625,0.1945343017578125
1772871638125422600,3.671422607421875,-1.251708984375,1.435302734375,0.19537353515625
1772871638135355600,3.681355712890625,-1.3131866455078125,1.3554534912109375,0.2896728515625
1772871638145288700,3.691288818359375,-1.4358062744140625,1.2896575927734375,0.4411163330078125
1772871638155220700,3.701220703125,-1.5363311767578125,1.229156494140625,0.53759765625
1772871638165153800,3.71115380859375,-1.4989776611328125,1.19024658203125,0.5026397705078125
1772871638175086800,3.7210869140625,-1.3220367431640625,1.16595458984375,0.362579345703125
1772871638185019600,3.73101953125,-1.1092987060546875,1.1260223388671875,0.1719970703125
1772871638194952700,3.74095263671875,-0.8551483154296875,1.0481414794921875,-0.0300140380859375
1772871638204885800,3.7508857421875,-0.5707244873046875,0.9046630859375,-0.1614227294921875
1772871638214818600,3.760818603515625,-0.334625244140625,0.7317352294921875,-0.204803466796875
1772871638224751400,3.77075146484375,-0.065460205078125,0.4755401611328125,-0.1176300048828125
1772871638234683400,3.780683349609375,0.1744842529296875,0.09100341796875,0.117889404296875
1772871638244616400,3.790616455078125,0.2101593017578125,-0.1129608154296875,0.26922607421875
1772871638254549500,3.800549560546875,0.1572113037109375,-0.0750579833984375,0.2119140625
1772871638264482600,3.810482666015625,0.1682281494140625,-0.1595458984375,0.150726318359375
1772871638274415600,3.82041552734375,0.3645477294921875,-0.3116912841796875,0.1968841552734375
1772871638284348400,3.830348388671875,0.6012115478515625,-0.20623779296875,0.1705169677734375
1772871638294281500,3.840281494140625,0.6664886474609375,-0.1309814453125,0.0277252197265625
1772871638304214500,3.850214599609375,0.660552978515625,-0.026641845703125,-0.05706787109375
1772871638314146600,3.860146484375,0.548065185546875,0.0956268310546875,-0.0697784423828125
1772871638324079600,3.87007958984375,0.330535888671875,0.1594696044921875,-0.0186767578125
1772871638334012400,3.880012451171875,0.0956878662109375,0.2264556884765625,0.023101806640625
1772871638343945500,3.889945556640625,-0.16851806640625,0.257049560546875,0.065704345703125
1772871638353878500,3.89987841796875,-0.41766357421875,0.23236083984375,0.118133544921875
1772871638363811600,3.9098115234375,-0.58001708984375,0.193145751953125,0.1604461669921875
1772871638373744400,3.919744384765625,-0.6067352294921875,0.1550445556640625,0.16033935546875
1772871638383677400,3.929677490234375,-0.4848480224609375,0.1346282958984375,0.1146392822265625
1772871638393610500,3.939610595703125,-0.2817840576171875,0.1253814697265625,0.0307769775390625
1772871638403542500,3.94954248046875,-0.083587646484375,0.107025146484375,-0.025054931640625
1772871638413475600,3.9594755859375,0.066925048828125,0.0719757080078125,-0.027008056640625
1772871638423408400,3.969408447265625,0.1492462158203125,0.03302001953125,-0.0398406982421875
1772871638433341400,3.979341552734375,0.1474609375,0.015655517578125,-0.0620574951171875
1772871638443272700,3.989272705078125,0.073577880859375,0.0022430419921875,-0.070159912109375
1772871638453205500,3.99920556640625,-0.0311431884765625,-0.0380706787109375,-0.028839111328125
1772871638463138600,4.009138671875,-0.09112548828125,-0.1033477783203125,0.0400390625
1772871638473071600,4.019071533203125,-0.0825347900390625,-0.1253509521484375,0.0845947265625
1772871638483004700,4.029004638671875,-0.0787811279296875,-0.143585205078125,0.13360595703125
1772871638492936700,4.038936767578125,-0.1450958251953125,-0.139892578125,0.171356201171875
1772871638502869500,4.048869384765625,-0.2981109619140625,-0.062835693359375,0.1458892822265625
1772871638512802600,4.058802490234375,-0.4204254150390625,0.1274871826171875,0.0570831298828125
1772871638522735600,4.068735595703125,-0.5207977294921875,0.2987823486328125,0.067352294921875
1772871638532668700,4.078668701171875,-0.6759490966796875,0.5207061767578125,0.1419219970703125
1772871638542601500,4.0886015625,-0.75372314453125,0.898834228515625,0.223388671875
1772871638552534500,4.098534423828125,-0.8707275390625,1.2905426025390625,0.33184814453125
1772871638562467600,4.108467529296875,-1.0588226318359375,1.611724853515625,0.429107666015625
1772871638572399600,4.118399658203125,-1.30621337890625,1.9354400634765625,0.515350341796875
1772871638582332700,4.128332763671875,-1.605621337890625,2.332855224609375,0.5170745849609375
1772871638592265700,4.138265625,-2.0883331298828125,2.6472625732421875,0.5048675537109375
1772871638602198500,4.148198486328125,-2.600189208984375,2.84735107421875,0.48486328125
1772871638612131600,4.158131591796875,-2.9648895263671875,2.7806549072265625,0.62567138671875
1772871638622064600,4.168064697265625,-3.1234283447265625,2.4643402099609375,0.9923858642578125
1772871638631997700,4.177997802734375,-2.9386749267578125,2.2249603271484375,1.296966552734375
1772871638641930500,4.187930419921875,-2.4104461669921875,2.043121337890625,1.20489501953125
1772871638651862500,4.197862548828125,-1.7681732177734375,1.9096527099609375,0.8667144775390625
1772871638661795600,4.207795654296875,-1.244354248046875,1.8040771484375,0.5098419189453125
1772871638671728600,4.217728759765625,-0.930145263671875,1.700042724609375,0.2667694091796875
1772871638681661700,4.22766162109375,-0.8167572021484375,1.5941162109375,0.196441650390625
1772871638691594500,4.237594482421875,-0.8381500244140625,1.461944580078125,0.2470245361328125
1772871638701527600,4.247527587890625,-1.000396728515625,1.3167266845703125,0.3343658447265625
1772871638711460600,4.257460693359375,-1.2843475341796875,1.2476043701171875,0.3538360595703125
1772871638721393700,4.2673935546875,-1.460845947265625,1.211761474609375,0.272613525390625
1772871638731326500,4.277326416015625,-1.4047088623046875,1.126678466796875,0.1829986572265625
1772871638741258500,4.287258544921875,-1.196563720703125,0.9691009521484375,0.1422271728515625
1772871638751191600,4.297191650390625,-0.85089111328125,0.787506103515625,0.1534576416015625
1772871638761124600,4.30712451171875,-0.4586639404296875,0.5905609130859375,0.1341552734375
1772871638771057700,4.3170576171875,-0.158538818359375,0.3745269775390625,0.130035400390625
1772871638780990700,4.32699072265625,0.0265960693359375,0.212890625,0.1788787841796875
1772871638790923500,4.336923583984375,0.13031005859375,0.1306915283203125,0.1847991943359375
1772871638800856600,4.346856689453125,0.2082977294921875,0.0865631103515625,0.1132354736328125
1772871638810789600,4.35678955078125,0.363006591796875,0.0363922119140625,0.035858154296875
1772871638820723500,4.366723388671875,0.5518646240234375,0.007232666015625,-0.0708160400390625
1772871638830656500,4.376656494140625,0.6999359130859375,0.0121917724609375,-0.1958465576171875
1772871638840589600,4.386589599609375,0.8027801513671875,0.008209228515625,-0.2416229248046875
1772871638850522600,4.396522705078125,0.78448486328125,0.0059661865234375,-0.2077484130859375
1772871638860455400,4.406455322265625,0.5958709716796875,0.009063720703125,-0.0909423828125
1772871638870388500,4.416388427734375,0.3546600341796875,0.0291748046875,0.0738983154296875
1772871638880320500,4.426320556640625,0.1127166748046875,0.0439453125,0.2342987060546875
1772871638890253600,4.436253662109375,-0.109771728515625,0.061859130859375,0.3264923095703125
1772871638900186600,4.4461865234375,-0.2709808349609375,0.0929412841796875,0.354827880859375
1772871638910119400,4.456119384765625,-0.347991943359375,0.1318206787109375,0.29351806640625
1772871638920052500,4.466052490234375,-0.34661865234375,0.1962738037109375,0.1611785888671875
1772871638929985500,4.475985595703125,-0.2828521728515625,0.229949951171875,0.04168701171875
1772871638939918600,4.485918701171875,-0.1819915771484375,0.205596923828125,-0.0244598388671875
1772871638949851400,4.495851318359375,-0.0980072021484375,0.15765380859375,-0.06341552734375
1772871638959784400,4.505784423828125,-0.074615478515625,0.0677490234375,-0.0494537353515625
1772871638969716500,4.515716552734375,-0.110107421875,0.0048828125,0.0063629150390625
1772871638979649500,4.5256494140625,-0.177947998046875,-0.03680419921875,0.0440521240234375
1772871638989582600,4.53558251953125,-0.18988037109375,-0.0724639892578125,0.0600433349609375
1772871638999515600,4.545515625,-0.1201324462890625,-0.0743408203125,0.0294647216796875
1772871639009448400,4.555448486328125,-0.058502197265625,-0.045989990234375,-0.0417633056640625
1772871639019381500,4.565381591796875,-0.0369720458984375,-0.019256591796875,-0.112701416015625
1772871639029314600,4.575314453125,-0.0752716064453125,-0.0023040771484375,-0.15899658203125
1772871639039246600,4.58524658203125,-0.1454925537109375,0.0822296142578125,-0.226531982421875
1772871639049179600,4.5951796875,-0.124053955078125,0.181732177734375,-0.3541259765625
1772871639059112400,4.605112548828125,-0.04742431640625,0.17645263671875,-0.2016143798828125
1772871639069045500,4.61504541015625,-0.22998046875,0.30487060546875,0.007843017578125
1772871639078978600,4.624978515625,-0.4269866943359375,0.6142120361328125,0.1179351806640625
1772871639088911600,4.63491162109375,-0.67938232421875,0.847564697265625,0.2683868408203125
1772871639098844400,4.644844482421875,-1.007598876953125,1.0779266357421875,0.3609771728515625
1772871639108777500,4.654777587890625,-1.25732421875,1.39105224609375,0.40692138671875
1772871639118709500,4.66470947265625,-1.451904296875,1.7498931884765625,0.297027587890625
1772871639128642600,4.674642578125,-1.6201019287109375,2.00408935546875,0.1648712158203125
1772871639138575600,4.68457568359375,-1.86590576171875,2.114349365234375,0.1779632568359375
1772871639148508700,4.6945087890625,-2.0218048095703125,2.069580078125,0.2388916015625
1772871639158441500,4.70444140625,-2.1493682861328125,1.8135833740234375,0.4937286376953125
1772871639168374500,4.71437451171875,-2.3429107666015625,1.458282470703125,1.0459442138671875
1772871639178307600,4.7243076171875,-2.4153594970703125,1.2454376220703125,1.5379180908203125
1772871639188240600,4.73424072265625,-2.2438507080078125,1.2035980224609375,1.6460418701171875
1772871639198173400,4.74417333984375,-1.90093994140625,1.2714385986328125,1.3529052734375
1772871639208105500,4.75410546875,-1.564697265625,1.405914306640625,0.9070587158203125
1772871639218038800,4.764038818359375,-1.3133392333984375,1.5590972900390625,0.4702301025390625
1772871639227971800,4.773971923828125,-1.206451416015625,1.67919921875,0.1694793701171875
1772871639237905000,4.78390478515625,-1.266632080078125,1.7708282470703125,0.0386505126953125
1772871639247837700,4.793837646484375,-1.4910430908203125,1.7879638671875,0.0801239013671875
1772871639257770800,4.803770751953125,-1.814727783203125,1.7191009521484375,0.25927734375
1772871639267703800,4.813703857421875,-2.10589599609375,1.5972747802734375,0.5290679931640625
1772871639277636900,4.823636962890625,-2.172149658203125,1.4374542236328125,0.7414093017578125
1772871639287569000,4.83356884765625,-1.9850311279296875,1.2905731201171875,0.775604248046875
1772871639297501700,4.843501708984375,-1.653167724609375,1.1700897216796875,0.6544036865234375
1772871639307434800,4.853434814453125,-1.2798614501953125,1.0531463623046875,0.4966583251953125
1772871639317367800,4.863367919921875,-0.8686981201171875,0.933837890625,0.31585693359375
1772871639327300900,4.87330078125,-0.4781341552734375,0.823150634765625,0.133148193359375
1772871639337233700,4.883233642578125,-0.24163818359375,0.7292022705078125,-0.05303955078125
1772871639347166700,4.893166748046875,-0.2114410400390625,0.6905975341796875,-0.239013671875
1772871639357099800,4.903099853515625,-0.3229827880859375,0.666290283203125,-0.3670654296875
1772871639367031800,4.91303173828125,-0.4423675537109375,0.570465087890625,-0.334442138671875
1772871639376964900,4.92296484375,-0.47833251953125,0.3995513916015625,-0.1383819580078125
1772871639386898000,4.93289794921875,-0.4305572509765625,0.20697021484375,0.0543670654296875
1772871639396830700,4.942830810546875,-0.298980712890625,0.0726776123046875,0.1262359619140625
1772871639406763800,4.952763671875,-0.0705718994140625,0.0361785888671875,0.121795654296875
1772871639416696800,4.96269677734375,0.150360107421875,0.0223541259765625,0.061859130859375
1772871639426630000,4.9726298828125,0.4072265625,0.051422119140625,-0.0372161865234375
1772871639436562700,4.982562744140625,0.6351318359375,0.0688018798828125,-0.1337738037109375
1772871639446494500,4.992494384765625,0.7682037353515625,0.072052001953125,-0.1937713623046875
1772871639456427800,5.002427734375,0.81256103515625,0.0758209228515625,-0.1644134521484375
1772871639466360800,5.01236083984375,0.749786376953125,0.05731201171875,-0.07110595703125
1772871639476294000,5.0222939453125,0.56793212890625,0.0383148193359375,0.0433349609375
1772871639486226700,5.032226806640625,0.377349853515625,0.02020263671875,0.1705322265625
1772871639496159700,5.04215966796875,0.1984710693359375,-0.0167999267578125,0.2878265380859375
1772871639506092800,5.0520927734375,0.0299072265625,-0.0873260498046875,0.3798370361328125
1772871639516024600,5.062024658203125,-0.1287384033203125,-0.148834228515625,0.457794189453125
1772871639525957600,5.07195751953125,-0.28778076171875,-0.1567230224609375,0.4979095458984375
1772871639535890700,5.081890625,-0.3842926025390625,-0.12103271484375,0.4143218994140625
1772871639545823700,5.09182373046875,-0.3921356201171875,-0.023773193359375,0.2473907470703125
1772871639555756800,5.1017568359375,-0.3954315185546875,0.0836639404296875,0.0380859375
1772871639565689900,5.11168994140625,-0.412078857421875,0.1618804931640625,-0.1648712158203125
1772871639575623000,5.121622802734375,-0.3984832763671875,0.2117919921875,-0.34912109375
1772871639585555700,5.1315556640625,-0.3140411376953125,0.2243499755859375,-0.4684600830078125
1772871639595487500,5.141487548828125,-0.189361572265625,0.215911865234375,-0.52301025390625
1772871639605420500,5.151420654296875,-0.1527862548828125,0.1560516357421875,-0.48809814453125
1772871639615353600,5.161353515625,-0.2079315185546875,0.0351104736328125,-0.3248443603515625
1772871639625286700,5.17128662109375,-0.347412109375,-0.1289215087890625,-0.060577392578125
1772871639635219700,5.1812197265625,-0.5371856689453125,-0.245086669921875,0.2270050048828125
1772871639645152800,5.19115283203125,-0.759796142578125,-0.2169036865234375,0.399078369140625
1772871639655085800,5.2010859375,-0.8329925537109375,-0.0176239013671875,0.3402862548828125
1772871639665019000,5.211018798828125,-0.6786346435546875,0.1445159912109375,0.2628631591796875
1772871639674950700,5.22095068359375,-0.5112762451171875,0.3472747802734375,0.1801605224609375
1772871639684883700,5.2308837890625,-0.3300323486328125,0.685638427734375,0.0151824951171875
1772871639694816500,5.24081640625,-0.2097320556640625,0.9897613525390625,-0.0931854248046875
1772871639704749600,5.25074951171875,-0.1950225830078125,1.2679290771484375,-0.0837860107421875
1772871639714682600,5.2606826171875,-0.4113616943359375,1.50921630859375,0.099853515625
1772871639724616000,5.270615966796875,-0.9154510498046875,1.6223297119140625,0.39154052734375
1772871639734548700,5.280548828125,-1.6121063232421875,1.72760009765625,0.7521209716796875
1772871639744481800,5.290481689453125,-2.437713623046875,1.8480072021484375,1.06524658203125
1772871639754413600,5.30041357421875,-3.087890625,1.90008544921875,1.152618408203125
1772871639764346600,5.3103466796875,-3.290679931640625,1.9353485107421875,0.9108428955078125
1772871639774279700,5.32027978515625,-3.02020263671875,1.931884765625,0.54486083984375
1772871639784212500,5.33021240234375,-2.452178955078125,1.9115753173828125,0.227752685546875
1772871639794145500,5.3401455078125,-1.754180908203125,1.9253692626953125,-0.016204833984375
1772871639804078600,5.35007861328125,-1.11285400390625,1.9032135009765625,-0.216156005859375
1772871639814012000,5.360011962890625,-0.72418212890625,1.8439788818359375,-0.2603302001953125
1772871639823944700,5.36994482421875,-0.673858642578125,1.7473907470703125,-0.0816650390625
1772871639833876700,5.379876708984375,-0.9134979248046875,1.6736602783203125,0.1997222900390625
1772871639843809500,5.3898095703125,-1.3580474853515625,1.730377197265625,0.5318603515625
1772871639853742600,5.39974267578125,-1.8831939697265625,1.8232574462890625,0.7600250244140625
1772871639863675600,5.409675537109375,-2.301788330078125,1.9015960693359375,0.814483642578125
1772871639873608700,5.419608642578125,-2.4504547119140625,1.9454498291015625,0.7065582275390625
1772871639883541500,5.42954150390625,-2.370758056640625,1.956298828125,0.4874267578125
1772871639893474600,5.439474609375,-2.1068572998046875,1.875030517578125,0.1957244873046875
1772871639903407900,5.449407958984375,-1.7335205078125,1.7004547119140625,-0.0250701904296875
1772871639913339600,5.459339599609375,-1.3280792236328125,1.4599761962890625,-0.1463623046875
1772871639923272700,5.469272705078125,-0.9248504638671875,1.161865234375,-0.2479248046875
1772871639933205500,5.47920556640625,-0.5557708740234375,0.83746337890625,-0.2915802001953125
1772871639943138600,5.489138671875,-0.2505340576171875,0.532012939453125,-0.2634429931640625
1772871639953071600,5.499071533203125,0.00537109375,0.2410736083984375,-0.20086669921875
1772871639963004700,5.509004638671875,0.2657623291015625,-0.0209808349609375,-0.1010894775390625
1772871639972937500,5.5189375,0.533416748046875,-0.233489990234375,-0.006927490234375
1772871639982869500,5.528869384765625,0.7044219970703125,-0.3115692138671875,0.0436553955078125
1772871639992802600,5.538802490234375,0.7919158935546875,-0.3118743896484375,0.0514068603515625
1772871640002735600,5.548735595703125,0.7861328125,-0.252105712890625,0.03619384765625
1772871640012668700,5.558668701171875,0.7295074462890625,-0.1614227294921875,0.012939453125
1772871640022601700,5.568601806640625,0.6497039794921875,-0.0547027587890625,0.0746917724609375
1772871640032534500,5.578534423828125,0.521575927734375,0.063873291015625,0.16693115234375
1772871640042467600,5.588467529296875,0.4171295166015625,0.1501007080078125,0.2365570068359375
1772871640052400600,5.598400634765625,0.298370361328125,0.2013397216796875,0.2815093994140625
1772871640062332700,5.608332763671875,0.1453399658203125,0.206298828125,0.3191375732421875
1772871640072265700,5.618265625,-0.050445556640625,0.1642303466796875,0.37628173828125
1772871640082198500,5.628198486328125,-0.227081298828125,0.0951995849609375,0.398773193359375
1772871640092131600,5.638131591796875,-0.3227081298828125,0.0436553955078125,0.3666229248046875
1772871640102064600,5.648064697265625,-0.35272216796875,0.0077362060546875,0.27703857421875
1772871640111997700,5.657997802734375,-0.32550048828125,-0.0356292724609375,0.1405792236328125
1772871640121930500,5.667930419921875,-0.290679931640625,-0.0552215576171875,-0.0102386474609375
1772871640131863600,5.677863525390625,-0.2830047607421875,-0.0510711669921875,-0.140228271484375
1772871640141795600,5.687795654296875,-0.2941131591796875,-0.0308074951171875,-0.234954833984375
1772871640151728600,5.697728759765625,-0.3418426513671875,-0.006103515625,-0.2939300537109375
1772871640161661700,5.70766162109375,-0.373809814453125,0.0270843505859375,-0.31884765625
1772871640171594500,5.717594482421875,-0.3683013916015625,0.05609130859375,-0.34539794921875
1772871640181527600,5.727527587890625,-0.333526611328125,0.0699005126953125,-0.37066650390625
1772871640191460600,5.737460693359375,-0.2540283203125,0.06158447265625,-0.3748931884765625
1772871640201393700,5.7473935546875,-0.1458587646484375,0.0213623046875,-0.331298828125
1772871640211326200,5.757326171875,-0.0344696044921875,-0.0301055908203125,-0.2534027099609375
1772871640221259000,5.767259033203125,0.0133209228515625,-0.0532073974609375,-0.1689300537109375
1772871640231192300,5.7771923828125,-0.03924560546875,-0.0397186279296875,-0.0892333984375
1772871640241125400,5.78712548828125,-0.1827392578125,0.0178375244140625,-0.000579833984375
1772871640251058400,5.797058349609375,-0.3702545166015625,0.093048095703125,0.13818359375
1772871640260991200,5.8069912109375,-0.500274658203125,0.1256561279296875,0.2918243408203125
1772871640270924300,5.81692431640625,-0.526702880859375,0.2269287109375,0.25390625
1772871640280857300,5.826857421875,-0.3749847412109375,0.4141845703125,0.1229095458984375
1772871640290789000,5.8367890625,-0.239501953125,0.5932464599609375,0.0878448486328125
1772871640300722200,5.84672216796875,-0.2412872314453125,0.717437744140625,0.1744842529296875
1772871640310655200,5.8566552734375,-0.2466583251953125,0.8665924072265625,0.3460693359375
1772871640320588300,5.86658837890625,-0.2105712890625,1.0621795654296875,0.39044189453125
1772871640330521300,5.876521240234375,-0.2604827880859375,1.2637786865234375,0.3692626953125
1772871640340454400,5.886454345703125,-0.617523193359375,1.43121337890625,0.497833251953125
1772871640350387500,5.896387451171875,-1.40289306640625,1.686553955078125,0.8547515869140625
1772871640360319200,5.9063193359375,-2.5497589111328125,2.064361572265625,1.33575439453125
1772871640370252000,5.916251953125,-3.6329803466796875,2.4169921875,1.546661376953125
1772871640380185000,5.92618505859375,-4.402587890625,2.6090545654296875,1.452789306640625
1772871640390118100,5.9361181640625,-4.4499664306640625,2.5503387451171875,1.203277587890625
1772871640400051200,5.94605126953125,-3.544403076171875,2.24609375,0.8625946044921875
1772871640409984300,5.955984375,-2.3233184814453125,1.7998046875,0.586944580078125
1772871640419917300,5.965917236328125,-1.3435516357421875,1.4084014892578125,0.4407806396484375
1772871640429850400,5.975850341796875,-0.7112579345703125,1.1494140625,0.4163055419921875
1772871640439782100,5.9857822265625,-0.475128173828125,0.9858245849609375,0.471160888671875
1772871640449715200,5.995715087890625,-0.5885467529296875,0.9167327880859375,0.6322784423828125
1772871640459648300,6.005648193359375,-0.946533203125,0.865386962890625,0.9093170166015625
1772871640469581000,6.0155810546875,-1.4025115966796875,0.9074859619140625,1.149627685546875
1772871640479514000,6.02551416015625,-2.0019989013671875,1.1307830810546875,1.043487548828125
1772871640489447200,6.035447265625,-2.335662841796875,1.3537750244140625,0.723968505859375
1772871640499380200,6.045380126953125,-2.2521820068359375,1.4956512451171875,0.3872833251953125
1772871640509313300,6.055313232421875,-2.0233612060546875,1.5263671875,0.1118011474609375
1772871640519245000,6.0652451171875,-1.64349365234375,1.497589111328125,-0.0459747314453125
1772871640529178000,6.07517822265625,-1.2740478515625,1.3792266845703125,-0.1417083740234375
1772871640539111200,6.085111083984375,-0.9996185302734375,1.2413330078125,-0.1989288330078125
1772871640549044200,6.095044189453125,-0.782012939453125,1.0974578857421875,-0.2213134765625
1772871640558977000,6.10497705078125,-0.604339599609375,0.936309814453125,-0.2825775146484375
1772871640568910000,6.11491015625,-0.4623870849609375,0.7505950927734375,-0.318572998046875
1772871640578843100,6.124843017578125,-0.321380615234375,0.5255584716796875,-0.3092041015625
1772871640588775200,6.134775146484375,-0.137786865234375,0.27069091796875,-0.2322235107421875
1772871640598708200,6.144708251953125,0.098846435546875,0.027130126953125,-0.0878448486328125
1772871640608641000,6.15464111328125,0.3878631591796875,-0.176239013671875,0.08990478515625
1772871640618574000,6.164573974609375,0.661712646484375,-0.3304901123046875,0.219696044921875
1772871640628507100,6.174507080078125,0.931182861328125,-0.4268951416015625,0.2590789794921875
1772871640638440200,6.184440185546875,1.139739990234375,-0.4577484130859375,0.268646240234375
1772871640648373200,6.194373291015625,1.1571807861328125,-0.368896484375,0.2967681884765625
1772871640658306000,6.20430615234375,0.98895263671875,-0.1767425537109375,0.332733154296875
1772871640668238000,6.214238037109375,0.73516845703125,0.033935546875,0.3678436279296875
1772871640678171100,6.224171142578125,0.504669189453125,0.198455810546875,0.370025634765625
1772871640688104200,6.234104248046875,0.2717132568359375,0.3022613525390625,0.320465087890625
1772871640698037200,6.244037353515625,0.034271240234375,0.3526763916015625,0.218292236328125
1772871640707970000,6.253969970703125,-0.166656494140625,0.35186767578125,0.126220703125
1772871640717903000,6.263903076171875,-0.354827880859375,0.279327392578125,0.0662841796875
1772871640727836200,6.273836181640625,-0.485198974609375,0.1981201171875,0.0630035400390625
1772871640737769200,6.283769287109375,-0.5223388671875,0.12579345703125,0.0498504638671875
1772871640747701200,6.293701171875,-0.474395751953125,0.0540924072265625,0.008514404296875
1772871640757634000,6.303634033203125,-0.3741455078125,-0.004486083984375,-0.0239105224609375
1772871640767567000,6.313567138671875,-0.2679290771484375,-0.0398101806640625,-0.0351104736328125
1772871640777500200,6.323500244140625,-0.1808929443359375,-0.0720977783203125,-0.0119781494140625
1772871640787433200,6.33343310546875,-0.1136932373046875,-0.1136474609375,0.0015106201171875
1772871640797366000,6.343365966796875,-0.0734405517578125,-0.1328887939453125,-0.0200653076171875
1772871640807299000,6.353299072265625,-0.05322265625,-0.1172027587890625,-0.0703887939453125
1772871640817231000,6.363231201171875,-0.0634307861328125,-0.075042724609375,-0.1329193115234375
1772871640827164200,6.3731640625,-0.1032257080078125,0.006744384765625,-0.188201904296875
1772871640837097200,6.38309716796875,-0.166900634765625,0.085906982421875,-0.2654876708984375
1772871640847030300,6.3930302734375,-0.209808349609375,0.1357269287109375,-0.3253936767578125
1772871640856963000,6.402963134765625,-0.2433013916015625,0.176116943359375,-0.341644287109375
1772871640866896100,6.412896240234375,-0.2970733642578125,0.1923370361328125,-0.3007354736328125
1772871640876829200,6.4228291015625,-0.3652496337890625,0.246429443359375,-0.230926513671875
1772871640886761200,6.43276123046875,-0.372314453125,0.396697998046875,-0.2545013427734375
1772871640896694300,6.4426943359375,-0.2957916259765625,0.5,-0.29803466796875
1772871640906627000,6.452626953125,-0.254241943359375,0.5521087646484375,-0.1318511962890625
1772871640916560100,6.46256005859375,-0.2979888916015625,0.6651458740234375,0.1104583740234375
1772871640926493200,6.4724931640625,-0.4997711181640625,0.8013763427734375,0.3936309814453125
1772871640936426200,6.48242626953125,-0.7532958984375,1.0801544189453125,0.614959716796875
1772871640946359000,6.492359130859375,-1.0218048095703125,1.4564971923828125,0.7549896240234375
1772871640956292000,6.5022919921875,-1.2904815673828125,1.8687591552734375,0.6763916015625
1772871640966224100,6.51222412109375,-1.7568359375,2.11968994140625,0.5674591064453125
1772871640976157200,6.5221572265625,-2.3422088623046875,2.3517608642578125,0.5695953369140625
1772871640986090200,6.53209033203125,-2.9282684326171875,2.39190673828125,0.636016845703125
1772871640996023300,6.542023193359375,-3.31866455078125,2.1744232177734375,0.7453155517578125
1772871641005956000,6.5519560546875,-3.16796875,1.9391632080078125,0.966827392578125
1772871641015889200,6.56188916015625,-2.4642333984375,1.65557861328125,1.0603790283203125
1772871641025822200,6.571822265625,-1.5995941162109375,1.3983154296875,1.009185791015625
1772871641035755300,6.58175537109375,-0.8937835693359375,1.19610595703125,0.983428955078125
1772871641045687300,6.591687255859375,-0.493896484375,0.9989471435546875,0.9885406494140625
1772871641055620000,6.6016201171875,-0.350311279296875,0.9226226806640625,0.9734649658203125
1772871641065553200,6.61155322265625,-0.440155029296875,0.9228668212890625,0.8853302001953125
1772871641075486200,6.621486328125,-0.82757568359375,0.95806884765625,0.7770538330078125
1772871641085419300,6.631419189453125,-1.425872802734375,1.0705413818359375,0.7252197265625
1772871641095352000,6.64135205078125,-2.0477142333984375,1.2286529541015625,0.54461669921875
1772871641105285000,6.65128515625,-2.39373779296875,1.412872314453125,0.2661285400390625
1772871641115217200,6.661217041015625,-2.3272857666015625,1.575408935546875,-0.0212554931640625
1772871641125150200,6.671150146484375,-2.0489959716796875,1.654571533203125,-0.2767791748046875
1772871641135083300,6.681083251953125,-1.726287841796875,1.6792449951171875,-0.4793243408203125
1772871641145016300,6.691016357421875,-1.480621337890625,1.669525146484375,-0.654144287109375
1772871641154949000,6.70094921875,-1.4029541015625,1.6250762939453125,-0.713958740234375
1772871641164882200,6.710882080078125,-1.437255859375,1.553009033203125,-0.579498291015625
1772871641174815200,6.720815185546875,-1.44561767578125,1.4452972412109375,-0.327880859375
1772871641184747300,6.730747314453125,-1.40106201171875,1.32818603515625,-0.058349609375
1772871641194680300,6.740680419921875,-1.2685699462890625,1.1904449462890625,0.2004547119140625
1772871641204613000,6.750613037109375,-1.090484619140625,0.9945068359375,0.3612518310546875
1772871641214546000,6.7605458984375,-0.835906982421875,0.7905120849609375,0.3172454833984375
1772871641224479000,6.77047900390625,-0.519866943359375,0.606658935546875,0.2176513671875
1772871641234412000,6.780412109375,-0.2244415283203125,0.38946533203125,0.1415252685546875
1772871641244344800,6.7903447265625,0.03717041015625,0.17974853515625,0.112213134765625
1772871641254278000,6.80027783203125,0.260223388671875,0.000335693359375,0.125396728515625
1772871641264210000,6.8102099609375,0.467193603515625,-0.1584930419921875,0.1880950927734375
1772871641274143000,6.82014306640625,0.654815673828125,-0.286407470703125,0.289337158203125
1772871641284076000,6.830075927734375,0.7360992431640625,-0.3804168701171875,0.3784942626953125
1772871641294009000,6.840009033203125,0.7654876708984375,-0.3932647705078125,0.33990478515625
1772871641303942000,6.84994189453125,0.8240509033203125,-0.241912841796875,0.2149658203125
1772871641313875000,6.859875,0.8279876708984375,-0.0455322265625,0.093414306640625
1772871641323808000,6.86980810546875,0.69635009765625,0.1014556884765625,0.0468902587890625
1772871641333740000,6.879739990234375,0.440460205078125,0.1820526123046875,0.0322418212890625
1772871641343673000,6.889673095703125,0.1751556396484375,0.1982879638671875,0.0257568359375
1772871641353606000,6.89960595703125,-0.0161895751953125,0.19097900390625,0.0001678466796875
1772871641363539000,6.9095390625,-0.1353912353515625,0.182373046875,-0.0469970703125
1772871641373472000,6.919471923828125,-0.177032470703125,0.154541015625,-0.050506591796875
1772871641383405000,6.929405029296875,-0.1798858642578125,0.095672607421875,-0.0178375244140625
1772871641393337900,6.939337890625,-0.174285888671875,0.054962158203125,0.03399658203125
1772871641403270000,6.949269775390625,-0.211578369140625,0.00299072265625,0.0786590576171875
1772871641413203000,6.959202880859375,-0.256500244140625,-0.0207977294921875,0.066650390625
1772871641423136000,6.969135986328125,-0.2788848876953125,-0.016326904296875,0.041290283203125
1772871641433069000,6.979069091796875,-0.246002197265625,-0.02789306640625,0.011810302734375
1772871641443002000,6.989002197265625,-0.1594696044921875,-0.0462799072265625,-0.024444580078125
1772871641452935000,6.998934814453125,-0.044464111328125,-0.06414794921875,-0.08551025390625
1772871641462868000,7.008867919921875,0.0746002197265625,-0.0852203369140625,-0.1454010009765625
1772871641472801000,7.018801025390625,0.1385650634765625,-0.0968170166015625,-0.16387939453125
1772871641482733000,7.028733154296875,0.1122589111328125,-0.098480224609375,-0.13055419921875
1772871641492666000,7.038666015625,0.0028839111328125,-0.129913330078125,-0.0289154052734375
1772871641502599000,7.048598876953125,-0.1461029052734375,-0.183319091796875,0.097869873046875
1772871641512532000,7.058531982421875,-0.3394775390625,-0.1912384033203125,0.1748809814453125
1772871641522465000,7.068465087890625,-0.515655517578125,-0.0954132080078125,0.200775146484375
1772871641532398000,7.078398193359375,-0.4679412841796875,0.2056884765625,0.02581787109375
1772871641542331000,7.088330810546875,-0.276153564453125,0.4345703125,-0.2114410400390625
1772871641552263000,7.098262939453125,-0.289093017578125,0.493499755859375,-0.2230987548828125
1772871641562196000,7.108196044921875,-0.5023956298828125,0.5828857421875,0.00787353515625
1772871641572129000,7.11812890625,-0.7650299072265625,0.7182464599609375,0.2874755859375
1772871641582062000,7.12806201171875,-1.0849761962890625,0.844879150390625,0.560516357421875
1772871641591995000,7.137994873046875,-1.5121002197265625,1.0359649658203125,0.876373291015625
1772871641601928000,7.147927978515625,-1.7320404052734375,1.4446258544921875,0.939239501953125
1772871641611861000,7.157861083984375,-1.7825164794921875,1.7625885009765625,0.7971343994140625
1772871641621794000,7.1677939453125,-2.1230316162109375,1.9498291015625,0.757476806640625
1772871641631726000,7.17772607421875,-2.7249603271484375,2.0088653564453125,0.8897247314453125
1772871641641659100,7.1876591796875,-3.318389892578125,1.9801177978515625,0.9341278076171875
1772871641651592000,7.197592041015625,-3.4492645263671875,1.935272216796875,0.802978515625
1772871641661525000,7.20752490234375,-2.991973876953125,1.8452606201171875,0.4846038818359375
1772871641671458000,7.2174580078125,-2.311248779296875,1.6762847900390625,0.2078094482421875
1772871641681391000,7.22739111328125,-1.7033538818359375,1.4538421630859375,0.2072906494140625
1772871641691324000,7.237323974609375,-1.291412353515625,1.221649169921875,0.42974853515625
1772871641701256000,7.247255859375,-1.1257781982421875,1.0151824951171875,0.7346649169921875
1772871641711189000,7.25718896484375,-1.18426513671875,0.815826416015625,1.06243896484375
1772871641721122000,7.2671220703125,-1.3559722900390625,0.61761474609375,1.4290313720703125
1772871641731055000,7.27705517578125,-1.6339569091796875,0.6739959716796875,1.5858154296875
1772871641740988000,7.28698779296875,-1.9562835693359375,1.1058197021484375,1.2423553466796875
1772871641750921000,7.2969208984375,-2.0560302734375,1.4324493408203125,0.6842803955078125
1772871641760854000,7.30685400390625,-1.9929962158203125,1.4998779296875,0.200927734375
1772871641770786000,7.3167861328125,-1.9049835205078125,1.480926513671875,-0.0697021484375
1772871641780719000,7.326718994140625,-1.87066650390625,1.3793792724609375,-0.076995849609375
1772871641790652200,7.336652099609375,-1.83258056640625,1.2879791259765625,0.082489013671875
1772871641800585000,7.3465849609375,-1.746826171875,1.159759521484375,0.284332275390625
1772871641810518000,7.35651806640625,-1.652923583984375,1.0254058837890625,0.4570770263671875
1772871641820451000,7.366451171875,-1.5514678955078125,1.0017242431640625,0.3821868896484375
1772871641830384000,7.376384033203125,-1.3134765625,0.957000732421875,0.06744384765625
1772871641840317000,7.38631689453125,-0.8359832763671875,0.8093719482421875,-0.2567901611328125
1772871641850249000,7.3962490234375,-0.2359466552734375,0.557861328125,-0.4393768310546875
1772871641860182000,7.40618212890625,0.3294525146484375,0.30810546875,-0.4306640625
1772871641870115000,7.416114990234375,0.7330322265625,0.00335693359375,-0.2899322509765625
1772871641880048000,7.426048095703125,1.0459442138671875,-0.174407958984375,-0.12371826171875
1772871641889981000,7.43598095703125,1.1501007080078125,-0.2062530517578125,-0.0325927734375
1772871641899914000,7.4459140625,1.0566253662109375,-0.2745208740234375,0.0911407470703125
1772871641909847000,7.455846923828125,1.0280303955078125,-0.1558837890625,0.12957763671875
1772871641919779000,7.465779052734375,0.9362640380859375,0.0430145263671875,0.0056610107421875
1772871641929712000,7.475712158203125,0.7600860595703125,0.16632080078125,-0.0914306640625
1772871641939645000,7.48564501953125,0.5157928466796875,0.2704315185546875,-0.0665740966796875
1772871641949578000,7.495577880859375,0.2670440673828125,0.2898101806640625,0.039093017578125
1772871641959511000,7.505510986328125,0.056854248046875,0.242431640625,0.193115234375
1772871641969444000,7.515444091796875,-0.102874755859375,0.1996612548828125,0.341033935546875
1772871641979377200,7.525377197265625,-0.2281494140625,0.15985107421875,0.4777984619140625
1772871641989309000,7.535308837890625,-0.3103485107421875,0.1298370361328125,0.570465087890625
1772871641999241700,7.54524169921875,-0.33697509765625,0.13128662109375,0.5709991455078125
1772871642009175000,7.555175048828125,-0.297698974609375,0.1523590087890625,0.5078582763671875
1772871642019108000,7.565108154296875,-0.2043914794921875,0.1433258056640625,0.4057159423828125
1772871642029041200,7.575041259765625,-0.0990447998046875,0.0947418212890625,0.3154449462890625
1772871642038974000,7.584973876953125,-0.0255126953125,0.0386810302734375,0.240936279296875
1772871642048907000,7.594906982421875,-0.0233154296875,-0.02838134765625,0.178680419921875
1772871642058838800,7.6048388671875,-0.08453369140625,-0.0775909423828125,0.1363677978515625
1772871642068771800,7.614771728515625,-0.164886474609375,-0.097412109375,0.0914459228515625
1772871642078705000,7.624704833984375,-0.21112060546875,-0.095245361328125,0.0257720947265625
1772871642088638000,7.634637939453125,-0.1765899658203125,-0.106201171875,-0.0759735107421875
1772871642098571000,7.644571044921875,-0.1037445068359375,-0.1158905029296875,-0.18341064453125
1772871642108504000,7.654504150390625,-0.0799407958984375,-0.1529388427734375,-0.2198486328125
1772871642118437000,7.66443701171875,-0.1432037353515625,-0.2161102294921875,-0.1830596923828125
1772871642128369000,7.674368896484375,-0.27301025390625,-0.23602294921875,-0.1171417236328125
1772871642138302000,7.684302001953125,-0.4152679443359375,-0.2301483154296875,-0.09356689453125
1772871642148234800,7.69423486328125,-0.55328369140625,-0.2128448486328125,-0.0720672607421875
1772871642158167800,7.704167724609375,-0.6814727783203125,-0.15802001953125,-0.0747833251953125
1772871642168100900,7.714100830078125,-0.81884765625,0.010040283203125,-0.113128662109375
1772871642178034000,7.724033935546875,-0.7559356689453125,0.2662200927734375,-0.2751007080078125
1772871642187967000,7.733967041015625,-0.61065673828125,0.3880462646484375,-0.2630767822265625
1772871642197898800,7.743898681640625,-0.7383575439453125,0.5642852783203125,-0.10015869140625
1772871642207831800,7.753831787109375,-0.9815216064453125,0.8597564697265625,0.129730224609375
1772871642217765000,7.76376513671875,-1.22601318359375,1.184173583984375,0.4038238525390625
1772871642227698200,7.7736982421875,-1.4944915771484375,1.475006103515625,0.7142791748046875
1772871642237631000,7.783630859375,-1.86431884765625,1.7144317626953125,0.991790771484375
1772871642247564000,7.79356396484375,-1.563201904296875,2.383026123046875,1.0266571044921875
1772871642257497000,7.8034970703125,-1.1793975830078125,2.9922637939453125,1.1317138671875
1772871642267429000,7.81342919921875,-1.8096923828125,2.808837890625,1.04449462890625
1772871642277362200,7.823362060546875,-2.49578857421875,2.820068359375,0.9225921630859375
1772871642287295000,7.833294921875,-3.691009521484375,1.9723663330078125,1.1619415283203125
1772871642297228000,7.84322802734375,-4.10589599609375,1.3007965087890625,1.528839111328125
1772871642307161000,7.8531611328125,-3.40191650390625,0.986480712890625,1.6899261474609375
1772871642317094100,7.86309423828125,-2.2313232421875,0.8430633544921875,1.587982177734375
1772871642327027200,7.873027099609375,-0.9696197509765625,0.943267822265625,1.2750396728515625
1772871642336960000,7.8829599609375,0.095367431640625,0.981658935546875,1.005523681640625
1772871642346892000,7.89289208984375,0.6364593505859375,0.9385986328125,1.061126708984375
1772871642356825000,7.9028251953125,0.322113037109375,0.95538330078125,1.0904083251953125
1772871642366758100,7.912758056640625,-0.240478515625,1.233856201171875,0.77130126953125
1772871642376691200,7.922691162109375,-0.885986328125,1.48187255859375,0.3619384765625
1772871642386624000,7.9326240234375,-1.756317138671875,1.443267822265625,0.0445556640625
1772871642396557000,7.94255712890625,-2.7625885009765625,1.231903076171875,0.0690155029296875
1772871642406490000,7.952489990234375,-3.29803466796875,1.1688079833984375,0.420013427734375
1772871642416422100,7.962422119140625,-2.9771270751953125,1.260406494140625,0.6093902587890625
1772871642426355200,7.972355224609375,-2.01458740234375,1.2694549560546875,0.42767333984375
1772871642436288000,7.9822880859375,-0.939178466796875,1.1378173828125,0.1347503662109375
1772871642446219300,7.99221923828125,-0.0817413330078125,0.9461822509765625,-0.030975341796875
1772871642456152300,8.00215234375,0.504425048828125,0.7026824951171875,-0.0714569091796875
1772871642466085000,8.012085205078124,0.87646484375,0.444732666015625,-0.0411834716796875
1772871642476018200,8.02201806640625,0.9732818603515625,0.2511138916015625,-0.0542144775390625
1772871642485951200,8.031951171875,0.8390655517578125,0.074127197265625,-0.0631256103515625
1772871642495883300,8.04188330078125,0.6655426025390625,0.0232391357421875,-0.047760009765625
1772871642505816300,8.05181640625,0.478363037109375,0.0355987548828125,0.0184478759765625
1772871642515749000,8.0617490234375,0.2555694580078125,0.0400543212890625,0.1035919189453125
1772871642525682200,8.07168212890625,0.0615386962890625,0.09332275390625,0.14581298828125
1772871642535615200,8.081615234375,-0.01654052734375,0.172637939453125,0.12255859375
1772871642545548300,8.09154833984375,0.0219573974609375,0.205352783203125,0.0808868408203125
1772871642555481000,8.101481201171875,0.110321044921875,0.2022247314453125,0.037017822265625
1772871642565413000,8.1114130859375,0.1800994873046875,0.2024078369140625,0.03948974609375
1772871642575346000,8.121345947265626,0.1935577392578125,0.1600189208984375,0.0931243896484375
1772871642585279200,8.131279296875,0.1321868896484375,0.0792388916015625,0.168212890625
1772871642595212300,8.14121240234375,0.0268402099609375,0.0022735595703125,0.2195892333984375
1772871642605145000,8.15114501953125,-0.090911865234375,-0.0498504638671875,0.2431182861328125
1772871642615078100,8.161078125,-0.2121124267578125,-0.0651397705078125,0.243804931640625
1772871642625011200,8.17101123046875,-0.299713134765625,-0.0787811279296875,0.22900390625
1772871642634943000,8.18094287109375,-0.304351806640625,-0.112060546875,0.2087554931640625
1772871642644876000,8.1908759765625,-0.2535400390625,-0.1458282470703125,0.165069580078125
1772871642654809000,8.20080908203125,-0.182586669921875,-0.15118408203125,0.0674591064453125
1772871642664742000,8.210741943359375,-0.109283447265625,-0.1481781005859375,-0.03997802734375
1772871642674675200,8.22067529296875,-0.081573486328125,-0.1513671875,-0.1214141845703125
1772871642684608300,8.230608154296876,-0.137847900390625,-0.152008056640625,-0.1451873779296875
1772871642694541300,8.240541259765624,-0.2449493408203125,-0.1370391845703125,-0.13641357421875
1772871642704473000,8.25047314453125,-0.3162689208984375,-0.126312255859375,-0.1460723876953125
1772871642714406000,8.260406005859375,-0.3844146728515625,-0.1135406494140625,-0.1457366943359375
1772871642724339000,8.2703388671875,-0.4275665283203125,-0.1042327880859375,-0.1277923583984375
1772871642734272000,8.28027197265625,-0.4962310791015625,-0.11370849609375,-0.097991943359375
1772871642744205000,8.290205078125,-0.6347808837890625,-0.0561981201171875,-0.0528411865234375
1772871642754138000,8.30013818359375,-0.6376953125,0.1707763671875,-0.0697479248046875
1772871642764071200,8.3100712890625,-0.5712127685546875,0.436370849609375,-0.03515625
1772871642774003000,8.3200029296875,-0.6163177490234375,0.6848602294921875,0.141357421875
1772871642783936000,8.32993603515625,-0.735137939453125,0.9738006591796875,0.3638763427734375
1772871642793869000,8.339869140625,-0.9046783447265625,1.1671600341796875,0.5654754638671875
1772871642803802000,8.349802001953124,-1.0604248046875,1.4141082763671875,0.607452392578125
1772871642813735000,8.35973486328125,-1.1809539794921875,1.8038330078125,0.4370880126953125
1772871642823669200,8.369669189453125,-1.2776031494140625,1.980255126953125,0.2542266845703125
1772871642833602300,8.379602294921876,-1.68487548828125,1.901763916015625,0.4217681884765625
1772871642843535000,8.38953515625,-2.4920196533203125,1.59197998046875,1.002899169921875
1772871642853468200,8.39946826171875,-3.2294158935546875,1.2667999267578125,1.5565338134765625
1772871642863400200,8.409400146484375,-3.492156982421875,1.128509521484375,1.800262451171875
1772871642873333200,8.419333251953125,-3.219390869140625,1.195587158203125,1.7186431884765625
1772871642883266300,8.429266357421875,-2.4153900146484375,1.3575286865234375,1.316162109375
1772871642893199000,8.43919921875,-1.5797271728515625,1.4841156005859375,0.84613037109375
1772871642903132200,8.449132080078124,-0.9942169189453125,1.57379150390625,0.451416015625
1772871642913065200,8.459065185546875,-0.771026611328125,1.611083984375,0.216522216796875
1772871642922998300,8.468998291015625,-0.806671142578125,1.548248291015625,0.20428466796875
1772871642932930000,8.478929931640625,-1.1068572998046875,1.3903350830078125,0.39727783203125
1772871642942863000,8.488863037109375,-1.70257568359375,1.2686309814453125,0.621917724609375
1772871642952796200,8.498796142578126,-2.231201171875,1.28265380859375,0.6990814208984375
1772871642962729200,8.508729248046874,-2.43609619140625,1.3453216552734375,0.6699981689453125
1772871642972662300,8.518662353515625,-2.361175537109375,1.3891754150390625,0.5610809326171875
1772871642982595300,8.52859521484375,-2.094207763671875,1.43658447265625,0.417755126953125
1772871642992528100,8.538528076171875,-1.79974365234375,1.4434356689453125,0.2411346435546875
1772871643002460000,8.5484599609375,-1.5501708984375,1.4176025390625,0.0665283203125
1772871643012393000,8.55839306640625,-1.296905517578125,1.3587188720703125,-0.068084716796875
1772871643022326000,8.568325927734374,-1.0496978759765625,1.212738037109375,-0.1507568359375
1772871643032259300,8.57825927734375,-0.8012847900390625,0.9963531494140625,-0.1538543701171875
1772871643042192100,8.588192138671875,-0.569305419921875,0.8022918701171875,-0.1147003173828125
1772871643052125200,8.598125244140626,-0.3184814453125,0.68194580078125,-0.1746826171875
1772871643062058200,8.608058349609376,-0.0974578857421875,0.4941864013671875,-0.2995452880859375
1772871643071990000,8.617989990234374,0.199920654296875,0.190643310546875,-0.239166259765625
1772871643081923000,8.627923095703125,0.6100311279296875,0.0055389404296875,-0.0765380859375
1772871643091856100,8.637856201171875,0.899566650390625,-0.174774169921875,0.026519775390625
1772871643101789000,8.647788818359375,1.0079803466796875,-0.1896209716796875,0.0457763671875
1772871643111722000,8.657721923828126,0.941986083984375,-0.108001708984375,0.013427734375
1772871643121655300,8.6676552734375,0.8664398193359375,0.06390380859375,-0.020782470703125
1772871643131588000,8.677588134765625,0.7963714599609375,0.1888427734375,-0.0347900390625
1772871643141520100,8.68752001953125,0.67852783203125,0.2281036376953125,-0.00140380859375
1772871643151453000,8.697452880859375,0.5454254150390625,0.2819976806640625,0.0572357177734375
1772871643161386000,8.707385986328125,0.422210693359375,0.255401611328125,0.1253814697265625
1772871643171319000,8.717319091796876,0.2457427978515625,0.192840576171875,0.1978302001953125
1772871643181252000,8.727252197265624,0.03167724609375,0.130859375,0.28033447265625
1772871643191185000,8.737184814453125,-0.176910400390625,0.0654296875,0.3581695556640625
1772871643201118000,8.747117919921875,-0.3411407470703125,0.026031494140625,0.402557373046875
1772871643211050000,8.757050048828125,-0.4295806884765625,0.00848388671875,0.4053955078125
1772871643220983600,8.766983642578126,-0.4430694580078125,-0.015380859375,0.3371124267578125
1772871643230916600,8.77691650390625,-0.3799591064453125,-0.050384521484375,0.2348480224609375
1772871643240849400,8.786849365234374,-0.263824462890625,-0.0720367431640625,0.114990234375
1772871643250782500,8.796782470703125,-0.155059814453125,-0.0672454833984375,-0.025360107421875
1772871643260715500,8.806715576171875,-0.0948944091796875,-0.0326080322265625,-0.1376953125
1772871643270647600,8.8166474609375,-0.0885467529296875,0.01446533203125,-0.214447021484375
1772871643280580600,8.82658056640625,-0.0992889404296875,0.0364227294921875,-0.275726318359375
1772871643290513400,8.836513427734374,-0.121551513671875,0.0374603271484375,-0.3086700439453125
1772871643300446500,8.846446533203125,-0.1505889892578125,0.032958984375,-0.321014404296875
1772871643310379500,8.856379638671875,-0.1733856201171875,0.0040130615234375,-0.3033599853515625
1772871643320312600,8.8663125,-0.1978912353515625,-0.0406494140625,-0.24224853515625
1772871643330245400,8.876245361328126,-0.260955810546875,-0.0916290283203125,-0.1557159423828125
1772871643340177700,8.886177734375,-0.3468017578125,-0.12786865234375,-0.080352783203125
1772871643350110500,8.8961103515625,-0.43109130859375,-0.1667022705078125,-0.0055694580078125
1772871643360043500,8.90604345703125,-0.5334930419921875,-0.1906280517578125,0.1026611328125
1772871643369976600,8.9159765625,-0.6790924072265625,-0.037139892578125,0.105072021484375
1772871643379909600,8.92590966796875,-0.6715850830078125,0.2787628173828125,0.0488128662109375
1772871643389842400,8.935842529296876,-0.5697784423828125,0.57257080078125,0.088623046875
1772871643399775500,8.945775390625,-0.4390411376953125,0.8284454345703125,0.263397216796875
1772871643409707500,8.95570751953125,-0.4369964599609375,1.0145416259765625,0.557098388671875
1772871643419640600,8.965640625,-0.633941650390625,1.3095703125,0.728424072265625
1772871643429573600,8.97557373046875,-0.91619873046875,1.65350341796875,0.6752777099609375
1772871643439506400,8.98550634765625,-1.22161865234375,1.8836517333984375,0.5292816162109375
1772871643449439500,8.995439453125,-1.73492431640625,1.9301300048828125,0.62103271484375
1772871643459372500,9.00537255859375,-2.600341796875,1.9614105224609375,0.94732666015625
1772871643469305600,9.0153056640625,-3.2875518798828125,2.0765380859375,1.13677978515625
1772871643479237600,9.025237548828125,-3.2617645263671875,2.0088653564453125,0.9960174560546875
1772871643489170400,9.03517041015625,-2.7101593017578125,1.83447265625,0.756439208984375
1772871643499103500,9.045103515625,-2.0639190673828125,1.5845947265625,0.6908416748046875
1772871643509036500,9.05503662109375,-1.5636138916015625,1.283660888671875,0.79620361328125
1772871643518969600,9.064969482421875,-1.18658447265625,1.1110687255859375,0.92669677734375
1772871643528902700,9.074902587890625,-1.0491485595703125,1.047119140625,0.917755126953125
1772871643538835500,9.08483544921875,-1.1058502197265625,1.0873565673828125,0.84136962890625
1772871643548767500,9.094767578125,-1.3228912353515625,1.1851043701171875,0.773468017578125
1772871643558700500,9.104700439453126,-1.6888580322265625,1.30780029296875,0.68658447265625
1772871643568633600,9.114633544921874,-1.9555816650390625,1.384185791015625,0.57965087890625
1772871643578566700,9.124566650390625,-1.9827423095703125,1.4015960693359375,0.49737548828125
1772871643588499500,9.13449951171875,-1.873809814453125,1.3675079345703125,0.438720703125
1772871643598432500,9.1444326171875,-1.7239990234375,1.311309814453125,0.386016845703125
1772871643608365600,9.154365478515626,-1.5850830078125,1.320526123046875,0.30517578125
1772871643618297600,9.164297607421876,-1.56744384765625,1.39019775390625,0.2118072509765625
1772871643628230700,9.174230712890624,-1.5996856689453125,1.4626312255859375,0.166778564453125
1772871643638163500,9.18416357421875,-1.5133209228515625,1.4754486083984375,0.1577301025390625
1772871643648096500,9.194096435546875,-1.329925537109375,1.40692138671875,0.142120361328125
1772871643658029600,9.204029541015625,-1.107879638671875,1.2502593994140625,0.118804931640625
1772871643667962600,9.213962646484376,-0.882232666015625,1.01812744140625,0.1358489990234375
1772871643677895400,9.2238955078125,-0.6835784912109375,0.758392333984375,0.13983154296875
1772871643687827700,9.23382763671875,-0.4701690673828125,0.50726318359375,0.119110107421875
1772871643697760500,9.243760498046875,-0.2490234375,0.2332611083984375,0.1201629638671875
1772871643707693600,9.253693603515625,0.0483856201171875,-0.013946533203125,0.0722198486328125
1772871643717626600,9.263626708984376,0.44580078125,-0.1990966796875,0.0553436279296875
1772871643727559700,9.2735595703125,0.8405303955078125,-0.350860595703125,0.0747528076171875
1772871643737492500,9.283492431640624,1.151031494140625,-0.34930419921875,0.0346832275390625
1772871643747425500,9.293425537109375,1.2837371826171875,-0.2404632568359375,-0.0651702880859375
1772871643757357600,9.303357666015625,1.1900634765625,-0.097412109375,-0.1335296630859375
1772871643767290600,9.31329052734375,0.92962646484375,0.048004150390625,-0.0971527099609375
1772871643777223700,9.3232236328125,0.6160430908203125,0.1478729248046875,0.0236968994140625
1772871643787156500,9.333156494140624,0.2568511962890625,0.19427490234375,0.1428985595703125
1772871643797089500,9.343089599609375,-0.117034912109375,0.189971923828125,0.244232177734375
1772871643807022600,9.353022705078125,-0.4394378662109375,0.1860809326171875,0.3221435546875
1772871643816954600,9.36295458984375,-0.654296875,0.2053375244140625,0.2964630126953125
1772871643826887700,9.3728876953125,-0.712677001953125,0.222198486328125,0.2079925537109375
1772871643836820500,9.382820556640626,-0.6605987548828125,0.220458984375,0.12640380859375
1772871643846753500,9.39275341796875,-0.5636444091796875,0.158599853515625,0.076141357421875
1772871643856686600,9.4026865234375,-0.4081573486328125,0.087921142578125,0.0525054931640625
1772871643866619600,9.41261962890625,-0.239105224609375,0.0150909423828125,0.0245819091796875
1772871643876552700,9.422552734375,-0.109130859375,-0.0699310302734375,0.00506591796875
1772871643886484700,9.432484619140626,-0.0540924072265625,-0.1448516845703125,0.0255279541015625
1772871643896417500,9.44241748046875,-0.0393829345703125,-0.179046630859375,0.0280914306640625
1772871643906350600,9.4523505859375,-0.0378265380859375,-0.173614501953125,-0.00933837890625
1772871643916283600,9.46228369140625,-0.0281982421875,-0.1259307861328125,-0.0913543701171875
1772871643926216700,9.472216796875,-0.0089263916015625,-0.0778656005859375,-0.1915435791015625
1772871643936149500,9.4821494140625,0.0497589111328125,-0.02667236328125,-0.2577972412109375
1772871643946082600,9.49208251953125,0.101165771484375,0.01995849609375,-0.305816650390625
1772871643956014600,9.5020146484375,0.102935791015625,0.0329742431640625,-0.34173583984375
1772871643965947600,9.51194775390625,0.0283203125,0.0623626708984375,-0.3418731689453125
1772871643975880700,9.521880615234375,-0.115509033203125,0.0651702880859375,-0.277496337890625
1772871643985813500,9.5318134765625,-0.2554168701171875,0.047332763671875,-0.131439208984375
1772871643995746600,9.54174658203125,-0.3804779052734375,0.0258331298828125,0.03314208984375
1772871644005679600,9.5516796875,-0.46197509765625,0.2131195068359375,-0.014556884765625
1772871644015611600,9.561611572265624,-0.2454071044921875,0.4548492431640625,-0.1835784912109375
1772871644025544700,9.571544677734375,-0.126312255859375,0.4940032958984375,-0.0129852294921875
1772871644035477800,9.581477783203125,-0.2306976318359375,0.681304931640625,0.203033447265625
1772871644045410600,9.59141064453125,-0.387725830078125,0.93853759765625,0.3778228759765625
1772871644055343600,9.601343505859376,-0.564605712890625,1.17596435546875,0.50494384765625
1772871644065276700,9.611276611328124,-0.972503662109375,1.444976806640625,0.7057342529296875
1772871644075209700,9.621209716796875,-1.671844482421875,1.8942718505859375,0.890380859375
1772871644085141800,9.631141845703125,-2.6253509521484375,2.238189697265625,1.09210205078125
1772871644095074600,9.641074462890625,-3.5238494873046875,2.5305633544921875,1.2853240966796875
1772871644105007600,9.651007568359375,-4.0011444091796875,2.611297607421875,1.19317626953125
1772871644114940700,9.660940673828126,-3.8889312744140625,2.4987640380859375,1.082550048828125
1772871644124873700,9.670873779296874,-3.062713623046875,2.2975006103515625,0.7055206298828125
1772871644134806500,9.680806640625,-2.0242919921875,2.05108642578125,0.199676513671875
1772871644144739600,9.690739501953125,-1.261260986328125,1.8029022216796875,0.0052337646484375
1772871644154671600,9.700671630859375,-0.9430084228515625,1.51141357421875,0.1732330322265625
1772871644164604700,9.710604736328126,-0.9260711669921875,1.2946319580078125,0.4757080078125
1772871644174537700,9.720537841796874,-1.0723876953125,1.1479034423828125,0.7712860107421875
1772871644184470500,9.730470458984374,-1.3077239990234375,0.9566650390625,1.129150390625
1772871644194403600,9.740403564453125,-1.6350860595703125,0.894073486328125,1.437957763671875
1772871644204336600,9.750336669921875,-1.86785888671875,0.9775390625,1.4819488525390625
1772871644214269700,9.760269775390626,-1.8079376220703125,1.224609375,1.1929168701171875
1772871644224200700,9.77020068359375,-1.6241455078125,1.449981689453125,0.7291107177734375
1772871644234133800,9.7801337890625,-1.4896697998046875,1.5471954345703125,0.324676513671875
1772871644244066800,9.79006689453125,-1.40191650390625,1.5829620361328125,0.0913238525390625
1772871644253999600,9.79999951171875,-1.3899688720703125,1.540771484375,0.0531005859375
1772871644263932700,9.8099326171875,-1.3379364013671875,1.422149658203125,0.117462158203125
1772871644273865700,9.81986572265625,-1.227081298828125,1.1940155029296875,0.1972198486328125
1772871644283797800,9.8297978515625,-0.9944000244140625,0.9351959228515625,0.24444580078125
1772871644293730800,9.839730712890624,-0.6555633544921875,0.7037353515625,0.1508331298828125
1772871644303663600,9.84966357421875,-0.327972412109375,0.53387451171875,-0.073822021484375
1772871644313596700,9.8595966796875,-0.0303955078125,0.385986328125,-0.273193359375
1772871644323529700,9.86952978515625,0.2781982421875,0.227569580078125,-0.339691162109375
1772871644333462800,9.879462890625,0.5347900390625,0.0650787353515625,-0.3196868896484375
1772871644343395600,9.8893955078125,0.6920013427734375,-0.0833740234375,-0.2369384765625
1772871644353327900,9.899327880859374,0.7688446044921875,-0.185821533203125,-0.104461669921875
1772871644363260700,9.9092607421875,0.809967041015625,-0.227752685546875,0.0051116943359375
1772871644373193700,9.91919384765625,0.8316192626953125,-0.2087249755859375,0.074188232421875
1772871644383126800,9.929126708984375,0.7809906005859375,-0.1631317138671875,0.111572265625
1772871644393059800,9.939059814453126,0.6318817138671875,-0.0774383544921875,0.13006591796875
1772871644402992600,9.94899267578125,0.4254150390625,0.0217742919921875,0.1013641357421875
1772871644412924700,9.958924560546874,0.2137451171875,0.1186370849609375,0.05194091796875
1772871644422857700,9.968857666015625,-0.025665283203125,0.181304931640625,0.00152587890625
1772871644432790800,9.978790771484375,-0.257354736328125,0.23895263671875,-0.03265380859375
1772871644442723800,9.988723876953125,-0.48382568359375,0.232574462890625,-0.0078277587890625
1772871644452656600,9.99865673828125,-0.6687774658203125,0.1807098388671875,0.05194091796875
1772871644462589700,10.008589599609374,-0.7597808837890625,0.0848846435546875,0.1468048095703125
1772871644472522800,10.018522705078125,-0.7274322509765625,0.007476806640625,0.1933746337890625
1772871644482454800,10.028454833984375,-0.5983734130859375,-0.0374603271484375,0.1699371337890625
1772871644492387800,10.038387939453125,-0.4361724853515625,-0.0755615234375,0.11151123046875
1772871644502320600,10.048320556640626,-0.2810516357421875,-0.106719970703125,0.0471954345703125
1772871644512253700,10.058253662109376,-0.1622772216796875,-0.118316650390625,-0.0166473388671875
1772871644522186800,10.068186767578124,-0.10400390625,-0.1117095947265625,-0.060333251953125
1772871644532119800,10.078119873046875,-0.0765838623046875,-0.073150634765625,-0.08441162109375
1772871644542052900,10.088052978515625,-0.0771942138671875,-0.0323944091796875,-0.116607666015625
1772871644551985000,10.09798486328125,-0.076934814453125,-0.00164794921875,-0.13189697265625
1772871644561917700,10.107917724609376,-0.069732666015625,0.0068359375,-0.1399688720703125
1772871644571850800,10.117850830078124,-0.0179595947265625,-0.006927490234375,-0.1526031494140625
1772871644581783800,10.12778369140625,0.0605010986328125,-0.02703857421875,-0.17132568359375
1772871644591716900,10.137716796875,0.1110687255859375,-0.0266571044921875,-0.1634063720703125
1772871644601649700,10.147649658203125,0.1057891845703125,-0.0417022705078125,-0.114532470703125
1772871644611581700,10.157581787109375,0.04296875,-0.05316162109375,-0.0294342041015625
1772871644621514800,10.1675146484375,-0.117645263671875,-0.0516815185546875,0.036346435546875
1772871644631447800,10.17744775390625,-0.2728118896484375,0.1173553466796875,-0.012664794921875
1772871644641380900,10.187380859375,-0.243743896484375,0.38031005859375,-0.1004180908203125
1772871644651313700,10.197313720703125,-0.2501373291015625,0.56982421875,-0.0054168701171875
1772871644661246700,10.207246826171875,-0.3150482177734375,0.924957275390625,0.195892333984375
1772871644671179800,10.2171796875,-0.4751129150390625,1.1749267578125,0.5179443359375
1772871644681111800,10.22711181640625,-0.884246826171875,1.3077392578125,0.921630859375
1772871644691044900,10.237044921875,-1.715118408203125,1.5233154296875,1.3494110107421875
1772871644700978000,10.24697802734375,-2.7655487060546875,1.999053955078125,1.5638580322265625
1772871644710910700,10.25691064453125,-3.495574951171875,2.5086822509765625,1.517425537109375
1772871644720843800,10.26684375,-3.7981414794921875,2.6834564208984375,1.1839447021484375
1772871644730776800,10.27677685546875,-2.9830322265625,2.7598876953125,0.5316314697265625
1772871644740710000,10.2867099609375,-1.966064453125,2.615447998046875,-0.100311279296875
1772871644750642000,10.296641845703125,-1.4618377685546875,2.3706207275390625,-0.113922119140625
1772871644760574700,10.30657470703125,-1.4486083984375,2.01068115234375,0.43743896484375
1772871644770507800,10.3165078125,-1.5707244873046875,1.6613922119140625,1.0644378662109375
1772871644780440800,10.32644091796875,-1.64215087890625,1.4590911865234375,1.457550048828125
1772871644790374000,10.336373779296874,-1.6671600341796875,1.3307037353515625,1.6230621337890625
1772871644800306700,10.346306640625,-1.5385894775390625,1.30426025390625,1.57135009765625
1772871644810238700,10.35623876953125,-1.2925262451171875,1.348907470703125,1.3030548095703125
1772871644820171800,10.366171875,-1.1059417724609375,1.4196929931640625,0.969146728515625
1772871644830104800,10.376104736328125,-1.079437255859375,1.50445556640625,0.685546875
1772871644840038000,10.386037841796876,-1.2018280029296875,1.590606689453125,0.4634857177734375
1772871644849971000,10.395970947265624,-1.368133544921875,1.6393280029296875,0.3218994140625
1772871644859903700,10.40590380859375,-1.5368804931640625,1.6368408203125,0.2547760009765625
1772871644869836800,10.4158369140625,-1.6538238525390625,1.5811309814453125,0.2164764404296875
1772871644879768800,10.425768798828125,-1.697113037109375,1.484222412109375,0.1821136474609375
1772871644889702000,10.435701904296875,-1.6085205078125,1.3603057861328125,0.1482696533203125
1772871644899635000,10.445635009765626,-1.35968017578125,1.1861572265625,0.0986785888671875
1772871644909567700,10.455567626953124,-1.01397705078125,0.9698638916015625,-0.033447265625
1772871644919500800,10.465500732421875,-0.6182403564453125,0.75189208984375,-0.2124176025390625
1772871644929433900,10.475433837890625,-0.1616363525390625,0.555389404296875,-0.361236572265625
1772871644939366000,10.485365966796875,0.2523651123046875,0.37744140625,-0.4210205078125
1772871644949299000,10.495298828125,0.569732666015625,0.2027435302734375,-0.4212188720703125
1772871644959231700,10.505231689453124,0.782318115234375,0.06097412109375,-0.389190673828125
1772871644969164800,10.515164794921875,0.907958984375,-0.0455169677734375,-0.2840118408203125
1772871644979097900,10.525097900390625,0.9668426513671875,-0.134490966796875,-0.121368408203125
1772871644989031000,10.535031005859375,0.8928680419921875,-0.2046051025390625,0.0709228515625
1772871644998963700,10.544963623046876,0.737213134765625,-0.224456787109375,0.195404052734375
1772871645008896000,10.55489599609375,0.5695953369140625,-0.187774658203125,0.1890411376953125
1772871645018828800,10.564828857421874,0.4114532470703125,-0.0888519287109375,0.119842529296875
1772871645028761900,10.574761962890625,0.26361083984375,0.0323333740234375,0.0053863525390625
1772871645038695000,10.58469482421875,0.125213623046875,0.1256256103515625,-0.07177734375
1772871645048628000,10.5946279296875,-0.0070648193359375,0.2010955810546875,-0.1025390625
1772871645058560800,10.604560791015626,-0.1739349365234375,0.2484130859375,-0.0980682373046875
1772871645068492800,10.614492919921876,-0.3256988525390625,0.2618560791015625,-0.0683746337890625
1772871645078425900,10.62442578125,-0.4223785400390625,0.252105712890625,-0.0424652099609375
1772871645088359000,10.63435888671875,-0.4657440185546875,0.2230377197265625,-0.020751953125
1772871645098292000,10.6442919921875,-0.465728759765625,0.1713409423828125,0.0099334716796875
1772871645108224800,10.654224853515625,-0.4469757080078125,0.1127166748046875,0.0417022705078125
1772871645118157800,10.66415771484375,-0.4266510009765625,0.0572357177734375,0.0618438720703125
1772871645128091000,10.6740908203125,-0.379150390625,0.0040283203125,0.075836181640625
1772871645138023000,10.68402294921875,-0.3000335693359375,-0.0556640625,0.1098480224609375
1772871645147956000,10.6939560546875,-0.2230224609375,-0.10125732421875,0.1429290771484375
1772871645157888800,10.703888671875,-0.156951904296875,-0.123016357421875,0.1609954833984375
1772871645167821800,10.71382177734375,-0.1425933837890625,-0.143951416015625,0.1759796142578125
1772871645177755000,10.7237548828125,-0.171722412109375,-0.1354827880859375,0.1743927001953125
1772871645187688000,10.73368798828125,-0.2613067626953125,-0.10491943359375,0.1560211181640625
1772871645197620000,10.743619873046875,-0.3681182861328125,-0.070953369140625,0.1376953125
1772871645207553000,10.753552978515625,-0.4569854736328125,-0.006683349609375,0.1353607177734375
1772871645217485300,10.7634853515625,-0.5374755859375,0.0400238037109375,0.1207122802734375
1772871645227418400,10.77341845703125,-0.6030426025390625,0.062225341796875,0.128631591796875
1772871645237351400,10.783351318359376,-0.6692657470703125,0.0919342041015625,0.1912384033203125
1772871645247284500,10.793284423828124,-0.7693023681640625,0.1816558837890625,0.2666778564453125
1772871645257217300,10.80321728515625,-0.87384033203125,0.2620391845703125,0.3507537841796875
1772871645267149600,10.813149658203125,-0.9315185546875,0.4327392578125,0.491851806640625
1772871645277082400,10.823082275390625,-1.0272674560546875,0.6778717041015625,0.62298583984375
1772871645287015400,10.833015380859376,-1.1563262939453125,0.8665771484375,0.7809295654296875
1772871645296948500,10.842948486328124,-1.2733612060546875,0.9993133544921875,0.9342498779296875
1772871645306881500,10.852881591796875,-1.2881317138671875,1.13433837890625,0.9171142578125
1772871645316814300,10.862814453125,-1.236602783203125,1.31494140625,0.7645263671875
1772871645326746400,10.872746337890625,-1.262786865234375,1.642059326171875,0.741851806640625
1772871645336679400,10.882679443359375,-1.6407623291015625,1.9328460693359375,0.6333770751953125
1772871645346612500,10.892612548828126,-2.174774169921875,2.05712890625,0.250244140625
1772871645356545500,10.902545654296874,-2.4341583251953125,2.1560821533203125,-0.136444091796875
1772871645366478300,10.912478271484375,-2.3214874267578125,2.0919189453125,-0.32977294921875
1772871645376411400,10.922411376953125,-1.9775390625,1.8433685302734375,-0.305908203125
1772871645386344400,10.932344482421875,-1.6532745361328125,1.518310546875,-0.133636474609375
1772871645396276500,10.9422763671875,-1.41522216796875,1.2613372802734375,0.194671630859375
1772871645406209500,10.95220947265625,-1.2855224609375,1.0258026123046875,0.4841156005859375
1772871645416142300,10.962142333984374,-1.1997833251953125,0.836212158203125,0.61865234375
1772871645426075400,10.972075439453125,-1.0650634765625,0.7045135498046875,0.6423187255859375
1772871645436008400,10.982008544921875,-0.9218597412109375,0.596343994140625,0.617340087890625
1772871645445941500,10.99194140625,-0.821044921875,0.49017333984375,0.563751220703125
1772871645455873500,11.00187353515625,-0.7770233154296875,0.3974761962890625,0.47149658203125
1772871645465806600,11.011806640625,-0.749267578125,0.3179473876953125,0.3551177978515625
1772871645475739400,11.021739501953125,-0.720916748046875,0.2821197509765625,0.236663818359375
1772871645485672400,11.03167236328125,-0.6681976318359375,0.272186279296875,0.1094970703125
1772871645495605500,11.04160546875,-0.65960693359375,0.266693115234375,-0.0235595703125
1772871645505538600,11.05153857421875,-0.84234619140625,0.1789703369140625,0.16864013671875
1772871645515471400,11.061471435546874,-0.74163818359375,0.197174072265625,0.156890869140625
1772871645525403400,11.0714033203125,-0.5240020751953125,0.04730224609375,0.2530517578125
1772871645535336400,11.08133642578125,-0.5519561767578125,-0.1551513671875,0.708465576171875
1772871645545269500,11.09126953125,-0.4473876953125,-0.3098602294921875,0.8460540771484375
1772871645555202600,11.10120263671875,-0.364776611328125,-0.2500457763671875,0.7889251708984375
1772871645565135400,11.11113525390625,-0.347991943359375,-0.0348663330078125,0.4259796142578125
1772871645575068400,11.121068359375,-0.3720550537109375,0.1909637451171875,0.0892486572265625
1772871645585000400,11.13100048828125,-0.4261932373046875,0.4096527099609375,-0.1038055419921875
1772871645594933500,11.14093359375,-0.510986328125,0.57196044921875,-0.1876678466796875
1772871645604866600,11.150866455078125,-0.5970001220703125,0.6506195068359375,-0.135955810546875
1772871645614799600,11.160799560546875,-0.669158935546875,0.6414337158203125,0.06402587890625
1772871645624732400,11.170732421875,-0.7283935546875,0.584747314453125,0.2750701904296875
1772871645634665500,11.18066552734375,-0.7285919189453125,0.5381927490234375,0.3764801025390625
1772871645644598500,11.1905986328125,-0.668914794921875,0.5235748291015625,0.36944580078125
1772871645654530600,11.200530517578125,-0.6546630859375,0.5432586669921875,0.31280517578125
1772871645664463600,11.210463623046875,-0.70654296875,0.594390869140625,0.2418060302734375
1772871645674396400,11.220396484375,-0.7792816162109375,0.6640167236328125,0.1867218017578125
1772871645684329500,11.23032958984375,-0.8665008544921875,0.7173614501953125,0.16363525390625
1772871645694262500,11.240262451171875,-0.93798828125,0.7352142333984375,0.1761474609375
1772871645704195600,11.250195556640625,-0.9552459716796875,0.720611572265625,0.20318603515625
1772871645714127600,11.260127685546875,-0.91558837890625,0.6879730224609375,0.2248687744140625
1772871645724060400,11.270060302734375,-0.86480712890625,0.6425933837890625,0.2235565185546875
1772871645733993500,11.279993408203126,-0.8204193115234375,0.619384765625,0.204925537109375
1772871645743926500,11.289926513671874,-0.78887939453125,0.602752685546875,0.190155029296875
1772871645753859600,11.299859619140625,-0.7735748291015625,0.5821075439453125,0.183746337890625
1772871645763792600,11.309792724609375,-0.7612762451171875,0.55889892578125,0.181365966796875
1772871645773724700,11.319724609375,-0.742156982421875,0.5440521240234375,0.1767730712890625
1772871645783657500,11.329657470703125,-0.7364501953125,0.539306640625,0.171875
1772871645793590500,11.339590576171876,-0.7505950927734375,0.5138397216796875,0.1930999755859375
1772871645803523600,11.349523681640624,-0.761505126953125,0.485260009765625,0.2425537109375
1772871645813456600,11.35945654296875,-0.7400970458984375,0.4660491943359375,0.2699127197265625
1772871645823389400,11.369389404296875,-0.7284698486328125,0.4507293701171875,0.2784423828125
1772871645833322500,11.379322509765625,-0.7432403564453125,0.4477081298828125,0.279876708984375
1772871645843254300,11.389254150390625,-0.7844085693359375,0.4611968994140625,0.278656005859375
1772871645853187600,11.3991875,-0.8324432373046875,0.4888153076171875,0.255615234375
1772871645863120600,11.40912060546875,-0.8915557861328125,0.5115203857421875,0.2214508056640625
1772871645873053400,11.419053466796875,-0.951416015625,0.5330657958984375,0.2025299072265625
1772871645882986500,11.428986572265625,-1.029998779296875,0.553466796875,0.22064208984375
1772871645892919600,11.43891943359375,-0.9734954833984375,0.578460693359375,0.281280517578125
1772871645902851300,11.448851318359376,-0.929962158203125,0.5202178955078125,0.28271484375
1772871645912784400,11.458784423828124,-0.8552398681640625,0.5279693603515625,0.297576904296875
1772871645922717400,11.468717529296875,-0.887298583984375,0.5096282958984375,0.3088226318359375
1772871645932650200,11.478650146484375,-0.9471588134765625,0.5173492431640625,0.2977142333984375
1772871645942583600,11.48858349609375,-0.962799072265625,0.5303802490234375,0.27197265625
1772871645952516600,11.4985166015625,-0.9302978515625,0.523040771484375,0.2461395263671875
1772871645962449700,11.50844970703125,-0.8880157470703125,0.5267181396484375,0.2203521728515625
1772871645972381400,11.51838134765625,-0.8732757568359375,0.54901123046875,0.1879119873046875
