time,seconds_elapsed,z,y,x
1772871634517299500,0.063299560546875,1.3458347629964351,-0.48666649561226366,0.09755787243247031
1772871634527232500,0.073232421875,1.5486048220068216,-0.6632020431697369,0.17674056861028073
1772871634537165300,0.083165283203125,1.964948073592782,-0.7389107796266674,0.4784713525883853
1772871634547098400,0.093098388671875,2.2633552661061285,-0.7716688476294279,0.6600744126684963
1772871634557031400,0.103031494140625,2.1660914081841707,-0.8112354266032576,0.7191036708727478
1772871634566963500,0.11296337890625,1.907874771761894,-0.7756842207506298,0.7418954945258796
1772871634576896500,0.122896484375,1.5990490610867738,-0.7045654424324631,0.7015503323949873
1772871634586829300,0.132829345703125,1.4483715928852556,-0.5924988599151373,0.5996192133143544
1772871634596762400,0.142762451171875,1.3916326375752686,-0.43405221901685,0.3717269880071282
1772871634606695400,0.1526953125,1.4046505245804786,-0.3570440903991461,0.11730302186608314
1772871634616628500,0.16262841796875,1.8473820168763397,-0.4096493069052696,0.05922945695146918
1772871634626561300,0.172561279296875,2.3660990167438984,-0.5474181936949492,0.4793710779070854
1772871634636494300,0.182494384765625,2.8451977074503896,-0.8832710275053978,1.0794833354353903
1772871634646427400,0.192427490234375,3.5910832945257423,-1.258888300949335,1.5112087189398704
1772871634656360400,0.2023603515625,3.8966432814031835,-1.5087372142598032,1.8257333719089626
1772871634666292500,0.21229248046875,3.8237498946279285,-1.550571445904672,1.8093574066475033
1772871634676225500,0.2222255859375,3.5262533872187136,-1.4305156181991099,1.6915458507373928
1772871634686158300,0.232158447265625,3.213355312538147,-1.1992495325446129,1.6442138984590768
1772871634696091400,0.24209130859375,3.0089737266778944,-0.948571767194569,1.7307367282666264
1772871634706024400,0.2520244140625,2.6521798116475344,-0.8436530106052755,2.2144838293008506
1772871634715957500,0.26195751953125,2.035428554007411,-1.0707675295382737,2.6984511489570138
1772871634725890300,0.271890380859375,1.6190028848350047,-1.1486299368977546,2.7902526498198506
1772871634735823400,0.2818232421875,1.386896841225028,-0.8005337075859308,2.5025761101573702
1772871634745756400,0.29175634765625,0.5609744253605604,-0.2902767852887511,1.9597709632158278
1772871634755689500,0.301689453125,-0.4983674548000097,0.34090544102489945,1.591535178325325
1772871634765621500,0.31162158203125,-1.3206401159852743,0.9407225149989128,1.0777828151278197
1772871634775554300,0.32155419921875,-2.377980008673668,1.5601567281126976,0.49033349368721246
1772871634785487400,0.3314873046875,-3.3514503625422716,2.036103676789999,-0.20076792540773747
1772871634795420400,0.34142041015625,-3.752795366960764,2.258437683448195,-1.066126717995107
1772871634805353500,0.351353515625,-3.8159389286160468,2.2070675616949798,-1.8098105572424827
1772871634815286300,0.361286376953125,-3.609848200750351,1.9956074157506227,-2.215315019427985
1772871634825219300,0.37121923828125,-3.235517459985614,1.6372610105812548,-2.313924300609529
1772871634835152400,0.38115234375,-2.7220518047749995,1.0298229402095078,-2.1632553079754113
1772871634845085400,0.39108544921875,-1.7745500048995018,0.4059451916903257,-1.9295600954778491
1772871634855018500,0.4010185546875,-0.762664287918806,-0.19995909324288366,-1.587924878873676
1772871634864950500,0.410950439453125,0.3000572978079319,-0.7355243520587682,-1.4964590397059916
1772871634874883300,0.42088330078125,1.5698171213835477,-1.0750485678583384,-1.3452253989264369
1772871634884816400,0.43081640625,2.3746441422492266,-1.2684084089666605,-1.2953048914596437
1772871634894749400,0.44074951171875,2.4946423945486544,-1.4174550610959529,-1.2788584913104772
1772871634904682500,0.4506826171875,2.2891560623168945,-1.3194365854144097,-1.1983908698886632
1772871634914615300,0.460615234375,2.0372294659495354,-1.1580635356754063,-1.2476913457609713
1772871634924548400,0.47054833984375,1.6102186898767947,-0.939381037262082,-1.294746965315938
1772871634934481400,0.4804814453125,1.1178560284495354,-0.810117528489232,-1.1417783174373208
1772871634944414500,0.49041455078125,1.064789624172449,-0.851056272599101,-1.0907299749843775
1772871634954347300,0.50034716796875,1.1396890900731087,-0.9869529357761144,-1.4081412893056868
1772871634964279300,0.510279296875,0.833163473033905,-1.0015484473615883,-1.8729336606316267
1772871634974212400,0.52021240234375,0.2614367675125599,-0.8286071249037981,-2.5307135326221584
1772871634984145400,0.5301455078125,-0.30988427981734273,-0.5816261682450771,-3.049800827106833
1772871634994078500,0.540078369140625,-0.47390404467284675,-0.35031682797074315,-3.589627250498533
1772871635004011500,0.550011474609375,-0.06236848562955856,-0.06080956574976444,-4.170613367274403
1772871635013944300,0.5599443359375,0.29122751014232634,-0.07102057864069938,-4.725351528593897
1772871635023877400,0.56987744140625,0.5591197374045849,0.059598436394333834,-4.275580639180541
1772871635033810400,0.579810546875,0.6742927615046501,0.0883650966733694,-3.202549548624456
1772871635043743500,0.589743408203125,0.2373147181689739,-0.021877485287189483,-2.104289470396191
1772871635053676300,0.59967626953125,-0.33943770655989647,0.28881285021603104,-1.2086674953617156
1772871635063608300,0.6096083984375,-0.7536784329086542,0.8498755383819341,-0.7531067705005406
1772871635073541400,0.619541259765625,-0.9905237800002098,1.4546271461486815,-0.2563046653211117
1772871635083474400,0.629474365234375,-1.2988035472303627,1.860371262308955,0.023104542864114046
1772871635093407500,0.639407470703125,-1.4995605128526688,2.3353151714235545,0.6104958505071699
1772871635103340300,0.64934033203125,-1.8041268125176428,3.04771817561388,1.199054156102985
1772871635113273300,0.6592734375,-2.936213026371598,3.876705824267864,1.527505335354805
1772871635123206400,0.669206298828125,-4.912956751698255,4.885277302134036,1.8584072687596083
1772871635133139500,0.679139404296875,-7.383603353631496,5.916753270247578,2.1008774699956176
1772871635143072300,0.689072265625,-9.4104289144665,6.586387392291426,2.322501282557845
1772871635153005600,0.699005615234375,-9.96191070433855,6.678826022014022,2.2139427081614733
1772871635162937300,0.708937255859375,-9.16176687285304,6.609592911311983,2.467558865050971
1772871635172870400,0.718870361328125,-8.147620225203037,6.26826544548273,3.383128234092891
1772871635182803500,0.728803466796875,-7.5757123178958885,5.428497459617256,4.838832654084265
1772871635192736500,0.738736572265625,-7.195209610497951,4.588327907213569,6.385069285655021
1772871635202669300,0.74866943359375,-6.5881953184962265,3.938040290674567,7.690349919945001
1772871635212601300,0.758601318359375,-5.163814842051267,3.313240751135349,8.049511148628593
1772871635222534400,0.768534423828125,-3.5117812097519634,3.136470225778222,7.435653858864307
1772871635232467500,0.778467529296875,-3.0182986043840643,3.8525136322975158,6.538783345073461
1772871635242400500,0.788400390625,-3.6288399014681576,5.008506206917763,5.61055323190093
1772871635252333300,0.798333251953125,-4.353710757565498,6.462035036435723,4.373246648162604
1772871635262265300,0.808265380859375,-4.749191838386655,7.834081514531373,2.6695757676064966
1772871635272198400,0.818198486328125,-4.52627623244822,8.565721718633174,0.7074811837486922
1772871635282131500,0.82813134765625,-3.6349352957338095,8.524500650450587,-1.1647761850565672
1772871635292064500,0.838064453125,-2.2226742961496115,7.838384764683246,-2.8239307552769777
1772871635301997300,0.847997314453125,-0.47343467359542846,6.667052582111954,-3.5998797644436356
1772871635311930400,0.857930419921875,1.352021342676878,5.080002001854777,-3.6870074282765386
1772871635321863400,0.867863525390625,2.772721669304371,3.5305689123302697,-3.54401466935873
1772871635331796500,0.87779638671875,3.6977386656492945,2.342116083610058,-3.080801237787306
1772871635341729300,0.887729248046875,3.9786131240814924,1.2897709304690361,-2.5051778170883656
1772871635351661600,0.89766162109375,3.5073739147037264,0.01279752225279808,-2.097238236710429
1772871635361594400,0.907594482421875,2.1181477537482976,-1.4927753827571868,-2.287795295357704
1772871635371527400,0.91752734375,0.2630652454972267,-2.6638398543030024,-2.4918358126953244
1772871635381460500,0.92746044921875,-1.018645712634921,-3.962993530145287,-2.5233839203864337
1772871635391393500,0.9373935546875,-1.256801557803154,-5.277827005678415,-2.2701227144144474
1772871635401326300,0.947326416015625,-0.18054478319883346,-6.6513622610270975,-1.896377226191759
1772871635411259400,0.95725927734375,2.2038766566991805,-7.636673859336971,-1.6049344658635556
1772871635421192400,0.9671923828125,5.465387805119157,-8.163460768413543,-1.578411785119027
1772871635431125500,0.97712548828125,9.278349763751029,-8.575883047163487,-2.3806452823601663
1772871635441058300,0.987058349609375,12.758327722007035,-8.802578756162523,-2.9213673394173383
1772871635450990300,0.996990234375,14.602168120753765,-9.091585083124041,-3.2063381272524594
1772871635460923400,1.00692333984375,13.961333392214774,-8.71265415508747,-3.500159161019325
1772871635470856400,1.0168564453125,11.820284655350447,-8.269481348764895,-3.376156641514599
1772871635480789500,1.02678955078125,8.404139994579554,-7.90352213050425,-2.0769521122679113
1772871635490722300,1.036722412109375,4.466981162914633,-7.954909203392266,-0.4170287496320903
1772871635500655400,1.0466552734375,0.9163029440134763,-8.105226606109738,0.8589106393612921
1772871635510588400,1.05658837890625,-1.0839964289456605,-7.7926529410779475,1.4379633038565516
1772871635520521500,1.066521484375,-1.016594040802121,-7.056597258621454,1.4858106583110988
1772871635530454300,1.076454345703125,0.2135778687506914,-6.35825200587809,0.9710008950151503
1772871635540387300,1.08638720703125,2.672589562469721,-5.903990819308161,-0.3369689783588052
1772871635550319400,1.0963193359375,5.445361500656604,-5.435580695876479,-1.7012895383775233
1772871635560252400,1.10625244140625,7.63520378678441,-5.181045962837338,-2.5077351003557444
1772871635570185500,1.116185546875,8.880063562381267,-5.218513815966248,-3.052125178401172
1772871635580118500,1.126118408203125,9.504057630756497,-5.202933384996652,-3.2940263475775717
1772871635590051300,1.13605126953125,8.957215775644778,-5.0554053207367655,-3.637446109510958
1772871635599984400,1.145984375,7.48507109298408,-4.947483875200152,-4.056569639465213
1772871635609917400,1.15591748046875,6.412088225483894,-5.09687539524436,-3.2554438112050295
1772871635619850500,1.1658505859375,5.234595182195306,-5.766750924828648,-1.8534271422594784
1772871635629783300,1.175783203125,4.357424225130677,-5.981445814910531,-0.9118984254442155
1772871635639715300,1.18571533203125,4.26422454790771,-5.4422553513348095,-0.5677189311847091
1772871635649648400,1.1956484375,4.338964439332485,-5.08324200668931,0.1892800244487822
1772871635659581400,1.20558154296875,4.34414096518755,-3.9215865840017794,0.6817594441235065
1772871635669514500,1.215514404296875,3.9667964295595883,-1.4989140316426752,0.956602513436973
1772871635679447300,1.225447265625,3.8005619112640616,1.603545203462243,2.317952825473249
1772871635689380400,1.23538037109375,2.9563597423434254,6.270606455650925,3.1983833688557146
1772871635699313400,1.2453134765625,0.9242179549217223,12.24504852927923,2.2724866670668122
1772871635709246500,1.25524658203125,-4.307365770497918,17.12646331076622,-1.0183642653450369
1772871635719179300,1.26517919921875,-12.776032890045641,20.317202302348612,-3.7809772130891677
1772871635729112300,1.2751123046875,-22.108609918546676,21.702806765675543,-1.544805868115276
1772871635739044400,1.28504443359375,-28.991619373500345,19.81893480079174,4.078382535083592
1772871635748977400,1.294977294921875,-29.90748100348711,17.657099296486376,8.629399533295631
1772871635758910500,1.304910400390625,-22.42968077828884,14.38359901958704,8.203781672886013
1772871635768843500,1.314843505859375,-13.90735045761466,12.381674675774574,5.311415387025475
1772871635778776300,1.3247763671875,-8.577358964934945,11.30611465126276,2.4870792658179997
1772871635788709400,1.33470947265625,-5.231413629549741,10.596660560005903,0.9078990536097437
1772871635798642400,1.344642333984375,-2.912031355795264,9.882390008378028,-0.1609311511904001
1772871635808575500,1.354575439453125,-2.3081547772973776,9.247157337629794,-0.7833153001509606
1772871635818508300,1.36450830078125,-3.422985904967785,8.674635097816585,-0.6957955682605504
1772871635828441300,1.37444140625,-5.455027154624462,7.893201812019944,0.5784088136337697
1772871635838373400,1.384373291015625,-7.429803963792324,7.276901220756769,2.1296435457527636
1772871635848306400,1.394306396484375,-8.534111943882703,7.081616549065709,3.3450983631670472
1772871635858239500,1.404239501953125,-8.110835093641281,7.104464340689778,3.742584061808884
1772871635868172300,1.41417236328125,-6.615390783935785,6.711887164616584,2.655796248579025
1772871635878105300,1.424105224609375,-4.416312467429042,5.904191894838213,0.41796822243928905
1772871635888038400,1.434038330078125,-1.5619307520478962,4.657352928122878,-1.6610158340476453
1772871635897971500,1.443971435546875,1.474872646319866,2.510547819688916,-2.517696522399783
1772871635907904500,1.453904541015625,3.818068341860175,-0.24416589923799037,-2.330609770211577
1772871635917837300,1.46383740234375,5.933156123515963,-2.7024001788437366,-1.6591862805329263
1772871635927769300,1.473769287109375,7.995007989546656,-4.760312367337942,-1.0340073862873018
1772871635937702400,1.483702392578125,9.795511350870132,-6.330310690507292,-0.8602228910036385
1772871635947635500,1.493635498046875,11.172453199791908,-7.241876084604859,-0.9815879016116261
1772871635957568500,1.503568603515625,11.735165408730506,-7.890663233453035,-1.4802306662216782
1772871635967501300,1.513501220703125,11.914098080557585,-8.446440090170503,-1.842232671289146
1772871635977434400,1.523434326171875,12.177074478727578,-8.73637814502418,-2.1485333935312925
1772871635987367400,1.533367431640625,12.420084778189658,-9.058263828280568,-2.4746225198268887
1772871635997300500,1.543300537109375,12.273103241896628,-9.035559829041361,-2.4904326678991318
1772871636007233300,1.5532333984375,10.862865857094526,-8.61220640643239,-2.407416384907812
1772871636017165300,1.563165283203125,8.55776637571454,-8.147860463699699,-1.9925936208873987
1772871636027098400,1.573098388671875,6.249772926458716,-7.612122186404466,-1.3602975881129502
1772871636037031400,1.583031494140625,4.262615943667292,-7.087260107910633,-0.7602586880818009
1772871636046964500,1.592964599609375,2.718128493851423,-6.653792703044414,-0.8552081315815449
1772871636056897300,1.602897216796875,1.8719068018019198,-6.145606449541449,-1.3413545488424599
1772871636066830300,1.612830322265625,1.6998258955657481,-5.59084081569314,-1.915662941420078
1772871636076763400,1.622763427734375,2.001443866819143,-5.369275455319881,-2.229281877721101
1772871636086696400,1.632696533203125,2.6812708815753457,-5.498777449023724,-2.3164527961738406
1772871636096629500,1.64262939453125,3.7625422694712873,-5.656067028841376,-2.447523500499129
1772871636106561500,1.6525615234375,4.9164364105075595,-6.0014405551910395,-2.4274394744999706
1772871636116494300,1.662494384765625,5.47515399685204,-6.573444324088096,-2.0201799853406843
1772871636126427400,1.672427490234375,5.647484493935107,-6.953425637960433,-1.5028355890005827
1772871636136360400,1.6823603515625,5.760960066467523,-7.022823583835363,-1.2183600373364984
1772871636146293500,1.69229345703125,5.765112509971857,-6.9530112119406455,-1.2455544798627496
1772871636156226300,1.702226318359375,6.108572896176576,-6.689408790826797,-1.4260523551799356
1772871636166159400,1.712159423828125,6.717965607747435,-6.3488856271177525,-1.8315844360247253
1772871636176092400,1.722092529296875,7.071609534314274,-6.154589381942152,-2.2180947132743896
1772871636186025500,1.732025390625,7.381796011948585,-6.075068101459741,-2.0032531081981957
1772871636195958300,1.741958251953125,7.231153615060448,-5.724599297797679,-1.6038289888396857
1772871636205890300,1.751890380859375,6.794759509092569,-4.667071189060807,-2.318408898677677
1772871636215824000,1.761823974609375,6.169217626753449,-3.582514203622937,-2.2419142725400625
1772871636225757000,1.7717568359375,4.744302897301316,-2.311410564222932,-0.9433907112948596
1772871636235690000,1.78168994140625,2.1112626704096793,-0.636401714527607,1.0900197078231721
1772871636245622800,1.791622802734375,-0.8950035508751869,1.8638339699834585,2.740745983850956
1772871636255555800,1.801555908203125,-3.262717601600289,4.634971584966778,3.5232939528912306
1772871636265489000,1.811489013671875,-5.255476642182469,7.25936907119751,3.728980776131153
1772871636275422000,1.821421875,-7.540738619670272,9.072088355493545,3.4613603515475986
1772871636285354800,1.831354736328125,-11.252144576144218,10.749822830760479,3.2737767557531594
1772871636295286800,1.841286865234375,-14.015060306227207,13.48727678732872,2.7115090757116675
1772871636305219800,1.8512197265625,-14.995765287524462,15.723684425276517,1.127219630730897
1772871636315153000,1.86115283203125,-14.561631527704,16.714384730887414,-0.639422815914452
1772871636325086000,1.8710859375,-13.574994818270206,16.663503269433974,-0.47489912012480195
1772871636335018800,1.881018798828125,-12.491913166081904,15.658890173804759,1.4185428563326596
1772871636344951800,1.890951904296875,-11.078091493052243,14.084445392620562,3.7537808708667755
1772871636354884900,1.900884765625,-10.178450345504283,11.80964752600193,5.8027633184522385
1772871636364818000,1.91081787109375,-9.870352364581823,9.561015197253226,6.804211228048801
1772871636374751000,1.9207509765625,-9.652380644786357,8.477723701706529,6.722212743797898
1772871636384683000,1.93068310546875,-9.249654415142535,8.331463465425372,5.202358215457201
1772871636394615800,1.94061572265625,-8.44362620179355,8.68591052506864,2.4315847576111556
1772871636404548900,1.950548828125,-7.697673394700884,9.122036335489152,-0.8757954309277236
1772871636414482000,1.96048193359375,-7.193594576516747,9.11814400422573,-3.776473179668188
1772871636424415000,1.9704150390625,-6.640182110843062,8.701642347207665,-5.623312760230898
1772871636434347800,1.98034765625,-6.099204179328679,7.890872492289542,-6.083029289597272
1772871636444280800,1.99028076171875,-5.636088655173778,6.581632891240716,-5.31468754056394
1772871636454214000,2.0002138671875,-4.638165997093916,5.110139950487017,-4.066968868404627
1772871636464147000,2.01014697265625,-3.2873335719406604,3.5670617829471825,-3.073804218506813
1772871636474079700,2.020079833984375,-1.7077052506387234,2.00790224917829,-2.7260031727492806
1772871636484011800,2.03001171875,0.12026596332490444,0.5631698895782232,-3.0354777027219533
1772871636493944800,2.03994482421875,2.0149995139628647,-0.9951830039829015,-3.3399867192417383
1772871636503878000,2.0498779296875,5.150270885345339,-4.693964456683397,-2.130034737027436
1772871636513811000,2.05981103515625,8.695446999698877,-8.724729208284616,1.071649280808866
1772871636523743700,2.06974365234375,7.645798246034979,-7.142330253225564,-0.8463027944616973
1772871636533676800,2.0796767578125,9.590994155931472,-7.324770056390762,-1.903263624704629
1772871636543609900,2.08960986328125,11.413785921430588,-8.269863041558862,-1.5042825729385016
1772871636553543000,2.09954296875,12.880033362746238,-8.415675534072518,-0.5188784009743481
1772871636563475000,2.109474853515625,14.732476754665374,-10.725178218847512,1.858487932780385
1772871636573408000,2.119407958984375,14.718473948276042,-10.273997462636231,2.8635931958407164
1772871636583340800,2.1293408203125,13.558155911672115,-8.4813752099514,2.052461521872878
1772871636593273900,2.13927392578125,11.533947255337237,-7.41071406339705,1.4828917021244763
1772871636603207000,2.14920703125,9.597412790802121,-6.331702437126636,1.1519510441444814
1772871636613140000,2.159139892578125,7.926359985256195,-5.712829949548841,0.805598589760065
1772871636623072800,2.16907275390625,6.320087402656674,-5.126709977015853,0.6227279208969324
1772871636633005800,2.179005859375,4.719508063262701,-5.124464828437566,0.6747958156559616
1772871636642939000,2.18893896484375,3.255794524338841,-5.569461343055964,0.8613743991263211
1772871636652871000,2.198870849609375,2.596336928394437,-6.002486849373579,1.5390407287172971
1772871636662804000,2.208803955078125,2.6891934912681577,-6.416537021586299,1.8190452724471686
1772871636672736800,2.21873681640625,3.7526217639595267,-6.493338521715998,1.264509647962451
1772871636682669800,2.228669921875,5.738148515200614,-6.60803282238841,0.08906341766845434
1772871636692603000,2.238602783203125,7.560992887669801,-6.76506579709649,-1.1197118854492902
1772871636702536000,2.248535888671875,8.74924639442563,-6.540948414152861,-1.9008461882993577
1772871636712468700,2.25846875,8.91690773065388,-6.343905500617623,-2.411820318955183
1772871636722401800,2.26840185546875,8.041087603676319,-6.0550581636101,-2.2899255853846667
1772871636732334800,2.2783349609375,6.140194361364841,-5.984154489347338,-1.305176735524088
1772871636742267000,2.288266845703125,3.596634498912096,-6.210682440564036,-0.0945212081503123
1772871636752200000,2.298199951171875,1.6427479175597428,-6.084468967011571,0.5929621665779501
1772871636762133000,2.308133056640625,0.21205168209671973,-5.729650735968351,0.7581382618617266
1772871636772065800,2.318065673828125,-0.34225744015574455,-4.051694726905226,-0.4534413215544075
1772871636781998800,2.327998779296875,0.4741337617754936,-1.4971727409332989,-2.4858061771422624
1772871636791932000,2.337931884765625,1.4252140046596526,0.38164544769227504,-3.8544203427016734
1772871636801865000,2.347864990234375,1.3984388104587793,1.7094804436177014,-3.896569923906028
1772871636811797800,2.3577978515625,-0.08374211304783821,2.8867858553797006,-3.1601457003980875
1772871636821730800,2.367730712890625,-3.093418435037136,4.116078059488535,-1.3471557824671268
1772871636831662800,2.377662841796875,-8.141829366841911,6.357092314448952,0.809614328207448
1772871636841596000,2.387595947265625,-13.96926769234538,9.929524684518576,2.461740826421976
1772871636851529000,2.397529052734375,-18.708364253175258,12.964137879365682,3.0933664125889537
1772871636861461800,2.407461669921875,-21.039947252333164,14.80740310857296,2.3118284973740577
1772871636871394800,2.417394775390625,-19.55619104233384,16.13800523112416,0.00621675562299788
1772871636881327900,2.427327880859375,-15.581473756647108,16.047095710664987,-1.8969117714598773
1772871636891261000,2.437260986328125,-11.939983047920466,15.11424904360771,-2.1323013667851685
1772871636901194000,2.447194091796875,-8.670082256817818,13.92288588039875,-1.0295758335806429
1772871636911126800,2.457126708984375,-6.478167840591072,12.218137141478062,0.7009454983696342
1772871636921058800,2.467058837890625,-5.847767996826768,10.315394471907615,3.0544708647444843
1772871636930991900,2.476991943359375,-6.666587887209653,8.516468150642513,6.12471739076972
1772871636940925000,2.486925048828125,-7.831202159702777,7.49775287990272,8.681786723136902
1772871636950858000,2.49685791015625,-8.3175535980165,7.592149073433876,8.801040879070758
1772871636960790800,2.506790771484375,-8.116977834179997,8.305678451305628,6.14756284430623
1772871636970723800,2.516723876953125,-7.638080219003558,9.083965840291976,2.4626591103106734
1772871636980657000,2.526656982421875,-7.217766310220957,8.885752713933586,-0.7383433550022542
1772871636990590000,2.53658984375,-6.978531437644362,7.918022365021705,-2.892532874599099
1772871637000522800,2.546522705078125,-6.767261845836043,6.523795034778118,-3.7687224194109437
1772871637010454800,2.556454833984375,-5.923398699611425,5.193401586541533,-3.8430098908931014
1772871637020387800,2.566387939453125,-4.3704923810183995,3.7998090470701453,-3.673998309099674
1772871637030321000,2.57632080078125,-2.5522750838279724,1.9468547830194234,-3.4038924974411726
1772871637040254000,2.58625390625,-0.5495189653664827,-0.10756547170579432,-3.067248805513978
1772871637050186800,2.596186767578125,1.503918123540282,-2.150467138072848,-2.8765768883153795
1772871637060119800,2.606119873046875,3.7684827654361723,-4.250708648252487,-2.7972788951948284
1772871637070052900,2.616052978515625,6.252103415232896,-6.44361558264792,-2.226527610576898
1772871637079986000,2.62598583984375,8.451669222995639,-8.664655555593967,-1.4274227667503059
1772871637089919000,2.6359189453125,10.466278276336192,-9.079644469961524,-1.3919929953202606
1772871637099851000,2.64585107421875,11.250838754242658,-8.233453757572173,-2.7232486133441327
1772871637109783800,2.65578369140625,12.195434311282634,-7.462406256711483,-4.093564906646311
1772871637119716900,2.665716796875,13.226208268606662,-6.884423997926712,-4.590090825232863
1772871637129650000,2.67564990234375,13.72389124827385,-6.224146902292967,-4.4496752233266825
1772871637139583000,2.6855830078125,13.910366590565442,-5.764836615639925,-3.880335120680928
1772871637149515800,2.695515869140625,13.257634503483771,-5.873530799114704,-3.151136464512348
1772871637159448800,2.70544873046875,12.216315771269798,-5.985079202976823,-2.0384788814887402
1772871637169382000,2.7153818359375,10.539555109471083,-6.196764974370598,-0.5698135653764009
1772871637179314000,2.72531396484375,8.24491389374137,-6.313232714456319,0.7538277782514691
1772871637189247000,2.7352470703125,5.582816499191522,-6.454297135660052,1.8970885893315075
1772871637199179800,2.7451796875,3.1991917626291513,-6.629712154754996,2.815326885321736
1772871637209112800,2.75511279296875,1.7505740860283374,-6.5458665813326835,3.2476997729495167
1772871637219045600,2.765045654296875,1.6070985120296477,-6.168417416286468,3.0503204670667645
1772871637228978700,2.774978759765625,2.71908535618484,-5.517792530617117,2.1480786355011166
1772871637238911700,2.784911865234375,4.645937215617299,-4.884361356332898,0.7178349661111831
1772871637248844500,2.794844482421875,6.920958954119682,-4.419237414965033,-0.9595669162005186
1772871637258777600,2.804777587890625,8.946089985996485,-4.121580748558044,-2.542397248414159
1772871637268709600,2.814709716796875,10.275015699768066,-4.2178456585705275,-3.9826054085880513
1772871637278642700,2.824642578125,10.716925938808917,-4.610111284476519,-4.71392324886769
1772871637288575700,2.83457568359375,9.9193668631196,-4.9992982335895295,-4.460484202110767
1772871637298508500,2.844508544921875,7.911044342702627,-5.339518614959717,-3.568452360522747
1772871637308441600,2.854441650390625,5.889071482595801,-5.766199720686674,-2.1261140564523635
1772871637318374700,2.864374755859375,3.836863643223047,-6.534936606517434,-0.27762524737790223
1772871637328307700,2.8743076171875,2.2188614598631857,-7.503015914997458,1.4148467782936989
1772871637338240500,2.884240478515625,1.428070563134551,-6.661436495795845,1.597920349317789
1772871637348172500,2.894172607421875,1.490536663919687,-5.08904221740067,-0.09746946349665522
1772871637358105600,2.904105712890625,2.1749995217829943,-3.908030936858058,-0.9080369277104735
1772871637368038700,2.91403857421875,2.1925638200461863,-2.614540693604946,-0.8147535177268087
1772871637377971700,2.9239716796875,1.7402449997156857,-1.023449898046255,0.48479690234810113
1772871637387904800,2.93390478515625,0.704283995142579,1.4070879808604717,2.1852594883821905
1772871637397837600,2.943837646484375,-0.7505681919336319,4.78306897354722,2.7128593212768433
1772871637407770600,2.9537705078125,-2.009381674081087,9.27465909253955,1.4846914450228212
1772871637417703700,2.96370361328125,-3.8350352587521073,13.390327986705302,-0.6073442546084523
1772871637427636700,2.97363671875,-8.094205445879698,16.23400359915495,-2.264317535267025
1772871637437568800,2.98356884765625,-12.892426395851373,17.735185575729606,-2.4173754688642917
1772871637447501600,2.99350146484375,-16.32806719973087,16.904001293814183,-0.7518871655777096
1772871637457434600,3.0034345703125,-18.9035139003098,14.421910922324656,3.3864474416434764
1772871637467367700,3.01336767578125,-19.35011317394972,12.631132251679897,8.165547511559724
1772871637477300700,3.02330078125,-17.078431978046893,11.270270599943398,10.86211182385683
1772871637487233500,3.033233642578125,-12.283363939148186,10.263561408817768,10.587282490807771
1772871637497166600,3.04316650390625,-6.993306397449969,9.690034960398078,8.549527539679408
1772871637507099600,3.053099609375,-2.8316373841315507,9.08313874181807,5.998452479290962
1772871637517032700,3.06303271484375,-0.04465805689394474,8.415898236912488,3.4528210712611673
1772871637526964700,3.07296484375,0.15637655662596225,8.09433228712976,1.8208451614759862
1772871637536897500,3.0828974609375,-2.2802175535798073,8.772807887277006,1.3796424861826002
1772871637546830600,3.09283056640625,-6.265600025665759,9.642929510352015,1.774601004434377
1772871637556763600,3.102763671875,-10.050697241294383,9.989814610308407,1.8803085733138023
1772871637566696700,3.11269677734375,-12.209399708271025,10.198677140974997,1.1972149579770863
1772871637576629800,3.122629638671875,-12.749364663350581,9.886104060465097,0.23096973305642604
1772871637586562600,3.1325625,-12.028245853263138,9.113278444015979,-0.5761074048236012
1772871637596495600,3.14249560546875,-10.147559532678127,7.921305624476075,-1.4056718304522335
1772871637606428700,3.1524287109375,-7.068565928834676,6.119325176337361,-2.687973009562492
1772871637616360700,3.162360595703125,-3.4684272211939096,4.190720920279622,-3.716598848941922
1772871637626293800,3.172293701171875,-0.1390460671186447,1.898096889591217,-4.266968878179789
1772871637636226600,3.1822265625,2.3954501989126205,-0.5304197126209735,-4.197051292344928
1772871637646159600,3.19215966796875,4.4055280385643245,-2.805176078185439,-3.383929905864596
1772871637656092700,3.2020927734375,6.151157069405913,-4.606414183524251,-2.737865752239525
1772871637666025700,3.212025634765625,7.748356703233719,-6.085051735335588,-2.290677718926221
1772871637675958500,3.22195849609375,9.22452581910491,-7.8126903514564034,-1.2977660208761692
1772871637685891600,3.2318916015625,10.590456444668769,-9.44895884386897,-0.014168664475530385
1772871637695823600,3.24182373046875,11.571030493062734,-10.983628079503774,1.5752211723841725
1772871637705756700,3.251756591796875,12.919706032443045,-13.266978670412302,3.6522549715861676
1772871637715689700,3.261689697265625,14.839448936653136,-13.79841311303377,5.445858928784728
1772871637725622500,3.27162255859375,13.859014004468918,-11.52970713354945,4.9818701289266345
1772871637735555600,3.2815556640625,11.59018995156288,-9.662565938714145,3.015097470255196
1772871637745488600,3.291488525390625,10.048963549369573,-7.667105822479725,1.4622285610631107
1772871637755421700,3.301421630859375,8.46464853155613,-6.262817701470851,0.01050458901003003
1772871637765354800,3.311354736328125,7.311525374892353,-5.074675838395953,-1.3896557845443487
1772871637775287600,3.32128759765625,6.470679530662298,-4.206935557499528,-2.6820404046431183
1772871637785219600,3.331219482421875,5.481043054890632,-3.682470953890681,-3.574512098953128
1772871637795152600,3.341152587890625,4.716052369850874,-3.1106705986112355,-4.18192211227417
1772871637805085700,3.351085693359375,4.3457688586503265,-2.8305414055883884,-4.593506186634301
1772871637815018800,3.361018798828125,4.208742314660549,-2.919724248385429,-4.868025430820882
1772871637824951600,3.37095166015625,4.469893835490942,-3.07559986975193,-4.8227416432440275
1772871637834884600,3.380884521484375,5.085047010284662,-3.2442887954622504,-4.584563001722097
1772871637844817700,3.390817626953125,5.885478426539898,-3.763703129944205,-4.370775874134898
1772871637854750700,3.400750732421875,6.698021136349439,-4.569748294427991,-3.9096559077113864
1772871637864682800,3.410682861328125,7.484491247269511,-5.644505770385265,-3.106400081685185
1772871637874615600,3.420615478515625,8.645292683476208,-6.482078876554966,-2.236777494173497
1772871637884548600,3.430548583984375,9.78648750193715,-6.533602727565169,-2.0400309332363307
1772871637894481700,3.440481689453125,10.311475837159156,-6.6408426205784075,-2.4889815923079848
1772871637904414700,3.450414794921875,10.708430497664212,-6.309628552484512,-3.392711762735247
1772871637914347800,3.46034765625,10.59440781264305,-5.81913460753858,-3.849705004617572
1772871637924280600,3.470280517578125,9.655969024667144,-5.27742602366209,-3.8336069795146583
1772871637934213600,3.480213623046875,7.9595251727551215,-3.8900919600635766,-4.219783348634839
1772871637944145700,3.490145751953125,6.166108554822206,-2.7989707938045263,-3.7343934488296506
1772871637954078700,3.50007861328125,3.7216555478096005,-2.582663792350888,-0.5296379145935177
1772871637964011800,3.51001171875,0.7998644300222396,-0.8961006984621286,2.822291463637352
1772871637973944600,3.519944580078125,-2.619578103250265,1.581062738019228,4.8089708920449015
1772871637983877600,3.529877685546875,-5.901508939364552,3.880674727898836,5.747097545331716
1772871637993810700,3.539810791015625,-8.684539236715436,6.904537396150827,5.739605728271603
1772871638003743700,3.54974365234375,-11.273203730785847,9.292844153049588,5.188909535819292
1772871638013676500,3.559676513671875,-13.213616498059034,11.866530858218669,4.332551941941678
1772871638023609600,3.569609619140625,-13.953584970045089,15.222542245066165,2.8713454174026847
1772871638033541600,3.579541748046875,-14.17958685156107,17.16799242198467,0.6072426939301192
1772871638043474700,3.589474609375,-15.118199242538212,16.389696849691866,-0.6013663492426276
1772871638053407700,3.59940771484375,-16.652720009613038,13.85048349201083,1.2285441622205078
1772871638063340500,3.609340576171875,-17.073520825129748,11.426326254051924,4.4985181646898384
1772871638073273600,3.619273681640625,-16.650805115902422,9.696869190332293,6.8637453670352695
1772871638083206700,3.62920654296875,-15.67449690825939,8.472071959555148,7.07771544997394
1772871638093139700,3.6391396484375,-13.178884207373857,8.229539214476942,5.611200297632813
1772871638103072800,3.64907275390625,-10.253025986278056,8.582073133975268,3.309991393950581
1772871638113004800,3.6590048828125,-7.89399150109291,8.516207453879714,1.1270300995081663
1772871638122937600,3.6689375,-6.3086997472018,7.8660659678131335,-0.18808628461956978
1772871638132870700,3.67887060546875,-5.922995964029431,6.937537163954973,-0.29103987861573694
1772871638142803700,3.6888037109375,-6.575031301018595,6.131242408624291,0.5690601166605949
1772871638152736800,3.69873681640625,-7.818760026758909,5.457148969084024,2.031423702280223
1772871638162669600,3.708669677734375,-8.819149951735138,4.852817632555961,2.972406037259102
1772871638172602600,3.7186025390625,-8.436789633771777,4.490034706243873,2.61451439011991
1772871638182535700,3.72853564453125,-6.657525459831953,4.303025695466995,1.2026174015425144
1772871638192468700,3.73846875,-4.505288389477133,3.991812212872505,-0.7299404144465923
1772871638202400800,3.74840087890625,-1.9388550164371727,3.3263603449493644,-2.797754988273978
1772871638212333600,3.75833349609375,0.923349355393648,2.0213333931595088,-4.17706327406615
1772871638222266600,3.7682666015625,3.297160553950071,0.40272798320949077,-4.657106552146375
1772871638232199700,3.77819970703125,5.969242166897654,-2.0848580630868674,-3.7846865890011188
1772871638242132700,3.7881328125,8.341248946380615,-5.867562246099114,-1.3961480691730976
1772871638252065500,3.7980654296875,8.71854847382307,-7.875983550715446,0.18294453781694173
1772871638261998600,3.80799853515625,8.245230704605579,-7.481507263022661,-0.31605931519046426
1772871638271931600,3.817931640625,8.405055355858803,-8.264024252402782,-0.8997269261352717
1772871638281863400,3.827863525390625,10.36844334052801,-9.71658803628087,-0.44926966189295053
1772871638291796700,3.837796630859375,12.703930945909022,-8.666060746216774,-0.7118786880552769
1772871638301729800,3.847729736328125,13.327397191017866,-7.943850633761286,-2.115679171677679
1772871638311662600,3.85766259765625,13.221689914399384,-6.968228070294857,-2.948612196956575
1772871638321595600,3.867595703125,12.048582538849114,-5.8370203928411,-3.078361735680699
1772871638331528700,3.87752880859375,9.833028303837775,-5.288426725625992,-2.584741767668724
1772871638341461800,3.887461669921875,7.447315655085444,-4.709838317641616,-2.175689257612824
1772871638351394600,3.89739453125,4.78806722022593,-4.478377001675963,-1.743087968056649
1772871638361326300,3.907326416015625,2.3025410290688275,-4.769515664491057,-1.1980952479429543
1772871638371259400,3.91725927734375,0.6994412312865257,-5.175957699787617,-0.7470701206848025
1772871638381192700,3.927192626953125,0.4541477893233299,-5.54290826717317,-0.7222728024281561
1772871638391125800,3.937125732421875,1.6831576693594454,-5.715847251543402,-1.159899226669967
1772871638401058600,3.94705859375,3.7119448856562376,-5.770895185026526,-1.9860415688954292
1772871638410991600,3.95699169921875,5.685187324863672,-5.916980649262666,-2.5530805549919604
1772871638420924700,3.966924560546875,7.175878302562237,-6.2365580555766815,-2.6033900617763397
1772871638430857700,3.976857666015625,7.980925688180327,-6.609511078247428,-2.7621815705895423
1772871638440789500,3.98678955078125,7.950275113850831,-6.7841714795827865,-3.0032366443306207
1772871638450722600,3.99672265625,7.2109408481150865,-6.927724210470914,-3.0879525708466766
1772871638460655400,4.0066552734375,6.17514701680243,-7.335145904454588,-2.6715616807267066
1772871638470587400,4.01658740234375,5.582118580055236,-7.987661718437075,-1.9729364419981836
1772871638480520400,4.0265205078125,5.659816736763715,-8.217695631948112,-1.5117144765049217
1772871638490453500,4.03645361328125,5.683988470467924,-8.411507892999053,-1.0211388446249068
1772871638500386600,4.046386474609375,5.018948105955124,-8.38417272682786,-0.6649170303940772
1772871638510319400,4.0563193359375,3.5073066946864127,-7.628482369574904,-0.9449201128192245
1772871638520252400,4.06625244140625,2.292809908649325,-5.770487188747525,-1.8314118559367953
1772871638530185500,4.076185546875,1.2915963923305271,-4.115039364090562,-1.7041186243236064
1772871638540118500,4.086118408203125,-0.2521159814596176,-1.9818997929155826,-0.902688114028424
1772871638550050600,4.096050537109375,-1.0534960767418144,1.6641870114296673,-0.016651859593391417
1772871638559983600,4.105983642578125,-2.270242103010416,5.418986703950166,1.1327277266278861
1772871638569916400,4.11591650390625,-4.229139206001162,8.450329498824477,2.1602136021919547
1772871638579849500,4.125849365234375,-6.806728763827681,11.491333271491527,3.0405694729030133
1772871638589782500,4.135782470703125,-9.89646763356924,15.276327611267567,3.026669542366266
1772871638599715600,4.145715576171875,-14.74384102924466,18.293513870495556,2.833259432375431
1772871638609648400,4.1556484375,-19.81417445452213,20.23310830712318,2.582914259980619
1772871638619581400,4.16558154296875,-23.375215077483652,19.587702617406844,3.973643518975377
1772871638629514500,4.175514404296875,-24.843323636496066,16.535432185316086,7.624646152412891
1772871638639446500,4.185446533203125,-22.88527818189859,14.287849657881258,10.659227783077954
1772871638649379600,4.195379638671875,-17.538318603283166,12.637566668641567,9.761733584430813
1772871638659312400,4.2053125,-11.089935075581073,11.468317137563227,6.398110553535819
1772871638669245400,4.215245361328125,-5.842334865862131,10.556395185112953,2.8096754354313016
1772871638679178500,4.225178466796875,-2.7005051588773727,9.624889411270617,0.31786797204762696
1772871638689111600,4.235111572265625,-1.5814941151738167,8.622244985365867,-0.4608939025826752
1772871638699044400,4.24504443359375,-1.8273188875347375,7.303067343148589,0.006281126096099615
1772871638708977400,4.254977294921875,-3.464865729320049,5.825826798653602,0.8958702507071197
1772871638718909400,4.264909423828125,-6.269446179699897,5.110626272699236,1.1457741090752183
1772871638728842500,4.274842529296875,-7.974438664248585,4.764443768054247,0.40415699309930203
1772871638738775600,4.284775634765625,-7.3504089400380845,3.9846640946835277,-0.43804844904616475
1772871638748708600,4.29470849609375,-5.2024692746162415,2.533385089918971,-0.8236594393685459
1772871638758641400,4.304641357421875,-1.6999673498630523,0.8602215758293866,-0.7147977903723717
1772871638768574500,4.314574462890625,2.2451199367135763,-0.9718179104864597,-0.9114603262878954
1772871638778507500,4.324507568359375,5.268140308922529,-3.004833558133244,-0.9669372988380491
1772871638788440600,4.334440673828125,7.15164460953772,-4.510551424571871,-0.5150260363951326
1772871638798372600,4.34437255859375,8.236625373345612,-5.23253415801227,-0.4925289579048753
1772871638808305400,4.354305419921875,9.070891839185357,-5.577274647155404,-1.2303319224201141
1772871638818238500,4.364238525390625,10.652752449584007,-5.987523673519492,-2.0168968720167872
1772871638828172800,4.3741728515625,12.555678659027814,-6.2107940842449665,-3.077196783554554
1772871638838105600,4.384105712890625,14.031797506016492,-6.133712598130106,-4.305974023878574
1772871638848037400,4.394037353515625,15.030560706573723,-6.188409233957529,-4.7432162711083885
1772871638857970400,4.403970458984375,14.814714308369158,-6.262592660543322,-4.382025290162861
1772871638867903500,4.413903564453125,12.912289618706703,-6.306004516768455,-3.1957433757409452
1772871638877836500,4.42383642578125,10.489508345276116,-6.187970842540264,-1.5326992507360875
1772871638887769300,4.433769287109375,8.066481572651863,-6.113752344641089,0.08858093138113618
1772871638897702400,4.443702392578125,5.849440313953161,-5.989365501993894,1.035075600040704
1772871638907635500,4.453635498046875,4.251602382221818,-5.712057796132564,1.3430601837165652
1772871638917568800,4.46356884765625,3.497026123690605,-5.336675500488281,0.7622770421668886
1772871638927500500,4.47350048828125,3.5251638384163377,-4.695582997795939,-0.5157325772292912
1772871638937433600,4.48343359375,4.172034339988231,-4.349747699153423,-1.6653459722064434
1772871638947366400,4.493366455078125,5.179667660221457,-4.574752386325597,-2.2957661281064152
1772871638957299500,4.503299560546875,6.01266629808247,-5.037084066626429,-2.6710239205881954
1772871638967232500,4.513232421875,6.244104233172536,-5.914831362274289,-2.5397245220735667
1772871638977165600,4.52316552734375,5.899661265671253,-6.523422109812498,-2.0053677622646093
1772871638987098400,4.533098388671875,5.24480619508624,-6.91566610840857,-1.6530277579031885
1772871638997031400,4.543031494140625,5.1436728022545575,-7.242224459651112,-1.5154408035516738
1772871639006963500,4.55296337890625,5.846203816249966,-7.2336881019741295,-1.836861207383871
1772871639016896500,4.562896484375,6.470680699706077,-6.925925052094459,-2.5595307540446517
1772871639026829600,4.57282958984375,6.70281363132298,-6.630595367330312,-3.285713277262449
1772871639036762400,4.582762451171875,6.351867857798934,-6.422916493490338,-3.7813299720495936
1772871639046695400,4.5926953125,5.6879538669675584,-5.549568309584259,-4.491420899905264
1772871639056628500,4.60262841796875,5.900012563326954,-4.5621588622123,-5.769349124628305
1772871639066561500,4.6125615234375,6.629251551505923,-4.639321596869826,-4.272259385803341
1772871639076494300,4.622494384765625,4.797607786509395,-3.4319571469306944,-2.2007827823370696
1772871639086426600,4.632426513671875,2.8085370790511366,-0.4699550147861242,-1.0940864458054302
1772871639096359400,4.642359375,0.26507249366641045,1.7436626992046833,0.38707390248179435
1772871639106292500,4.65229248046875,-3.02772460437715,3.9385447330653665,1.2567287848278879
1772871639116225500,4.6622255859375,-5.556003895589709,6.954018343156576,1.6329416860774157
1772871639126158600,4.67215869140625,-7.543712082523107,10.418031839561461,0.485799503519386
1772871639136091400,4.68209130859375,-9.255922827887535,12.863694806885718,-0.8507172499030828
1772871639146024400,4.6920244140625,-11.70063653166294,13.912885879909991,-0.7255030165210365
1772871639155957500,4.70195751953125,-13.240939389270544,13.445698576271534,-0.0802154002264142
1772871639165889500,4.7118896484375,-14.486594114637374,10.899670862400532,2.536999773284793
1772871639175822600,4.721822509765625,-16.359944685506818,7.380451027080416,8.134791723290085
1772871639185755400,4.73175537109375,-17.02645862970352,5.277077648615837,13.158763794887065
1772871639195688400,4.7416884765625,-15.293041430181264,4.873722473418712,14.379762217903137
1772871639205621500,4.75162158203125,-11.887000814795494,5.559343853667378,11.592600519835948
1772871639215554800,4.761554931640625,-8.5634192869097,6.902863325458765,7.224111295333504
1772871639225487600,4.771487548828125,-6.094772334361076,8.429645022714137,2.856241664034128
1772871639235420700,4.781420654296875,-5.066636324325204,9.626815995419024,-0.2400670856170356
1772871639245352700,4.791352783203125,-5.694670608001947,10.533092635458708,-1.6786643034629523
1772871639255285800,4.80128564453125,-7.934918554764986,10.696130988061427,-1.3812610272951424
1772871639265218800,4.81121875,-11.126526145875454,10.014322444099188,0.34293080937266346
1772871639275151600,4.821151611328125,-13.959514360094069,8.827198818156123,3.033572161361575
1772871639285084700,4.831084716796875,-14.549671040797232,7.289832598522305,5.208993707948923
1772871639295017700,4.841017822265625,-12.631190703868866,5.901298511484265,5.6515515972435475
1772871639304950800,4.85095068359375,-9.28235958391428,4.790307108107209,4.554882149207592
1772871639314883600,4.860883544921875,-5.531781308481097,3.7204403268009423,3.0702462337642906
1772871639324816000,4.87081591796875,-1.4357190320611,2.609986683562398,1.3302641227684915
1772871639334748700,4.880748779296875,2.4215865106880665,1.5512076979815959,-0.4510081761233508
1772871639344681700,4.890681640625,4.737929855138063,0.6280640942931175,-2.281797808508575
1772871639354614800,4.90061474609375,5.019619137084484,0.2370744796723127,-4.117773172968626
1772871639364547800,4.9105478515625,3.9183687909990548,-0.005693243205547332,-5.3868549511522055
1772871639374480600,4.920480712890625,2.7598060736298557,-0.9300923999130726,-5.074506911569833
1772871639384413700,4.93041357421875,2.446071548125148,-2.5640859331309795,-3.1498452556580303
1772871639394346800,4.9403466796875,2.9796739824354646,-4.381407742786407,-1.2555595949180423
1772871639404278800,4.95027880859375,4.352078187927604,-5.602416102674603,-0.5597162419930101
1772871639414211800,4.9602119140625,6.680030721628666,-5.849669446533918,-0.6296374810896813
1772871639424144600,4.97014453125,8.927927721840142,-5.874297107312083,-1.2605302229374646
1772871639434077700,4.98007763671875,11.507898621845245,-5.495411187461018,-2.2906711430549622
1772871639444010800,4.9900107421875,13.777704671525955,-5.259885690796375,-3.3020088707640767
1772871639453943800,4.99994384765625,15.087241794216633,-5.200562564212084,-3.9537840955123302
1772871639463876600,5.009876708984375,15.497092176651954,-5.176894103854894,-3.7192502402335403
1772871639473809700,5.0198095703125,14.834809001892804,-5.405206015878916,-2.8381743846848604
1772871639483741700,5.02974169921875,12.991532082247733,-5.663025761938095,-1.7238222727030514
1772871639493674800,5.0396748046875,11.05722990680933,-5.928454229435324,-0.45240153017789125
1772871639503607800,5.04960791015625,9.236451819220184,-6.387394513732194,0.748169606359303
1772871639513540900,5.059540771484375,7.5184092989623545,-7.172244914495945,1.7055642930872736
1772871639523473700,5.0694736328125,5.90561579016149,-7.851835197886824,2.507635147112608
1772871639533406700,5.07940673828125,4.301352793818712,-7.981963799056411,2.911177953836322
1772871639543339800,5.08933984375,3.3213936624526976,-7.665149427714943,2.0795098339267075
1772871639553272800,5.09927294921875,3.221936093878746,-6.730066964429617,0.4233011078998446
1772871639563204900,5.109204833984375,3.1800451636105773,-5.683559431400894,-1.639977137672156
1772871639573137700,5.1191376953125,3.0226947935163975,-4.912732879814505,-3.6218037192210555
1772871639583070700,5.12907080078125,3.1746137862116095,-4.410112443745136,-5.405567834928632
1772871639593003800,5.139003662109375,4.025458461886644,-4.269969813561439,-6.549825548091531
1772871639602936800,5.148936767578125,5.268894342160225,-4.335865888795256,-7.064876426666975
1772871639612869600,5.15886962890625,5.643953397199511,-4.9092771864026785,-6.70743661494851
1772871639622802700,5.168802734375,5.115962957552075,-6.085362116459011,-5.092079393139481
1772871639632735700,5.17873583984375,3.7631723840683695,-7.680268086391687,-2.490095106507838
1772871639642667800,5.188667724609375,1.935190064188838,-8.779937885287403,0.3221281137101352
1772871639652600800,5.198600830078125,-0.18560908085107802,-8.419220659333467,1.9660892064519226
1772871639662534000,5.208533935546875,-0.8262918336987495,-6.350940806081891,1.3151996784970164
1772871639672466700,5.218466796875,0.7628571801424026,-4.643516125950217,0.47749315520599483
1772871639682399700,5.228399658203125,2.462249360466003,-2.5599299824953077,-0.3988458810791373
1772871639692332800,5.238332763671875,4.264655340540409,0.8053092514246701,-2.058858529433608
1772871639702265900,5.248265869140625,5.422444150927663,3.7598172284215687,-3.1210452776312825
1772871639712198000,5.258197998046875,5.4897477548718445,6.370455653890967,-2.9684304116263984
1772871639722130700,5.268130615234375,3.2394653208285566,8.54497352963686,-1.054514460004121
1772871639732063700,5.278063720703125,-1.870102967250347,9.420651617795228,1.9559617801912128
1772871639741996800,5.287996826171875,-8.874434616583585,10.218253948104381,5.682030322137475
1772871639751929900,5.297929931640625,-17.107379840111733,11.214148315227032,8.955559240609407
1772871639761862700,5.307862548828125,-23.541322170007227,11.635613147610425,9.974617041176558
1772871639771795700,5.317795654296875,-25.49882752637863,11.995939328420162,7.688495816510915
1772871639781728800,5.327728759765625,-22.74626718609333,12.05830781404972,4.111263352683186
1772871639791660800,5.337660888671875,-17.04539129371047,11.997626258593797,0.9701492466218768
1772871639801593900,5.34759375,-10.089389083260297,12.258802329343556,-1.4677213132604956
1772871639811526700,5.357526611328125,-3.7439953899115324,12.109683781021833,-3.464922427943349
1772871639821459700,5.367459716796875,0.0470867453455925,11.509345898044108,-3.912196824365854
1772871639831392800,5.377392822265625,0.4384142136186361,10.447935979437828,-2.136306949164718
1772871639841325800,5.387325927734375,-2.083357010874152,9.536175939550995,0.6881443228550255
1772871639851259000,5.3972587890625,-6.651191580635309,9.874693024134636,4.035361431741714
1772871639861191700,5.407191650390625,-11.996643092775344,10.59177980222702,6.369164445036649
1772871639871123700,5.417123779296875,-16.24401645912528,11.222614530277252,6.999493561652303
1772871639881056800,5.427056884765625,-17.77337122173905,11.580692639899253,6.034108314561844
1772871639890989800,5.43698974609375,-16.989195359236,11.679135478472709,3.974594536089897
1772871639900923000,5.4469228515625,-14.331389524400233,10.93344687527418,1.186715483533591
1772871639910855700,5.456855712890625,-10.541391677248477,9.329905763465165,-0.9492356379307806
1772871639920788700,5.466788818359375,-6.388551282551885,7.134653727248311,-2.1757152688369152
1772871639930721800,5.4767216796875,-2.231093749448657,4.41523402454257,-3.2684593601226806
1772871639940654800,5.48665478515625,1.5907675549536942,1.4536983408659696,-3.8134775069385767
1772871639950587000,5.4965869140625,4.767510169887543,-1.3309288702875375,-3.6320384052485224
1772871639960519700,5.506519775390625,7.431106863084435,-4.0021389610975975,-3.0651787212416526
1772871639970452700,5.51645263671875,10.101251370489596,-6.435645626682042,-2.079283039433509
1772871639980385800,5.5263857421875,12.80656948260665,-8.427993163853884,-1.1184758408483118
1772871639990318800,5.53631884765625,14.533863230812548,-9.135371033358574,-0.5972950081504881
1772871640000251600,5.546251708984375,15.41994463956356,-9.099672527989744,-0.5407226415790617
1772871640010184700,5.556184814453125,15.373015715128183,-8.488690501400828,-0.759282098134607
1772871640020117800,5.56611767578125,14.808462262237072,-7.592211032754182,-1.0853524466644973
1772871640030049800,5.5760498046875,13.998518336749076,-6.55920595537722,-0.5805958022840321
1772871640039982800,5.58598291015625,12.697315327161549,-5.433946957194805,0.24062545015215872
1772871640049916000,5.595916015625,11.613003840917349,-4.650357954668999,0.8702125162288546
1772871640059848700,5.6058486328125,10.376523771131039,-4.2310599449306725,1.2937933178529142
1772871640069781800,5.61578173828125,8.80025411260724,-4.275331048333644,1.6770289573460817
1772871640079714800,5.62571484375,6.811200356283783,-4.77484358151555,2.268464279682934
1772871640089647900,5.63564794921875,5.02440052614212,-5.520957716649771,2.5221923725143074
1772871640099580000,5.645579833984375,4.0495992159307,-6.072484514707327,2.229066043013334
1772871640109512700,5.6555126953125,3.7322821557641026,-6.4497331887453795,1.348584061704576
1772871640119445800,5.66544580078125,3.984320395812392,-6.884625657978654,-0.021637977442890404
1772871640129378800,5.67537890625,4.315488871198892,-7.07547673113644,-1.5582362814441322
1772871640139311900,5.685311767578125,4.384028154417872,-7.026629990381002,-2.9009540814638135
1772871640149244700,5.69524462890625,4.275129972803592,-6.812598532643914,-3.893803966324031
1772871640159177700,5.705177734375,3.818829389360547,-6.544851266810298,-4.522491453212499
1772871640169110800,5.71511083984375,3.532554533189535,-6.17975421833694,-4.803454758971929
1772871640179042600,5.72504248046875,3.631149347454309,-5.83694615856111,-5.094852949506044
1772871640188975900,5.734975830078125,4.031277961820364,-5.625239928901196,-5.374260257995128
1772871640198909000,5.744908935546875,4.876090371593833,-5.620306564152241,-5.452029141852259
1772871640208841700,5.754841796875,5.996491992872953,-5.929717381238937,-5.071561505767702
1772871640218775300,5.764775390625,7.134890458613634,-6.3575856509238475,-4.375461986124515
1772871640228708400,5.774708251953125,7.637448935362696,-6.512886102750897,-3.6377561983734368
1772871640238641200,5.78464111328125,7.151856206461787,-6.304512232384085,-2.9681372738987206
1772871640248573200,5.7945732421875,5.780661961281299,-5.647185218727588,-2.225433531729877
1772871640258506200,5.80450634765625,3.993482776433229,-4.794472995615005,-0.9834469734817742
1772871640268439300,5.814439208984375,2.788107454484701,-4.33634402770102,0.4202193623669445
1772871640278372400,5.824372314453125,2.6027579013526436,-3.1994805164426565,-0.03983545904308557
1772871640288305400,5.834305419921875,4.150958818733692,-1.2409364646732806,-1.3964835847377777
1772871640298238200,5.84423828125,5.51937366232872,0.598047726213932,-1.787729219946265
1772871640308171300,5.854171142578125,5.521828069743513,1.8493565318197012,-0.9443301841020584
1772871640318104300,5.864104248046875,5.4598845315277575,3.277423587822914,0.779013072912395
1772871640328036400,5.874036376953125,5.749113561329246,5.065018952256441,1.2848150616273284
1772871640337969400,5.883969482421875,5.111948461213708,6.7946811831593505,1.1614599001154302
1772871640347902200,5.893902099609375,1.3735399315237997,8.094485431864857,2.4987547983035445
1772871640357835300,5.903835205078125,-6.617779140377044,10.242249740719794,6.029055707347393
1772871640367768300,5.913768310546875,-18.130239371049402,13.666638498222827,10.723195520597695
1772871640377701400,5.923701416015625,-28.905977564311026,16.97778899908066,12.76542381774783
1772871640387634200,5.93363427734375,-36.42541679084301,18.877085327589512,11.878934412717818
1772871640397567200,5.943567138671875,-36.70578622236252,18.463024049460888,9.513043485766648
1772871640407499300,5.953499267578125,-27.584008830070495,15.71867974885702,6.244806243962049
1772871640417432300,5.963432373046875,-15.392813471531866,11.587627407598495,3.567776653218269
1772871640427365400,5.973365478515625,-5.6384150522947305,7.950327720820903,2.0857498973600563
1772871640437298200,5.983298095703125,0.6207043791800737,5.54033695538044,1.711072388984263
1772871640447231200,5.993231201171875,2.9108967988073826,3.980024159923196,2.06868375787735
1772871640457164300,6.003164306640625,1.7067290990829467,3.2510733410358426,3.4972505800962446
1772871640467097300,6.013097412109375,-1.935752958768606,2.600496970683336,6.169125856816768
1772871640477029400,6.023029296875,-6.533885636159777,2.8224060299277305,8.607278886902332
1772871640486962400,6.03296240234375,-12.500879731869697,4.836293198734522,7.741958526629209
1772871640496895200,6.042895263671875,-15.817866099274157,6.88739395364821,4.835135260871052
1772871640506828300,6.052828369140625,-15.004742374706268,8.190178679469227,1.7811254377670585
1772871640516761300,6.06276123046875,-12.742350400674342,8.442828913936019,-0.6853872792318463
1772871640526694400,6.0726943359375,-8.987396978896856,8.14619632987976,-2.051916309080273
1772871640536627200,6.082627197265625,-5.320751955169439,7.011525360229611,-2.899582500849664
1772871640546560300,6.092560302734375,-2.568665077614784,5.729842459148168,-3.473230822083354
1772871640556492300,6.1024921875,-0.3596417056769132,4.425522778844833,-3.779354288062453
1772871640566425300,6.11242529296875,1.468481483978033,2.9735587144255637,-4.485318199115992
1772871640576358400,6.1223583984375,2.957987051284313,1.289548812150955,-4.905458504897355
1772871640586291200,6.132291259765625,4.450768279260397,-0.78171736343503,-4.804543723252415
1772871640596224300,6.142224365234375,6.3690019479513165,-3.1522675143688916,-3.965252707248926
1772871640606157300,6.1521572265625,8.804729212194681,-5.420499446600675,-2.4236263459526
1772871640616090400,6.16209033203125,11.740578081429003,-7.305625795459747,-0.5567278738319873
1772871640626023200,6.172023193359375,14.499985511130093,-8.73093273909986,0.7913634359195828
1772871640635955500,6.18195556640625,17.1745764765501,-9.627686348512768,1.1708750864535569
1772871640645888300,6.19188818359375,19.20555155827999,-9.928985755336283,1.1786444052807985
1772871640655821300,6.2018212890625,19.32222563459277,-9.100512485945224,1.32244774992913
1772871640665754400,6.21175439453125,17.58817948951721,-7.295578448697924,1.5364688324026763
1772871640675687400,6.2216875,14.995310529494285,-5.340829113036394,1.773697187462449
1772871640685620200,6.2316201171875,12.620857525902986,-3.8621132352918384,1.7370481033705174
1772871640695553300,6.24155322265625,10.221695612990855,-2.9888690962821243,1.2395422338359057
1772871640705485300,6.2514853515625,7.784635638839006,-2.6370506315767765,0.26112521734535693
1772871640715418400,6.26141845703125,5.719021205404401,-2.773029127818346,-0.5964120878361165
1772871640725351400,6.271351318359375,3.7982980579853054,-3.5872242810100317,-1.1324006866306067
1772871640735284200,6.2812841796875,2.466809800249338,-4.456548616227507,-1.119120933818817
1772871640745217300,6.29121728515625,2.068636996126175,-5.213116925358772,-1.2138196174278855
1772871640755150300,6.301150390625,2.517599491766095,-5.946770222848653,-1.5926019307740031
1772871640765083400,6.31108349609375,3.4858746150791644,-6.544077359828353,-1.8853730170965193
1772871640775016200,6.32101611328125,4.514221637517213,-6.911261151447892,-1.9706056609630584
1772871640784948200,6.3309482421875,5.352531825789809,-7.249337506526708,-1.7242967583470046
1772871640794881300,6.34088134765625,5.9911728436768055,-7.681056021898985,-1.5832377439707517
1772871640804814300,6.350814453125,6.358972721368074,-7.898051005616783,-1.797861906903982
1772871640814747400,6.360747314453125,6.524956479772925,-7.7758958675444125,-2.3029770823985336
1772871640824680400,6.370680419921875,6.391773751729726,-7.393281867080926,-2.933296262142062
1772871640834613200,6.38061328125,5.973662905949354,-6.615352205491066,-3.496205454957485
1772871640844546300,6.39054638671875,5.32975943748951,-5.852811836212873,-4.280347415190935
1772871640854478000,6.40047802734375,4.898623105919361,-5.3660816277146335,-4.903111357249319
1772871640864411400,6.410411376953125,4.570038801807165,-4.9592210747450585,-5.104579393750429
1772871640874344400,6.420344482421875,4.0548587438941,-4.774875730219483,-4.750746666613221
1772871640884277200,6.43027734375,3.4151240855515,-4.199840046280622,-4.117852667945623
1772871640894210300,6.440210205078125,3.381279683616757,-2.6736995695382353,-4.400907393026352
1772871640904143400,6.450143310546875,4.158101676225662,-1.6203110448241234,-4.868363576734065
1772871640914076400,6.460076416015625,4.565952409276366,-1.1052204187601804,-3.2508886321187016
1772871640924009200,6.47000927734375,4.098998329871892,-0.04411562058031559,-0.8525072020597756
1772871640933941200,6.479941162109375,2.040536690801382,1.195605038562417,1.9665416263945399
1772871640943874000,6.4898740234375,-0.5606020849168301,3.8013171135455366,4.174995235620439
1772871640953807400,6.499807373046875,-3.336311245599389,7.349563721385597,5.556016170549392
1772871640963740400,6.509740478515625,-6.128870418795943,11.251641887319087,4.75543044051528
1772871640973673200,6.519673095703125,-10.838709905481338,13.601272584342956,3.640493806643784
1772871640983606300,6.529606201171875,-16.658055525422096,15.816027193409203,3.6307089102104304
1772871640993539300,6.539539306640625,-22.4005458692193,16.20873004168868,4.3013332123354076
1772871641003471000,6.54947119140625,-26.124782665693758,14.154155473184584,5.42556374425292
1772871641013404200,6.559404052734375,-24.454445899462698,12.015298693406582,7.631246573591232
1772871641023337200,6.569337158203125,-17.32582619168162,9.460306751835345,8.533705116647482
1772871641033270000,6.57927001953125,-8.645657425135374,7.163445521968603,7.972994895181059
1772871641043203300,6.589203369140625,-1.5845505801349877,5.360168604278564,7.634392470401525
1772871641053136400,6.599136474609375,2.3987346274107693,3.5315970863342283,7.579077410414815
1772871641063069400,6.6090693359375,3.7877182117819785,2.796425785496831,7.328980952084064
1772871641073002200,6.619002197265625,2.815724360206723,2.719311566156149,6.396958460891247
1772871641082934000,6.62893408203125,-1.1198182684332132,2.914968578290939,5.333197595244646
1772871641092867000,6.6388671875,-7.126157701581716,3.845807997179031,4.899216980159283
1772871641102800100,6.648800048828125,-13.327517602527141,5.251288542842865,3.2553263223052022
1772871641112733200,6.658733154296875,-16.773054361999034,6.964476024284958,0.6672688542172313
1772871641122666200,6.668666259765625,-16.131037730199097,8.516169459956885,-2.0302080428801474
1772871641132599300,6.678599365234375,-13.388104465436935,9.286339593461156,-4.460144594892859
1772871641142532400,6.688532470703125,-10.205139614987372,9.54092401086092,-6.426126103186607
1772871641152464100,6.698464111328125,-7.77964791355431,9.46889747004807,-8.169925580513477
1772871641162397200,6.708397216796875,-6.998046285453438,9.065088705864548,-8.805038424274326
1772871641172330200,6.718330322265625,-7.305513567256927,8.397257833850384,-7.525207288539409
1772871641182263000,6.728262939453125,-7.343054485622048,7.389025378680229,-5.070865924718976
1772871641192196000,6.738196044921875,-6.840941414552927,6.3033046101599925,-2.4148338215574623
1772871641202129200,6.748129150390625,-5.453127458482981,5.039242121443152,0.14248977783173322
1772871641212062200,6.758062255859375,-3.5977988665163516,3.2292250818431376,1.7378094431318343
1772871641221994800,6.767994873046875,-0.9804419464468955,1.3543325422286987,1.3358541978605092
1772871641231927000,6.777927001953125,2.2434125482738017,-0.31940029618144034,0.40952261178568006
1772871641241859800,6.78785986328125,5.264542576691508,-2.3209628209441897,-0.265085499278456
1772871641251793000,6.79779296875,7.953191293558478,-4.247341217646002,-0.4684637533150613
1772871641261726000,6.807725830078125,10.260077658355236,-5.8722834294021125,-0.26436785252839323
1772871641271659000,6.817658935546875,12.399013933110236,-7.292416185274719,0.38432898768782614
1772871641281591800,6.827591796875,14.33288590043783,-8.404585984781384,1.3317198745347558
1772871641291524900,6.83752490234375,15.201486597555874,-9.182473560795188,2.061841052375734
1772871641301457000,6.847456787109375,15.528015722703932,-9.18539617024362,1.4797770772352814
1772871641311390000,6.857389892578125,16.103215657293795,-7.629991605094075,0.0649199236780405
1772871641321323000,6.867322998046875,16.11178825532794,-5.699436799490451,-1.2530506808370352
1772871641331255800,6.877255859375,14.774946946126223,-4.303654641020298,-1.766148233387619
1772871641341188900,6.88718896484375,12.216128724265097,-3.5798201422333715,-1.92610790919736
1772871641351122000,6.897121826171875,9.568474281087518,-3.486224159169197,-1.9929338126271963
1772871641361055000,6.907054931640625,7.654998036056757,-3.6126913152217863,-2.2398184693045913
1772871641370987800,6.91698779296875,6.458316892695427,-3.740709207847714,-2.6915736644029615
1772871641380919800,6.926919921875,6.029554889041185,-4.0476141795933245,-2.7126173292145133
1772871641390852900,6.936852783203125,5.985574293017387,-4.651634550476074,-2.380989858014136
1772871641400786000,6.946785888671875,6.027500879120827,-5.06914216966629,-1.8718864896662533
1772871641410719000,6.956718994140625,5.653592747682333,-5.5876423119127745,-1.440133341372013
1772871641420652000,6.966652099609375,5.2131712858945125,-5.820307158449292,-1.559086614663154
1772871641430584800,6.976584716796875,5.003828862756491,-5.76730797418952,-1.7954025310531259
1772871641440518000,6.986517822265625,5.344086653527617,-5.865805173298716,-2.059716899828613
1772871641450450000,6.996449951171875,6.212829389464855,-6.027955052629113,-2.3897917347595095
1772871641460383000,7.006383056640625,7.355790633076429,-6.185623987153172,-2.979242605280876
1772871641470316000,7.01631591796875,8.527322722133993,-6.379198932316899,-3.5861429155141114
1772871641480248800,7.026248779296875,9.146376411497592,-6.486933330848813,-3.811932615584135
1772871641490182000,7.036181884765625,8.870241256546974,-6.508174856320023,-3.5362069182172418
1772871641500115000,7.046114990234375,7.773738981771468,-6.833126941409707,-2.580200617107749
1772871641510048000,7.056048095703125,6.2897477939724915,-7.377890236681699,-1.3629250140070914
1772871641519980000,7.06597998046875,4.383689716243744,-7.462451849418878,-0.6232983411960303
1772871641529912800,7.075912841796875,2.6656594709455965,-6.501735178661346,-0.3873902749545872
1772871641539846000,7.085845947265625,3.1427567587018013,-3.5230291644752025,-2.133884398192912
1772871641549779000,7.095779052734375,5.016270995700359,-1.271661857804656,-4.499633140194415
1772871641559712000,7.1057119140625,4.863723641973734,-0.7096767940968275,-4.65873795274049
1772871641569644800,7.115644775390625,2.730622064721584,0.13160627250671386,-2.4420734183996915
1772871641579577900,7.125577880859375,0.09595043723583221,1.4029273540496825,0.24649697253406047
1772871641589510000,7.135510009765625,-3.109470575171709,2.57935949010849,2.8695284311085936
1772871641599443000,7.14544287109375,-7.367488669654726,4.380045806783437,5.929453177344799
1772871641609376000,7.1553759765625,-9.607842414879798,8.273889812856913,6.562718347412347
1772871641619309000,7.16530908203125,-10.203597646242379,11.233007329475878,5.250280242583155
1772871641629241900,7.175241943359375,-13.647860147994756,12.894859175956249,4.986013804602623
1772871641639175000,7.1851748046875,-19.62618286244869,13.340114049249888,6.410442211842536
1772871641649108000,7.19510791015625,-25.453347047185897,13.020858714497088,6.926881914427876
1772871641659040000,7.2050400390625,-26.67255215704441,12.651321637749671,5.645453864890337
1772871641668973000,7.21497314453125,-22.082156795907018,11.911758823955058,2.4646719114378093
1772871641678905900,7.22490576171875,-15.293936917716264,10.423706378066539,-0.3386877649754286
1772871641688839000,7.2348388671875,-9.242805572161078,8.400206162261963,-0.45559711134880776
1772871641698772000,7.24477197265625,-5.155294266465306,6.244684078887104,1.5902449923843145
1772871641708705000,7.254705078125,-3.5331928310930727,4.28589511244595,4.4348239834144705
1772871641718637800,7.264637939453125,-4.156779487711191,2.321253328323364,7.536087578994035
1772871641728571000,7.27457080078125,-5.916951423168182,0.30508593962490554,11.078744988524914
1772871641738503000,7.2845029296875,-8.712898485237359,0.7743623244971036,12.606557782393693
1772871641748436000,7.29443603515625,-11.921090131402014,4.943613171246647,9.251984319394825
1772871641758369000,7.304369140625,-12.92439623608589,8.098867592471837,3.813989255852997
1772871641768302000,7.314302001953125,-12.316971609717607,8.723709802109003,-0.8774655560970306
1772871641778235000,7.32423486328125,-11.454905867326259,8.521554075604676,-3.4995953896567222
1772871641788168000,7.33416796875,-11.109254693078993,7.543308762419223,-3.585113864727318
1772871641798101000,7.34410107421875,-10.719620584720372,6.696520084136724,-2.083421892803907
1772871641808033000,7.354032958984375,-9.852520939815044,5.506203799632192,-0.17437895404547452
1772871641817966000,7.363966064453125,-8.876391011348366,4.272368106874823,1.491449102589488
1772871641827899000,7.37389892578125,-7.786770312780141,4.150867048797011,0.7786682049974799
1772871641837832000,7.38383203125,-5.331528200727701,3.845825532835722,-2.253506949047744
1772871641847765000,7.393764892578125,-0.521364299505949,2.537624042662978,-5.360951279088854
1772871641857698000,7.403697998046875,5.4775762555629015,0.19725860211253166,-7.075472639483213
1772871641867630800,7.413630859375,11.111535497492552,-2.1491402733832596,-6.9306690317511555
1772871641877564000,7.42356396484375,15.125565387392044,-5.070328164580464,-5.513782125931978
1772871641887496000,7.433495849609375,18.21690993876457,-6.781932760745287,-3.876468800641596
1772871641897429000,7.443428955078125,19.238714992213247,-7.075763731384277,-3.0165801100283858
1772871641907362000,7.453362060546875,18.301389718437193,-7.745512419718503,-1.8628601565152405
1772871641917295000,7.463295166015625,17.979449090123175,-6.619571284490823,-1.535755861827731
1772871641927228000,7.473227783203125,17.02142355814576,-4.74511713629365,-2.7747563900023695
1772871641937161000,7.483160888671875,15.221707547807693,-3.639031040614843,-3.7352500656589864
1772871641947094000,7.493093994140625,12.747424050676821,-2.732578459486365,-3.49051659566611
1772871641957026000,7.503026123046875,10.227118807083368,-2.6586376094847917,-2.449690323144197
1772871641966959000,7.512958984375,8.08741096343398,-3.2364006725609302,-0.9268854205653071
1772871641976892000,7.522891845703125,6.449016564908623,-3.7587136510938404,0.5391188596442341
1772871641986825000,7.532824951171875,5.158761065793037,-4.232720571619272,1.888514237731695
1772871641996758000,7.542758056640625,4.303422585830092,-4.5870460507094855,2.792536669103801
1772871642006691000,7.552691162109375,4.005131128650904,-4.613989587214589,2.7869576999276875
1772871642016623900,7.562623779296875,4.360923173162341,-4.438702578413486,2.1575646951183676
1772871642026556000,7.572555908203125,5.2467742802888155,-4.556479063010215,1.142310378487408
1772871642036489000,7.582489013671875,6.242699042549729,-5.06668074798882,0.23351824849545955
1772871642046422000,7.592422119140625,6.9157228070318695,-5.657784938675165,-0.5308797313481569
1772871642056355000,7.60235498046875,6.8823425154775375,-6.362022756588459,-1.1791031088337303
1772871642066287900,7.612287841796875,6.228063198953866,-6.890968889525532,-1.6275994482666254
1772871642076221000,7.622220947265625,5.396144173023105,-7.124395952606201,-2.0912842967420815
1772871642086154000,7.632154052734375,4.910028881552815,-7.133971590203046,-2.748097515657544
1772871642096086000,7.6420859375,5.22076831689477,-7.269390698996186,-3.752684600062668
1772871642106019000,7.65201904296875,5.905533372575044,-7.393702138319611,-4.813766017366945
1772871642115952000,7.6619521484375,6.105757254233956,-7.787638912308216,-5.183454193022847
1772871642125885000,7.671885009765625,5.450795216143131,-8.433981590613723,-4.845187576068938
1772871642135818000,7.68181787109375,4.145875816380977,-8.647440216898918,-4.232516281218826
1772871642145751000,7.6917509765625,2.726130013999343,-8.59808611114323,-4.038629493626952
1772871642155684000,7.70168408203125,1.3611492365062237,-8.427968029412627,-3.8536046424046155
1772871642165616000,7.7116162109375,0.11829787812232971,-7.872692692476511,-3.884930047255754
1772871642175549000,7.721548828125,-1.1891045706272125,-6.186876033040881,-4.250269672313332
1772871642185482000,7.73148193359375,-0.5361573794901371,-3.6387270892322063,-5.83166967946291
1772871642195415000,7.7414150390625,0.9109469699382782,-2.420262568607926,-5.711798268413544
1772871642205348000,7.75134814453125,-0.3279273015081882,-0.6704612205177545,-4.127084898932278
1772871642215281000,7.761281005859375,-2.707780118316412,2.2566215739369393,-1.9198565937176346
1772871642225214000,7.7712138671875,-5.110194311022759,5.47545151849389,0.6866866713926195
1772871642235146000,7.78114599609375,-7.744102552920579,8.383752455589175,3.625825229822099
1772871642245079000,7.7910791015625,-11.379753887969255,10.79336737345457,6.22108108498156
1772871642255012000,7.80101220703125,-8.498245680731534,17.36870671750903,6.395051165965199
1772871642264945200,7.810945068359375,-4.872512513107061,23.286589868569372,7.267502108770609
1772871642274878000,7.8208779296875,-11.191999611783027,21.34098070169687,6.407807187163829
1772871642284811000,7.83081103515625,-17.979051615238188,21.285745721209047,5.387478051486611
1772871642294744000,7.840744140625,-29.631911665725706,12.90026600343585,7.992178903600573
1772871642304677000,7.850677001953125,-33.525905309402944,6.392274686989188,11.791065575128792
1772871642314609200,7.860609130859375,-26.39925777847767,3.5311832448363303,13.4159569334805
1772871642324542000,7.8705419921875,-14.71418823378086,2.4247943668186664,12.308286783480643
1772871642334475000,7.88047509765625,-2.217714627915621,3.6674195152312516,9.062489337021113
1772871642344408000,7.890407958984375,8.242305757069587,4.147267563000321,6.28982611990571
1772871642354341000,7.900341064453125,13.49490362894535,3.665242171192169,6.81784695469141
1772871642364274000,7.91027392578125,10.319895290458202,3.6619828771352765,7.1834782561719415
1772871642374207000,7.92020703125,4.676887065154314,6.180341078314185,4.152960221683979
1772871642384139000,7.930138916015625,-1.8023650635421276,8.403057460039854,0.2051142840489745
1772871642394072000,7.940072021484375,-10.460341872024536,7.873014764037728,-2.8770991586238144
1772871642404005000,7.950005126953125,-20.364303076219556,5.767480992668867,-2.6478660401016474
1772871642413938000,7.95993798828125,-25.544219158244132,5.255070399469137,0.7389353295460342
1772871642423871000,7.96987109375,-22.251974433386323,6.3551253982901565,2.5274627141326667
1772871642433804000,7.979803955078125,-12.640797905647753,6.668654756611585,0.7118424476981162
1772871642443737000,7.989737060546875,-1.929164228028059,5.567708946430683,-2.1287173708185554
1772871642453669000,7.999669189453125,6.616501375526189,3.8123283369034526,-3.6591868166759607
1772871642463602200,8.009602294921875,12.457868273138999,1.4758061277776955,-3.9301723337784407
1772871642473535000,8.019534912109375,16.150369038134812,-1.057109591063857,-3.523165358075499
1772871642483467000,8.029467041015625,17.100677712124586,-2.9782588549405333,-3.6096190681695934
1772871642493400000,8.039400146484375,15.75301456465721,-4.739360180202127,-3.7287910987779496
1772871642503333000,8.0493330078125,14.001832575863599,-5.272717699840665,-3.636433717598021
1772871642513266200,8.05926611328125,12.112460259997844,-5.19698821285665,-3.0339333958894015
1772871642523199000,8.069198974609375,9.88274072151184,-5.199760015657544,-2.221626248401403
1772871642533132000,8.079132080078125,7.948516872006654,-4.715677691319584,-1.8126456345379351
1772871642543064000,8.08906396484375,7.158570609408617,-3.968726520839333,-2.04178932121098
1772871642552997000,8.0989970703125,7.511911753636598,-3.6776597542166707,-2.452889411446452
1772871642562930200,8.10893017578125,8.348748362225294,-3.7453766151368617,-2.8845979899466037
1772871642572863000,8.118863037109374,8.994889965000748,-3.7933635241925714,-2.857304617090523
1772871642582796000,8.128796142578125,9.07994900586605,-4.268975541827082,-2.3282617457807064
1772871642592729000,8.13872900390625,8.424366790050268,-5.123552389767766,-1.5975310577392576
1772871642602662100,8.148662109375,7.335267485007643,-5.9351943513453005,-1.1122554319635034
1772871642612595200,8.15859521484375,6.129176123744249,-6.492371722510456,-0.9079106709823012
1772871642622527200,8.16852734375,4.902134913432598,-6.674314097547531,-0.9243903888791799
1772871642632460000,8.1784599609375,4.019078989982605,-6.827180015704036,-1.0851230948880315
1772871642642393000,8.18839306640625,3.960362012597918,-7.163451367187499,-1.2932535118877886
1772871642652326100,8.198326171875,4.451109055522084,-7.500498379218578,-1.726629731339216
1772871642662259200,8.20825927734375,5.138900181025266,-7.560466233447194,-2.686971723565459
1772871642672192000,8.21819189453125,5.844111812406778,-7.543690455213189,-3.7456992712199684
1772871642682124000,8.2281240234375,6.097780284005403,-7.591513698139786,-4.551434054580331
1772871642692057000,8.23805712890625,5.53108514291048,-7.612578698000312,-4.788083879099786
1772871642701990100,8.247990234375,4.472849178165197,-7.475523512437939,-4.700519577415287
1772871642711923200,8.257923095703125,3.774751762703061,-7.372188810169696,-4.78916729042232
1772871642721856000,8.26785595703125,3.1166251231014725,-7.241176411902904,-4.77557072674632
1772871642731789000,8.2777890625,2.710871654590964,-7.138465979012847,-4.584578491552174
1772871642741722000,8.28772216796875,2.0679583662122485,-7.2053913972944015,-4.276678955811262
1772871642751654100,8.297654052734375,0.7510223654419184,-6.598504531064629,-3.8247862519383427
1772871642761587200,8.307587158203125,0.7628069112598895,-4.327874305519462,-3.986754052700102
1772871642771520300,8.317520263671875,1.4447253453373907,-1.686334545829892,-3.650710080231726
1772871642781453000,8.327453125,1.0153864185780286,0.7754121258109807,-1.9367840553820133
1772871642791386000,8.33738623046875,-0.15652444066405297,3.615246844923496,0.22003800467550752
1772871642801319200,8.347319091796875,-1.8362527200967071,5.498223322272301,2.184563468942046
1772871642811252200,8.357252197265625,-3.3879239439368245,7.886870855432749,2.6041201296165584
1772871642821184300,8.367184326171875,-4.612821712478995,11.62836858330965,0.9887897958144545
1772871642831117000,8.377116943359376,-5.618247878056764,13.216945934742688,-0.6593506284385919
1772871642841050000,8.387050048828126,-9.660756843465567,12.268137143921852,1.2459931635409593
1772871642850983200,8.396983154296874,-17.59537963015437,9.067163174051046,7.283771691048145
1772871642860916200,8.406916259765625,-24.802236423826216,5.784238066202402,13.043204986339807
1772871642870849000,8.41684912109375,-27.282657400798797,4.450881676506996,15.678292793411016
1772871642880782000,8.426781982421875,-24.446821395933625,5.247710684356093,14.994362434989213
1772871642890715100,8.436715087890626,-16.3841181727767,7.037777407339215,11.045961493819952
1772871642900647200,8.446647216796874,-8.039793472212553,8.476811847558617,6.373427947700023
1772871642910580200,8.456580322265625,-2.204589773404598,9.495177574208379,2.4336434437066314
1772871642920513300,8.46651318359375,0.010886135673522949,9.906095878136158,0.09757584648057818
1772871642930446000,8.476446044921875,-0.3738262983739376,9.230999399033188,0.019047522558271884
1772871642940379100,8.486379150390626,-3.39072964900732,7.555684259867668,2.02267428637445
1772871642950312200,8.496312255859374,-9.306764541852473,6.23232728613913,4.363018684136867
1772871642960245200,8.506245361328125,-14.540490539997815,6.280400704434514,5.234989734470844
1772871642970177300,8.51617724609375,-16.566825686967373,6.85854195317328,5.016173380544782
1772871642980110000,8.526110107421875,-15.82231664894223,7.296211485904455,3.963284914307296
1772871642990043100,8.536043212890625,-13.17791039390564,7.7983286486268035,2.531273504592478
1772871642999976200,8.54597607421875,-10.251375296461582,7.925737469443678,0.7424637959331274
1772871643009909200,8.5559091796875,-7.75394765510857,7.75158092597723,-1.0417885416828094
1772871643019842000,8.565842041015625,-5.211327703854441,7.2650219823926685,-2.4280060223415494
1772871643029775000,8.575775146484375,-2.721780586618185,5.929216445979476,-3.285653071507811
1772871643039707100,8.58570703125,-0.21069091513752936,3.91229736213088,-3.343793125787377
1772871643049640200,8.59564013671875,2.152246422705054,2.127048268562555,-2.96343830242753
1772871643059573200,8.6055732421875,4.715449727782607,1.0844137775748968,-3.53778541958034
1772871643069506000,8.615506103515624,6.992624260404706,-0.5997632979601621,-4.763521977034211
1772871643079439000,8.625439208984375,10.00482396339178,-3.4240029730558392,-4.19963838622868
1772871643089372200,8.6353720703125,14.090913711851835,-5.1181800490796565,-2.665531460651755
1772871643099305200,8.64530517578125,16.958604990661144,-6.807351864162087,-1.7446730452910064
1772871643109237200,8.6552373046875,18.021825758081672,-6.908419790542125,-1.6652932191058993
1772871643119170300,8.66517041015625,17.353571107697487,-6.096978319972753,-2.0872364826560017
1772871643129103000,8.67510302734375,16.57291055983901,-4.441078075373173,-2.4985367716386913
1772871643139036200,8.6850361328125,15.83143635946512,-3.2826112195938824,-2.6777003296121955
1772871643148969200,8.69496923828125,14.610559517002105,-2.991195493403077,-2.3656977424666286
1772871643158902300,8.70490234375,13.229254796695708,-2.5765140375494955,-1.7907586507700382
1772871643168834300,8.714834228515626,11.93495732871294,-2.963304446914792,-1.1194755924753843
1772871643178767000,8.72476708984375,10.112443795633315,-3.704646545341611,-0.41129137502387164
1772871643188700200,8.7347001953125,7.922879157403111,-4.429294698598981,0.3846826234310865
1772871643198633200,8.74463330078125,5.79779955856502,-5.166876567709446,1.1270898668713867
1772871643208566300,8.754566162109375,4.125939528289437,-5.624042828071117,1.5430974567621945
1772871643218499600,8.76449951171875,3.218697842609882,-5.842952705499529,1.5621234981410204
1772871643228432600,8.7744326171875,3.063113897666335,-6.106575000357627,0.893683846578747
1772871643238364400,8.784364501953124,3.6675919491887092,-6.469616285344958,-0.10453370279446243
1772871643248297500,8.79429736328125,4.792563947123289,-6.697611971026658,-1.2837233208678662
1772871643258230800,8.804230712890625,5.841756189191341,-6.664608111569285,-2.67850258590579
1772871643268163600,8.81416357421875,6.4112389151781795,-6.337216232112049,-3.8116798098668454
1772871643278096600,8.8240966796875,6.451723485779762,-5.887318501448631,-4.60020656105578
1772871643288029700,8.83402978515625,6.324537952324747,-5.684335676470399,-5.235010777258872
1772871643297962800,8.843962646484375,6.08730448269844,-5.685633315065503,-5.58498449088037
1772871643307894500,8.85389453125,5.788228012621403,-5.739129927453399,-5.72452330995202
1772871643317827600,8.86382763671875,5.553012897080182,-6.030660219934583,-5.566142427766323
1772871643327760400,8.873760498046876,5.302871430563926,-6.471914040893316,-4.98659598840475
1772871643337693400,8.883693359375,4.678657581958174,-6.965930314746498,-4.167583205798268
1772871643347626800,8.893626708984375,3.8345238020986314,-7.306314946767688,-3.468879348875582
1772871643357559800,8.903559814453125,3.009925328314304,-7.665594833394884,-2.7783243116170167
1772871643367492600,8.91349267578125,2.0227152029067277,-7.860785397061705,-1.7584274298772216
1772871643377424400,8.92342431640625,0.6283797361135482,-6.297224997985363,-1.7722455273494124
1772871643387357400,8.933357421875,0.7441875509858131,-3.1406653393805026,-2.33737502656281
1772871643397290500,8.94329052734375,1.7731074048757551,-0.2302607080042362,-1.9278721423909067
1772871643407223600,8.9532236328125,3.053143707793951,2.2583745550841092,-0.1758747455611825
1772871643417156400,8.96315625,3.037254064744711,4.022545789310336,2.7388977256357667
1772871643427089400,8.97308935546875,1.0426602099508047,6.841962574294209,4.41144807626307
1772871643437022700,8.983022705078126,-1.8209540286779402,10.121419713771342,3.844911632861197
1772871643446954500,8.99295458984375,-4.945563720792531,12.230786195170879,2.410077859202027
1772871643456887600,9.002887451171874,-10.110926376807688,12.494901241981982,3.4191783293783664
1772871643466820400,9.0128203125,-18.672151953065395,12.645613196974992,6.815456260162591
1772871643476753400,9.02275341796875,-25.387087983858585,13.735186549270152,8.852319230887293
1772871643486686500,9.0326865234375,-25.024025071561336,13.158609481108188,7.555203198352456
1772871643496619500,9.04261962890625,-19.471637612903116,11.610311533093451,5.187642876884341
1772871643506552600,9.052552490234374,-13.008604797601699,9.333451473248005,4.459772546710074
1772871643516484600,9.062484619140625,-8.02295690370202,6.522353019276261,5.374025280195474
1772871643526417400,9.07241748046875,-4.297918727716803,4.916537532794475,6.525664335781335
1772871643536350500,9.0823505859375,-2.967804680943489,4.314814332938194,6.330508843427896
1772871643546283500,9.092283447265626,-3.5716800903975963,4.679335042828321,5.518687433630228
1772871643556216600,9.102216552734374,-5.74910596254468,5.581912243828177,4.846089493344724
1772871643566149400,9.1121494140625,-9.361999522340296,6.732767455559968,4.047425963544845
1772871643576082400,9.12208251953125,-11.973187398386,7.4436851896286,3.099516751912236
1772871643586014500,9.132014404296875,-12.220436650592088,7.588764691692591,2.409613748821616
1772871643595947500,9.141947509765625,-11.137996803438662,7.231842181846499,1.934530577366799
1772871643605880600,9.151880615234376,-9.673621585735678,6.651882485508918,1.4793652815639973
1772871643615813400,9.1618134765625,-8.33107242028117,6.710015525525808,0.7118906707540154
1772871643625746400,9.171746337890625,-8.175330069905518,7.373032275256514,-0.2027642137914896
1772871643635679500,9.181679443359375,-8.49424579744041,8.086523659205437,-0.6615766339249909
1772871643645612500,9.191612548828125,-7.633388846316933,8.238389460408687,-0.7776900076150893
1772871643655544600,9.201544677734375,-5.80553979742825,7.608135162594914,-0.951063584010303
1772871643665477600,9.2114775390625,-3.5842227611064907,6.124674136149883,-1.1830990466021
1772871643675410400,9.221410400390624,-1.3117267416894436,3.9167742152839895,-1.0083242251068354
1772871643685343500,9.231343505859375,0.712978758251667,1.4566858322441576,-0.9518493275605141
1772871643695276500,9.241276611328125,2.898265865293145,-0.89779522742033,-1.1341219574652612
1772871643705209600,9.251209716796875,5.170480145159363,-3.454526121613383,-1.112511160290241
1772871643715142400,9.261142333984376,8.185390276148915,-5.741881271988153,-1.592913773202151
1772871643725074400,9.271074462890626,12.156363699132203,-7.439950679275393,-1.793654518342018
1772871643735007500,9.281007568359374,16.062112078011037,-8.85950768108666,-1.6472209713205694
1772871643744940500,9.2909404296875,19.09695674352646,-8.846568120014666,-2.06797473282516
1772871643754873600,9.30087353515625,20.345771394228933,-7.852802581614255,-3.050342386637628
1772871643764806400,9.310806396484375,19.33936966161728,-6.576170534181594,-3.7105297581613064
1772871643774739500,9.320739501953126,16.67214133391976,-5.306511832892895,-3.3414930321514604
1772871643784671500,9.33067138671875,13.469722425937652,-4.4929181527256965,-2.148643722037971
1772871643794604500,9.3406044921875,9.82050550687313,-4.193308598685264,-0.9786799052104354
1772871643804537600,9.35053759765625,6.043618485707044,-4.364361915439367,0.012843261090666054
1772871643814470700,9.360470703125,2.801218280470371,-4.493593860030174,0.7744429885178804
1772871643824403500,9.370403564453126,0.6460071627408266,-4.358412067124247,0.5222583257362247
1772871643834336500,9.38033642578125,0.05488660544157028,-4.216104367861152,-0.33868440397456284
1772871643844269600,9.39026953125,0.5709282486200332,-4.2299329867273565,-1.1316833321414888
1772871643854201600,9.40020166015625,1.5413035590827464,-4.813848727214336,-1.6274283294834195
1772871643864134700,9.410134765625,3.0885037749886513,-5.47700050150156,-1.8726126119837163
1772871643874067500,9.4200673828125,4.763555294781923,-6.165231187465786,-2.164049527093023
1772871643884000500,9.43000048828125,6.047905953767895,-6.980919209563732,-2.3739894777327772
1772871643893933600,9.43993359375,6.591147738561034,-7.704909191173314,-2.1908331968612966
1772871643903866600,9.44986669921875,6.736220226362347,-8.03191061000824,-2.1846680983602997
1772871643913799400,9.45979931640625,6.752970285633206,-7.968252669090032,-2.573799810154736
1772871643923731500,9.4697314453125,6.8514072789877645,-7.485050050196051,-3.4057141599103806
1772871643933664500,9.47966455078125,7.04496761110425,-6.9945771480381485,-4.422548146948218
1772871643943597600,9.48959765625,7.620808766207099,-6.476444085538387,-5.110426366212963
1772871643953530600,9.499530517578124,8.116801893091202,-6.011576164758205,-5.621701817902922
1772871643963463400,9.50946337890625,8.1170853862077,-5.885495377674698,-6.016244156569242
1772871643973396500,9.519396484375,7.365238844901323,-5.602274648377299,-6.059238079643249
1772871643983328500,9.52932861328125,5.939412261301278,-5.5761611329555505,-5.464539663857221
1772871643993261600,9.539261474609376,4.5635944479733705,-5.744822586137056,-4.056064028030634
1772871644003194600,9.549194580078124,3.357562707942724,-5.92503068472743,-2.4584049599975346
1772871644013127700,9.559127685546875,2.586697577911615,-4.049741254749894,-2.9392919954255223
1772871644023060500,9.569060546875,4.723857490643859,-1.6662322535216807,-4.591210184651613
1772871644032993500,9.57899365234375,5.882319085726142,-1.3049065402805804,-2.892492250327766
1772871644042926600,9.588926513671876,4.820602877649665,0.474653401735425,-0.7437298703461885
1772871644052858600,9.598858642578126,3.1960815216541287,2.8884003048390148,1.0019380312010646
1772871644062791700,9.608791748046874,1.3226608081579208,5.0436669521480795,2.303228719072044
1772871644072724500,9.618724365234375,-2.8518343689858914,7.462354234263301,4.375055451150239
1772871644082657500,9.628657470703125,-9.891177710467577,11.627080297064781,6.370663159161806
1772871644092590600,9.638590576171875,-19.37075030378699,14.80283097835183,8.59844091593027
1772871644102523600,9.648523681640626,-28.215893359434602,17.57034572666287,10.74618125938773
1772871644112456400,9.65845654296875,-32.811039714491365,18.396622362792492,10.009400769788027
1772871644122388500,9.668388427734374,-31.50638919479847,17.479853554832935,8.926656386730075
1772871644132321500,9.678321533203125,-23.162523928439615,15.780463712596893,5.082175838762521
1772871644142254600,9.688254638671875,-12.781604552698134,13.62586225119829,-0.06347498556673527
1772871644152187600,9.698187744140625,-5.171182155948877,11.377218232011794,-2.101576850436628
1772871644162120700,9.70812060546875,-1.984420251303911,8.615771405437588,-0.5143728331834078
1772871644172053500,9.718053466796874,-1.7989584699690342,6.520294333180785,2.4305253116860985
1772871644181986600,9.727986572265625,-3.2521833481043574,5.064394098356366,5.316466825196146
1772871644191918600,9.737918701171875,-5.59677254382968,3.153803637894988,8.804819813087581
1772871644201851600,9.7478515625,-8.838049882516264,2.519701432481408,11.79095919214487
1772871644211784700,9.75778466796875,-11.139167016261815,3.3385055407732724,12.16507892050743
1772871644221717000,9.767717041015626,-10.565102223181723,5.7653679460376495,9.279751447242498
1772871644231649800,9.77764990234375,-8.780316655471921,7.966952107885479,4.701601235172152
1772871644241582800,9.787582763671875,-7.488965762335061,8.89430543822348,0.722150783483684
1772871644251516000,9.797515869140625,-6.658692750045657,9.217507464775442,-1.5832099791809915
1772871644261448000,9.807447998046875,-6.564618043553828,8.79230929108262,-1.9945593680024145
1772871644271381000,9.817381103515626,-6.060236443030834,7.6435004904866215,-1.4156769455075262
1772871644281313800,9.827313720703126,-4.955373167145252,5.447133186504244,-0.6841521844789386
1772871644291246800,9.837246826171874,-2.63336989723742,2.969632480892539,-0.2562210786908865
1772871644301180000,9.847179931640625,0.7463420986711978,0.7757283521533012,-1.1974185177251695
1772871644311113000,9.857113037109375,4.024240318268538,-0.8031400906920433,-3.421980527317524
1772871644321045000,9.867044921875,7.00235187369287,-2.166416986876726,-5.408943448841572
1772871644330977800,9.876977783203126,10.070990672260523,-3.648652855440974,-6.101650987958908
1772871644340910800,9.886910888671874,12.608871320033073,-5.198593309965729,-5.940089137649536
1772871644350844000,9.896843994140625,14.152285003137587,-6.639229924684763,-5.155578928625584
1772871644360777000,9.90677685546875,14.889892006689308,-7.657090624421834,-3.8707232427269216
1772871644370710000,9.9167099609375,15.25874986900091,-8.116956791391969,-2.7846462081149217
1772871644380642800,9.926642822265626,15.416396591693163,-8.01488114927411,-2.0709297832384705
1772871644390574800,9.936574951171876,14.84559810693264,-7.67623430083096,-1.6623755780935288
1772871644400508000,9.9465078125,13.292872990125417,-6.955354560196399,-1.4492235335394739
1772871644410441000,9.95644091796875,11.164871950882672,-6.105028355437517,-1.7160247506946325
1772871644420374000,9.9663740234375,8.979358633869886,-5.274986229294538,-2.1995517792373893
1772871644430306800,9.976306884765625,6.523194730797409,-4.775798690283298,-2.690423617585003
1772871644440239900,9.986239990234376,4.153040885704756,-4.316991676977277,-3.00918766168952
1772871644450171600,9.996171630859376,1.8545009089708326,-4.467779619815945,-2.737180400323868
1772871644460104700,10.006104736328124,-0.00861176100075245,-5.035767723330855,-2.121591756722331
1772871644470038000,10.0160380859375,-0.9216583335667848,-6.002585633572935,-1.172201074360311
1772871644479970800,10.025970703125,-0.6029442660838366,-6.761735775890946,-0.7116957327038049
1772871644489903900,10.03590380859375,0.6762555860102176,-7.184920271673798,-0.9533113629370927
1772871644499837000,10.0458369140625,2.282390221443772,-7.533373059338331,-1.5528437747508286
1772871644509770000,10.05577001953125,3.8146377828896045,-7.812018151283263,-2.2248197837457058
1772871644519701800,10.06570166015625,4.985198981088399,-7.898606885933876,-2.9043989612206813
1772871644529634800,10.075634765625,5.56002949784398,-7.806279315370321,-3.3916523168101906
1772871644539567600,10.085567626953125,5.832886654037237,-7.399046421957015,-3.687431791168451
1772871644549500700,10.095500732421876,5.8346893195450305,-6.9676289353579275,-4.058662520091235
1772871644559434000,10.10543408203125,5.851491985785961,-6.631317836385965,-4.255108636777103
1772871644569367000,10.115366943359374,5.942200430715084,-6.512610792940855,-4.368315621501207
1772871644579298800,10.125298828125,6.469098983472585,-6.61687313144803,-4.516926512561739
1772871644589231600,10.135231689453125,7.251001055824756,-6.791767341539264,-4.7213387858211995
1772871644599164700,10.14516455078125,7.749861262577772,-6.774457310298085,-4.6662008359670635
1772871644609097700,10.15509765625,7.690242367917299,-6.9172279508978125,-4.213974954617023
1772871644619030800,10.16503076171875,7.0615031508415935,-7.027405066406726,-3.411187330624461
1772871644628963600,10.174963623046875,5.4818029333472245,-6.9978867109775535,-2.806867684534192
1772871644638896600,10.184896728515625,3.956552098920941,-5.325510547873377,-3.3249148223161695
1772871644648828700,10.19482861328125,4.229861090534925,-2.754330272567272,-4.194558598746359
1772871644658761700,10.20476171875,4.138017504096031,-0.9365028514772653,-3.2404002635911104
1772871644668694800,10.21469482421875,3.4369571471750735,2.4628648620158433,-1.2271183672010897
1772871644678627800,10.2246279296875,1.7545979347169398,4.772508416566253,2.001018919405341
1772871644688560600,10.234560546875,-2.406068623560667,5.877503794398904,6.096438221746682
1772871644698493700,10.24449365234375,-10.69888759329319,7.781434796971082,10.497812063241005
1772871644708426800,10.2544267578125,-21.113706900548934,12.259538826924562,12.857466141629219
1772871644718358800,10.26435888671875,-28.298727125465867,17.16380373812318,12.628554510146378
1772871644728291800,10.274291748046876,-31.191411391234396,18.909154536545277,9.455881921130418
1772871644738224600,10.284224609375,-23.077758902084827,19.776729982268808,2.9982626553103326
1772871644748157700,10.29415771484375,-12.992198437201976,18.510692978608606,-3.3659973588109016
1772871644758090800,10.3040908203125,-7.971218533158302,16.245049893826245,-3.6909441832035776
1772871644768023800,10.31402392578125,-7.802258973813056,12.81223817589283,1.5562500760629772
1772871644777955800,10.323955810546876,-8.98265358376205,9.448892792895435,7.591649891740083
1772871644787888600,10.333888671875,-9.66781611432731,7.5110133434921496,11.37202533954382
1772871644797821700,10.34382177734375,-9.890879604303835,6.294943024528026,12.944863854575157
1772871644807754800,10.353754638671875,-8.61480051457882,6.06960632892251,12.394153049075603
1772871644817687800,10.363687744140625,-6.209367266312241,6.5161307837605476,9.727586400157213
1772871644827620900,10.373620849609376,-4.417711228311061,7.184014262744784,6.430556779110431
1772871644837553700,10.3835537109375,-4.2215182096034285,7.959400085070729,3.6397462031468746
1772871644847485700,10.393485595703124,-5.499158557295799,8.733208867338298,1.4606602888330817
1772871644857418800,10.403418701171875,-7.206469255658984,9.143776458132267,0.06774257988333701
1772871644867351800,10.413351806640625,-8.91791719995737,9.074889968910814,-0.6035907472938299
1772871644877284900,10.423284912109375,-10.081638323003054,8.522454239314794,-0.9988482484921812
1772871644887217700,10.4332177734375,-10.46769983357191,7.616630019217729,-1.359180859042704
1772871644897150700,10.443150634765624,-9.500219075506925,6.503700341254472,-1.7196131305754183
1772871644907083800,10.453083740234375,-6.907824162736535,4.955148126217723,-2.2404773716047406
1772871644917015800,10.463015869140625,-3.32812209392488,3.041704029890895,-3.5762335159182546
1772871644926948900,10.472948974609375,0.7536813555181026,1.1394371611386538,-5.375671293836832
1772871644936881700,10.482881591796875,5.418006460741162,-0.5532797792047262,-6.878575271898508
1772871644946814700,10.492814697265626,9.636246671587228,-2.090406929385662,-7.496207988548278
1772871644956747800,10.502747802734374,12.875361863803862,-3.6421447887212035,-7.499938991770148
1772871644966680800,10.512680908203125,15.057040717220305,-4.931346394869685,-7.141898876070976
1772871644976612900,10.52261279296875,16.358568720978496,-5.938693883898854,-6.015481940025091
1772871644986546000,10.5325458984375,16.97944202698469,-6.825663765922188,-4.292907329295575
1772871644996478700,10.542478759765626,16.272003367203475,-7.557289941498637,-2.2826336748108265
1772871645006411800,10.552411865234374,14.739963311028479,-7.807700288084149,-0.9701774498030543
1772871645016344800,10.5623447265625,13.070214573818445,-7.506074718046188,-0.9862406958535314
1772871645026278000,10.57227783203125,11.478787093651293,-6.593942337715625,-1.655278897830844
1772871645036210700,10.582210693359375,9.979207876098155,-5.464767627394199,-2.787661756543815
1772871645046142700,10.592142822265625,8.568817346560955,-4.612284536862373,-3.554585455472767
1772871645056075800,10.60207568359375,7.22359691607058,-3.933924087527394,-3.8522269243106244
1772871645066008800,10.6120087890625,5.55333438411951,-3.5235230854719877,-3.7829637107312677
1772871645075942000,10.62194189453125,4.050109503540397,-3.431174472120404,-3.4460955623984333
1772871645085874700,10.631874755859375,3.1047675120472906,-3.549589839142561,-3.134845254924893
1772871645095807700,10.641807861328125,2.6975959934324023,-3.8408296242445705,-2.8591841472268102
1772871645105739800,10.65173974609375,2.728729382842779,-4.338966777420044,-2.4925477603569623
1772871645115672800,10.6616728515625,2.954883824571967,-4.891303722816706,-2.113104498884082
1772871645125606000,10.67160595703125,3.2057349006623026,-5.400711627069115,-1.8463716707900166
1772871645135539000,10.6815390625,3.727739836159348,-5.880004379042982,-1.641225091906637
1772871645145471700,10.6914716796875,4.559238006329537,-6.420734473276138,-1.2428911058723926
1772871645155404800,10.70140478515625,5.364594019505382,-6.826819950219988,-0.8586001121073961
1772871645165337900,10.711337890625,6.054674132728576,-7.0052955259293315,-0.6294409356042743
1772871645175270000,10.721269775390626,6.22953093341887,-7.182411503723263,-0.4385509917408228
1772871645185203000,10.731202880859374,5.974788110587,-7.0721478789746755,-0.41700668393075463
1772871645195135700,10.7411357421875,5.1298675642639395,-6.737892543488741,-0.5686890913911163
1772871645205068800,10.75106884765625,4.123239621680975,-6.356974241027236,-0.7277825057603419
1772871645215001900,10.761001953125,3.3025100982844826,-5.661484962236881,-0.7377629247657954
1772871645224934400,10.770934326171876,2.572693602478504,-5.119711496430635,-0.8813980732403696
1772871645234866400,10.780866455078124,1.995056211608648,-4.800633856332301,-0.8224399805761873
1772871645244799500,10.790799560546875,1.413238320183754,-4.392987121421099,-0.24912454455867408
1772871645254732300,10.800732177734375,0.49993748059570786,-3.3871856927901502,0.4366111097194254
1772871645264665300,10.810665283203125,-0.4648082995474338,-2.475221070241928,1.1961210252605379
1772871645274598400,10.820598388671876,-0.984905940118432,-0.691779318356514,2.5026561896562574
1772871645284531500,10.830531494140626,-1.8931103333503008,1.8040490711063146,3.7048037817299364
1772871645294463500,10.84046337890625,-3.1380414206176996,3.7284547064304348,5.177831092444062
1772871645304396300,10.850396240234375,-4.274879212912917,5.073669291701912,6.6345391365200275
1772871645314329300,10.860329345703125,-4.432821703681349,6.386183384376764,6.445842026525735
1772871645324262400,10.870262451171875,-3.992390305021405,8.066570419979096,4.912046651116013
1772871645334195500,10.880195556640626,-4.361925628203154,11.118049409431219,4.634883029900491
1772871645344128300,10.890128173828124,-8.178332174330949,13.799119215476512,3.567563010467589
1772871645354061300,10.900061279296875,-13.47343881611228,14.880744239115714,-0.09041296911388635
1772871645363993300,10.909993408203125,-16.011306604403256,15.774913092732428,-3.6981630285412073
1772871645373926400,10.919926513671875,-14.858749849450588,15.13036314306259,-5.391348755440116
1772871645383859500,10.929859375,-11.42211535835862,12.727973500275612,-5.004900291380286
1772871645393792500,10.93979248046875,-8.181490930622816,9.616317397758364,-3.274455970188975
1772871645403725300,10.949725341796874,-5.797526002320647,7.209519875401258,-0.1504097571760416
1772871645413658400,10.959658447265625,-4.493261267074942,5.0379912445992225,2.4835771029159424
1772871645423591400,10.96959130859375,-3.6423797665208575,3.3097862267673013,3.5646991454690693
1772871645433523500,10.9795234375,-2.330572945332527,2.1031495065808294,3.6090430218473073
1772871645443456500,10.98945654296875,-0.9433967026442289,1.056725267921388,3.2878093727588653
1772871645453389300,10.999389404296876,0.029110359150171277,-0.041999359078705306,2.8158555853709575
1772871645463322400,11.009322265625,0.4467535874187946,-1.0596727195501328,2.070309897774458
1772871645473255400,11.01925537109375,0.7032517294853925,-1.9690438184738157,1.1430962681680916
1772871645483188500,11.0291884765625,0.9624468555510044,-2.4428362194657325,0.19602716062143444
1772871645493120500,11.03912060546875,1.452593594494462,-2.645326292490959,-0.8857451625339686
1772871645503053300,11.04905322265625,1.521848332506418,-2.7561662558227775,-2.094052884672582
1772871645512986400,11.058986328125,-0.2682897021472454,-3.6082746678233146,-0.22441753493398425
1772871645522919400,11.06891943359375,0.7292682142734527,-3.3874095646739004,-0.41616088075637814
1772871645532852500,11.0788525390625,2.8711604162245985,-4.811639818993211,0.43675110271200535
1772871645542785300,11.088785400390625,2.6004589767605064,-6.770349874979257,4.848353054362535
1772871645552718300,11.09871826171875,3.622798283216357,-8.287724861463904,6.186231889918446
1772871645562650400,11.108650390625,4.42543451603949,-7.7136840337812895,5.628751151892542
1772871645572583400,11.11858349609375,4.581190310418606,-5.619179021427035,2.0751266504064203
1772871645582516500,11.1285166015625,4.3377620778054,-3.4212224024266003,-1.2134098675832152
1772871645592449500,11.138449462890625,3.8035821358680724,-1.2910568786263465,-3.0823171953082085
1772871645602382300,11.14838232421875,2.97436769272089,0.2895692215412855,-3.866908652874827
1772871645612315400,11.1583154296875,2.137808147507906,1.054203932750225,-3.3141596195459364
1772871645622247400,11.168247314453126,1.4408558104276656,0.9651210431963205,-1.3121366376645862
1772871645632180500,11.178180419921874,0.8710667949706316,0.4183294569671154,0.7784633300751447
1772871645642113500,11.188113525390625,0.8744231196612119,-0.02769815426468849,1.766008532655984
1772871645652046300,11.19804638671875,1.4553168819785118,-0.16615034714341162,1.6657254730433224
1772871645661979400,11.2079794921875,1.5808873814523219,0.022917349728941917,1.0635109825387596
1772871645671912400,11.217912353515626,1.051876366585493,0.5132423678487539,0.31661051933243867
1772871645681844500,11.227844482421874,0.3188274647295475,1.183545767456293,-0.2672811096265912
1772871645691777500,11.237777587890625,-0.5501742144048214,1.6988871534109116,-0.5254731961295008
1772871645701710300,11.24771044921875,-1.2566378916740417,1.8719354433745146,-0.4178199000097811
1772871645711643400,11.257643310546875,-1.4250029922574758,1.729741141358018,-0.15193375187292693
1772871645721576400,11.267576416015626,-1.032525184905529,1.4109674526423215,0.07071019751727581
1772871645731509500,11.277509521484374,-0.5304682279378176,0.9665496146947145,0.07150558567866683
1772871645741442600,11.287442626953125,-0.09226268863379955,0.7385346397906541,-0.0992097312927246
1772871645751374600,11.29737451171875,0.21786416776776313,0.5744266121298074,-0.23840002918764946
1772871645761307400,11.307307373046875,0.36656478293836114,0.37183307873010635,-0.30614158615767956
1772871645771240400,11.317240478515625,0.4835211833238601,0.1451759481757879,-0.3455801548376679
1772871645781173500,11.327173583984376,0.6654208882629871,0.0006646013885736465,-0.41415377871766684
1772871645791106600,11.3371064453125,0.715462976282835,-0.04452361685931682,-0.4872881346419453
1772871645801039400,11.347039306640625,0.5721855552047491,-0.29341537557542324,-0.2978235474064946
1772871645810971400,11.356971435546875,0.4608627767920494,-0.5770949545562267,0.17978578152507543
1772871645820904400,11.366904541015625,0.6642471683084964,-0.7762550063759088,0.4506063173241913
1772871645830837500,11.37683740234375,0.7678793922185897,-0.9457394663780927,0.5437566024474799
1772871645840770600,11.3867705078125,0.6086836865186691,-1.0015911174595356,0.5705052009023726
1772871645850703400,11.396703369140624,0.1875175448209047,-0.8999497751057147,0.5714820831105113
1772871645860636400,11.406636474609375,-0.3013894231945276,-0.6584890431731939,0.3544735092587769
1772871645870569500,11.416569580078125,-0.8947136280179023,-0.4543389279812574,0.016667057162523268
1772871645880501500,11.42650146484375,-1.4812217230856417,-0.23276479977965353,-0.1929438076533377
1772871645890434600,11.4364345703125,-2.242945515283942,-0.009670330142974854,-0.04064633703455329
1772871645900367600,11.44636767578125,-1.6767366964012382,0.2578852125108242,0.5419532062873244
1772871645910300400,11.456300537109374,-1.2400076593905687,-0.30001462770998477,0.5585140265963972
1772871645920233500,11.4662333984375,-0.4987824653416872,-0.21700725867748258,0.7173439677238463
1772871645930166500,11.47616650390625,-0.8028595201849937,-0.3884387610942125,0.8440162909597158
1772871645940098600,11.4860986328125,-1.3760317483395337,-0.2990717939019203,0.7516706002175807
1772871645950031600,11.496031494140626,-1.5143483321398497,-0.15435411088764667,0.5124181919842958
1772871645959964400,11.50596435546875,-1.1804133146494626,-0.2067331174224615,0.2664770997673273
1772871645969897500,11.5158974609375,-0.7494289587706326,-0.14475976859033107,0.009858400060981511
1772871645979830500,11.52583056640625,-0.5878478192389011,0.1057411788880825,-0.32359716334939004
