time,seconds_elapsed,z,y,x
1772871634517299500,0.063299560546875,-0.5241296291351318,-0.336441308259964,-0.07571597397327423
1772871634527232500,0.073232421875,-0.5768192410469055,-0.38823866844177246,-0.17284321784973145
1772871634537165300,0.083165283203125,-0.5966053009033203,-0.3963596224784851,-0.3177556097507477
1772871634547098400,0.093098388671875,-0.6128205060958862,-0.37572890520095825,-0.4315767288208008
1772871634557031400,0.103031494140625,-0.6159350275993347,-0.3124474287033081,-0.4752388298511505
1772871634566963500,0.11296337890625,-0.6282332539558411,-0.25004372000694275,-0.4510352313518524
1772871634576896500,0.122896484375,-0.6675734519958496,-0.195857971906662,-0.3722807466983795
1772871634586829300,0.132829345703125,-0.751296877861023,-0.15770605206489563,-0.2505924105644226
1772871634596762400,0.142762451171875,-0.882331132888794,-0.1248965933918953,-0.09435636550188065
1772871634606695400,0.1526953125,-1.0022789239883423,-0.1275898516178131,-0.013756861910223961
1772871634616628500,0.16262841796875,-1.0623422861099243,-0.15858253836631775,-0.0021803206764161587
1772871634626561300,0.172561279296875,-1.0493720769882202,-0.2529231607913971,-0.11256221681833267
1772871634636494300,0.182494384765625,-0.951625645160675,-0.38890206813812256,-0.36115849018096924
1772871634646427400,0.192427490234375,-0.8198809027671814,-0.45615246891975403,-0.6377314925193787
1772871634656360400,0.2023603515625,-0.6799092888832092,-0.4091097414493561,-0.8791959285736084
1772871634666292500,0.21229248046875,-0.5563812255859375,-0.3077135980129242,-1.0368297100067139
1772871634676225500,0.2222255859375,-0.439719021320343,-0.10635076463222504,-1.1561753749847412
1772871634686158300,0.232158447265625,-0.2901076674461365,0.12919197976589203,-1.2534217834472656
1772871634696091400,0.24209130859375,-0.047755464911460876,0.36750704050064087,-1.3344556093215942
1772871634706024400,0.2520244140625,0.2712757885456085,0.5596690773963928,-1.4327486753463745
1772871634715957500,0.26195751953125,0.5955830812454224,0.6434448957443237,-1.6497427225112915
1772871634725890300,0.271890380859375,0.8930829763412476,0.6345952153205872,-1.9936950206756592
1772871634735823400,0.2818232421875,1.0898282527923584,0.5242970585823059,-2.306468963623047
1772871634745756400,0.29175634765625,1.2083274126052856,0.33866092562675476,-2.552964448928833
1772871634755689500,0.301689453125,1.2712827920913696,0.11260733753442764,-2.7126340866088867
1772871634765621500,0.31162158203125,1.2504569292068481,-0.12573225796222687,-2.720203399658203
1772871634775554300,0.32155419921875,1.1301440000534058,-0.3379175066947937,-2.56300687789917
1772871634785487400,0.3314873046875,0.9502008557319641,-0.4589083790779114,-2.323970079421997
1772871634795420400,0.34142041015625,0.7403795123100281,-0.44105780124664307,-2.0140092372894287
1772871634805353500,0.351353515625,0.5390447974205017,-0.28141671419143677,-1.6671847105026245
1772871634815286300,0.361286376953125,0.3791913390159607,-0.006093702279031277,-1.2898578643798828
1772871634825219300,0.37121923828125,0.2740260362625122,0.2912239730358124,-0.9241219162940979
1772871634835152400,0.38115234375,0.2172117531299591,0.5323575735092163,-0.6152871251106262
1772871634845085400,0.39108544921875,0.16748148202896118,0.7148889899253845,-0.3993867337703705
1772871634855018500,0.4010185546875,0.10678251832723618,0.7466801404953003,-0.33526551723480225
1772871634864950500,0.410950439453125,0.07272680848836899,0.6504446864128113,-0.49593082070350647
1772871634874883300,0.42088330078125,0.05536239966750145,0.4636756479740143,-0.7643061280250549
1772871634884816400,0.43081640625,0.04073365405201912,0.24549247324466705,-1.0199589729309082
1772871634894749400,0.44074951171875,0.05604542791843414,0.06469640880823135,-1.205196499824524
1772871634904682500,0.4506826171875,0.0770668238401413,0.0071849157102406025,-1.2883532047271729
1772871634914615300,0.460615234375,0.08863449841737747,0.12757016718387604,-1.2437177896499634
1772871634924548400,0.47054833984375,0.10764440894126892,0.3031467795372009,-1.118674397468567
1772871634934481400,0.4804814453125,0.16836006939411163,0.48111939430236816,-1.0828404426574707
1772871634944414500,0.49041455078125,0.20846328139305115,0.577745795249939,-1.1516786813735962
1772871634954347300,0.50034716796875,0.19347089529037476,0.5674527883529663,-1.2563706636428833
1772871634964279300,0.510279296875,0.0895644798874855,0.40977922081947327,-1.3170396089553833
1772871634974212400,0.52021240234375,-0.0991298034787178,0.12458449602127075,-1.2740610837936401
1772871634984145400,0.5301455078125,-0.3455808460712433,-0.1792382448911667,-1.1933174133300781
1772871634994078500,0.540078369140625,-0.6612781882286072,-0.4777461886405945,-1.1082419157028198
1772871635004011500,0.550011474609375,-1.025459885597229,-0.6311469674110413,-1.00288724899292
1772871635013944300,0.5599443359375,-1.2599506378173828,-0.5821981430053711,-0.9325631856918335
1772871635023877400,0.56987744140625,-1.318130612373352,-0.39876681566238403,-0.8508493900299072
1772871635033810400,0.579810546875,-1.2162809371948242,-0.10784576833248138,-0.7208995223045349
1772871635043743500,0.589743408203125,-1.0680350065231323,0.1939748078584671,-0.5675536394119263
1772871635053676300,0.59967626953125,-0.9383727312088013,0.3987630009651184,-0.4626360237598419
1772871635063608300,0.6096083984375,-0.8459474444389343,0.4553288221359253,-0.4377754032611847
1772871635073541400,0.619541259765625,-0.8002517223358154,0.46471792459487915,-0.491800993680954
1772871635083474400,0.629474365234375,-0.702701210975647,0.5008852481842041,-0.7164463400840759
1772871635093407500,0.639407470703125,-0.5742821097373962,0.5718091130256653,-1.065295696258545
1772871635103340300,0.64934033203125,-0.4425736367702484,0.6560251712799072,-1.3781148195266724
1772871635113273300,0.6592734375,-0.36291980743408203,0.6922787427902222,-1.4565261602401733
1772871635123206400,0.669206298828125,-0.38985076546669006,0.6442022919654846,-1.1800661087036133
1772871635133139500,0.679139404296875,-0.5184746384620667,0.5613974928855896,-0.6344947814941406
1772871635143072300,0.689072265625,-0.7144740223884583,0.5167427062988281,-0.053641755133867264
1772871635153005600,0.699005615234375,-0.8892237544059753,0.6051459908485413,0.3590257167816162
1772871635162937300,0.708937255859375,-0.950355589389801,0.7595491409301758,0.6091271638870239
1772871635172870400,0.718870361328125,-0.8461411595344543,0.8830879330635071,0.762196958065033
1772871635182803500,0.728803466796875,-0.5560845732688904,0.8749163150787354,0.8483683466911316
1772871635192736500,0.738736572265625,-0.11448684334754944,0.6367630958557129,0.7863413095474243
1772871635202669300,0.74866943359375,0.3770410716533661,0.23300763964653015,0.4406334459781647
1772871635212601300,0.758601318359375,0.8045654296875,-0.190642848610878,-0.1782824695110321
1772871635222534400,0.768534423828125,1.1488442420959473,-0.6243671178817749,-0.8087941408157349
1772871635232467500,0.778467529296875,1.408166766166687,-1.0180413722991943,-1.2412145137786865
1772871635242400500,0.788400390625,1.602649450302124,-1.1912126541137695,-1.352942705154419
1772871635252333300,0.798333251953125,1.6643122434616089,-1.0423603057861328,-1.1068615913391113
1772871635262265300,0.808265380859375,1.5934298038482666,-0.5593225955963135,-0.6033856272697449
1772871635272198400,0.818198486328125,1.3892347812652588,0.12250262498855591,0.0038621430285274982
1772871635282131500,0.82813134765625,1.055201768875122,0.8496689200401306,0.5562888383865356
1772871635292064500,0.838064453125,0.7048614621162415,1.4378244876861572,0.8877407312393188
1772871635301997300,0.847997314453125,0.4022754728794098,1.6324586868286133,0.9477441310882568
1772871635311930400,0.857930419921875,0.15806441009044647,1.5026063919067383,0.7674680352210999
1772871635321863400,0.867863525390625,-0.03475136682391167,1.2306557893753052,0.45393091440200806
1772871635331796500,0.87779638671875,-0.15784800052642822,0.8472669124603271,0.07036060094833374
1772871635341729300,0.887729248046875,-0.2335566133260727,0.37372222542762756,-0.3149561882019043
1772871635351661600,0.89766162109375,-0.32581835985183716,-0.10202251374721527,-0.47097301483154297
1772871635361594400,0.907594482421875,-0.43883785605430603,-0.3705171048641205,-0.26108500361442566
1772871635371527400,0.91752734375,-0.561912477016449,-0.4664507210254669,0.25921812653541565
1772871635381460500,0.92746044921875,-0.6617059707641602,-0.4217149317264557,0.9626713395118713
1772871635391393500,0.9373935546875,-0.7221521735191345,-0.3245982527732849,1.6306966543197632
1772871635401326300,0.947326416015625,-0.7018333077430725,-0.23477517068386078,2.053204298019409
1772871635411259400,0.95725927734375,-0.6489339470863342,-0.18970829248428345,2.1648449897766113
1772871635421192400,0.9671923828125,-0.5918503999710083,-0.21888455748558044,1.8766388893127441
1772871635431125500,0.97712548828125,-0.4891226589679718,-0.3909413516521454,1.1204921007156372
1772871635441058300,0.987058349609375,-0.4679846167564392,-0.5373569130897522,0.24328914284706116
1772871635450990300,0.996990234375,-0.43994444608688354,-0.4924176037311554,-0.5172990560531616
1772871635460923400,1.00692333984375,-0.3523075580596924,-0.35952720046043396,-1.0488367080688477
1772871635470856400,1.0168564453125,-0.27423420548439026,-0.1676681637763977,-1.2929331064224243
1772871635480789500,1.02678955078125,-0.198908269405365,-0.10716592520475388,-1.3023321628570557
1772871635490722300,1.036722412109375,-0.1633533388376236,-0.161070317029953,-0.9658377170562744
1772871635500655400,1.0466552734375,-0.13790710270404816,-0.15252743661403656,-0.44539982080459595
1772871635510588400,1.05658837890625,-0.04067225381731987,-0.05844132974743843,0.1943623274564743
1772871635520521500,1.066521484375,0.09428476542234421,0.013527137227356434,0.8092731833457947
1772871635530454300,1.076454345703125,0.1503545492887497,0.16481928527355194,1.159117579460144
1772871635540387300,1.08638720703125,0.14611239731311798,0.3712664544582367,1.2056148052215576
1772871635550319400,1.0963193359375,0.14496590197086334,0.663852870464325,1.0546718835830688
1772871635560252400,1.10625244140625,0.1730039268732071,0.9385706782341003,0.7759225368499756
1772871635570185500,1.116185546875,0.17768152058124542,1.0850884914398193,0.42665207386016846
1772871635580118500,1.126118408203125,0.046721115708351135,1.0006678104400635,0.17643743753433228
1772871635590051300,1.13605126953125,-0.21213680505752563,0.7880405783653259,0.024271106347441673
1772871635599984400,1.145984375,-0.4179549515247345,0.5460007786750793,-0.044558294117450714
1772871635609917400,1.15591748046875,-0.5263640880584717,0.2987639307975769,0.008725215680897236
1772871635619850500,1.1658505859375,-0.5363751649856567,0.043075159192085266,0.16981422901153564
1772871635629783300,1.175783203125,-0.528598964214325,-0.08791040629148483,0.23508332669734955
1772871635639715300,1.18571533203125,-0.4764752984046936,-0.07742021977901459,0.11854366958141327
1772871635649648400,1.1956484375,-0.3931092321872711,-0.057595957070589066,-0.20744982361793518
1772871635659581400,1.20558154296875,-0.2752441167831421,0.025442734360694885,-0.9086015820503235
1772871635669514500,1.215514404296875,-0.006256105378270149,-0.06310277432203293,-1.9147270917892456
1772871635679447300,1.225447265625,0.28616616129875183,-0.5599935054779053,-3.248262405395508
1772871635689380400,1.23538037109375,0.3135164678096771,-1.1701138019561768,-4.539861679077148
1772871635699313400,1.2453134765625,-0.32078856229782104,-1.3183876276016235,-5.094115257263184
1772871635709246500,1.25524658203125,-1.3140302896499634,-0.9863386154174805,-4.4507951736450195
1772871635719179300,1.26517919921875,-2.1591720581054688,-0.950128972530365,-2.7454097270965576
1772871635729112300,1.2751123046875,-2.2472410202026367,-0.9695711731910706,-0.48269981145858765
1772871635739044400,1.28504443359375,-1.6115928888320923,-0.6968024969100952,1.3695188760757446
1772871635748977400,1.294977294921875,-0.8135375380516052,-0.39242860674858093,2.125861167907715
1772871635758910500,1.304910400390625,-0.11445590108633041,-0.2940863370895386,2.1428842544555664
1772871635768843500,1.314843505859375,0.34894123673439026,-0.4300213158130646,1.7406682968139648
1772871635778776300,1.3247763671875,0.6795558929443359,-0.5193722248077393,1.1569890975952148
1772871635788709400,1.33470947265625,0.9594749212265015,-0.3258483111858368,0.5780317783355713
1772871635798642400,1.344642333984375,1.1619352102279663,0.03926432132720947,0.13134042918682098
1772871635808575500,1.354575439453125,1.1920318603515625,0.3389221727848053,-0.18880555033683777
1772871635818508300,1.36450830078125,1.122527837753296,0.30801621079444885,-0.43105894327163696
1772871635828441300,1.37444140625,1.0219615697860718,-0.006500805262476206,-0.5416378378868103
1772871635838373400,1.384373291015625,1.0135694742202759,-0.4409068524837494,-0.4094070494174957
1772871635848306400,1.394306396484375,1.1235146522521973,-0.6822986006736755,0.017331361770629883
1772871635858239500,1.404239501953125,1.183830738067627,-0.5305910706520081,0.6665629148483276
1772871635868172300,1.41417236328125,1.0434539318084717,-0.03032737970352173,1.402214527130127
1772871635878105300,1.424105224609375,0.7734420895576477,0.7805479168891907,2.0509657859802246
1772871635888038400,1.434038330078125,0.5258368253707886,1.5440547466278076,2.4779622554779053
1772871635897971500,1.443971435546875,0.2667391896247864,1.7524327039718628,2.625577449798584
1772871635907904500,1.453904541015625,-0.010708137415349483,1.2078546285629272,2.3568344116210938
1772871635917837300,1.46383740234375,-0.23454149067401886,0.3447693884372711,1.8884706497192383
1772871635927769300,1.473769287109375,-0.2992086112499237,-0.4747185707092285,1.3721108436584473
1772871635937702400,1.483702392578125,-0.2517912983894348,-1.0169283151626587,0.9604958891868591
1772871635947635500,1.493635498046875,-0.15031501650810242,-1.2005915641784668,0.7314429879188538
1772871635957568500,1.503568603515625,-0.016563337296247482,-1.1037936210632324,0.5849155783653259
1772871635967501300,1.513501220703125,0.10494080185890198,-0.8499971628189087,0.3848065137863159
1772871635977434400,1.523434326171875,0.16203045845031738,-0.6199951171875,-0.0011662030592560768
1772871635987367400,1.533367431640625,0.12543979287147522,-0.5732918977737427,-0.5039601922035217
1772871635997300500,1.543300537109375,0.03873659297823906,-0.6101425886154175,-0.9208812713623047
1772871636007233300,1.5532333984375,0.004377750214189291,-0.662918746471405,-1.1365917921066284
1772871636017165300,1.563165283203125,0.027832476422190666,-0.7386524081230164,-1.2037034034729004
1772871636027098400,1.573098388671875,0.08720455318689346,-0.8013275861740112,-1.122513771057129
1772871636037031400,1.583031494140625,0.12880845367908478,-0.8217551112174988,-0.9043449759483337
1772871636046964500,1.592964599609375,0.1015433594584465,-0.7742717266082764,-0.5884271860122681
1772871636056897300,1.602897216796875,0.03862457349896431,-0.6392022967338562,-0.21395477652549744
1772871636066830300,1.612830322265625,0.014926749281585217,-0.4345659017562866,0.19883397221565247
1772871636076763400,1.622763427734375,-0.003726030932739377,-0.18716809153556824,0.569945752620697
1772871636086696400,1.632696533203125,-0.054506801068782806,0.07260183990001678,0.7893983721733093
1772871636096629500,1.64262939453125,-0.11858165264129639,0.24874383211135864,0.8221004009246826
1772871636106561500,1.6525615234375,-0.1630139797925949,0.2620297074317932,0.7384812831878662
1772871636116494300,1.662494384765625,-0.15556779503822327,0.17876464128494263,0.6179572343826294
1772871636126427400,1.672427490234375,-0.13379690051078796,0.06095322221517563,0.5442546010017395
1772871636136360400,1.6823603515625,-0.10508376359939575,-0.050093941390514374,0.5593246221542358
1772871636146293500,1.69229345703125,-0.09558796882629395,-0.12020088732242584,0.580996036529541
1772871636156226300,1.702226318359375,-0.1253567934036255,-0.14622610807418823,0.596392810344696
1772871636166159400,1.712159423828125,-0.1881874054670334,-0.19603806734085083,0.5580899715423584
1772871636176092400,1.722092529296875,-0.1934141367673874,-0.28586170077323914,0.363042414188385
1772871636186025500,1.732025390625,-0.17226696014404297,-0.33184507489204407,0.14683794975280762
1772871636195958300,1.741958251953125,-0.1990375816822052,-0.3486640155315399,-0.03930317237973213
1772871636205890300,1.751890380859375,-0.16798827052116394,-0.42154061794281006,-0.35488706827163696
1772871636215824000,1.761823974609375,-0.15079064667224884,-0.7696067094802856,-0.8625146150588989
1772871636225757000,1.7717568359375,-0.08832376450300217,-1.4172762632369995,-1.459173321723938
1772871636235690000,1.78168994140625,0.005979569163173437,-2.1882681846618652,-1.9570965766906738
1772871636245622800,1.791622802734375,0.1884303241968155,-2.82047963142395,-2.265401840209961
1772871636255555800,1.801555908203125,0.46027061343193054,-2.9317851066589355,-2.3326399326324463
1772871636265489000,1.811489013671875,0.6420778632164001,-2.47281551361084,-2.3248729705810547
1772871636275422000,1.821421875,0.7266891598701477,-1.7013776302337646,-2.009911060333252
1772871636285354800,1.831354736328125,0.7354565858840942,-0.6509865522384644,-1.3580093383789062
1772871636295286800,1.841286865234375,0.5156887769699097,0.4650614857673645,-0.5403825044631958
1772871636305219800,1.8512197265625,-0.005583488382399082,1.195319652557373,0.09928149729967117
1772871636315153000,1.86115283203125,-0.6043190956115723,1.3528562784194946,0.386465847492218
1772871636325086000,1.8710859375,-0.961035430431366,0.9637981057167053,0.41833236813545227
1772871636335018800,1.881018798828125,-0.9011009931564331,0.26167938113212585,0.30409926176071167
1772871636344951800,1.890951904296875,-0.4384322166442871,-0.3402955234050751,0.1251545250415802
1772871636354884900,1.900884765625,0.26518160104751587,-0.7216373085975647,-0.06711424887180328
1772871636364818000,1.91081787109375,0.9856043457984924,-0.847538948059082,-0.16078127920627594
1772871636374751000,1.9207509765625,1.5682443380355835,-0.7832411527633667,-0.18133583664894104
1772871636384683000,1.93068310546875,1.8919966220855713,-0.6100698113441467,-0.2220403552055359
1772871636394615800,1.94061572265625,1.8723337650299072,-0.38654401898384094,-0.27324360609054565
1772871636404548900,1.950548828125,1.5278970003128052,-0.16915762424468994,-0.25614532828330994
1772871636414482000,1.96048193359375,1.010436773300171,0.06513503193855286,-0.14270691573619843
1772871636424415000,1.9704150390625,0.49161604046821594,0.23725272715091705,0.07088726758956909
1772871636434347800,1.98034765625,0.10231222957372665,0.3820391893386841,0.39208126068115234
1772871636444280800,1.99028076171875,-0.08272059261798859,0.5396934151649475,0.7606732249259949
1772871636454214000,2.0002138671875,-0.12645955383777618,0.800270140171051,1.1710309982299805
1772871636464147000,2.01014697265625,-0.1330278068780899,1.2007741928100586,1.5954761505126953
1772871636474079700,2.020079833984375,-0.2433183640241623,1.6309183835983276,2.004044771194458
1772871636484011800,2.03001171875,-0.47810232639312744,1.9008586406707764,2.2642199993133545
1772871636493944800,2.03994482421875,-0.608212947845459,0.8745850324630737,1.4120746850967407
1772871636503878000,2.0498779296875,-0.8181743621826172,-0.12259963154792786,0.9457778930664062
1772871636513811000,2.05981103515625,-1.159568428993225,-0.06300288438796997,1.1285372972488403
1772871636523743700,2.06974365234375,-1.3081883192062378,0.1256074756383896,1.3629250526428223
1772871636533676800,2.0796767578125,-1.5181535482406616,0.20072831213474274,1.4549899101257324
1772871636543609900,2.08960986328125,-1.4625133275985718,0.13353516161441803,1.3053189516067505
1772871636553543000,2.09954296875,-1.1321386098861694,0.1259147822856903,0.8395776152610779
1772871636563475000,2.109474853515625,-0.8583758473396301,0.27160805463790894,0.3805232644081116
1772871636573408000,2.119407958984375,-0.590003490447998,0.23072533309459686,0.00925383623689413
1772871636583340800,2.1293408203125,-0.35964715480804443,0.026724454015493393,-0.2178279161453247
1772871636593273900,2.13927392578125,-0.1357157826423645,-0.2521370053291321,-0.36363252997398376
1772871636603207000,2.14920703125,-0.03200184926390648,-0.5564996004104614,-0.4618937373161316
1772871636613140000,2.159139892578125,-0.008143656887114048,-0.7408018112182617,-0.5161447525024414
1772871636623072800,2.16907275390625,-0.05087550729513168,-0.8205045461654663,-0.4602382779121399
1772871636633005800,2.179005859375,-0.12602724134922028,-0.7980442047119141,-0.3195567727088928
1772871636642939000,2.18893896484375,-0.1252821832895279,-0.7559105753898621,-0.16773958504199982
1772871636652871000,2.198870849609375,-0.07147781550884247,-0.6324470043182373,0.0738285705447197
1772871636662804000,2.208803955078125,0.016647031530737877,-0.2567729651927948,0.3082454800605774
1772871636672736800,2.21873681640625,0.056950777769088745,0.31713664531707764,0.4238770008087158
1772871636682669800,2.228669921875,0.015602224506437778,0.8098180890083313,0.3716437816619873
1772871636692603000,2.238602783203125,-0.07524459809064865,1.1256595849990845,0.15509097278118134
1772871636702536000,2.248535888671875,-0.2050284892320633,1.2667855024337769,-0.12183414399623871
1772871636712468700,2.25846875,-0.34100285172462463,1.2972747087478638,-0.38991647958755493
1772871636722401800,2.26840185546875,-0.39858588576316833,1.154686450958252,-0.5672276616096497
1772871636732334800,2.2783349609375,-0.35429003834724426,0.8226643204689026,-0.5928792357444763
1772871636742267000,2.288266845703125,-0.29782095551490784,0.3456464111804962,-0.5630088448524475
1772871636752200000,2.298199951171875,-0.21721585094928741,-0.008229384198784828,-0.46935319900512695
1772871636762133000,2.308133056640625,-0.187129944562912,-0.19010029733181,-0.311442106962204
1772871636772065800,2.318065673828125,-0.24944284558296204,-0.12139767408370972,-0.2078677862882614
1772871636781998800,2.327998779296875,-0.31939390301704407,0.21004649996757507,-0.29524731636047363
1772871636791932000,2.337931884765625,-0.3242533802986145,0.6275105476379395,-0.5865790247917175
1772871636801865000,2.347864990234375,-0.23977717757225037,0.8771175742149353,-1.0820571184158325
1772871636811797800,2.3577978515625,-0.06161675602197647,0.7132503390312195,-1.7546091079711914
1772871636821730800,2.367730712890625,0.12199541181325912,0.054058898240327835,-2.3433878421783447
1772871636831662800,2.377662841796875,0.2786673307418823,-0.5708292126655579,-2.336646556854248
1772871636841596000,2.387595947265625,0.4392409026622772,-0.8827660083770752,-1.628466010093689
1772871636851529000,2.397529052734375,0.5095584392547607,-0.6331047415733337,-0.4357927143573761
1772871636861461800,2.407461669921875,0.4151742160320282,-0.013910816982388496,0.7599923610687256
1772871636871394800,2.417394775390625,0.1649497151374817,0.6481893658638,1.4371098279953003
1772871636881327900,2.427327880859375,-0.21004094183444977,1.112870216369629,1.6543660163879395
1772871636891261000,2.437260986328125,-0.440879762172699,1.390518307685852,1.6122199296951294
1772871636901194000,2.447194091796875,-0.5105130672454834,1.5688475370407104,1.2979775667190552
1772871636911126800,2.457126708984375,-0.4257151186466217,1.4433276653289795,0.78504478931427
1772871636921058800,2.467058837890625,-0.08583983778953552,0.9235117435455322,0.22178247570991516
1772871636930991900,2.476991943359375,0.5191318392753601,0.12122166901826859,-0.2801474928855896
1772871636940925000,2.486925048828125,1.1790385246276855,-0.5923447608947754,-0.6390690803527832
1772871636950858000,2.49685791015625,1.559303879737854,-0.9845426678657532,-0.7973591089248657
1772871636960790800,2.506790771484375,1.5822933912277222,-0.9830785989761353,-0.7557881474494934
1772871636970723800,2.516723876953125,1.3331243991851807,-0.6730064749717712,-0.5522448420524597
1772871636980657000,2.526656982421875,0.908469557762146,-0.15620531141757965,-0.21130523085594177
1772871636990590000,2.53658984375,0.48353660106658936,0.39854365587234497,0.24800562858581543
1772871637000522800,2.546522705078125,0.13619038462638855,0.8223460912704468,0.7659696340560913
1772871637010454800,2.556454833984375,-0.1346011608839035,1.0413767099380493,1.243044376373291
1772871637020387800,2.566387939453125,-0.3342629075050354,0.9814551472663879,1.5684789419174194
1772871637030321000,2.57632080078125,-0.456604540348053,0.7307326197624207,1.729532241821289
1772871637040254000,2.58625390625,-0.4900052845478058,0.49620580673217773,1.8454713821411133
1772871637050186800,2.596186767578125,-0.4193766415119171,0.3935585021972656,1.8675007820129395
1772871637060119800,2.606119873046875,-0.22300772368907928,0.3050166964530945,1.779575228691101
1772871637070052900,2.616052978515625,-0.04224887117743492,0.25509387254714966,1.5776015520095825
1772871637079986000,2.62598583984375,0.017094828188419342,0.4073236882686615,1.4605402946472168
1772871637089919000,2.6359189453125,-0.07678798586130142,0.765969455242157,1.4850066900253296
1772871637099851000,2.64585107421875,-0.28291720151901245,0.9259255528450012,1.3859471082687378
1772871637109783800,2.65578369140625,-0.5542416572570801,0.7842642664909363,1.1280362606048584
1772871637119716900,2.665716796875,-0.7408140897750854,0.5621978044509888,0.7747381925582886
1772871637129650000,2.67564990234375,-0.7923182845115662,0.3240092098712921,0.4125637412071228
1772871637139583000,2.6855830078125,-0.7699371576309204,0.16700851917266846,0.08674433827400208
1772871637149515800,2.695515869140625,-0.6642876863479614,-0.006233569700270891,-0.2450874000787735
1772871637159448800,2.70544873046875,-0.520332396030426,-0.2616964876651764,-0.5497406721115112
1772871637169382000,2.7153818359375,-0.406351238489151,-0.5015838742256165,-0.7355161309242249
1772871637179314000,2.72531396484375,-0.307748943567276,-0.6267538666725159,-0.7159398198127747
1772871637189247000,2.7352470703125,-0.18450450897216797,-0.6335715651512146,-0.4770028591156006
1772871637199179800,2.7451796875,-0.03619664907455444,-0.550713062286377,-0.08971123397350311
1772871637209112800,2.75511279296875,0.10498977452516556,-0.4597543776035309,0.3310908377170563
1772871637219045600,2.765045654296875,0.20378200709819794,-0.3770996630191803,0.6585228443145752
1772871637228978700,2.774978759765625,0.23136889934539795,-0.3110727071762085,0.8088175654411316
1772871637238911700,2.784911865234375,0.17906104028224945,-0.2135837823152542,0.7640814781188965
1772871637248844500,2.794844482421875,0.044566888362169266,-0.0183945894241333,0.5724958181381226
1772871637258777600,2.804777587890625,-0.12690255045890808,0.34281179308891296,0.3057449460029602
1772871637268709600,2.814709716796875,-0.25934529304504395,0.7691308856010437,0.014833472669124603
1772871637278642700,2.824642578125,-0.3378095030784607,1.077463984489441,-0.20561093091964722
1772871637288575700,2.83457568359375,-0.4170073866844177,1.1514880657196045,-0.3175297677516937
1772871637298508500,2.844508544921875,-0.40912389755249023,0.9266065359115601,-0.37832728028297424
1772871637308441600,2.854441650390625,-0.2781972885131836,0.49329930543899536,-0.4041420817375183
1772871637318374700,2.864374755859375,-0.030884552747011185,-0.04243407025933266,-0.43612638115882874
1772871637328307700,2.8743076171875,0.1708003580570221,-0.2880217134952545,-0.2753755748271942
1772871637338240500,2.884240478515625,0.3573165237903595,-0.2575823664665222,-0.08073785156011581
1772871637348172500,2.894172607421875,0.4428007900714874,-0.08218551427125931,-0.03819065913558006
1772871637358105600,2.904105712890625,0.40011224150657654,0.031974002718925476,-0.2619030177593231
1772871637368038700,2.91403857421875,0.42164045572280884,-0.13652846217155457,-0.7691465020179749
1772871637377971700,2.9239716796875,0.5607598423957825,-0.5645201206207275,-1.4892476797103882
1772871637387904800,2.93390478515625,0.7542619705200195,-0.9748751521110535,-2.2289648056030273
1772871637397837600,2.943837646484375,0.982811689376831,-0.9374047517776489,-2.7497146129608154
1772871637407770600,2.9537705078125,1.0478671789169312,-0.3213846981525421,-2.903047800064087
1772871637417703700,2.96370361328125,0.8188393712043762,0.6508224010467529,-2.3801963329315186
1772871637427636700,2.97363671875,0.27411535382270813,1.5633145570755005,-1.4760725498199463
1772871637437568800,2.98356884765625,-0.48107191920280457,1.8912259340286255,-0.7072088122367859
1772871637447501600,2.99350146484375,-1.0729429721832275,1.2753193378448486,-0.18467296659946442
1772871637457434600,3.0034345703125,-1.2050644159317017,0.09612510353326797,0.3386804461479187
1772871637467367700,3.01336767578125,-0.8584713935852051,-0.8688297867774963,0.926530122756958
1772871637477300700,3.02330078125,-0.23704561591148376,-1.1027700901031494,1.3036690950393677
1772871637487233500,3.033233642578125,0.4328267574310303,-0.6703369617462158,1.4018763303756714
1772871637497166600,3.04316650390625,1.0239051580429077,0.23353245854377747,1.1485397815704346
1772871637507099600,3.053099609375,1.4275882244110107,1.0213578939437866,0.438427597284317
1772871637517032700,3.06303271484375,1.5408028364181519,1.095347285270691,-0.6470019817352295
1772871637526964700,3.07296484375,1.368565559387207,0.35307151079177856,-1.7892429828643799
1772871637536897500,3.0828974609375,1.0892761945724487,-0.9298185110092163,-2.6377391815185547
1772871637546830600,3.09283056640625,0.8015655279159546,-1.9930757284164429,-2.845242738723755
1772871637556763600,3.102763671875,0.6258511543273926,-2.3421523571014404,-2.311445474624634
1772871637566696700,3.11269677734375,0.5505201816558838,-2.0029613971710205,-1.3191837072372437
1772871637576629800,3.122629638671875,0.49341079592704773,-1.258194088935852,-0.13220424950122833
1772871637586562600,3.1325625,0.40700826048851013,-0.33715105056762695,1.029051423072815
1772871637596495600,3.14249560546875,0.26077625155448914,0.6530272960662842,1.98868727684021
1772871637606428700,3.1524287109375,0.07046090066432953,1.414099931716919,2.5584235191345215
1772871637616360700,3.162360595703125,-0.24597029387950897,1.6804043054580688,2.6968443393707275
1772871637626293800,3.172293701171875,-0.6229010820388794,1.4329068660736084,2.5152053833007812
1772871637636226600,3.1822265625,-0.9663186073303223,0.8115190267562866,2.222519636154175
1772871637646159600,3.19215966796875,-1.2061578035354614,0.12331562489271164,1.9906889200210571
1772871637656092700,3.2020927734375,-1.2967207431793213,-0.44405993819236755,1.8238252401351929
1772871637666025700,3.212025634765625,-1.1992924213409424,-0.7408559322357178,1.6987676620483398
1772871637675958500,3.22195849609375,-0.9318529963493347,-0.7430688738822937,1.6009632349014282
1772871637685891600,3.2318916015625,-0.47120606899261475,-0.5808027386665344,1.4951691627502441
1772871637695823600,3.24182373046875,0.13532190024852753,-0.6833369135856628,0.9709619879722595
1772871637705756700,3.251756591796875,0.607149600982666,-1.0721873044967651,0.12249194830656052
1772871637715689700,3.261689697265625,1.0836460590362549,-1.193668007850647,-0.3063320219516754
1772871637725622500,3.27162255859375,1.4464774131774902,-0.9311432242393494,-0.3965149223804474
1772871637735555600,3.2815556640625,1.6346368789672852,-0.5854109525680542,-0.3817145824432373
1772871637745488600,3.291488525390625,1.5943565368652344,-0.373305082321167,-0.36003270745277405
1772871637755421700,3.301421630859375,1.3703645467758179,-0.37589508295059204,-0.41312068700790405
1772871637765354800,3.311354736328125,1.06969153881073,-0.41520974040031433,-0.4602658450603485
1772871637775287600,3.32128759765625,0.7713529467582703,-0.29279080033302307,-0.3810964524745941
1772871637785219600,3.331219482421875,0.48874524235725403,-0.030649468302726746,-0.2079198658466339
1772871637795152600,3.341152587890625,0.25014790892601013,0.2712436616420746,0.03920557349920273
1772871637805085700,3.351085693359375,0.05733024328947067,0.5141977071762085,0.2899208962917328
1772871637815018800,3.361018798828125,-0.08656520396471024,0.6564865708351135,0.5021188259124756
1772871637824951600,3.37095166015625,-0.18360120058059692,0.6745126843452454,0.639054000377655
1772871637834884600,3.380884521484375,-0.26151782274246216,0.5865859985351562,0.6782498955726624
1772871637844817700,3.390817626953125,-0.312152236700058,0.3368140459060669,0.6658289432525635
1772871637854750700,3.400750732421875,-0.23195500671863556,0.11717799305915833,0.6873939633369446
1772871637864682800,3.410682861328125,-0.09468583762645721,0.004186992533504963,0.5997498631477356
1772871637874615600,3.420615478515625,0.041919104754924774,-0.06001869589090347,0.49539005756378174
1772871637884548600,3.430548583984375,0.16097944974899292,0.008749713189899921,0.36822542548179626
1772871637894481700,3.440481689453125,0.18382789194583893,0.12458539009094238,0.18786194920539856
1772871637904414700,3.450414794921875,0.12811216711997986,0.22307761013507843,-0.06696555018424988
1772871637914347800,3.46034765625,0.0003186647081747651,0.24389486014842987,-0.3630644679069519
1772871637924280600,3.470280517578125,-0.2343505620956421,0.1660967320203781,-0.5964817404747009
1772871637934213600,3.480213623046875,-0.5136660933494568,0.014261924661695957,-0.9279691576957703
1772871637944145700,3.490145751953125,-0.5751842856407166,-0.23991654813289642,-1.3500503301620483
1772871637954078700,3.50007861328125,-0.35932090878486633,-0.40020135045051575,-1.6839179992675781
1772871637964011800,3.51001171875,-0.043055903166532516,-0.43881452083587646,-1.8886616230010986
1772871637973944600,3.519944580078125,0.26467427611351013,-0.5458219051361084,-1.949208378791809
1772871637983877600,3.529877685546875,0.4440253973007202,-0.5000506639480591,-1.8951834440231323
1772871637993810700,3.539810791015625,0.4449109137058258,-0.40050551295280457,-1.846683144569397
1772871638003743700,3.54974365234375,0.4009911119937897,-0.3590741753578186,-1.7190335988998413
1772871638013676500,3.559676513671875,0.36456382274627686,-0.278809130191803,-1.4015398025512695
1772871638023609600,3.569609619140625,0.08052302896976471,-0.09500548243522644,-1.04508376121521
1772871638033541600,3.579541748046875,-0.49059778451919556,-0.1113402470946312,-0.7678727507591248
1772871638043474700,3.589474609375,-0.9305216073989868,-0.3726762533187866,-0.526130735874176
1772871638053407700,3.59940771484375,-0.9319509267807007,-0.8099534511566162,-0.3435915410518646
1772871638063340500,3.609340576171875,-0.620586097240448,-1.149415135383606,-0.14120353758335114
1772871638073273600,3.619273681640625,-0.17916284501552582,-1.0638457536697388,0.1598535180091858
1772871638083206700,3.62920654296875,0.273654967546463,-0.6052384972572327,0.49374282360076904
1772871638093139700,3.6391396484375,0.5843814611434937,0.0750226303935051,0.7401076555252075
1772871638103072800,3.64907275390625,0.7162801027297974,0.7947565317153931,0.7799155116081238
1772871638113004800,3.6590048828125,0.7039119005203247,1.3476934432983398,0.5546240210533142
1772871638122937600,3.6689375,0.545256495475769,1.43952214717865,0.1390678882598877
1772871638132870700,3.67887060546875,0.32556676864624023,1.0512429475784302,-0.3136958181858063
1772871638142803700,3.6888037109375,0.22628359496593475,0.3948257267475128,-0.5748424530029297
1772871638152736800,3.69873681640625,0.2495013326406479,-0.1538626253604889,-0.4709091782569885
1772871638162669600,3.708669677734375,0.33720001578330994,-0.29732927680015564,-0.07860879600048065
1772871638172602600,3.7186025390625,0.39832431077957153,-0.03961889073252678,0.4158458113670349
1772871638182535700,3.72853564453125,0.30455175042152405,0.4634799361228943,0.9587871432304382
1772871638192468700,3.73846875,0.0834318995475769,1.1226656436920166,1.4159095287322998
1772871638202400800,3.74840087890625,-0.2167401760816574,1.7042884826660156,1.7010390758514404
1772871638212333600,3.75833349609375,-0.5770729780197144,1.872301459312439,1.7224173545837402
1772871638222266600,3.7682666015625,-0.8642762303352356,1.2218464612960815,1.1626187562942505
1772871638232199700,3.77819970703125,-0.9548740386962891,0.1402675211429596,0.3659943640232086
1772871638242132700,3.7881328125,-0.9650430679321289,-0.48483574390411377,0.11490274965763092
1772871638252065500,3.7980654296875,-0.9076871871948242,-0.38879385590553284,0.4042987823486328
1772871638261998600,3.80799853515625,-0.6202303767204285,0.0793485939502716,0.8322548866271973
1772871638271931600,3.817931640625,-0.3745843768119812,0.35046425461769104,0.8229916095733643
1772871638281863400,3.827863525390625,-0.26249486207962036,0.31705302000045776,0.546933650970459
1772871638291796700,3.837796630859375,-0.2020089328289032,0.2623730003833771,0.08384445309638977
1772871638301729800,3.847729736328125,-0.168945774435997,0.19784142076969147,-0.42632851004600525
1772871638311662600,3.85766259765625,-0.13119666278362274,0.15665197372436523,-0.854992687702179
1772871638321595600,3.867595703125,-0.03301897272467613,0.15364153683185577,-1.1073180437088013
1772871638331528700,3.87752880859375,-0.010311530902981758,0.1014009639620781,-1.2139790058135986
1772871638341461800,3.887461669921875,-0.06806063652038574,-0.01810164749622345,-1.1425106525421143
1772871638351394600,3.89739453125,-0.17844510078430176,-0.1791974902153015,-0.8788925409317017
1772871638361326300,3.907326416015625,-0.30282270908355713,-0.23880064487457275,-0.4635193347930908
1772871638371259400,3.91725927734375,-0.3863280415534973,-0.09780535101890564,0.033058639615774155
1772871638381192700,3.927192626953125,-0.4363054633140564,0.20042288303375244,0.45831379294395447
1772871638391125800,3.937125732421875,-0.5044724941253662,0.49289292097091675,0.7051252126693726
1772871638401058600,3.94705859375,-0.5369596481323242,0.7632690072059631,0.7545130252838135
1772871638410991600,3.95699169921875,-0.5327622890472412,0.98158198595047,0.6623571515083313
1772871638420924700,3.966924560546875,-0.550943911075592,1.1156744956970215,0.45937579870224
1772871638430857700,3.976857666015625,-0.6543366312980652,1.1600542068481445,0.2596241235733032
1772871638440789500,3.98678955078125,-0.8083264827728271,1.0957551002502441,0.14895005524158478
1772871638450722600,3.99672265625,-0.8993591070175171,0.9076021909713745,0.1336873173713684
1772871638460655400,4.0066552734375,-0.9227472543716431,0.7022103667259216,0.15675881505012512
1772871638470587400,4.01658740234375,-0.8683817982673645,0.5235961079597473,0.1101524829864502
1772871638480520400,4.0265205078125,-0.6847754716873169,0.4319567382335663,0.014159109443426132
1772871638490453500,4.03645361328125,-0.45216232538223267,0.5098469257354736,-0.05643937736749649
1772871638500386600,4.046386474609375,-0.277892529964447,0.7129893898963928,0.06474883109331131
1772871638510319400,4.0563193359375,-0.24981696903705597,0.7325423359870911,0.07558397948741913
1772871638520252400,4.06625244140625,-0.36669912934303284,0.37011146545410156,-0.11592339724302292
1772871638530185500,4.076185546875,-0.48949605226516724,-0.2782578468322754,-0.3459552824497223
1772871638540118500,4.086118408203125,-0.4596862196922302,-0.815435528755188,-0.6655852198600769
1772871638550050600,4.096050537109375,-0.3255993127822876,-1.0316277742385864,-1.0369573831558228
1772871638559983600,4.105983642578125,-0.1683468371629715,-1.1311956644058228,-1.5836238861083984
1772871638569916400,4.11591650390625,0.012395953759551048,-1.0097500085830688,-2.1680479049682617
1772871638579849500,4.125849365234375,0.2838793694972992,-0.4213082790374756,-2.2703464031219482
1772871638589782500,4.135782470703125,0.4791492819786072,0.4497164189815521,-1.7435493469238281
1772871638599715600,4.145715576171875,0.24242942035198212,1.0135403871536255,-0.8190097212791443
1772871638609648400,4.1556484375,-0.3156462013721466,0.8852864503860474,0.013481413945555687
1772871638619581400,4.16558154296875,-0.6780693531036377,0.1619034856557846,0.7006861567497253
1772871638629514500,4.175514404296875,-0.4970875084400177,-0.3819485008716583,1.5051392316818237
1772871638639446500,4.185446533203125,-0.05300884693861008,-0.46916863322257996,2.072270393371582
1772871638649379600,4.195379638671875,0.3318299651145935,-0.046099428087472916,2.218306064605713
1772871638659312400,4.2053125,0.54322749376297,0.5160789489746094,1.9947612285614014
1772871638669245400,4.215245361328125,0.6295194029808044,0.9388754963874817,1.511364459991455
1772871638679178500,4.225178466796875,0.6607213020324707,0.9566779136657715,0.7949203848838806
1772871638689111600,4.235111572265625,0.6285303235054016,0.3301200568675995,-0.15258362889289856
1772871638699044400,4.24504443359375,0.4822614789009094,-0.6440009474754333,-0.9269352555274963
1772871638708977400,4.254977294921875,0.314558744430542,-1.1937247514724731,-0.9524309635162354
1772871638718909400,4.264909423828125,0.14712287485599518,-1.138444185256958,-0.35173019766807556
1772871638728842500,4.274842529296875,0.03873101621866226,-0.7938010692596436,0.4637905955314636
1772871638738775600,4.284775634765625,-0.00886446237564087,-0.3812721371650696,1.2233039140701294
1772871638748708600,4.29470849609375,-0.06262332201004028,-0.003879537805914879,1.6627601385116577
1772871638758641400,4.304641357421875,-0.12887106835842133,0.21652713418006897,1.6507683992385864
1772871638768574500,4.314574462890625,-0.16100290417671204,0.31253597140312195,1.4307711124420166
1772871638778507500,4.324507568359375,-0.09502281248569489,0.40433990955352783,1.2132606506347656
1772871638788440600,4.334440673828125,0.03201768547296524,0.44049546122550964,1.1649956703186035
1772871638798372600,4.34437255859375,0.152433842420578,0.3996010422706604,1.2179374694824219
1772871638808305400,4.354305419921875,0.23781606554985046,0.26109009981155396,1.1652586460113525
1772871638818238500,4.364238525390625,0.19158518314361572,0.12936189770698547,1.0025856494903564
1772871638828172800,4.3741728515625,0.04622197151184082,0.07422592490911484,0.6672139763832092
1772871638838105600,4.384105712890625,-0.12886808812618256,0.06646493822336197,0.1362137645483017
1772871638848037400,4.394037353515625,-0.27796703577041626,-0.04931621253490448,-0.42313629388809204
1772871638857970400,4.403970458984375,-0.337388813495636,-0.21293708682060242,-0.8211120963096619
1772871638867903500,4.413903564453125,-0.274437814950943,-0.38518401980400085,-1.0417569875717163
1772871638877836500,4.42383642578125,-0.12500330805778503,-0.5802810192108154,-1.0723412036895752
1772871638887769300,4.433769287109375,0.056399617344141006,-0.729398787021637,-0.9217022657394409
1772871638897702400,4.443702392578125,0.22762541472911835,-0.7567710280418396,-0.6489500999450684
1772871638907635500,4.453635498046875,0.312631219625473,-0.645051896572113,-0.32515445351600647
1772871638917568800,4.46356884765625,0.22343583405017853,-0.48526546359062195,-0.02422310598194599
1772871638927500500,4.47350048828125,0.09551223367452621,-0.40128767490386963,0.17428088188171387
1772871638937433600,4.48343359375,-0.013923175632953644,-0.30543944239616394,0.23684227466583252
1772871638947366400,4.493366455078125,-0.09470215439796448,-0.1041489839553833,0.1863960474729538
1772871638957299500,4.503299560546875,-0.10318085551261902,0.1004696637392044,0.10220687836408615
1772871638967232500,4.513232421875,-0.06425876915454865,0.21077923476696014,0.08021186292171478
1772871638977165600,4.52316552734375,0.001868050079792738,0.22172322869300842,0.17476686835289001
1772871638987098400,4.533098388671875,0.10242047905921936,0.17026902735233307,0.26554423570632935
1772871638997031400,4.543031494140625,0.19301429390907288,0.10957746207714081,0.3030465841293335
1772871639006963500,4.55296337890625,0.2321491539478302,0.11022891104221344,0.33914050459861755
1772871639016896500,4.562896484375,0.2054845094680786,0.18353454768657684,0.3833673596382141
1772871639026829600,4.57282958984375,0.1550760716199875,0.36482900381088257,0.4524344205856323
1772871639036762400,4.582762451171875,-0.0010280401911586523,0.676055908203125,0.6834138631820679
1772871639046695400,4.5926953125,-0.21728931367397308,0.8056790828704834,0.5495797991752625
1772871639056628500,4.60262841796875,-0.437059223651886,0.5199756622314453,-0.005172086879611015
1772871639066561500,4.6125615234375,-0.5511856079101562,0.3619171380996704,-0.3733904957771301
1772871639076494300,4.622494384765625,-0.6174506545066833,0.19253025949001312,-0.7211008071899414
1772871639086426600,4.632426513671875,-0.5223037004470825,0.15204639732837677,-0.9348310232162476
1772871639096359400,4.642359375,-0.17350657284259796,0.37215426564216614,-0.9800208210945129
1772871639106292500,4.65229248046875,0.19203825294971466,0.7280330061912537,-0.9043742418289185
1772871639116225500,4.6622255859375,0.25069013237953186,0.942441999912262,-0.9035962820053101
1772871639126158600,4.67215869140625,-0.009182710200548172,0.8527006506919861,-0.805537223815918
1772871639136091400,4.68209130859375,-0.3983280658721924,0.7681460380554199,-0.44799503684043884
1772871639146024400,4.6920244140625,-0.9298586845397949,0.6707636713981628,-0.06013818085193634
1772871639155957500,4.70195751953125,-1.4532350301742554,0.293550580739975,0.05719829723238945
1772871639165889500,4.7118896484375,-1.6210508346557617,-0.6900985836982727,-0.022214747965335846
1772871639175822600,4.721822509765625,-1.2268526554107666,-1.7871365547180176,-0.0415375791490078
1772871639185755400,4.73175537109375,-0.4407213628292084,-2.409036159515381,0.07647864520549774
1772871639195688400,4.7416884765625,0.36932992935180664,-2.2884628772735596,0.13704824447631836
1772871639205621500,4.75162158203125,0.9211663007736206,-1.6470398902893066,0.1250145584344864
1772871639215554800,4.761554931640625,1.1798514127731323,-0.5909541249275208,0.08302184194326401
1772871639225487600,4.771487548828125,1.2613025903701782,0.5611842274665833,0.017178459092974663
1772871639235420700,4.781420654296875,1.0844542980194092,1.321590781211853,-0.08940364420413971
1772871639245352700,4.791352783203125,0.6982411742210388,1.4025886058807373,-0.20443357527256012
1772871639255285800,4.80128564453125,0.3027188181877136,0.802778422832489,-0.23544129729270935
1772871639265218800,4.81121875,0.07367806881666183,-0.21305443346500397,-0.05306127294898033
1772871639275151600,4.821151611328125,0.050575148314237595,-1.1921131610870361,0.2569655478000641
1772871639285084700,4.831084716796875,0.14707961678504944,-1.7331082820892334,0.5737783312797546
1772871639295017700,4.841017822265625,0.2913355827331543,-1.8203949928283691,0.829289436340332
1772871639304950800,4.85095068359375,0.4765009880065918,-1.5956333875656128,0.9997127056121826
1772871639314883600,4.860883544921875,0.6460463404655457,-1.2793488502502441,0.8800699710845947
1772871639324816000,4.87081591796875,0.7243465185165405,-0.9589412212371826,0.44779348373413086
1772871639334748700,4.880748779296875,0.6705130934715271,-0.6329047679901123,-0.027740562334656715
1772871639344681700,4.890681640625,0.44390279054641724,-0.2701025605201721,-0.2688329219818115
1772871639354614800,4.90061474609375,0.08104923367500305,0.12343461811542511,-0.17410613596439362
1772871639364547800,4.9105478515625,-0.24709899723529816,0.39520108699798584,0.11316077411174774
1772871639374480600,4.920480712890625,-0.4433704912662506,0.44418859481811523,0.5069088935852051
1772871639384413700,4.93041357421875,-0.5144874453544617,0.38660329580307007,0.9287688732147217
1772871639394346800,4.9403466796875,-0.5054143667221069,0.4565911591053009,1.3140102624893188
1772871639404278800,4.95027880859375,-0.44277554750442505,0.6292486190795898,1.5698513984680176
1772871639414211800,4.9602119140625,-0.37112879753112793,0.7880523800849915,1.6513108015060425
1772871639424144600,4.97014453125,-0.32032981514930725,0.9575527310371399,1.5019114017486572
1772871639434077700,4.98007763671875,-0.33866167068481445,1.122110366821289,1.1738648414611816
1772871639444010800,4.9900107421875,-0.4618489444255829,1.2289332151412964,0.7595166563987732
1772871639453943800,4.99994384765625,-0.572318971157074,1.2556045055389404,0.2421664446592331
1772871639463876600,5.009876708984375,-0.6393046379089355,1.1035618782043457,-0.24934881925582886
1772871639473809700,5.0198095703125,-0.6690869927406311,0.8357971906661987,-0.6295949816703796
1772871639483741700,5.02974169921875,-0.6452296376228333,0.4236660599708557,-0.9100677967071533
1772871639493674800,5.0396748046875,-0.5845441818237305,-0.06129288673400879,-1.1159701347351074
1772871639503607800,5.04960791015625,-0.4663935601711273,-0.3996622562408447,-1.2100876569747925
1772871639513540900,5.059540771484375,-0.22795835137367249,-0.491207093000412,-1.151031255722046
1772871639523473700,5.0694736328125,0.13517679274082184,-0.45792028307914734,-0.9463172554969788
1772871639533406700,5.07940673828125,0.46154797077178955,-0.3724096417427063,-0.716227650642395
1772871639543339800,5.08933984375,0.6508708596229553,-0.33258795738220215,-0.5425065159797668
1772871639553272800,5.09927294921875,0.6642393469810486,-0.35256513953208923,-0.3668641149997711
1772871639563204900,5.109204833984375,0.5011040568351746,-0.43721461296081543,-0.16714578866958618
1772871639573137700,5.1191376953125,0.22990478575229645,-0.4666723906993866,0.06671039015054703
1772871639583070700,5.12907080078125,-0.02054588496685028,-0.3603714108467102,0.2334495484828949
1772871639593003800,5.139003662109375,-0.2031303495168686,-0.1530432254076004,0.30292394757270813
1772871639602936800,5.148936767578125,-0.3287135660648346,0.06675294041633606,0.3139888048171997
1772871639612869600,5.15886962890625,-0.3909375071525574,0.14638304710388184,0.2614835202693939
1772871639622802700,5.168802734375,-0.3470640480518341,0.12170696258544922,0.23256365954875946
1772871639632735700,5.17873583984375,-0.2089434564113617,0.11049877852201462,0.34234848618507385
1772871639642667800,5.188667724609375,-0.02685323730111122,0.3493207097053528,0.8617254495620728
1772871639652600800,5.198600830078125,0.15713363885879517,0.7413337230682373,1.4106719493865967
1772871639662534000,5.208533935546875,0.22570952773094177,0.921205997467041,1.5780805349349976
1772871639672466700,5.218466796875,0.17998358607292175,0.8580792546272278,1.4670677185058594
1772871639682399700,5.228399658203125,0.048297733068466187,0.7111476063728333,1.0027352571487427
1772871639692332800,5.238332763671875,-0.12496912479400635,0.44075414538383484,0.23727884888648987
1772871639702265900,5.248265869140625,-0.33566707372665405,-0.12648965418338776,-0.8825909495353699
1772871639712198000,5.258197998046875,-0.46992796659469604,-0.8410168290138245,-2.02756929397583
1772871639722130700,5.268130615234375,-0.46214547753334045,-1.43777334690094,-2.9167797565460205
1772871639732063700,5.278063720703125,-0.33510923385620117,-2.099310874938965,-3.34541654586792
1772871639741996800,5.287996826171875,-0.15074372291564941,-2.8529889583587646,-3.166646957397461
1772871639751929900,5.297929931640625,0.07520231604576111,-2.92049241065979,-2.127540349960327
1772871639761862700,5.307862548828125,0.31889063119888306,-2.2286646366119385,-0.5887112617492676
1772871639771795700,5.317795654296875,0.44853144884109497,-1.1121728420257568,0.827508270740509
1772871639781728800,5.327728759765625,0.47016093134880066,-0.23921328783035278,1.7714488506317139
1772871639791660800,5.337660888671875,0.4363928437232971,0.20610904693603516,1.9746712446212769
1772871639801593900,5.34759375,0.19814926385879517,0.4402449131011963,1.4262652397155762
1772871639811526700,5.357526611328125,-0.11143548041582108,0.49424102902412415,0.4230450391769409
1772871639821459700,5.367459716796875,-0.3462020456790924,0.2885861098766327,-0.899637758731842
1772871639831392800,5.377392822265625,-0.5008850693702698,-0.17963731288909912,-2.1554386615753174
1772871639841325800,5.387325927734375,-0.459036648273468,-0.7434703707695007,-3.0430748462677
1772871639851259000,5.3972587890625,-0.18714706599712372,-1.2385663986206055,-3.2067573070526123
1772871639861191700,5.407191650390625,0.16212855279445648,-1.689396858215332,-2.6579766273498535
1772871639871123700,5.417123779296875,0.39662545919418335,-1.9719654321670532,-1.733400821685791
1772871639881056800,5.427056884765625,0.4598502814769745,-2.025207996368408,-0.6971142888069153
1772871639890989800,5.43698974609375,0.3208543360233307,-1.7576309442520142,0.32164520025253296
1772871639900923000,5.4469228515625,0.15804769098758698,-1.0825071334838867,1.254150390625
1772871639910855700,5.456855712890625,0.09524769335985184,-0.08553231507539749,2.1260743141174316
1772871639920788700,5.466788818359375,0.06185745820403099,1.0320212841033936,2.8361587524414062
1772871639930721800,5.4767216796875,-0.02665562927722931,1.7296777963638306,3.202101469039917
1772871639940654800,5.48665478515625,-0.2225644439458847,1.8264135122299194,3.162432909011841
1772871639950587000,5.4965869140625,-0.4231060743331909,1.4074673652648926,2.8553593158721924
1772871639960519700,5.506519775390625,-0.5053683519363403,0.6898899674415588,2.2663378715515137
1772871639970452700,5.51645263671875,-0.5388959646224976,0.044296298176050186,1.5852655172348022
1772871639980385800,5.5263857421875,-0.45595797896385193,-0.14929579198360443,1.0245076417922974
1772871639990318800,5.53631884765625,-0.24081076681613922,0.10195320844650269,0.6416151523590088
1772871640000251600,5.546251708984375,-0.02719656191766262,0.6344999074935913,0.4239794611930847
1772871640010184700,5.556184814453125,0.03738615661859512,1.1385114192962646,0.21315404772758484
1772871640020117800,5.56611767578125,0.019894441589713097,1.349507451057434,-0.03965430706739426
1772871640030049800,5.5760498046875,0.005148252937942743,1.250308632850647,-0.32999637722969055
1772871640039982800,5.58598291015625,0.014157010242342949,0.9166432023048401,-0.668552577495575
1772871640049916000,5.595916015625,-0.018186815083026886,0.4931281805038452,-0.984083890914917
1772871640059848700,5.6058486328125,-0.078265480697155,0.055258847773075104,-1.2157098054885864
1772871640069781800,5.61578173828125,-0.05809416621923447,-0.30211713910102844,-1.2552058696746826
1772871640079714800,5.62571484375,0.0519244521856308,-0.5204555988311768,-1.1087284088134766
1772871640089647900,5.63564794921875,0.1922224462032318,-0.5924258828163147,-0.8423035740852356
1772871640099580000,5.645579833984375,0.328605055809021,-0.4665345251560211,-0.5419434905052185
1772871640109512700,5.6555126953125,0.43016868829727173,-0.1551329642534256,-0.3131340444087982
1772871640119445800,5.66544580078125,0.48884060978889465,0.21035653352737427,-0.14194391667842865
1772871640129378800,5.67537890625,0.5038344860076904,0.47252771258354187,-0.03016120195388794
1772871640139311900,5.685311767578125,0.4448748230934143,0.5479000806808472,0.06307964026927948
1772871640149244700,5.69524462890625,0.34107571840286255,0.5156271457672119,0.19955626130104065
1772871640159177700,5.705177734375,0.21399852633476257,0.39400240778923035,0.39585447311401367
1772871640169110800,5.71511083984375,0.09807271510362625,0.36509087681770325,0.6536297798156738
1772871640179042600,5.72504248046875,-0.021192673593759537,0.44131752848625183,0.9528931379318237
1772871640188975900,5.734975830078125,-0.1488124132156372,0.5870075821876526,1.185465693473816
1772871640198909000,5.744908935546875,-0.24334371089935303,0.7481303811073303,1.2550923824310303
1772871640208841700,5.754841796875,-0.26663756370544434,0.9790104627609253,1.1694831848144531
1772871640218775300,5.764775390625,-0.22909149527549744,1.2606465816497803,1.0380297899246216
1772871640228708400,5.774708251953125,-0.18803167343139648,1.5086511373519897,1.0055725574493408
1772871640238641200,5.78464111328125,-0.13230913877487183,1.740709900856018,1.1409122943878174
1772871640248573200,5.7945732421875,-0.05595231056213379,1.725536584854126,1.395425796508789
1772871640258506200,5.80450634765625,0.023948654532432556,1.4432072639465332,1.6775636672973633
1772871640268439300,5.814439208984375,0.03683009743690491,1.2195558547973633,1.9023206233978271
1772871640278372400,5.824372314453125,-0.0278494693338871,1.0707541704177856,1.7936922311782837
1772871640288305400,5.834305419921875,-0.17548100650310516,0.9169691205024719,1.3975626230239868
1772871640298238200,5.84423828125,-0.2572506368160248,0.5557850003242493,0.8653084635734558
1772871640308171300,5.854171142578125,-0.16869361698627472,-0.13041679561138153,0.10198870301246643
1772871640318104300,5.864104248046875,-0.10546249151229858,-0.6923254728317261,-0.9442806243896484
1772871640328036400,5.874036376953125,-0.1933060735464096,-0.8913198113441467,-2.357646942138672
1772871640337969400,5.883969482421875,-0.47607752680778503,-0.8042698502540588,-3.8476312160491943
1772871640347902200,5.893902099609375,-0.4812653660774231,-0.4143740236759186,-4.831519603729248
1772871640357835300,5.903835205078125,0.022327056154608727,-0.007104017771780491,-4.699619770050049
1772871640367768300,5.913768310546875,0.4619576930999756,0.11556677520275116,-3.410585880279541
1772871640377701400,5.923701416015625,0.3289429545402527,-0.2771105170249939,-1.1441290378570557
1772871640387634200,5.93363427734375,-0.06086287647485733,-0.9512194395065308,1.493332028388977
1772871640397567200,5.943567138671875,-0.25032782554626465,-1.0158586502075195,3.2101221084594727
1772871640407499300,5.953499267578125,-0.23448920249938965,-0.5635756254196167,3.6404147148132324
1772871640417432300,5.963432373046875,-0.11258906126022339,0.18127112090587616,3.165479898452759
1772871640427365400,5.973365478515625,0.18485194444656372,1.10294771194458,2.202380418777466
1772871640437298200,5.983298095703125,0.5957415699958801,1.8070403337478638,0.9862210154533386
1772871640447231200,5.993231201171875,0.9836706519126892,1.675356388092041,-0.347319096326828
1772871640457164300,6.003164306640625,1.391050100326538,0.4082506597042084,-1.8914154767990112
1772871640467097300,6.013097412109375,1.560945987701416,-1.5452661514282227,-3.0886902809143066
1772871640477029400,6.023029296875,1.304099678993225,-3.010678768157959,-3.1458327770233154
1772871640486962400,6.03296240234375,1.0777283906936646,-3.8810129165649414,-2.6134369373321533
1772871640496895200,6.042895263671875,0.8072243332862854,-4.1658782958984375,-1.8479225635528564
1772871640506828300,6.052828369140625,0.4217280149459839,-3.928091049194336,-1.0615342855453491
1772871640516761300,6.06276123046875,0.18420343101024628,-3.2241287231445312,-0.4966627061367035
1772871640526694400,6.0726943359375,0.12666290998458862,-2.1170902252197266,0.03034464456140995
1772871640536627200,6.082627197265625,0.16024477779865265,-0.6789638996124268,0.6492592692375183
1772871640546560300,6.092560302734375,0.18090344965457916,0.6555250883102417,1.2305183410644531
1772871640556492300,6.1024921875,0.0409730039536953,1.4422491788864136,1.6439143419265747
1772871640566425300,6.11242529296875,-0.30415403842926025,1.5623241662979126,1.9075911045074463
1772871640576358400,6.1223583984375,-0.8200815320014954,1.1085225343704224,2.0478389263153076
1772871640586291200,6.132291259765625,-1.3135766983032227,0.3497562110424042,2.0659236907958984
1772871640596224300,6.142224365234375,-1.534937858581543,-0.31904900074005127,1.9608218669891357
1772871640606157300,6.1521572265625,-1.4281232357025146,-0.6693297624588013,1.770501971244812
1772871640616090400,6.16209033203125,-1.0614219903945923,-0.6359766125679016,1.4795098304748535
1772871640626023200,6.172023193359375,-0.5434718132019043,-0.091866135597229,0.9820542931556702
1772871640635955500,6.18195556640625,0.014583171345293522,0.6205922961235046,0.31513187289237976
1772871640645888300,6.19188818359375,0.490003764629364,1.131718635559082,-0.36859506368637085
1772871640655821300,6.2018212890625,0.816253662109375,1.2423007488250732,-0.9491514563560486
1772871640665754400,6.21175439453125,0.9682575464248657,0.9638011455535889,-1.4381184577941895
1772871640675687400,6.2216875,1.0361957550048828,0.32060906291007996,-1.8647526502609253
1772871640685620200,6.2316201171875,0.9951735138893127,-0.31893759965896606,-2.1094655990600586
1772871640695553300,6.24155322265625,0.8154644966125488,-0.7532386183738708,-2.1481103897094727
1772871640705485300,6.2514853515625,0.5520376563072205,-0.9565635323524475,-1.9978177547454834
1772871640715418400,6.26141845703125,0.2871173620223999,-0.9488493204116821,-1.676096796989441
1772871640725351400,6.271351318359375,0.10283832252025604,-0.7868441343307495,-1.2417298555374146
1772871640735284200,6.2812841796875,-0.01807456463575363,-0.5389610528945923,-0.8125647306442261
1772871640745217300,6.29121728515625,-0.12887804210186005,-0.2960067093372345,-0.4884492754936218
1772871640755150300,6.301150390625,-0.20393629372119904,-0.1666128784418106,-0.30550315976142883
1772871640765083400,6.31108349609375,-0.2224375456571579,-0.15721911191940308,-0.24847877025604248
1772871640775016200,6.32101611328125,-0.12262024730443954,-0.21424545347690582,-0.26462092995643616
1772871640784948200,6.3309482421875,0.030725903809070587,-0.2409636229276657,-0.3251812160015106
1772871640794881300,6.34088134765625,0.17585168778896332,-0.19615338742733002,-0.41017258167266846
1772871640804814300,6.350814453125,0.2680452764034271,-0.1358514279127121,-0.4949508607387543
1772871640814747400,6.360747314453125,0.329593688249588,-0.09978994727134705,-0.5360003709793091
1772871640824680400,6.370680419921875,0.33033111691474915,-0.0369955375790596,-0.48594599962234497
1772871640834613200,6.38061328125,0.23376843333244324,0.10039126127958298,-0.33221304416656494
1772871640844546300,6.39054638671875,0.09939809888601303,0.3469323217868805,-0.14072059094905853
1772871640854478000,6.40047802734375,-0.05639752745628357,0.6202282309532166,0.07575152069330215
1772871640864411400,6.410411376953125,-0.2040969729423523,0.8491338491439819,0.3003747761249542
1772871640874344400,6.420344482421875,-0.2871987819671631,0.992374062538147,0.5761749744415283
1772871640884277200,6.43027734375,-0.3957110345363617,1.1402766704559326,0.8577356934547424
1772871640894210300,6.440210205078125,-0.6183473467826843,1.279295802116394,0.8873851299285889
1772871640904143400,6.450143310546875,-0.8007131218910217,1.159224271774292,0.6062080264091492
1772871640914076400,6.460076416015625,-0.935916006565094,0.7813886404037476,-0.03861180320382118
1772871640924009200,6.47000927734375,-0.8928804397583008,0.3223329186439514,-0.80577552318573
1772871640933941200,6.479941162109375,-0.605527400970459,-0.07748808711767197,-1.5262274742126465
1772871640943874000,6.4898740234375,-0.030528590083122253,-0.36561572551727295,-2.0150251388549805
1772871640953807400,6.499807373046875,0.377020001411438,-0.19376637041568756,-2.3070194721221924
1772871640963740400,6.509740478515625,0.40698614716529846,0.2241629660129547,-2.140639305114746
1772871640973673200,6.519673095703125,0.18398182094097137,0.5331039428710938,-1.4514374732971191
1772871640983606300,6.529606201171875,-0.37315812706947327,0.5669671297073364,-0.41410985589027405
1772871640993539300,6.539539306640625,-1.071340799331665,0.5163256525993347,0.8672773241996765
1772871641003471000,6.54947119140625,-1.2870800495147705,0.6250718832015991,2.335928201675415
1772871641013404200,6.559404052734375,-0.9823445677757263,0.8596822619438171,3.435800552368164
1772871641023337200,6.569337158203125,-0.5813537836074829,1.16885507106781,3.6394269466400146
1772871641033270000,6.57927001953125,-0.09996532648801804,1.1550710201263428,3.0234358310699463
1772871641043203300,6.589203369140625,0.5733353495597839,0.8600580096244812,1.8932114839553833
1772871641053136400,6.599136474609375,1.378929615020752,0.32737821340560913,0.4435339868068695
1772871641063069400,6.6090693359375,1.9953280687332153,-0.45892488956451416,-1.1020146608352661
1772871641073002200,6.619002197265625,2.2958898544311523,-1.4806365966796875,-2.4561195373535156
1772871641082934000,6.62893408203125,2.289377450942993,-2.6673319339752197,-3.213475465774536
1772871641092867000,6.6388671875,2.0248897075653076,-3.5369198322296143,-3.095282554626465
1772871641102800100,6.648800048828125,1.6482830047607422,-3.793405771255493,-2.314178705215454
1772871641112733200,6.658733154296875,1.3181742429733276,-3.4280240535736084,-1.3735942840576172
1772871641122666200,6.668666259765625,1.043412208557129,-2.6020348072052,-0.594576358795166
1772871641132599300,6.678599365234375,0.7701078653335571,-1.5363807678222656,-0.11207080632448196
1772871641142532400,6.688532470703125,0.4492637813091278,-0.33770954608917236,0.16071252524852753
1772871641152464100,6.698464111328125,0.011525302194058895,0.6722425222396851,0.4160463213920593
1772871641162397200,6.708397216796875,-0.43441328406333923,1.1490592956542969,0.6488348841667175
1772871641172330200,6.718330322265625,-0.7651260495185852,1.186294674873352,0.8372855186462402
1772871641182263000,6.728262939453125,-0.9239727258682251,0.8865261673927307,1.0482611656188965
1772871641192196000,6.738196044921875,-0.809326171875,0.49726876616477966,1.2818735837936401
1772871641202129200,6.748129150390625,-0.5322902798652649,0.2501623034477234,1.58687424659729
1772871641212062200,6.758062255859375,-0.3758230209350586,0.0437048077583313,1.8132665157318115
1772871641221994800,6.767994873046875,-0.43125006556510925,-0.1607537865638733,1.902718424797058
1772871641231927000,6.777927001953125,-0.6113576889038086,-0.3257203996181488,1.9094551801681519
1772871641241859800,6.78785986328125,-0.8119722604751587,-0.4246547222137451,1.9114621877670288
1772871641251793000,6.79779296875,-0.9611119031906128,-0.3620818257331848,1.953802227973938
1772871641261726000,6.807725830078125,-0.9235831499099731,-0.09378325194120407,1.9582667350769043
1772871641271659000,6.817658935546875,-0.5881540179252625,0.41116195917129517,1.9018583297729492
1772871641281591800,6.827591796875,-0.03294088691473007,1.2424734830856323,1.8552048206329346
1772871641291524900,6.83752490234375,0.48835042119026184,2.0281143188476562,1.6611719131469727
1772871641301457000,6.847456787109375,0.7269747853279114,2.145564079284668,1.1162585020065308
1772871641311390000,6.857389892578125,0.6765798926353455,1.6065727472305298,0.3020738661289215
1772871641321323000,6.867322998046875,0.5284436941146851,0.7638146281242371,-0.46838369965553284
1772871641331255800,6.877255859375,0.38796424865722656,0.11949720233678818,-0.8884044885635376
1772871641341188900,6.88718896484375,0.28294408321380615,-0.10805021226406097,-0.9611641764640808
1772871641351122000,6.897121826171875,0.13328203558921814,-0.09136506170034409,-0.8196235299110413
1772871641361055000,6.907054931640625,-0.08340658992528915,-0.0483374297618866,-0.606249988079071
1772871641370987800,6.91698779296875,-0.2753847539424896,0.03295973315834999,-0.41722801327705383
1772871641380919800,6.926919921875,-0.3813588619232178,0.09263371676206589,-0.2801508605480194
1772871641390852900,6.936852783203125,-0.3582572340965271,0.1681835651397705,-0.19727708399295807
1772871641400786000,6.946785888671875,-0.2734406292438507,0.25943517684936523,-0.097207210958004
1772871641410719000,6.956718994140625,-0.22387278079986572,0.24128247797489166,0.009387064725160599
1772871641420652000,6.966652099609375,-0.23276826739311218,0.11026880890130997,0.13830828666687012
1772871641430584800,6.976584716796875,-0.2597010135650635,-0.07187491655349731,0.23488762974739075
1772871641440518000,6.986517822265625,-0.27714499831199646,-0.16334278881549835,0.30006369948387146
1772871641450450000,6.996449951171875,-0.27804702520370483,-0.06760088354349136,0.3213983178138733
1772871641460383000,7.006383056640625,-0.251737117767334,0.22831307351589203,0.27173009514808655
1772871641470316000,7.01631591796875,-0.20343470573425293,0.5912891030311584,0.18960286676883698
1772871641480248800,7.026248779296875,-0.18429775536060333,0.8053366541862488,0.06682635843753815
1772871641490182000,7.036181884765625,-0.16007478535175323,0.733081579208374,-0.10008301585912704
1772871641500115000,7.046114990234375,-0.10100134462118149,0.5064202547073364,-0.2444481998682022
1772871641510048000,7.056048095703125,-0.04449225589632988,0.2860631048679352,-0.23215743899345398
1772871641519980000,7.06597998046875,0.06928171217441559,0.12504516541957855,0.08739366382360458
1772871641529912800,7.075912841796875,0.07012481987476349,0.27046486735343933,0.36079975962638855
1772871641539846000,7.085845947265625,-0.17283083498477936,0.5911637544631958,0.30336204171180725
1772871641549779000,7.095779052734375,-0.48204174637794495,0.901590883731842,0.0816844254732132
1772871641559712000,7.1057119140625,-0.6256905198097229,1.0557993650436401,-0.14160192012786865
1772871641569644800,7.115644775390625,-0.5631463527679443,1.0840942859649658,-0.40885108709335327
1772871641579577900,7.125577880859375,-0.31712010502815247,0.9620818495750427,-0.758912980556488
1772871641589510000,7.135510009765625,0.20982347428798676,0.5456191897392273,-0.9287572503089905
1772871641599443000,7.14544287109375,0.5442321300506592,-0.1967286616563797,-1.3930375576019287
1772871641609376000,7.1553759765625,0.484764039516449,-1.0771759748458862,-2.0717875957489014
1772871641619309000,7.16530908203125,0.36295849084854126,-1.8093764781951904,-2.550525188446045
1772871641629241900,7.175241943359375,0.2013568878173828,-2.074399709701538,-2.4034337997436523
1772871641639175000,7.1851748046875,0.05013621971011162,-1.6497281789779663,-1.340961217880249
1772871641649108000,7.19510791015625,0.00042840809328481555,-0.6361738443374634,0.28357282280921936
1772871641659040000,7.2050400390625,-0.2118244618177414,0.6600417494773865,1.6916358470916748
1772871641668973000,7.21497314453125,-0.6266856789588928,1.6178544759750366,2.4787681102752686
1772871641678905900,7.22490576171875,-0.9393216371536255,2.127401113510132,2.6058826446533203
1772871641688839000,7.2348388671875,-0.9330076575279236,2.412921190261841,2.247823476791382
1772871641698772000,7.24477197265625,-0.6344992518424988,2.4340009689331055,1.5238947868347168
1772871641708705000,7.254705078125,-0.07365132123231888,1.9292703866958618,0.4488970637321472
1772871641718637800,7.264637939453125,0.7408363223075867,0.5442338585853577,-0.9524620175361633
1772871641728571000,7.27457080078125,1.4882349967956543,-0.8015416264533997,-1.7824749946594238
1772871641738503000,7.2845029296875,1.8620442152023315,-1.5438618659973145,-1.8052152395248413
1772871641748436000,7.29443603515625,1.8105159997940063,-1.797318696975708,-1.4901765584945679
1772871641758369000,7.304369140625,1.370072603225708,-1.75892174243927,-1.1353697776794434
1772871641768302000,7.314302001953125,0.8194316625595093,-1.336822509765625,-0.7315418124198914
1772871641778235000,7.32423486328125,0.5283766388893127,-0.6148216724395752,-0.22081436216831207
1772871641788168000,7.33416796875,0.6163111329078674,0.06691122055053711,0.2579430937767029
1772871641798101000,7.34410107421875,0.9827751517295837,0.2729956805706024,0.4495183825492859
1772871641808033000,7.354032958984375,1.2773839235305786,-0.25730809569358826,0.4943690001964569
1772871641817966000,7.363966064453125,1.2244147062301636,-0.9674719572067261,0.8192075490951538
1772871641827899000,7.37389892578125,0.8430666923522949,-1.1971015930175781,1.351487159729004
1772871641837832000,7.38383203125,0.27925655245780945,-1.082331657409668,1.7680586576461792
1772871641847765000,7.393764892578125,-0.2764519453048706,-0.8193339705467224,1.8784420490264893
1772871641857698000,7.403697998046875,-0.6862521767616272,-0.4487186074256897,1.753088116645813
1772871641867630800,7.413630859375,-0.8496963381767273,-0.05801279842853546,1.4098166227340698
1772871641877564000,7.42356396484375,-0.9239897131919861,0.2771556079387665,0.9013110399246216
1772871641887496000,7.433495849609375,-0.8313140869140625,0.691303014755249,0.5494547486305237
1772871641897429000,7.443428955078125,-0.5263699293136597,1.009183645248413,0.3641032874584198
1772871641907362000,7.453362060546875,-0.4302968680858612,1.0445635318756104,-0.07296592742204666
1772871641917295000,7.463295166015625,-0.5227399468421936,0.8036193251609802,-0.5474549531936646
1772871641927228000,7.473227783203125,-0.685863196849823,0.6274611949920654,-0.9478558897972107
1772871641937161000,7.483160888671875,-0.8566111922264099,0.6197510361671448,-1.1282142400741577
1772871641947094000,7.493093994140625,-0.9424725770950317,0.6257266998291016,-1.1744017601013184
1772871641957026000,7.503026123046875,-1.0002315044403076,0.6187039017677307,-1.158139705657959
1772871641966959000,7.512958984375,-0.9971753358840942,0.5294849872589111,-1.0940401554107666
1772871641976892000,7.522891845703125,-0.8690261840820312,0.48425596952438354,-0.9519525766372681
1772871641986825000,7.532824951171875,-0.6439164876937866,0.4794125258922577,-0.7347689270973206
1772871641996758000,7.542758056640625,-0.41013333201408386,0.46473583579063416,-0.5141774415969849
1772871642006691000,7.552691162109375,-0.2684907019138336,0.3573000133037567,-0.3764747679233551
1772871642016623900,7.562623779296875,-0.15237155556678772,0.27009373903274536,-0.3376733064651489
1772871642026556000,7.572555908203125,-0.04738965258002281,0.283104807138443,-0.40666040778160095
1772871642036489000,7.582489013671875,0.05203067883849144,0.3702319860458374,-0.5433348417282104
1772871642046422000,7.592422119140625,0.11793000251054764,0.4167727828025818,-0.6753864288330078
1772871642056355000,7.60235498046875,0.17673765122890472,0.3802821636199951,-0.7490352988243103
1772871642066287900,7.612287841796875,0.22153867781162262,0.21818619966506958,-0.7174624800682068
1772871642076221000,7.622220947265625,0.23900075256824493,0.04077120125293732,-0.592221736907959
1772871642086154000,7.632154052734375,0.22599567472934723,-0.0758134126663208,-0.5056288242340088
1772871642096086000,7.6420859375,0.20767152309417725,-0.10037494450807571,-0.4991980493068695
1772871642106019000,7.65201904296875,0.22046196460723877,-0.06329527497291565,-0.537903368473053
1772871642115952000,7.6619521484375,0.2894138693809509,-0.026464292779564857,-0.5671573877334595
1772871642125885000,7.671885009765625,0.426069051027298,0.031143981963396072,-0.5276578664779663
1772871642135818000,7.68181787109375,0.5533050894737244,0.04230315983295441,-0.4499974250793457
1772871642145751000,7.6917509765625,0.6368103623390198,-0.07842401415109634,-0.338462769985199
1772871642155684000,7.70168408203125,0.5856918096542358,-0.3070438802242279,-0.18145662546157837
1772871642165616000,7.7116162109375,0.4009784758090973,-0.4781119227409363,0.2567388415336609
1772871642175549000,7.721548828125,0.21440912783145905,-0.3402389883995056,0.524650514125824
1772871642185482000,7.73148193359375,-0.0839739441871643,0.0019293734803795815,0.4517257511615753
1772871642195415000,7.7414150390625,-0.3152197003364563,0.32174333930015564,0.44328007102012634
1772871642205348000,7.75134814453125,-0.4032386243343353,0.7423078417778015,0.5309948921203613
1772871642215281000,7.761281005859375,-0.2368144989013672,1.2148085832595825,0.6205388903617859
1772871642225214000,7.7712138671875,-0.0389268733561039,1.3451749086380005,0.5942792296409607
1772871642235146000,7.78114599609375,0.3552103042602539,1.420534372329712,0.8676130771636963
1772871642245079000,7.7910791015625,0.8427466750144958,1.2880780696868896,0.24631211161613464
1772871642255012000,7.80101220703125,1.1526638269424438,1.8048242330551147,-0.8149953484535217
1772871642264945200,7.810945068359375,0.7956559658050537,0.7860146164894104,-2.0459914207458496
1772871642274878000,7.8208779296875,-0.30096718668937683,-1.1459332704544067,-2.544081926345825
1772871642284811000,7.83081103515625,-1.4667551517486572,-2.328190565109253,-1.3004032373428345
1772871642294744000,7.840744140625,-1.9809010028839111,-1.9517366886138916,1.0198620557785034
1772871642304677000,7.850677001953125,-1.8450376987457275,-0.24592120945453644,3.209503412246704
1772871642314609200,7.860609130859375,-1.0932934284210205,1.5701508522033691,4.513464450836182
1772871642324542000,7.8705419921875,-0.3378760814666748,2.568354606628418,4.467804431915283
1772871642334475000,7.88047509765625,0.2922869622707367,2.1663708686828613,2.5473012924194336
1772871642344408000,7.890407958984375,0.95147705078125,0.36258018016815186,-0.2779247462749481
1772871642354341000,7.900341064453125,1.5730758905410767,-1.7817527055740356,-2.5288946628570557
1772871642364274000,7.91027392578125,2.0227930545806885,-3.0699734687805176,-3.8143768310546875
1772871642374207000,7.92020703125,2.1069746017456055,-3.0163815021514893,-4.154467582702637
1772871642384139000,7.930138916015625,1.4844807386398315,-2.0103135108947754,-3.542004346847534
1772871642394072000,7.940072021484375,0.6702653765678406,-0.8133333325386047,-1.8373422622680664
1772871642404005000,7.950005126953125,0.33060306310653687,0.21853259205818176,0.41965118050575256
1772871642413938000,7.95993798828125,0.34785422682762146,0.725509762763977,2.304774045944214
1772871642423871000,7.96987109375,0.3093029260635376,0.604745090007782,3.135967493057251
1772871642433804000,7.979803955078125,0.054608315229415894,-0.0066663166508078575,3.017627239227295
1772871642443737000,7.989737060546875,-0.30279186367988586,-0.6930409669876099,2.358076810836792
1772871642453669000,7.999669189453125,-0.5671126842498779,-1.181017518043518,1.437855839729309
1772871642463602200,8.009602294921875,-0.6216909885406494,-1.2830560207366943,0.5008058547973633
1772871642473535000,8.019534912109375,-0.46748998761177063,-0.7734198570251465,-0.05621076747775078
1772871642483467000,8.029467041015625,-0.22228959202766418,0.17583131790161133,-0.23734501004219055
1772871642493400000,8.039400146484375,-0.1323477178812027,0.8300163149833679,-0.31786757707595825
1772871642503333000,8.0493330078125,-0.1971280872821808,0.9131388664245605,-0.47001171112060547
1772871642513266200,8.05926611328125,-0.2669260799884796,0.679841160774231,-0.5380336046218872
1772871642523199000,8.069198974609375,-0.32683026790618896,0.39866581559181213,-0.4514773488044739
1772871642533132000,8.079132080078125,-0.3984317481517792,0.324106901884079,-0.28454267978668213
1772871642543064000,8.08906396484375,-0.4675281345844269,0.3777133524417877,-0.19290423393249512
1772871642552997000,8.0989970703125,-0.5461931228637695,0.4680972993373871,-0.19768914580345154
1772871642562930200,8.10893017578125,-0.6549849510192871,0.5077484846115112,-0.3045555651187897
1772871642572863000,8.118863037109374,-0.6823174953460693,0.4835885167121887,-0.4756152033805847
1772871642582796000,8.128796142578125,-0.6002039313316345,0.48027050495147705,-0.6083819270133972
1772871642592729000,8.13872900390625,-0.47086620330810547,0.564993143081665,-0.6463439464569092
1772871642602662100,8.148662109375,-0.33501875400543213,0.627232551574707,-0.5905181765556335
1772871642612595200,8.15859521484375,-0.2348538041114807,0.5868901610374451,-0.45267000794410706
1772871642622527200,8.16852734375,-0.1807509809732437,0.43150219321250916,-0.2752342224121094
1772871642632460000,8.1784599609375,-0.07885975390672684,0.2497270703315735,-0.16118142008781433
1772871642642393000,8.18839306640625,0.0471663773059845,0.055317774415016174,-0.12035173922777176
1772871642652326100,8.198326171875,0.1547277271747589,-0.08298444747924805,-0.15872494876384735
1772871642662259200,8.20825927734375,0.22265547513961792,-0.14878082275390625,-0.2478465884923935
1772871642672192000,8.21819189453125,0.2637064754962921,-0.1302124559879303,-0.3551751971244812
1772871642682124000,8.2281240234375,0.2876894772052765,-0.16472496092319489,-0.3808019459247589
1772871642692057000,8.23805712890625,0.2854793071746826,-0.2385517805814743,-0.3260207176208496
1772871642701990100,8.247990234375,0.2664242088794708,-0.2966636121273041,-0.22052916884422302
1772871642711923200,8.257923095703125,0.2448693960905075,-0.33358675241470337,-0.08098513633012772
1772871642721856000,8.26785595703125,0.21118174493312836,-0.3814148008823395,0.013953940942883492
1772871642731789000,8.2777890625,0.15675978362560272,-0.38346996903419495,0.1569497138261795
1772871642741722000,8.28772216796875,0.13058334589004517,-0.30204594135284424,0.46842774748802185
1772871642751654100,8.297654052734375,-0.0024785539135336876,-0.08374638110399246,0.6760360598564148
1772871642761587200,8.307587158203125,-0.20766735076904297,0.1528027206659317,0.6948615908622742
1772871642771520300,8.317520263671875,-0.30502215027809143,0.39349761605262756,0.6045170426368713
1772871642781453000,8.327453125,-0.3009836673736572,0.5897266864776611,0.36831796169281006
1772871642791386000,8.33738623046875,-0.01710001938045025,0.34432119131088257,-0.048305612057447433
1772871642801319200,8.347319091796875,0.20936143398284912,-0.1306208074092865,-0.3991156220436096
1772871642811252200,8.357252197265625,0.034784041345119476,-0.36656060814857483,-0.7428205013275146
1772871642821184300,8.367184326171875,-0.5690271854400635,-0.8375162482261658,-1.3422214984893799
1772871642831117000,8.377116943359376,-1.3057329654693604,-1.784163475036621,-1.857153058052063
1772871642841050000,8.387050048828126,-1.638911485671997,-3.109074354171753,-1.9790091514587402
1772871642850983200,8.396983154296874,-1.5572962760925293,-3.673718214035034,-1.4592887163162231
1772871642860916200,8.406916259765625,-1.2270777225494385,-3.201843500137329,-0.22231297194957733
1772871642870849000,8.41684912109375,-0.559066653251648,-2.1432926654815674,1.4280561208724976
1772871642880782000,8.426781982421875,0.14072775840759277,-0.828220546245575,2.5486679077148438
1772871642890715100,8.436715087890626,0.47557419538497925,0.20921200513839722,2.7968616485595703
1772871642900647200,8.446647216796874,0.45706236362457275,0.6330695152282715,2.2622392177581787
1772871642910580200,8.456580322265625,0.27619725465774536,0.575499415397644,1.2197871208190918
1772871642920513300,8.46651318359375,0.17884279787540436,-0.1459863781929016,-0.16370688378810883
1772871642930446000,8.476446044921875,0.22419936954975128,-1.2683758735656738,-1.4531325101852417
1772871642940379100,8.486379150390626,0.35248827934265137,-2.0974206924438477,-1.97456693649292
1772871642950312200,8.496312255859374,0.5431264638900757,-2.281467914581299,-1.688078761100769
1772871642960245200,8.506245361328125,0.7289126515388489,-1.9017218351364136,-1.0245977640151978
1772871642970177300,8.51617724609375,0.867418110370636,-1.301475167274475,-0.34180036187171936
1772871642980110000,8.526110107421875,1.021960973739624,-0.7671375274658203,0.12435127794742584
1772871642990043100,8.536043212890625,1.0789457559585571,-0.3263034224510193,0.4445790946483612
1772871642999976200,8.54597607421875,1.0060176849365234,0.07836426794528961,0.7414895296096802
1772871643009909200,8.5559091796875,0.823651909828186,0.306429922580719,0.9853650331497192
1772871643019842000,8.565842041015625,0.6049218773841858,0.28300774097442627,1.1169638633728027
1772871643029775000,8.575775146484375,0.4110378623008728,0.15883812308311462,1.2154403924942017
1772871643039707100,8.58570703125,0.19117486476898193,0.09507562220096588,1.4262635707855225
1772871643049640200,8.59564013671875,-0.19197945296764374,-0.007261131424456835,1.665685772895813
1772871643059573200,8.6055732421875,-0.44597309827804565,0.1775529831647873,2.0303096771240234
1772871643069506000,8.615506103515624,-0.5386228561401367,0.5426268577575684,2.1568453311920166
1772871643079439000,8.625439208984375,-0.4899921417236328,0.8780742287635803,1.8820143938064575
1772871643089372200,8.6353720703125,-0.4046623110771179,1.1969894170761108,1.3199241161346436
1772871643099305200,8.64530517578125,-0.3427106440067291,1.4867143630981445,0.8340526819229126
1772871643109237200,8.6552373046875,-0.373166561126709,1.6299265623092651,0.4550933837890625
1772871643119170300,8.66517041015625,-0.5222670435905457,1.4780287742614746,0.039357129484415054
1772871643129103000,8.67510302734375,-0.6105771660804749,1.1097663640975952,-0.45939090847969055
1772871643139036200,8.6850361328125,-0.674174427986145,0.7688295245170593,-0.8242530226707458
1772871643148969200,8.69496923828125,-0.6500903964042664,0.49623849987983704,-1.1364933252334595
1772871643158902300,8.70490234375,-0.5632267594337463,0.33715811371803284,-1.3886162042617798
1772871643168834300,8.714834228515626,-0.461777925491333,0.29921048879623413,-1.5357017517089844
1772871643178767000,8.72476708984375,-0.3133813738822937,0.32654261589050293,-1.5318411588668823
1772871643188700200,8.7347001953125,-0.16294364631175995,0.3577072024345398,-1.3747040033340454
1772871643198633200,8.74463330078125,-0.013867058791220188,0.31136226654052734,-1.1151821613311768
1772871643208566300,8.754566162109375,0.09484850615262985,0.12435829639434814,-0.8114740252494812
1772871643218499600,8.76449951171875,0.1582353413105011,-0.08337587118148804,-0.5474553108215332
1772871643228432600,8.7744326171875,0.20505905151367188,-0.23227614164352417,-0.38536545634269714
1772871643238364400,8.784364501953124,0.24882788956165314,-0.23300212621688843,-0.3113769292831421
1772871643248297500,8.79429736328125,0.26779118180274963,-0.07204838842153549,-0.2887760102748871
1772871643258230800,8.804230712890625,0.29266080260276794,0.11826573312282562,-0.27653437852859497
1772871643268163600,8.81416357421875,0.3177565634250641,0.2259754091501236,-0.26483431458473206
1772871643278096600,8.8240966796875,0.30023393034935,0.24663595855236053,-0.26917538046836853
1772871643288029700,8.83402978515625,0.2584894001483917,0.2154863029718399,-0.25956910848617554
1772871643297962800,8.843962646484375,0.1707286834716797,0.16822195053100586,-0.20454584062099457
1772871643307894500,8.85389453125,0.07419655472040176,0.14517842233181,-0.14343002438545227
1772871643317827600,8.86382763671875,0.012550818733870983,0.20872820913791656,-0.09432263672351837
1772871643327760400,8.873760498046876,0.02826400101184845,0.3119368553161621,0.002159958705306053
1772871643337693400,8.883693359375,0.07797246426343918,0.42716631293296814,0.1276908665895462
1772871643347626800,8.893626708984375,0.12802498042583466,0.5000165700912476,0.1919795721769333
1772871643357559800,8.903559814453125,0.11336522549390793,0.48021194338798523,0.3405154049396515
1772871643367492600,8.91349267578125,0.02263319119811058,0.5597459077835083,0.7041769623756409
1772871643377424400,8.92342431640625,-0.23799200356006622,0.6019434332847595,0.9587445259094238
1772871643387357400,8.933357421875,-0.5397710204124451,0.38641276955604553,0.8993783593177795
1772871643397290500,8.94329052734375,-0.6598177552223206,0.08129525184631348,0.3237711787223816
1772871643407223600,8.9532236328125,-0.453365296125412,-0.22276504337787628,-0.45656004548072815
1772871643417156400,8.96315625,0.023997822776436806,-0.293829083442688,-0.9915374517440796
1772871643427089400,8.97308935546875,0.4037483036518097,0.16004057228565216,-1.2168924808502197
1772871643437022700,8.983022705078126,0.23970326781272888,0.39883139729499817,-1.7209454774856567
1772871643446954500,8.99295458984375,-0.3371294140815735,-0.3776278495788574,-2.423632860183716
1772871643456887600,9.002887451171874,-0.886471688747406,-1.6265144348144531,-2.469888687133789
1772871643466820400,9.0128203125,-1.0148613452911377,-2.100796699523926,-1.2208560705184937
1772871643476753400,9.02275341796875,-0.7561611533164978,-1.305884838104248,0.6920943260192871
1772871643486686500,9.0326865234375,-0.5196071863174438,0.0881330668926239,2.142029285430908
1772871643496619500,9.04261962890625,-0.3861701786518097,1.1778143644332886,2.6514883041381836
1772871643506552600,9.052552490234374,-0.10290384292602539,1.5719188451766968,2.298473834991455
1772871643516484600,9.062484619140625,0.3930613100528717,1.4466314315795898,1.4603221416473389
1772871643526417400,9.07241748046875,0.8705703616142273,0.9810439944267273,0.4719628393650055
1772871643536350500,9.0823505859375,1.1512892246246338,0.2802387773990631,-0.5028455853462219
1772871643546283500,9.092283447265626,1.2172272205352783,-0.5066097378730774,-1.1527702808380127
1772871643556216600,9.102216552734374,1.1258833408355713,-1.2613356113433838,-1.2335598468780518
1772871643566149400,9.1121494140625,0.9295936822891235,-1.936231255531311,-0.9852057099342346
1772871643576082400,9.12208251953125,0.7700934410095215,-2.2641513347625732,-0.7069383859634399
1772871643586014500,9.132014404296875,0.6965377330780029,-2.186795234680176,-0.546289324760437
1772871643595947500,9.141947509765625,0.7020693421363831,-1.754015564918518,-0.5707448124885559
1772871643605880600,9.151880615234376,0.7062782049179077,-1.1750004291534424,-0.6841725707054138
1772871643615813400,9.1618134765625,0.5815407633781433,-0.6661891341209412,-0.5929619669914246
1772871643625746400,9.171746337890625,0.3795921504497528,-0.20569156110286713,-0.25738951563835144
1772871643635679500,9.181679443359375,0.19034990668296814,0.18064559996128082,0.16094864904880524
1772871643645612500,9.191612548828125,-0.012243150733411312,0.39635100960731506,0.5008383393287659
1772871643655544600,9.201544677734375,-0.23102548718452454,0.35277944803237915,0.7286286950111389
1772871643665477600,9.2114775390625,-0.3466724753379822,0.24961230158805847,0.9339349865913391
1772871643675410400,9.221410400390624,-0.42905193567276,0.18531236052513123,1.20798921585083
1772871643685343500,9.231343505859375,-0.5067075490951538,0.11455857008695602,1.4693573713302612
1772871643695276500,9.241276611328125,-0.5089499950408936,0.14896106719970703,1.7707710266113281
1772871643705209600,9.251209716796875,-0.5495445728302002,0.38399407267570496,1.9908331632614136
1772871643715142400,9.261142333984376,-0.5579954981803894,0.7114915251731873,1.8975468873977661
1772871643725074400,9.271074462890626,-0.5050609111785889,0.9334611892700195,1.4280449151992798
1772871643735007500,9.281007568359374,-0.4558560848236084,0.8287099599838257,0.5986462831497192
1772871643744940500,9.2909404296875,-0.4771832227706909,0.5198813080787659,-0.37345895171165466
1772871643754873600,9.30087353515625,-0.5108578205108643,0.2798064053058624,-1.1928025484085083
1772871643764806400,9.310806396484375,-0.4830208718776703,0.18785707652568817,-1.7599937915802002
1772871643774739500,9.320739501953126,-0.3761596977710724,0.14438660442829132,-2.0746102333068848
1772871643784671500,9.33067138671875,-0.2376289814710617,0.12634128332138062,-2.1533613204956055
1772871643794604500,9.3406044921875,-0.0643136277794838,0.08021651953458786,-1.9777990579605103
1772871643804537600,9.35053759765625,0.07043380290269852,-0.029333144426345825,-1.5764793157577515
1772871643814470700,9.360470703125,0.1278141587972641,-0.07915465533733368,-1.0531275272369385
1772871643824403500,9.370403564453126,0.08355241268873215,-0.11488229036331177,-0.5546740889549255
1772871643834336500,9.38033642578125,-0.006130517460405827,-0.12830643355846405,-0.13103602826595306
1772871643844269600,9.39026953125,-0.027980156242847443,-0.02074163407087326,0.222594752907753
1772871643854201600,9.40020166015625,-0.011733215302228928,0.1382804960012436,0.41628384590148926
1772871643864134700,9.410134765625,-0.010502835735678673,0.24759182333946228,0.4199717938899994
1772871643874067500,9.4200673828125,-0.000625555869191885,0.2610110640525818,0.31474533677101135
1772871643884000500,9.43000048828125,0.050074104219675064,0.21156573295593262,0.1749163269996643
1772871643893933600,9.43993359375,0.1281161606311798,0.13635914027690887,0.07575959712266922
1772871643903866600,9.44986669921875,0.19365309178829193,0.11762354522943497,0.05404391884803772
1772871643913799400,9.45979931640625,0.1976127028465271,0.17025458812713623,0.10992996394634247
1772871643923731500,9.4697314453125,0.16428537666797638,0.298749715089798,0.2053728699684143
1772871643933664500,9.47966455078125,0.12417055666446686,0.41151726245880127,0.22277437150478363
1772871643943597600,9.48959765625,0.05893988907337189,0.5056658983230591,0.15530531108379364
1772871643953530600,9.499530517578124,-0.041564200073480606,0.6204391717910767,0.050294291228055954
1772871643963463400,9.50946337890625,-0.16869604587554932,0.7536856532096863,-0.0070771221071481705
1772871643973396500,9.519396484375,-0.28137481212615967,0.8139786124229431,0.04936053603887558
1772871643983328500,9.52932861328125,-0.3465263843536377,0.7617995738983154,0.15309305489063263
1772871643993261600,9.539261474609376,-0.42114099860191345,0.6023983359336853,0.377566933631897
1772871644003194600,9.549194580078124,-0.5763154029846191,0.7535545229911804,0.8438035845756531
1772871644013127700,9.559127685546875,-0.8744174242019653,0.8336665630340576,0.752590537071228
1772871644023060500,9.569060546875,-1.1157269477844238,0.722093939781189,0.3789684474468231
1772871644032993500,9.57899365234375,-1.1479724645614624,0.5304606556892395,-0.12149415165185928
1772871644042926600,9.588926513671876,-0.959941029548645,0.44429993629455566,-0.7299262881278992
1772871644052858600,9.598858642578126,-0.7886638641357422,0.1597643345594406,-1.7447972297668457
1772871644062791700,9.608791748046874,-0.6297541260719299,-0.48785969614982605,-2.69350528717041
1772871644072724500,9.618724365234375,-0.6047297716140747,-1.4900420904159546,-3.3626489639282227
1772871644082657500,9.628657470703125,-0.7672089338302612,-2.6914002895355225,-3.3334131240844727
1772871644092590600,9.638590576171875,-0.7698067426681519,-3.3058149814605713,-2.184840679168701
1772871644102523600,9.648523681640626,-0.8072939515113831,-2.7200729846954346,-0.41505730152130127
1772871644112456400,9.65845654296875,-0.4202851951122284,-0.9984668493270874,1.9081817865371704
1772871644122388500,9.668388427734374,0.1896572709083557,1.1368087530136108,3.747098207473755
1772871644132321500,9.678321533203125,0.20672756433486938,2.5818793773651123,4.116210460662842
1772871644142254600,9.688254638671875,-0.20689064264297485,2.5831735134124756,3.341268301010132
1772871644152187600,9.698187744140625,-0.5384752750396729,1.7693759202957153,2.095241069793701
1772871644162120700,9.70812060546875,-0.6028950214385986,0.9705550074577332,1.0064377784729004
1772871644172053500,9.718053466796874,-0.4118902087211609,0.5334823131561279,0.16952712833881378
1772871644181986600,9.727986572265625,0.08629774302244186,0.12100900709629059,-0.48968541622161865
1772871644191918600,9.737918701171875,0.807596743106842,-0.27494654059410095,-0.7056150436401367
1772871644201851600,9.7478515625,1.535559058189392,-0.5848433971405029,-0.5980401039123535
1772871644211784700,9.75778466796875,1.9422829151153564,-0.8764153122901917,-0.5649370551109314
1772871644221717000,9.767717041015626,1.895597219467163,-1.0648409128189087,-0.6350045800209045
1772871644231649800,9.77764990234375,1.4165868759155273,-0.9771572351455688,-0.7453689575195312
1772871644241582800,9.787582763671875,0.8632499575614929,-0.6070830821990967,-0.7357818484306335
1772871644251516000,9.797515869140625,0.48174524307250977,-0.0667906105518341,-0.4785129427909851
1772871644261448000,9.807447998046875,0.30118799209594727,0.3962723910808563,-0.1087183952331543
1772871644271381000,9.817381103515626,0.278900146484375,0.5391836762428284,0.31221291422843933
1772871644281313800,9.827313720703126,0.3508017659187317,0.31166261434555054,0.6067638397216797
1772871644291246800,9.837246826171874,0.36219456791877747,0.07766690850257874,0.8425002694129944
1772871644301180000,9.847179931640625,0.2532246708869934,0.06062427535653114,1.0626845359802246
1772871644311113000,9.857113037109375,0.06066256761550903,0.2985122501850128,1.2254173755645752
1772871644321045000,9.867044921875,-0.11153022944927216,0.6251292824745178,1.1751991510391235
1772871644330977800,9.876977783203126,-0.2709107995033264,0.7608010172843933,0.9064487814903259
1772871644340910800,9.886910888671874,-0.3503126800060272,0.6867518424987793,0.5220564007759094
1772871644350844000,9.896843994140625,-0.3106961250305176,0.5654823780059814,0.14985360205173492
1772871644360777000,9.90677685546875,-0.2910028398036957,0.274537056684494,-0.2957736551761627
1772871644370710000,9.9167099609375,-0.2832430303096771,-0.13393567502498627,-0.8242814540863037
1772871644380642800,9.926642822265626,-0.19783170521259308,-0.43497008085250854,-1.3027596473693848
1772871644390574800,9.936574951171876,-0.05381995067000389,-0.4972004294395447,-1.60140061378479
1772871644400508000,9.9465078125,0.09099262952804565,-0.420894980430603,-1.7747136354446411
1772871644410441000,9.95644091796875,0.21826393902301788,-0.27263331413269043,-1.8374398946762085
1772871644420374000,9.9663740234375,0.18035970628261566,-0.1600271314382553,-1.795634150505066
1772871644430306800,9.976306884765625,0.03031345270574093,-0.16286388039588928,-1.6840347051620483
1772871644440239900,9.986239990234376,-0.1509396880865097,-0.20753175020217896,-1.437878966331482
1772871644450171600,9.996171630859376,-0.2674945592880249,-0.20682686567306519,-1.0427720546722412
1772871644460104700,10.006104736328124,-0.23871083557605743,-0.15274205803871155,-0.5642164349555969
1772871644470038000,10.0160380859375,-0.13212542235851288,-0.04008789733052254,-0.13227811455726624
1772871644479970800,10.025970703125,-0.022105446085333824,0.0845395103096962,0.17245995998382568
1772871644489903900,10.03590380859375,0.08315634727478027,0.21061697602272034,0.31964540481567383
1772871644499837000,10.0458369140625,0.1559075117111206,0.3533112704753876,0.34453797340393066
1772871644509770000,10.05577001953125,0.20343394577503204,0.5319066047668457,0.3309430480003357
1772871644519701800,10.06570166015625,0.22511553764343262,0.6480939388275146,0.3223778009414673
1772871644529634800,10.075634765625,0.21774780750274658,0.6982276439666748,0.33848726749420166
1772871644539567600,10.085567626953125,0.17983344197273254,0.7104563117027283,0.38259291648864746
1772871644549500700,10.095500732421876,0.12643936276435852,0.6676695942878723,0.4543360471725464
1772871644559434000,10.10543408203125,0.05645788088440895,0.5583255290985107,0.5203241109848022
1772871644569367000,10.115366943359374,-0.02182697504758835,0.450577050447464,0.5287588834762573
1772871644579298800,10.125298828125,-0.10792111605405807,0.4366697669029236,0.45481839776039124
1772871644589231600,10.135231689453125,-0.17073677480220795,0.47626954317092896,0.3489146828651428
1772871644599164700,10.14516455078125,-0.18684649467468262,0.5630739331245422,0.22330163419246674
1772871644609097700,10.15509765625,-0.18910379707813263,0.6150411367416382,0.09865767508745193
1772871644619030800,10.16503076171875,-0.1453334093093872,0.6941753625869751,0.17919646203517914
1772871644628963600,10.174963623046875,-0.17460568249225616,0.8295713067054749,0.3881293833255768
1772871644638896600,10.184896728515625,-0.36226826906204224,0.760376513004303,0.2675126791000366
1772871644648828700,10.19482861328125,-0.5998767614364624,0.45741334557533264,-0.04734262451529503
1772871644658761700,10.20476171875,-0.7421545386314392,0.22987790405750275,-0.5546798706054688
1772871644668694800,10.21469482421875,-0.6881125569343567,-0.0327807255089283,-1.352342128753662
1772871644678627800,10.2246279296875,-0.46375080943107605,-1.071696400642395,-2.5244898796081543
1772871644688560600,10.234560546875,-0.005070724990218878,-2.7470953464508057,-3.3856778144836426
1772871644698493700,10.24449365234375,0.2741124629974365,-4.269880771636963,-3.553009271621704
1772871644708426800,10.2544267578125,0.39293840527534485,-4.879734039306641,-2.7556960582733154
1772871644718358800,10.26435888671875,0.5849789381027222,-3.6877925395965576,-0.6895111799240112
1772871644728291800,10.274291748046876,0.700011670589447,-1.109771728515625,1.1589633226394653
1772871644738224600,10.284224609375,0.3149353265762329,1.7397328615188599,2.2474067211151123
1772871644748157700,10.29415771484375,-0.17610062658786774,3.300002098083496,2.462890863418579
1772871644758090800,10.3040908203125,-0.4030013978481293,3.3232052326202393,2.0296921730041504
1772871644768023800,10.31402392578125,-0.29950428009033203,2.46108341217041,1.329032301902771
1772871644777955800,10.323955810546876,0.0766267403960228,1.3658411502838135,0.7503479719161987
1772871644787888600,10.333888671875,0.5933985114097595,0.28551092743873596,0.41268765926361084
1772871644797821700,10.34382177734375,1.1232575178146362,-0.4704779386520386,0.1269128918647766
1772871644807754800,10.353754638671875,1.4670565128326416,-0.8838093876838684,-0.3037889897823334
1772871644817687800,10.363687744140625,1.5598459243774414,-1.1643328666687012,-0.8677993416786194
1772871644827620900,10.373620849609376,1.46957528591156,-1.290728211402893,-1.379313349723816
1772871644837553700,10.3835537109375,1.2098337411880493,-1.2360798120498657,-1.6414270401000977
1772871644847485700,10.393485595703124,0.8815484046936035,-0.9466924071311951,-1.6021970510482788
1772871644857418800,10.403418701171875,0.56209796667099,-0.48896241188049316,-1.2373173236846924
1772871644867351800,10.413351806640625,0.2755638062953949,-0.03164748474955559,-0.5972592234611511
1772871644877284900,10.423284912109375,0.025179799646139145,0.3298124670982361,0.2694588005542755
1772871644887217700,10.4332177734375,-0.13443396985530853,0.5605735182762146,1.2552739381790161
1772871644897150700,10.443150634765624,-0.17451080679893494,0.7064745426177979,2.2012500762939453
1772871644907083800,10.453083740234375,-0.22010214626789093,0.807062029838562,3.0216822624206543
1772871644917015800,10.463015869140625,-0.32342854142189026,0.9740315675735474,3.6138594150543213
1772871644926948900,10.472948974609375,-0.5162892937660217,1.1376309394836426,3.7927839756011963
1772871644936881700,10.482881591796875,-0.7181715369224548,1.1965177059173584,3.5837509632110596
1772871644946814700,10.492814697265626,-0.9383484125137329,1.0434690713882446,3.0827560424804688
1772871644956747800,10.502747802734374,-1.1948888301849365,0.6643734574317932,2.3924267292022705
1772871644966680800,10.512680908203125,-1.359623908996582,0.06143766641616821,1.5450434684753418
1772871644976612900,10.52261279296875,-1.3037811517715454,-0.6250354647636414,0.6638891696929932
1772871644986546000,10.5325458984375,-0.9839520454406738,-1.0606125593185425,-0.042229488492012024
1772871644996478700,10.542478759765626,-0.5297400951385498,-1.118401288986206,-0.4936531186103821
1772871645006411800,10.552411865234374,-0.0847238302230835,-0.8612503409385681,-0.7435705065727234
1772871645016344800,10.5623447265625,0.22373226284980774,-0.5072302222251892,-0.868744969367981
1772871645026278000,10.57227783203125,0.2917262017726898,-0.17491810023784637,-0.8946954607963562
1772871645036210700,10.582210693359375,0.20350101590156555,0.022642914205789566,-0.9074839949607849
1772871645046142700,10.592142822265625,0.026149114593863487,0.05007660761475563,-0.8818985819816589
1772871645056075800,10.60207568359375,-0.16728372871875763,-0.060984134674072266,-0.752029538154602
1772871645066008800,10.6120087890625,-0.3335614502429962,-0.23502293229103088,-0.5262831449508667
1772871645075942000,10.62194189453125,-0.47592392563819885,-0.344584584236145,-0.25522100925445557
1772871645085874700,10.631874755859375,-0.5792356729507446,-0.3579488694667816,0.019910715520381927
1772871645095807700,10.641807861328125,-0.6604381203651428,-0.34858065843582153,0.2649012804031372
1772871645105739800,10.65173974609375,-0.7155787348747253,-0.33207806944847107,0.470634400844574
1772871645115672800,10.6616728515625,-0.7846811413764954,-0.303059458732605,0.6723750233650208
1772871645125606000,10.67160595703125,-0.8397511839866638,-0.2667596936225891,0.8171582221984863
1772871645135539000,10.6815390625,-0.8345436453819275,-0.23427394032478333,0.8730854392051697
1772871645145471700,10.6914716796875,-0.7768473029136658,-0.23538640141487122,0.827887237071991
1772871645155404800,10.70140478515625,-0.6708159446716309,-0.23594938218593597,0.7091349959373474
1772871645165337900,10.711337890625,-0.5183876752853394,-0.232292041182518,0.5651900768280029
1772871645175270000,10.721269775390626,-0.381388783454895,-0.24946436285972595,0.45272207260131836
1772871645185203000,10.731202880859374,-0.2785604000091553,-0.22591689229011536,0.4665434956550598
1772871645195135700,10.7411357421875,-0.21301254630088806,-0.15572474896907806,0.5831873416900635
1772871645205068800,10.75106884765625,-0.2114735245704651,-0.07363642752170563,0.7864075303077698
1772871645215001900,10.761001953125,-0.23065946996212006,0.0698016956448555,1.0255012512207031
1772871645224934400,10.770934326171876,-0.193460613489151,0.2408580780029297,1.2424423694610596
1772871645234866400,10.780866455078124,-0.07761576771736145,0.4361324906349182,1.417181134223938
1772871645244799500,10.790799560546875,0.06499426066875458,0.5758484601974487,1.5269320011138916
1772871645254732300,10.800732177734375,0.2594092786312103,0.573661744594574,1.5279290676116943
1772871645264665300,10.810665283203125,0.4211132228374481,0.6198613047599792,1.3480027914047241
1772871645274598400,10.820598388671876,0.5375921726226807,0.6978088617324829,1.0912621021270752
1772871645284531500,10.830531494140626,0.7321617007255554,0.589911162853241,0.8108827471733093
1772871645294463500,10.84046337890625,1.1202462911605835,0.15018121898174286,0.42670896649360657
1772871645304396300,10.850396240234375,1.4725761413574219,-0.5055131912231445,-0.193374902009964
1772871645314329300,10.860329345703125,1.6868199110031128,-0.7182150483131409,-1.1176289319992065
1772871645324262400,10.870262451171875,1.8783962726593018,-0.4403173327445984,-2.2235400676727295
1772871645334195500,10.880195556640626,1.8654093742370605,-0.602331817150116,-2.7962186336517334
1772871645344128300,10.890128173828124,1.3141382932662964,-1.4203996658325195,-2.4912221431732178
1772871645354061300,10.900061279296875,0.34966015815734863,-2.183291435241699,-1.5115545988082886
1772871645363993300,10.909993408203125,-0.6284883618354797,-2.2281241416931152,-0.3737679123878479
1772871645373926400,10.919926513671875,-1.3216646909713745,-1.5147836208343506,0.513964056968689
1772871645383859500,10.929859375,-1.5400385856628418,-0.3125194013118744,1.1049878597259521
1772871645393792500,10.93979248046875,-1.271716594696045,1.182521939277649,1.5012688636779785
1772871645403725300,10.949725341796874,-0.7653334736824036,2.483738899230957,1.8151226043701172
1772871645413658400,10.959658447265625,-0.30845436453819275,3.147989273071289,1.8521571159362793
1772871645423591400,10.96959130859375,-0.11892034113407135,2.8901445865631104,1.454414963722229
1772871645433523500,10.9795234375,-0.1843118667602539,1.8467693328857422,0.7102494835853577
1772871645443456500,10.98945654296875,-0.372835248708725,0.3465817868709564,-0.16898632049560547
1772871645453389300,10.999389404296876,-0.5144451260566711,-1.1122239828109741,-0.9281848073005676
1772871645463322400,11.009322265625,-0.5957856774330139,-2.0970890522003174,-1.3705804347991943
1772871645473255400,11.01925537109375,-0.5534041523933411,-2.4487860202789307,-1.468949317932129
1772871645483188500,11.0291884765625,-0.4393978714942932,-2.2187726497650146,-1.2939977645874023
1772871645493120500,11.03912060546875,-0.6365538835525513,-1.1350185871124268,-1.0132877826690674
1772871645503053300,11.04905322265625,-0.28609201312065125,-0.3470468819141388,-0.17061100900173187
1772871645512986400,11.058986328125,-0.32271474599838257,0.9756823182106018,0.4775395393371582
1772871645522919400,11.06891943359375,-0.19328217208385468,1.2560811042785645,0.6545720100402832
1772871645532852500,11.0788525390625,0.0010196649236604571,1.0216395854949951,0.5033755302429199
1772871645542785300,11.088785400390625,0.26502642035484314,0.17509663105010986,0.07656651735305786
1772871645552718300,11.09871826171875,0.4441618323326111,-0.29691454768180847,-0.23802897334098816
1772871645562650400,11.108650390625,0.3465343713760376,-0.2780040502548218,-0.27982258796691895
1772871645572583400,11.11858349609375,0.0960153341293335,-0.1712919920682907,-0.23631449043750763
1772871645582516500,11.1285166015625,-0.19886665046215057,-0.10042613744735718,-0.151104137301445
1772871645592449500,11.138449462890625,-0.48910993337631226,-0.06500875949859619,-0.03561989590525627
1772871645602382300,11.14838232421875,-0.658033013343811,-0.11345241963863373,0.04754577577114105
1772871645612315400,11.1583154296875,-0.5523247122764587,-0.21653248369693756,0.09106422960758209
1772871645622247400,11.168247314453126,-0.2599720060825348,-0.24703720211982727,0.1360224187374115
1772871645632180500,11.178180419921874,0.08029848337173462,-0.1477084904909134,0.12068607658147812
1772871645642113500,11.188113525390625,0.36206188797950745,0.0207781083881855,0.024131665006279945
1772871645652046300,11.19804638671875,0.5448703169822693,0.1517835259437561,-0.12385300546884537
1772871645661979400,11.2079794921875,0.5981394648551941,0.24753232300281525,-0.25529953837394714
1772871645671912400,11.217912353515626,0.5483900308609009,0.24511070549488068,-0.30487772822380066
1772871645681844500,11.227844482421874,0.4421049952507019,0.19212940335273743,-0.2539222240447998
1772871645691777500,11.237777587890625,0.3344357907772064,0.08217627555131912,-0.1470722258090973
1772871645701710300,11.24771044921875,0.24292753636837006,-0.08633748441934586,-0.06392823159694672
1772871645711643400,11.257643310546875,0.18536277115345,-0.20760266482830048,-0.03142035752534866
1772871645721576400,11.267576416015626,0.13615134358406067,-0.25493887066841125,-0.02264433540403843
1772871645731509500,11.277509521484374,0.08272487670183182,-0.23179520666599274,-0.02042991667985916
1772871645741442600,11.287442626953125,0.02547701634466648,-0.13818415999412537,-0.01889704167842865
1772871645751374600,11.29737451171875,-0.015189184807240963,-0.0043640462681651115,-0.005042744800448418
1772871645761307400,11.307307373046875,-0.0320596806704998,0.15863960981369019,0.01465268898755312
1772871645771240400,11.317240478515625,-0.05245603248476982,0.2992856800556183,0.028007110580801964
1772871645781173500,11.327173583984376,-0.08733809739351273,0.3831454813480377,0.037828195840120316
1772871645791106600,11.3371064453125,-0.11627094447612762,0.3770385980606079,0.053114742040634155
1772871645801039400,11.347039306640625,-0.11868506669998169,0.2462264597415924,0.024163436144590378
1772871645810971400,11.356971435546875,-0.11019118130207062,0.09939760714769363,-0.05360965430736542
1772871645820904400,11.366904541015625,-0.08759696781635284,-0.02833453007042408,-0.16937066614627838
1772871645830837500,11.37683740234375,-0.04334802180528641,-0.1194215640425682,-0.2822011113166809
1772871645840770600,11.3867705078125,0.013882777653634548,-0.17997412383556366,-0.37502557039260864
1772871645850703400,11.396703369140624,0.04442976787686348,-0.1850844770669937,-0.4163312017917633
1772871645860636400,11.406636474609375,0.05612362548708916,-0.103899285197258,-0.3569861054420471
1772871645870569500,11.416569580078125,0.06169362738728523,0.13520890474319458,-0.06652656942605972
1772871645880501500,11.42650146484375,0.08570760488510132,0.3344095051288605,0.22965018451213837
1772871645890434600,11.4364345703125,0.09445555508136749,0.17559000849723816,0.2955322861671448
1772871645900367600,11.44636767578125,0.08502233773469925,0.0035296189598739147,0.21411125361919403
1772871645910300400,11.456300537109374,0.0949772372841835,-0.18730850517749786,0.08169595152139664
1772871645920233500,11.4662333984375,0.11779233068227768,-0.27972450852394104,0.049450136721134186
1772871645930166500,11.47616650390625,0.1381727010011673,-0.31197619438171387,0.09901662170886993
1772871645940098600,11.4860986328125,0.14804211258888245,-0.29568183422088623,0.1644311100244522
1772871645950031600,11.496031494140626,0.15787982940673828,-0.24936175346374512,0.17420357465744019
1772871645959964400,11.50596435546875,0.14676538109779358,-0.13437950611114502,0.2499513477087021
1772871645969897500,11.5158974609375,0.12908853590488434,0.04296703264117241,0.33289483189582825
1772871645979830500,11.52583056640625,0.10741015523672104,0.18112383782863617,0.4031788408756256
