time,seconds_elapsed,z,y,x
1772871634514817500,0.060817626953125,-0.5033193230628967,-0.308470219373703,-0.06824164092540741
1772871634524750600,0.07075048828125,-0.570094108581543,-0.36959004402160645,-0.13942287862300873
1772871634534683400,0.080683349609375,-0.5948172807693481,-0.3904801309108734,-0.2818428575992584
1772871634544616400,0.090616455078125,-0.6071844696998596,-0.378336638212204,-0.40693262219429016
1772871634554549500,0.100549560546875,-0.6171087622642517,-0.3236694037914276,-0.4701533913612366
1772871634564481500,0.1104814453125,-0.6255251169204712,-0.25740116834640503,-0.46343928575515747
1772871634574414600,0.12041455078125,-0.656464159488678,-0.20300771296024323,-0.39601951837539673
1772871634584347400,0.130347412109375,-0.726398766040802,-0.15217168629169464,-0.2829829752445221
1772871634594280400,0.140280517578125,-0.848721981048584,-0.133148193359375,-0.12895771861076355
1772871634604213500,0.150213623046875,-0.9801074266433716,-0.11718174815177917,-0.024268588051199913
1772871634614146600,0.160146484375,-1.0566701889038086,-0.1409033238887787,0.00267780851572752
1772871634624079400,0.170079345703125,-1.063535213470459,-0.2144249528646469,-0.0690283328294754
1772871634634012400,0.180012451171875,-0.9816939234733582,-0.34898221492767334,-0.2931296229362488
1772871634643945500,0.189945556640625,-0.8542536497116089,-0.44335904717445374,-0.5658506155014038
1772871634653878500,0.19987841796875,-0.7153687477111816,-0.4230513870716095,-0.8246784806251526
1772871634663810600,0.209810546875,-0.5879665613174438,-0.33459264039993286,-1.0018415451049805
1772871634673743400,0.219743408203125,-0.47112464904785156,-0.15897393226623535,-1.1261634826660156
1772871634683676400,0.229676513671875,-0.3352126181125641,0.07267340272665024,-1.2294416427612305
1772871634693609500,0.239609375,-0.12012214958667755,0.31826451420783997,-1.3134374618530273
1772871634703542500,0.24954248046875,0.18707002699375153,0.5297338962554932,-1.4024044275283813
1772871634713475600,0.2594755859375,0.5158993005752563,0.6372467875480652,-1.5797607898712158
1772871634723408400,0.269408447265625,0.8237524628639221,0.6499900221824646,-1.90388023853302
1772871634733341400,0.279341552734375,1.0466015338897705,0.5690610408782959,-2.2394204139709473
1772871634743274500,0.2892744140625,1.1846859455108643,0.3931156098842621,-2.4962661266326904
1772871634753207600,0.29920751953125,1.2609529495239258,0.18304918706417084,-2.6858584880828857
1772871634763139600,0.3091396484375,1.262200951576233,-0.05898049473762512,-2.7346746921539307
1772871634773072400,0.319072265625,1.1663050651550293,-0.2839222550392151,-2.613382339477539
1772871634783005400,0.32900537109375,0.9993791580200195,-0.43153834342956543,-2.3886091709136963
1772871634792938500,0.3389384765625,0.7927074432373047,-0.45336589217185974,-2.0945703983306885
1772871634802871600,0.34887158203125,0.5844597220420837,-0.32513201236724854,-1.7548433542251587
1772871634812804400,0.358804443359375,0.4151391386985779,-0.0727735385298729,-1.3842447996139526
1772871634822737400,0.3687373046875,0.2932707667350769,0.22571568191051483,-1.0086970329284668
1772871634832670500,0.37867041015625,0.224898099899292,0.4832969009876251,-0.6863818168640137
1772871634842603500,0.388603515625,0.17961876094341278,0.6853477358818054,-0.4430946111679077
1772871634852536300,0.398536376953125,0.11936234682798386,0.7570781111717224,-0.32909587025642395
1772871634862468600,0.408468505859375,0.07838242501020432,0.6934291124343872,-0.4375336468219757
1772871634872401400,0.4184013671875,0.05566699057817459,0.5222368240356445,-0.6931217312812805
1772871634882334500,0.42833447265625,0.0400954894721508,0.30529627203941345,-0.9597342610359192
1772871634892267500,0.438267578125,0.04797125235199928,0.10846948623657227,-1.1666874885559082
1772871634902200600,0.44820068359375,0.07136765867471695,0.007668572477996349,-1.27847421169281
1772871634912133400,0.45813330078125,0.08399955928325653,0.09717927873134613,-1.2686766386032104
1772871634922066400,0.46806640625,0.09657634049654007,0.26178979873657227,-1.1489566564559937
1772871634931999500,0.47799951171875,0.1495700478553772,0.4435068666934967,-1.077498197555542
1772871634941932500,0.4879326171875,0.20497338473796844,0.5744054913520813,-1.1310276985168457
1772871634951865300,0.497865234375,0.20269665122032166,0.5891255736351013,-1.2291151285171509
1772871634961797400,0.50779736328125,0.12387214601039886,0.46759700775146484,-1.3120214939117432
1772871634971730400,0.51773046875,-0.044801559299230576,0.2065688818693161,-1.2961945533752441
1772871634981663500,0.52766357421875,-0.28300294280052185,-0.09623891860246658,-1.2134501934051514
1772871634991596500,0.537596435546875,-0.5703125,-0.4019112288951874,-1.1337952613830566
1772871635001529300,0.547529296875,-0.9416335821151733,-0.6043263673782349,-1.0304148197174072
1772871635011462400,0.55746240234375,-1.2205911874771118,-0.603423535823822,-0.9482203722000122
1772871635021395500,0.5673955078125,-1.3240299224853516,-0.448302686214447,-0.8761608004570007
1772871635031328500,0.57732861328125,-1.256165623664856,-0.18043182790279388,-0.7592847943305969
1772871635041261300,0.58726123046875,-1.1036467552185059,0.13294818997383118,-0.6053008437156677
1772871635051194400,0.5971943359375,-0.9703112840652466,0.3679271638393402,-0.48230087757110596
1772871635061126400,0.60712646484375,-0.8633757829666138,0.459249883890152,-0.4352995455265045
1772871635071059500,0.6170595703125,-0.814343273639679,0.4646534323692322,-0.46707186102867126
1772871635080992500,0.626992431640625,-0.7334334850311279,0.4948347806930542,-0.6410039663314819
1772871635090925600,0.636925537109375,-0.6050824522972107,0.5560741424560547,-0.978576123714447
1772871635100858400,0.6468583984375,-0.4773697555065155,0.6396923661231995,-1.3104712963104248
1772871635110791400,0.65679150390625,-0.37530651688575745,0.7059184908866882,-1.4692870378494263
1772871635120724500,0.666724365234375,-0.37660905718803406,0.6633385419845581,-1.2807163000106812
1772871635130657500,0.676657470703125,-0.47823473811149597,0.5942441821098328,-0.7863158583641052
1772871635140590300,0.68659033203125,-0.6666731238365173,0.5210291147232056,-0.18735577166080475
1772871635150523400,0.6965234375,-0.8549527525901794,0.5785035490989685,0.27034226059913635
1772871635160455400,0.706455322265625,-0.9515343904495239,0.7255915403366089,0.5571178197860718
1772871635170388500,0.716388427734375,-0.8913296461105347,0.8695266246795654,0.7332819700241089
1772871635180321500,0.726321533203125,-0.6481838226318359,0.8974802494049072,0.8305123448371887
1772871635190254300,0.73625439453125,-0.23622611165046692,0.7249020338058472,0.8230009078979492
1772871635200187400,0.7461875,0.25416117906570435,0.3451707065105438,0.5614838600158691
1772871635210119400,0.756119384765625,0.703984797000885,-0.08242909610271454,-0.010583668015897274
1772871635220052500,0.766052490234375,1.0691227912902832,-0.5042375922203064,-0.6653817296028137
1772871635229985500,0.775985595703125,1.346500039100647,-0.9295787811279297,-1.1570571660995483
1772871635239918600,0.785918701171875,1.5623139142990112,-1.1649657487869263,-1.3600201606750488
1772871635249851400,0.795851318359375,1.6626313924789429,-1.110060691833496,-1.199142575263977
1772871635259783400,0.805783447265625,1.619207739830017,-0.6969300508499146,-0.744626522064209
1772871635269716500,0.815716552734375,1.455496072769165,-0.048345696181058884,-0.15057086944580078
1772871635279649500,0.8256494140625,1.1424298286437988,0.6790059208869934,0.43088749051094055
1772871635289582600,0.83558251953125,0.7864890098571777,1.3243892192840576,0.8296425938606262
1772871635299515400,0.845515380859375,0.47484055161476135,1.625170111656189,0.9589022994041443
1772871635309448400,0.855448486328125,0.21397407352924347,1.5616307258605957,0.8272393345832825
1772871635319381500,0.865381591796875,0.005861883983016014,1.3149727582931519,0.541330873966217
1772871635329314600,0.875314453125,-0.13778769969940186,0.9577680826187134,0.1689504086971283
1772871635339247400,0.885247314453125,-0.21369683742523193,0.5060232281684875,-0.22257767617702484
1772871635349179400,0.895179443359375,-0.30529412627220154,0.008228102698922157,-0.4635434150695801
1772871635359112400,0.905112548828125,-0.4110985994338989,-0.31822696328163147,-0.348111093044281
1772871635369045500,0.91504541015625,-0.5349265336990356,-0.4519062042236328,0.10905005782842636
1772871635378978600,0.924978515625,-0.6398563981056213,-0.43562018871307373,0.7795762419700623
1772871635388911400,0.934911376953125,-0.713553249835968,-0.3464775085449219,1.4823943376541138
1772871635398844400,0.944844482421875,-0.7146949768066406,-0.2452843189239502,1.9711605310440063
1772871635408777500,0.954777587890625,-0.6633982062339783,-0.18962691724300385,2.172858715057373
1772871635418710500,0.96471044921875,-0.6086601614952087,-0.1939614862203598,1.9876716136932373
1772871635428643600,0.9746435546875,-0.5112395882606506,-0.33509010076522827,1.3425804376602173
1772871635438576400,0.984576416015625,-0.4691283404827118,-0.5119519829750061,0.4549366235733032
1772871635448508400,0.99450830078125,-0.455996036529541,-0.5054775476455688,-0.34451955556869507
1772871635458441500,1.00444140625,-0.3778245151042938,-0.395811527967453,-0.9424221515655518
1772871635468374500,1.01437451171875,-0.2906755208969116,-0.2081846296787262,-1.253548264503479
1772871635478307600,1.0243076171875,-0.2206657975912094,-0.10310321301221848,-1.3231494426727295
1772871635488240400,1.034240478515625,-0.16944202780723572,-0.1420106738805771,-1.0746195316314697
1772871635498173400,1.04417333984375,-0.14824752509593964,-0.16152071952819824,-0.5859188437461853
1772871635508106500,1.0541064453125,-0.07609423249959946,-0.07512164860963821,0.030301179736852646
1772871635518039600,1.06403955078125,0.065601646900177,-0.0020836573094129562,0.6726002097129822
1772871635527972400,1.073972412109375,0.141627699136734,0.13060088455677032,1.102542519569397
1772871635537905400,1.083905517578125,0.14809785783290863,0.3186783790588379,1.2188584804534912
1772871635547837400,1.09383740234375,0.14396142959594727,0.5921559929847717,1.1049721240997314
1772871635557770500,1.1037705078125,0.162249356508255,0.8808980584144592,0.8581773042678833
1772871635567703600,1.11370361328125,0.1808651238679886,1.0674484968185425,0.5117698311805725
1772871635577636600,1.12363671875,0.09355924278497696,1.0503549575805664,0.22450101375579834
1772871635587569400,1.1335693359375,-0.14931118488311768,0.8532147407531738,0.05727820470929146
1772871635597502500,1.14350244140625,-0.3782932460308075,0.6113089323043823,-0.03844299539923668
1772871635607435500,1.153435546875,-0.508441150188446,0.3686262369155884,-0.018930546939373016
1772871635617368600,1.16336865234375,-0.5388983488082886,0.10921650379896164,0.1326105147600174
1772871635627301400,1.17330126953125,-0.5312268733978271,-0.06753989309072495,0.23605194687843323
1772871635637233400,1.1832333984375,-0.5018295645713806,-0.0892513170838356,0.16886571049690247
1772871635647166500,1.19316650390625,-0.40976089239120483,-0.04796139895915985,-0.10094472020864487
1772871635657099500,1.203099609375,-0.3235549032688141,0.014432734809815884,-0.7017152309417725
1772871635667032600,1.213032470703125,-0.08363816887140274,-0.0062424493953585625,-1.6380057334899902
1772871635676965400,1.22296533203125,0.22777004539966583,-0.39196857810020447,-2.8914599418640137
1772871635686898400,1.2328984375,0.3486442565917969,-1.0321805477142334,-4.255620956420898
1772871635696831500,1.24283154296875,-0.09427323937416077,-1.3542534112930298,-5.055447578430176
1772871635706764500,1.2527646484375,-1.0634015798568726,-1.0474106073379517,-4.7259745597839355
1772871635716697300,1.262697265625,-1.995103120803833,-0.9166648387908936,-3.255082130432129
1772871635726630400,1.27263037109375,-2.318589687347412,-0.9739459753036499,-1.0532442331314087
1772871635736562400,1.2825625,-1.7983487844467163,-0.7692838907241821,1.0062501430511475
1772871635746495500,1.29249560546875,-1.0197643041610718,-0.45063668489456177,2.022378921508789
1772871635756428500,1.302428466796875,-0.2649073004722595,-0.28766027092933655,2.1888742446899414
1772871635766361600,1.312361572265625,0.24460388720035553,-0.3777960240840912,1.8651560544967651
1772871635776294400,1.32229443359375,0.6051809787750244,-0.5155829191207886,1.3085976839065552
1772871635786227500,1.3322275390625,0.8899293541908264,-0.39185646176338196,0.714534342288971
1772871635796160500,1.342160400390625,1.1250486373901367,-0.043665189296007156,0.2262834757566452
1772871635806093600,1.352093505859375,1.1952745914459229,0.29429394006729126,-0.11510422080755234
1772871635816026400,1.3620263671875,1.1494178771972656,0.3544534146785736,-0.37443405389785767
1772871635825959400,1.37195947265625,1.0414073467254639,0.09673772752285004,-0.5358690023422241
1772871635835891500,1.381891357421875,1.0012457370758057,-0.33247727155685425,-0.4694220721721649
1772871635845824500,1.391824462890625,1.0899423360824585,-0.6473028659820557,-0.11536148190498352
1772871635855757600,1.401757568359375,1.1793776750564575,-0.5973638296127319,0.49132418632507324
1772871635865690400,1.4116904296875,1.0965964794158936,-0.18221375346183777,1.2192587852478027
1772871635875623400,1.42162353515625,0.8391362428665161,0.5680440068244934,1.9096015691757202
1772871635885556500,1.431556396484375,0.5848208665847778,1.3972280025482178,2.396263599395752
1772871635895489500,1.441489501953125,0.32964688539505005,1.7853946685791016,2.627384662628174
1772871635905422300,1.45142236328125,0.06176163628697395,1.3931161165237427,2.452146291732788
1772871635915355400,1.46135546875,-0.19145038723945618,0.5766827464103699,2.017030715942383
1772871635925287400,1.471287353515625,-0.298080176115036,-0.28317126631736755,1.500479817390442
1772871635935220500,1.481220458984375,-0.26935476064682007,-0.9073432087898254,1.045148253440857
1772871635945153500,1.491153564453125,-0.18100573122501373,-1.1794003248214722,0.7801336050033569
1772871635955086600,1.501086669921875,-0.05428773909807205,-1.141671895980835,0.6236297488212585
1772871635965019400,1.511019287109375,0.07751902937889099,-0.9140104651451111,0.4450187385082245
1772871635974952400,1.520952392578125,0.1527693122625351,-0.6565677523612976,0.11560489237308502
1772871635984885500,1.530885498046875,0.1473066359758377,-0.5635579228401184,-0.37770602107048035
1772871635994818600,1.540818603515625,0.05306747928261757,-0.5901927351951599,-0.8302724361419678
1772871636004751400,1.55075146484375,0.0076147764921188354,-0.6444636583328247,-1.0977792739868164
1772871636014683400,1.560683349609375,0.016045812517404556,-0.7146304845809937,-1.1993660926818848
1772871636024616400,1.570616455078125,0.07234157621860504,-0.7806745171546936,-1.154006004333496
1772871636034549500,1.580549560546875,0.12126410752534866,-0.8167587518692017,-0.9717350006103516
1772871636044482600,1.590482666015625,0.1138988733291626,-0.7860082983970642,-0.6725600361824036
1772871636054415400,1.600415283203125,0.051963333040475845,-0.6764647364616394,-0.31049421429634094
1772871636064348400,1.610348388671875,0.013902232982218266,-0.48131096363067627,0.0980655774474144
1772871636074281500,1.620281494140625,0.0017568873008713126,-0.24550829827785492,0.4879499673843384
1772871636084214500,1.630214599609375,-0.042992208153009415,0.018579009920358658,0.753081738948822
1772871636094147300,1.640147216796875,-0.1038326546549797,0.22506241500377655,0.8276153802871704
1772871636104079400,1.650079345703125,-0.15790201723575592,0.2787754535675049,0.7616419792175293
1772871636114012400,1.660012451171875,-0.16011403501033783,0.2079785019159317,0.6487670540809631
1772871636123945500,1.669945556640625,-0.13860954344272614,0.09857557713985443,0.5537305474281311
1772871636133878500,1.67987841796875,-0.11656709015369415,-0.018223745748400688,0.5526120662689209
1772871636143811600,1.6898115234375,-0.09601547569036484,-0.10104566067457199,0.580403208732605
1772871636153744400,1.699744384765625,-0.11615962535142899,-0.1363874077796936,0.5932412147521973
1772871636163677400,1.709677490234375,-0.17676225304603577,-0.1741076111793518,0.5812194347381592
1772871636173610500,1.719610595703125,-0.2046452909708023,-0.25709572434425354,0.4219067692756653
1772871636183543600,1.72954345703125,-0.1696401685476303,-0.32180121541023254,0.19384163618087769
1772871636193476400,1.739476318359375,-0.19678203761577606,-0.3378257155418396,0.01004997082054615
1772871636203408400,1.749408447265625,-0.18053887784481049,-0.3782082796096802,-0.26016154885292053
1772871636213342000,1.759342041015625,-0.15922081470489502,-0.6430103778839111,-0.7185299396514893
1772871636223275000,1.76927490234375,-0.11196728050708771,-1.2365472316741943,-1.3157196044921875
1772871636233208000,1.7792080078125,-0.019275426864624023,-1.9838694334030151,-1.8406696319580078
1772871636243140900,1.789140869140625,0.1301816999912262,-2.6978189945220947,-2.219590663909912
1772871636253074000,1.799073974609375,0.3925856351852417,-2.9523513317108154,-2.3177876472473145
1772871636263007000,1.809007080078125,0.6058920621871948,-2.6221892833709717,-2.347594976425171
1772871636272940000,1.81893994140625,0.7118725180625916,-1.9132170677185059,-2.1215317249298096
1772871636282872800,1.828872802734375,0.744404137134552,-0.9279337525367737,-1.546509861946106
1772871636292804900,1.838804931640625,0.6017244458198547,0.2115412801504135,-0.7377885580062866
1772871636302738000,1.848738037109375,0.14091770350933075,1.0738922357559204,-0.029652966186404228
1772871636312671000,1.8586708984375,-0.4670462906360626,1.3745839595794678,0.34602266550064087
1772871636322604000,1.86860400390625,-0.912679135799408,1.1161308288574219,0.42980384826660156
1772871636332536800,1.878536865234375,-0.9594978094100952,0.44508105516433716,0.3408995270729065
1772871636342470000,1.888469970703125,-0.585856556892395,-0.20428335666656494,0.17290467023849487
1772871636352403000,1.89840283203125,0.07946287095546722,-0.6449036002159119,-0.026446254923939705
1772871636362336000,1.9083359375,0.8119363188743591,-0.8324887156486511,-0.14635880291461945
1772871636372268800,1.918268798828125,1.438689947128296,-0.805675208568573,-0.17555265128612518
1772871636382200800,1.928200927734375,1.8387103080749512,-0.6548747420310974,-0.20779713988304138
1772871636392134000,1.9381337890625,1.9093868732452393,-0.43257832527160645,-0.26615577936172485
1772871636402067000,1.94806689453125,1.6363418102264404,-0.22293907403945923,-0.26892971992492676
1772871636412000000,1.958,1.144217848777771,0.01636592298746109,-0.17979559302330017
1772871636421933000,1.96793310546875,0.6118085384368896,0.20183458924293518,0.005662412848323584
1772871636431865900,1.977865966796875,0.17678116261959076,0.3569381535053253,0.30577215552330017
1772871636441799000,1.987798828125,-0.05618204548954964,0.5022814869880676,0.6637079119682312
1772871636451732000,1.99773193359375,-0.12483274936676025,0.7205392718315125,1.0676679611206055
1772871636461665000,2.0076650390625,-0.12662212550640106,1.1034985780715942,1.4892220497131348
1772871636471597800,2.017597900390625,-0.20497871935367584,1.530300498008728,1.9081889390945435
1772871636481529900,2.02752978515625,-0.41564834117889404,1.901644229888916,2.2496349811553955
1772871636491463000,2.037462890625,-0.5999593138694763,1.3067431449890137,1.7747832536697388
1772871636501396000,2.04739599609375,-0.7169285416603088,-0.00030599720776081085,0.8861039876937866
1772871636511329000,2.0573291015625,-1.104681134223938,-0.11296942830085754,1.080483078956604
1772871636521261800,2.06726171875,-1.2709017992019653,0.09680190682411194,1.3211792707443237
1772871636531195000,2.07719482421875,-1.4695119857788086,0.1925976723432541,1.4279321432113647
1772871636541128000,2.0871279296875,-1.5286169052124023,0.19420462846755981,1.4236891269683838
1772871636551061000,2.09706103515625,-1.210108757019043,0.10450323671102524,0.9483066201210022
1772871636560993000,2.106992919921875,-0.9264357089996338,0.254226952791214,0.48890364170074463
1772871636570925800,2.11692578125,-0.6551440358161926,0.26368916034698486,0.08583048731088638
1772871636580859000,2.12685888671875,-0.4153521955013275,0.09637154638767242,-0.16919967532157898
1772871636590792000,2.1367919921875,-0.1801881492137909,-0.17179200053215027,-0.328680157661438
1772871636600725000,2.14672509765625,-0.04809828847646713,-0.4797018766403198,-0.4424956738948822
1772871636610658000,2.156657958984375,-0.011541075073182583,-0.6956493854522705,-0.513080358505249
1772871636620590800,2.1665908203125,-0.0344245508313179,-0.8048464059829712,-0.48628681898117065
1772871636630524000,2.17652392578125,-0.10959839820861816,-0.8029286861419678,-0.3557964563369751
1772871636640457000,2.18645703125,-0.13282303512096405,-0.7637799382209778,-0.21117988228797913
1772871636650389000,2.196388916015625,-0.09070300310850143,-0.6761688590049744,0.008719189092516899
1772871636660322000,2.206322021484375,-0.006669087801128626,-0.3697223961353302,0.2603231966495514
1772871636670254800,2.2162548828125,0.0511380173265934,0.18113116919994354,0.40918296575546265
1772871636680188000,2.22618798828125,0.02869609370827675,0.7093462944030762,0.40154528617858887
1772871636690121000,2.236120849609375,-0.050346795469522476,1.069653868675232,0.21828413009643555
1772871636700054000,2.246053955078125,-0.16853629052639008,1.247416377067566,-0.05108582228422165
1772871636709986800,2.25598681640625,-0.31380265951156616,1.3093990087509155,-0.3288191556930542
1772871636719919900,2.265919921875,-0.39661312103271484,1.2118067741394043,-0.5337339639663696
1772871636729853000,2.27585302734375,-0.36878976225852966,0.9331647157669067,-0.596317708492279
1772871636739785000,2.285784912109375,-0.3154117465019226,0.4735340178012848,-0.5789443254470825
1772871636749718000,2.295718017578125,-0.24186909198760986,0.06613854318857193,-0.500452995300293
1772871636759651000,2.305651123046875,-0.18351416289806366,-0.15225665271282196,-0.35061153769493103
1772871636769583900,2.315583984375,-0.23000256717205048,-0.1650768369436264,-0.21922077238559723
1772871636779517000,2.325516845703125,-0.307461678981781,0.11843743175268173,-0.2529643476009369
1772871636789450000,2.335449951171875,-0.3328719735145569,0.5348692536354065,-0.4945053458213806
1772871636799383000,2.345383056640625,-0.2742201089859009,0.843937873840332,-0.9370196461677551
1772871636809315800,2.35531591796875,-0.11518651247024536,0.8158564567565918,-1.579742193222046
1772871636819249000,2.365248779296875,0.07506678998470306,0.25343838334083557,-2.2338719367980957
1772871636829181000,2.375180908203125,0.2383641004562378,-0.43766334652900696,-2.410968780517578
1772871636839114000,2.385114013671875,0.39882010221481323,-0.8419005870819092,-1.8578044176101685
1772871636849047000,2.395047119140625,0.5052695870399475,-0.7335200309753418,-0.7604365944862366
1772871636858979800,2.404979736328125,0.44992002844810486,-0.1807093322277069,0.4991450905799866
1772871636868913000,2.414912841796875,0.24551868438720703,0.5020591020584106,1.3228265047073364
1772871636878846000,2.424845947265625,-0.1218595951795578,1.0256166458129883,1.626809000968933
1772871636888779000,2.434779052734375,-0.40320339798927307,1.334234356880188,1.6445666551589966
1772871636898711800,2.4447119140625,-0.5028343796730042,1.5494723320007324,1.4000709056854248
1772871636908644900,2.454644775390625,-0.4702519178390503,1.5181981325149536,0.9227083325386047
1772871636918577000,2.464576904296875,-0.20146813988685608,1.0986188650131226,0.35878637433052063
1772871636928510000,2.474510009765625,0.3459608554840088,0.3323156237602234,-0.16464486718177795
1772871636938443000,2.484443115234375,1.0297269821166992,-0.4321575462818146,-0.567930281162262
1772871636948376000,2.4943759765625,1.4982908964157104,-0.9145529270172119,-0.7778733968734741
1772871636958308900,2.504308837890625,1.6053564548492432,-1.0140461921691895,-0.7821267247200012
1772871636968242000,2.514241943359375,1.4146618843078613,-0.7648521065711975,-0.6177215576171875
1772871636978175000,2.524175048828125,1.0186116695404053,-0.29194557666778564,-0.3074755370616913
1772871636988108000,2.53410791015625,0.5790681838989258,0.2776257395744324,0.12455497682094574
1772871636998040800,2.544040771484375,0.21432241797447205,0.7398085594177246,0.6341481804847717
1772871637007972900,2.553972900390625,-0.07645083218812943,1.0172348022460938,1.1317834854125977
1772871637017906000,2.563906005859375,-0.29484230279922485,1.0288605690002441,1.5046753883361816
1772871637027839000,2.5738388671875,-0.43453335762023926,0.8096837997436523,1.6984320878982544
1772871637037772000,2.58377197265625,-0.4962499737739563,0.5434632897377014,1.8194655179977417
1772871637047704800,2.593704833984375,-0.4482763111591339,0.42511001229286194,1.883112907409668
1772871637057638000,2.603637939453125,-0.2824689745903015,0.327601820230484,1.8054314851760864
1772871637067571000,2.613571044921875,-0.08111722022294998,0.2750968039035797,1.6439834833145142
1772871637077504000,2.62350390625,0.020381970331072807,0.34325164556503296,1.4607821702957153
1772871637087436800,2.633436767578125,-0.04523831978440285,0.6838656663894653,1.4870476722717285
1772871637097368800,2.643368896484375,-0.22539237141609192,0.9248982667922974,1.425986647605896
1772871637107302000,2.653302001953125,-0.4892809987068176,0.837213397026062,1.1994041204452515
1772871637117235000,2.66323486328125,-0.7124261856079102,0.6333521604537964,0.8818408250808716
1772871637127168000,2.67316796875,-0.7911897301673889,0.38270077109336853,0.4946936070919037
1772871637137101000,2.68310107421875,-0.7861465215682983,0.20625463128089905,0.17185164988040924
1772871637147033900,2.693033935546875,-0.6992848515510559,0.05294524133205414,-0.16266535222530365
1772871637156967000,2.702966796875,-0.5568518042564392,-0.18601620197296143,-0.4799732565879822
1772871637166900000,2.71289990234375,-0.4351714253425598,-0.4415512979030609,-0.706000566482544
1772871637176832000,2.72283203125,-0.3378337025642395,-0.5999050140380859,-0.7428677678108215
1772871637186765000,2.73276513671875,-0.21896643936634064,-0.6364885568618774,-0.5519608855247498
1772871637196697900,2.74269775390625,-0.07879441231489182,-0.566960334777832,-0.19568908214569092
1772871637206631000,2.752630859375,0.07007043063640594,-0.4771979749202728,0.2331581562757492
1772871637216563700,2.762563720703125,0.18116579949855804,-0.3874896764755249,0.5918886065483093
1772871637226496800,2.772496826171875,0.2275005280971527,-0.324195921421051,0.7862170934677124
1772871637236429600,2.7824296875,0.19760015606880188,-0.23909221589565277,0.7920621633529663
1772871637246362600,2.792362548828125,0.08553620427846909,-0.07830039411783218,0.6296887397766113
1772871637256295700,2.802295654296875,-0.0866779014468193,0.2466537207365036,0.37584632635116577
1772871637266227700,2.812227783203125,-0.23334191739559174,0.6701261401176453,0.08746353536844254
1772871637276160800,2.822160888671875,-0.3203231394290924,1.0261324644088745,-0.16523848474025726
1772871637286093800,2.83209375,-0.4014877676963806,1.1689364910125732,-0.2949181795120239
1772871637296026600,2.842026611328125,-0.42433610558509827,1.0125842094421387,-0.3681735098361969
1772871637305959700,2.851959716796875,-0.32915979623794556,0.6232752799987793,-0.3955388069152832
1772871637315892700,2.861892822265625,-0.09122312068939209,0.09195442497730255,-0.43247926235198975
1772871637325825800,2.87182568359375,0.12338904291391373,-0.26222681999206543,-0.3306197226047516
1772871637335758600,2.881758544921875,0.30983906984329224,-0.27463769912719727,-0.1178443431854248
1772871637345690600,2.891690673828125,0.435823917388916,-0.12455844134092331,-0.025471005588769913
1772871637355623700,2.901623779296875,0.41069138050079346,0.030354710295796394,-0.1830153614282608
1772871637365556700,2.911556640625,0.40132051706314087,-0.05988410487771034,-0.6161332130432129
1772871637375489800,2.92148974609375,0.5176117420196533,-0.4334997832775116,-1.2944248914718628
1772871637385422600,2.931422607421875,0.7009687423706055,-0.8961329460144043,-2.0624752044677734
1772871637395355600,2.941355712890625,0.9275379776954651,-1.0030039548873901,-2.6440911293029785
1772871637405288700,2.951288818359375,1.0589910745620728,-0.5102294087409973,-2.9220640659332275
1772871637415221800,2.9612216796875,0.9035288095474243,0.39541125297546387,-2.5711352825164795
1772871637425154600,2.971154541015625,0.43610408902168274,1.377706527709961,-1.7032954692840576
1772871637435086800,2.9810869140625,-0.29032158851623535,1.8942537307739258,-0.8774881362915039
1772871637445019600,2.99101953125,-0.9643215537071228,1.5149463415145874,-0.3010607659816742
1772871637454952700,3.00095263671875,-1.219313144683838,0.4081885516643524,0.19510717689990997
1772871637464885800,3.0108857421875,-0.9865869283676147,-0.6828451752662659,0.7930989265441895
1772871637474818800,3.02081884765625,-0.4034268260002136,-1.1038328409194946,1.2344598770141602
1772871637484751600,3.030751708984375,0.26201245188713074,-0.8265517354011536,1.4070987701416016
1772871637494684700,3.0406845703125,0.8952327966690063,-0.010693657211959362,1.2558940649032593
1772871637504617700,3.05061767578125,1.3418033123016357,0.889289140701294,0.6596865653991699
1772871637514550800,3.06055078125,1.545466423034668,1.1588279008865356,-0.3540089428424835
1772871637524482800,3.07048291015625,1.4249157905578613,0.6173843741416931,-1.5156770944595337
1772871637534415600,3.08041552734375,1.1643012762069702,-0.5967651009559631,-2.4739744663238525
1772871637544348700,3.0903486328125,0.8645251989364624,-1.773484468460083,-2.863452911376953
1772871637554281700,3.10028173828125,0.656915545463562,-2.322089672088623,-2.498141050338745
1772871637564214800,3.11021484375,0.5618129968643188,-2.1306257247924805,-1.594401478767395
1772871637574147600,3.120147705078125,0.5083996057510376,-1.4574092626571655,-0.43332934379577637
1772871637584080600,3.13008056640625,0.43157535791397095,-0.5681635737419128,0.7523624300956726
1772871637594013700,3.140013671875,0.3001619577407837,0.4150051772594452,1.7789324522018433
1772871637603946800,3.14994677734375,0.12758485972881317,1.2724632024765015,2.456480026245117
1772871637613878800,3.159878662109375,-0.1569954752922058,1.67464280128479,2.6987247467041016
1772871637623811800,3.169811767578125,-0.5295664072036743,1.5448304414749146,2.5791449546813965
1772871637633744600,3.17974462890625,-0.8882694244384766,0.9920794367790222,2.295034646987915
1772871637643677700,3.189677734375,-1.1596343517303467,0.2924281358718872,2.0419065952301025
1772871637653610800,3.19961083984375,-1.292770504951477,-0.3198525607585907,1.8587090969085693
1772871637663543800,3.209543701171875,-1.2383300065994263,-0.6874420046806335,1.7269401550292969
1772871637673476600,3.2194765625,-1.0173240900039673,-0.761590301990509,1.618971347808838
1772871637683409700,3.22940966796875,-0.6104694604873657,-0.6059644818305969,1.5438920259475708
1772871637693341700,3.239341796875,-0.014554974623024464,-0.6091458797454834,1.1568236351013184
1772871637703274800,3.249274658203125,0.5034807324409485,-0.9710566997528076,0.29844528436660767
1772871637713207800,3.259207763671875,0.9667956233024597,-1.209370493888855,-0.2410472333431244
1772871637723140600,3.269140625,1.3676130771636963,-1.0049848556518555,-0.3894540071487427
1772871637733073700,3.27907373046875,1.606636643409729,-0.6629422903060913,-0.3910234272480011
1772871637743006700,3.2890068359375,1.6220195293426514,-0.3997814953327179,-0.36000505089759827
1772871637752939800,3.298939697265625,1.4378191232681274,-0.35568779706954956,-0.39297258853912354
1772871637762872600,3.30887255859375,1.1448639631271362,-0.4123518764972687,-0.45885467529296875
1772871637772805600,3.3188056640625,0.8405625820159912,-0.331930011510849,-0.4115137755870819
1772871637782737700,3.328737548828125,0.5586782097816467,-0.09417044371366501,-0.2589159905910492
1772871637792670700,3.338670654296875,0.3028799891471863,0.2041510045528412,-0.026624154299497604
1772871637802603800,3.348603759765625,0.0992477536201477,0.46672990918159485,0.22834768891334534
1772871637812536800,3.358536865234375,-0.05812455713748932,0.6431944370269775,0.4558756649494171
1772871637822469600,3.3684697265625,-0.16055531799793243,0.6837032437324524,0.6126540899276733
1772871637832402700,3.378402587890625,-0.24573706090450287,0.6308642625808716,0.6761214733123779
1772871637842335700,3.388335693359375,-0.3056004047393799,0.4191035330295563,0.6699128150939941
1772871637852268800,3.398268798828125,-0.27179422974586487,0.1654329001903534,0.6870942115783691
1772871637862200800,3.408200927734375,-0.12327159941196442,0.03714204207062721,0.6323907375335693
1772871637872133600,3.418133544921875,0.00541314110159874,-0.04924238100647926,0.5240539312362671
1772871637882066700,3.428066650390625,0.13837625086307526,-0.009788448922336102,0.4027107059955597
1772871637891999700,3.437999755859375,0.18328140676021576,0.10325048863887787,0.23601652681827545
1772871637901932800,3.447932861328125,0.14740809798240662,0.20888717472553253,0.00809308048337698
1772871637911865600,3.457865478515625,0.03873594477772713,0.24817918241024017,-0.29755285382270813
1772871637921798700,3.467798583984375,-0.16750723123550415,0.20020367205142975,-0.5363600850105286
1772871637931731700,3.477731689453125,-0.4518423080444336,0.06800089031457901,-0.8311792016029358
1772871637941663700,3.487663818359375,-0.5907559990882874,-0.17236298322677612,-1.248375415802002
1772871637951596800,3.4975966796875,-0.4315545856952667,-0.37113094329833984,-1.614184856414795
1772871637961529900,3.50752978515625,-0.12606099247932434,-0.41626593470573425,-1.84688138961792
1772871637971462700,3.517462646484375,0.19151216745376587,-0.5195238590240479,-1.9444100856781006
1772871637981395700,3.527395751953125,0.4151766896247864,-0.5171850919723511,-1.914799451828003
1772871637991328800,3.537328857421875,0.4573633074760437,-0.4196814298629761,-1.8555268049240112
1772871638001261800,3.54726171875,0.40319138765335083,-0.3579522967338562,-1.7679543495178223
1772871638011194600,3.557194580078125,0.3854030966758728,-0.3126596510410309,-1.4940626621246338
1772871638021127700,3.567127685546875,0.18476052582263947,-0.12490252405405045,-1.1236246824264526
1772871638031059700,3.577059814453125,-0.3416377604007721,-0.07812383025884628,-0.8351249694824219
1772871638040992800,3.58699267578125,-0.8605847954750061,-0.27939435839653015,-0.5820807218551636
1772871638050925800,3.59692578125,-0.9710721373558044,-0.6898636221885681,-0.3866739571094513
1772871638060858600,3.606858642578125,-0.715796947479248,-1.0864152908325195,-0.19804596900939941
1772871638070791700,3.616791748046875,-0.30100777745246887,-1.1191744804382324,0.07643911242485046
1772871638080724700,3.626724853515625,0.16860926151275635,-0.7405555844306946,0.4129470884799957
1772871638090657800,3.63665771484375,0.5208548903465271,-0.10027680546045303,0.6959788203239441
1772871638100590600,3.646590576171875,0.6996105313301086,0.6270790696144104,0.7914379239082336
1772871638110522600,3.656522705078125,0.7179088592529297,1.2495304346084595,0.6355796456336975
1772871638120455700,3.66645556640625,0.5949264764785767,1.4714078903198242,0.25563710927963257
1772871638130388700,3.676388671875,0.37627270817756653,1.192641019821167,-0.20968106389045715
1772871638140321800,3.68632177734375,0.23581039905548096,0.5676474571228027,-0.5413585901260376
1772871638150254800,3.6962548828125,0.23321940004825592,-0.04213333874940872,-0.5293594598770142
1772871638160187600,3.706187744140625,0.3155108094215393,-0.298310786485672,-0.19191856682300568
1772871638170120700,3.71612060546875,0.39163273572921753,-0.12677152454853058,0.2877660095691681
1772871638180053800,3.7260537109375,0.3434114158153534,0.32823672890663147,0.8235796093940735
1772871638189986800,3.73598681640625,0.14510898292064667,0.9553131461143494,1.3225340843200684
1772871638199918800,3.7459189453125,-0.13585476577281952,1.5919796228408813,1.6442303657531738
1772871638209851400,3.755851318359375,-0.484245240688324,1.9022620916366577,1.764840841293335
1772871638219784400,3.765784423828125,-0.8152793645858765,1.4677343368530273,1.3585127592086792
1772871638229717500,3.775717529296875,-0.9463364481925964,0.3985074460506439,0.534741997718811
1772871638239650600,3.785650634765625,-0.9641026854515076,-0.39192914962768555,0.12170752882957458
1772871638249583400,3.795583251953125,-0.9416080117225647,-0.459136426448822,0.2991539537906647
1772871638259516400,3.805516357421875,-0.712352454662323,-0.03954900801181793,0.7421289682388306
1772871638269449500,3.815449462890625,-0.4207610785961151,0.3272356390953064,0.8674032688140869
1772871638279381500,3.825381591796875,-0.28220853209495544,0.3409373462200165,0.6358888149261475
1772871638289314600,3.835314453125,-0.21582017838954926,0.28016427159309387,0.20994071662425995
1772871638299247600,3.84524755859375,-0.17016348242759705,0.216234028339386,-0.2991637885570526
1772871638309180400,3.855180419921875,-0.15988899767398834,0.17376087605953217,-0.7672756314277649
1772871638319113500,3.865113525390625,-0.0489337220788002,0.1612626612186432,-1.0598448514938354
1772871638329046500,3.875046630859375,-0.01073733251541853,0.1283438503742218,-1.2034283876419067
1772871638338979600,3.8849794921875,-0.048594433814287186,0.026739468798041344,-1.1801707744598389
1772871638348912400,3.894912353515625,-0.14911171793937683,-0.13954751193523407,-0.9582796692848206
1772871638358844400,3.904844482421875,-0.2752384841442108,-0.23586046695709229,-0.5794934630393982
1772871638368777500,3.914777587890625,-0.37287238240242004,-0.1461484134197235,-0.09150674939155579
1772871638378710500,3.92471044921875,-0.42602506279945374,0.12960459291934967,0.36514389514923096
1772871638388643600,3.9346435546875,-0.4895196259021759,0.4330283999443054,0.663718044757843
1772871638398576400,3.944576416015625,-0.5374879837036133,0.7055485844612122,0.757411003112793
1772871638408509400,3.954509521484375,-0.5328841209411621,0.938678503036499,0.6939534544944763
1772871638418442500,3.9644423828125,-0.5446611642837524,1.102087140083313,0.5134731531143188
1772871638428375600,3.97437548828125,-0.6208880543708801,1.1619681119918823,0.30120590329170227
1772871638438307600,3.9843076171875,-0.7699158787727356,1.1328959465026855,0.17039623856544495
1772871638448238600,3.994238525390625,-0.8895951509475708,0.9632813334465027,0.1244010478258133
1772871638458171600,4.004171630859375,-0.918867826461792,0.7562592029571533,0.16272446513175964
1772871638468104700,4.014104736328125,-0.8957750201225281,0.5690283179283142,0.12865811586380005
1772871638478037500,4.02403759765625,-0.7451838850975037,0.4461148977279663,0.038892004638910294
1772871638487970600,4.033970458984375,-0.5079873204231262,0.47685763239860535,-0.05265894904732704
1772871638497903600,4.043903564453125,-0.31788742542266846,0.6737192869186401,0.024878451600670815
1772871638507836700,4.053836669921875,-0.23631559312343597,0.7637453079223633,0.10381054878234863
1772871638517769500,4.06376953125,-0.33363601565361023,0.5031749606132507,-0.06910184025764465
1772871638527702500,4.07370263671875,-0.4627703130245209,-0.10080357640981674,-0.27452850341796875
1772871638537634600,4.083634521484375,-0.47849148511886597,-0.7100016474723816,-0.5830479860305786
1772871638547567600,4.093567626953125,-0.366563618183136,-0.9861738681793213,-0.9281172156333923
1772871638557500700,4.103500732421875,-0.211375892162323,-1.1086937189102173,-1.4288772344589233
1772871638567433500,4.11343359375,-0.042399123311042786,-1.075186014175415,-2.049241304397583
1772871638577366500,4.123366455078125,0.20454008877277374,-0.5994248390197754,-2.3048582077026367
1772871638587299600,4.133299560546875,0.46129703521728516,0.24417245388031006,-1.9296820163726807
1772871638597232600,4.143232666015625,0.344821572303772,0.9371703863143921,-1.0594971179962158
1772871638607165700,4.153165771484375,-0.17579473555088043,0.9984776973724365,-0.1707531064748764
1772871638617097700,4.16309765625,-0.6361186504364014,0.36167699098587036,0.5222283005714417
1772871638627030500,4.173030517578125,-0.5873412489891052,-0.2784225642681122,1.305683970451355
1772871638636963600,4.182963623046875,-0.16831497848033905,-0.4952792525291443,1.972175121307373
1772871638646896600,4.192896728515625,0.2470252364873886,-0.1691080629825592,2.2209203243255615
1772871638656829700,4.20282958984375,0.5009504556655884,0.3877386748790741,2.080308675765991
1772871638666762500,4.212762451171875,0.6150093674659729,0.8607381582260132,1.65400230884552
1772871638676695600,4.222695556640625,0.6554707884788513,1.0172737836837769,1.000159502029419
1772871638686628600,4.232628662109375,0.6449297070503235,0.5508027076721191,0.09338054805994034
1772871638696560600,4.242560546875,0.5200927257537842,-0.40482738614082336,-0.787299633026123
1772871638706493700,4.25249365234375,0.3544915020465851,-1.1170578002929688,-1.0209240913391113
1772871638716426500,4.262426513671875,0.18174156546592712,-1.1826512813568115,-0.5364506244659424
1772871638726359600,4.272359619140625,0.06301119178533554,-0.8873138427734375,0.2556927502155304
1772871638736292600,4.282292724609375,-0.0058094197884202,-0.47787123918533325,1.0553785562515259
1772871638746225700,4.2922255859375,-0.04662103205919266,-0.08162322640419006,1.5988128185272217
1772871638756158500,4.302158447265625,-0.11238939315080643,0.18386384844779968,1.6843081712722778
1772871638766091500,4.312091552734375,-0.16616606712341309,0.2963813245296478,1.4889861345291138
1772871638776023600,4.3220234375,-0.12276612967252731,0.3868238925933838,1.2549363374710083
1772871638785956600,4.33195654296875,-0.002868224401026964,0.4469985365867615,1.1589245796203613
1772871638795889700,4.3418896484375,0.1241949200630188,0.42820194363594055,1.2078202962875366
1772871638805822700,4.35182275390625,0.2206314504146576,0.3066667318344116,1.190914273262024
1772871638815755500,4.361755615234375,0.21693551540374756,0.16685955226421356,1.0542993545532227
1772871638825690600,4.371690673828125,0.08349516242742538,0.08359555900096893,0.7706120014190674
1772871638835623400,4.38162353515625,-0.0886574313044548,0.07866817712783813,0.2849094867706299
1772871638845555500,4.391555419921875,-0.24882872402668,-0.0022357236593961716,-0.29753822088241577
1772871638855488500,4.401488525390625,-0.3345912992954254,-0.16802015900611877,-0.7379134893417358
1772871638865421600,4.411421630859375,-0.302791029214859,-0.332719624042511,-1.0052485466003418
1772871638875354600,4.421354736328125,-0.16678978502750397,-0.5236334204673767,-1.0830551385879517
1772871638885287400,4.431287353515625,0.005173190496861935,-0.6971386075019836,-0.971469521522522
1772871638895220500,4.441220458984375,0.18831798434257507,-0.7541696429252625,-0.7226607203483582
1772871638905153500,4.451153564453125,0.30959513783454895,-0.6760759353637695,-0.40961360931396484
1772871638915086600,4.461086669921875,0.2546221613883972,-0.5130694508552551,-0.09121992439031601
1772871638925018600,4.4710185546875,0.12060710787773132,-0.41009512543678284,0.13937494158744812
1772871638934951400,4.480951416015625,0.011983691714704037,-0.33357104659080505,0.23553209006786346
1772871638944884500,4.490884521484375,-0.08540864288806915,-0.15077246725559235,0.20478403568267822
1772871638954817500,4.500817626953125,-0.11151987314224243,0.05811417102813721,0.12096396833658218
1772871638964750600,4.51075048828125,-0.08337771147489548,0.20355552434921265,0.07265982031822205
1772871638974683600,4.52068359375,-0.019240539520978928,0.23021934926509857,0.14905819296836853
1772871638984616400,4.530616455078125,0.07444041222333908,0.19675540924072266,0.24526381492614746
1772871638994549500,4.540549560546875,0.1698707938194275,0.12385563552379608,0.29844847321510315
1772871639004481500,4.5504814453125,0.2222413271665573,0.1115259975194931,0.3339824974536896
1772871639014414600,4.56041455078125,0.21316953003406525,0.16259238123893738,0.3685742914676666
1772871639024347600,4.57034765625,0.1727304905653,0.31092938780784607,0.4270075261592865
1772871639034280400,4.580280517578125,0.04195623844861984,0.6033290028572083,0.6268519163131714
1772871639044213500,4.590213623046875,-0.16000165045261383,0.831610918045044,0.6496573686599731
1772871639054146600,4.600146484375,-0.39037707448005676,0.6062012314796448,0.123908631503582
1772871639064079600,4.61007958984375,-0.5345113277435303,0.39215072989463806,-0.2853638231754303
1772871639074012400,4.620012451171875,-0.6059724688529968,0.2453487664461136,-0.6413248777389526
1772871639083944400,4.6299443359375,-0.5838445425033569,0.14176805317401886,-0.89384925365448
1772871639093877500,4.63987744140625,-0.2738264799118042,0.30721133947372437,-0.9816014766693115
1772871639103810600,4.649810546875,0.11805127561092377,0.6381362676620483,-0.9231560230255127
1772871639113743600,4.65974365234375,0.26892706751823425,0.9309689402580261,-0.8994634747505188
1772871639123676400,4.669676513671875,0.07407795637845993,0.8858835101127625,-0.8552150726318359
1772871639133609500,4.679609375,-0.2907732427120209,0.7992330193519592,-0.5536882281303406
1772871639143542500,4.68954248046875,-0.7847323417663574,0.7070005536079407,-0.13694187998771667
1772871639153475600,4.6994755859375,-1.3465110063552856,0.4560977518558502,0.05606380105018616
1772871639163407600,4.70940771484375,-1.6335304975509644,-0.3965473473072052,0.0007502124644815922
1772871639173340700,4.719340576171875,-1.3769274950027466,-1.539190411567688,-0.05264643207192421
1772871639183273500,4.7292734375,-0.6556652188301086,-2.3132803440093994,0.045362688601017
1772871639193206500,4.73920654296875,0.17782512307167053,-2.3716728687286377,0.1320967823266983
1772871639203139600,4.7491396484375,0.8124244213104248,-1.842442512512207,0.13355699181556702
1772871639213073000,4.759072998046875,1.1276143789291382,-0.8728480935096741,0.09798222035169601
1772871639223005700,4.769005615234375,1.2605271339416504,0.2994988262653351,0.03441842645406723
1772871639232938800,4.778938720703125,1.1532424688339233,1.1971547603607178,-0.05919567868113518
1772871639242870800,4.788870849609375,0.8038554787635803,1.459681749343872,-0.17880383133888245
1772871639252803800,4.798803955078125,0.3875490725040436,1.0111900568008423,-0.2445029467344284
1772871639262737000,4.80873681640625,0.11306450515985489,0.07079694420099258,-0.11449408531188965
1772871639272669700,4.818669677734375,0.040162067860364914,-0.9812265038490295,0.17666371166706085
1772871639282602800,4.828602783203125,0.11710718274116516,-1.635349154472351,0.5012737512588501
1772871639292535800,4.838535888671875,0.2478497475385666,-1.8334311246871948,0.7703022956848145
1772871639302468900,4.84846875,0.42497923970222473,-1.6609607934951782,0.9762810468673706
1772871639312401700,4.858401611328125,0.6062547564506531,-1.3516777753829956,0.9431041479110718
1772871639322333700,4.868333740234375,0.7159383893013,-1.0326383113861084,0.5704999566078186
1772871639332266800,4.878266845703125,0.6935648918151855,-0.7108333706855774,0.07722102105617523
1772871639342199800,4.88819970703125,0.5188692808151245,-0.3593009114265442,-0.2368708699941635
1772871639352132900,4.8981328125,0.17238615453243256,0.03659449517726898,-0.2238168567419052
1772871639362066000,4.90806591796875,-0.17556969821453094,0.34834280610084534,0.0287040825933218
1772871639371998700,4.917998779296875,-0.4098844528198242,0.45851749181747437,0.4069616496562958
1772871639381931800,4.927931884765625,-0.504635214805603,0.4050960838794708,0.8235583305358887
1772871639391864800,4.93786474609375,-0.5155214071273804,0.4227003753185272,1.2288824319839478
1772871639401796600,4.947796630859375,-0.4607689380645752,0.5920140743255615,1.5195903778076172
1772871639411730000,4.95772998046875,-0.3881562650203705,0.7572128772735596,1.649300456047058
1772871639421662700,4.967662841796875,-0.33436253666877747,0.9215186834335327,1.5616276264190674
1772871639431595800,4.977595703125,-0.3236486315727234,1.0977823734283447,1.2627907991409302
1772871639441528800,4.98752880859375,-0.431721568107605,1.210136890411377,0.8727993965148926
1772871639451462000,4.9974619140625,-0.5493821501731873,1.2699155807495117,0.3777121305465698
1772871639461394700,5.007394775390625,-0.6271533966064453,1.161255121231079,-0.1355208158493042
1772871639471327700,5.01732763671875,-0.6669849753379822,0.9142171144485474,-0.5388336777687073
1772871639481259500,5.027259521484375,-0.6582444906234741,0.5477240681648254,-0.8480844497680664
1772871639491192600,5.037192626953125,-0.6030265092849731,0.060558151453733444,-1.072800636291504
1772871639501126000,5.0471259765625,-0.5064168572425842,-0.3299669921398163,-1.1994009017944336
1772871639511058700,5.05705859375,-0.30201366543769836,-0.47804248332977295,-1.181133508682251
1772871639520991700,5.06699169921875,0.03837455436587334,-0.4692194163799286,-1.0048037767410278
1772871639530924800,5.0769248046875,0.3872923254966736,-0.3896777331829071,-0.7690505981445312
1772871639540857900,5.08685791015625,0.6163862347602844,-0.326590895652771,-0.5844945907592773
1772871639550791000,5.096791015625,0.6770330667495728,-0.3363727033138275,-0.4085204005241394
1772871639560722700,5.10672265625,0.5552434921264648,-0.40249472856521606,-0.22139284014701843
1772871639570655500,5.116655517578125,0.29907697439193726,-0.46484091877937317,0.008670720271766186
1772871639580588500,5.126588623046875,0.036130838096141815,-0.39117735624313354,0.2045651227235794
1772871639590521900,5.13652197265625,-0.16524328291416168,-0.2058892548084259,0.2915535569190979
1772871639600455000,5.146454833984375,-0.30317211151123047,0.028711538761854172,0.3189297914505005
1772871639610387700,5.1563876953125,-0.38546833395957947,0.145864799618721,0.2813011705875397
1772871639620320800,5.16632080078125,-0.36998099088668823,0.1391080915927887,0.23165106773376465
1772871639630253800,5.17625390625,-0.24670645594596863,0.0984213799238205,0.27346137166023254
1772871639640185600,5.186185546875,-0.0821601152420044,0.28168413043022156,0.7100213766098022
1772871639650118700,5.19611865234375,0.12235201150178909,0.6506981253623962,1.3027541637420654
1772871639660051700,5.2060517578125,0.21540018916130066,0.9186267852783203,1.5679973363876343
1772871639669984500,5.215984619140625,0.20325005054473877,0.8859527111053467,1.5261398553848267
1772871639679917800,5.225917724609375,0.07042090594768524,0.7658383250236511,1.1480754613876343
1772871639689851000,5.235850830078125,-0.07063502073287964,0.5387817025184631,0.4623167812824249
1772871639699783700,5.24578369140625,-0.2934577167034149,0.05378786474466324,-0.5837169885635376
1772871639709715700,5.2557158203125,-0.4502454698085785,-0.6629635691642761,-1.7591110467910767
1772871639719648500,5.2656484375,-0.48286518454551697,-1.294034481048584,-2.727628707885742
1772871639729581600,5.27558154296875,-0.3760753571987152,-1.8813589811325073,-3.2797515392303467
1772871639739514600,5.2855146484375,-0.20426765084266663,-2.6945204734802246,-3.282224655151367
1772871639749447700,5.29544775390625,0.013280917890369892,-2.97099232673645,-2.4615485668182373
1772871639759380500,5.30538037109375,0.260949045419693,-2.4588446617126465,-0.9827229380607605
1772871639769313800,5.315313720703125,0.42995351552963257,-1.3869242668151855,0.5059521198272705
1772871639779246800,5.325246826171875,0.46680447459220886,-0.40610089898109436,1.5955687761306763
1772871639789178600,5.3351787109375,0.45698830485343933,0.11996927857398987,2.010308265686035
1772871639799111700,5.345111572265625,0.2742307484149933,0.40706098079681396,1.613525390625
1772871639809044500,5.35504443359375,-0.04192587733268738,0.5037073493003845,0.7135969400405884
1772871639818977500,5.3649775390625,-0.2952609360218048,0.37402740120887756,-0.5617493391036987
1772871639828910600,5.37491064453125,-0.4774613678455353,-0.03967497497797012,-1.8600411415100098
1772871639838843600,5.38484375,-0.4954560697078705,-0.5960290431976318,-2.8806111812591553
1772871639848776700,5.394776611328125,-0.2733902633190155,-1.109995722770691,-3.2420454025268555
1772871639858709800,5.404709716796875,0.08060403168201447,-1.579017996788025,-2.8465700149536133
1772871639868641500,5.4146416015625,0.3492136597633362,-1.920780897140503,-1.979788064956665
1772871639878574600,5.42457470703125,0.46358975768089294,-2.028787612915039,-0.9543544054031372
1772871639888507600,5.434507568359375,0.3643089830875397,-1.8585189580917358,0.07519328594207764
1772871639898440700,5.444440673828125,0.18700876832008362,-1.2746893167495728,1.025946855545044
1772871639908373500,5.45437353515625,0.10250693559646606,-0.35891208052635193,1.9174631834030151
1772871639918306600,5.464306640625,0.06860995292663574,0.7788321375846863,2.6847243309020996
1772871639928239600,5.474239501953125,0.006737264804542065,1.6175981760025024,3.150214672088623
1772871639938172700,5.484172607421875,-0.1682630479335785,1.863322138786316,3.2026829719543457
1772871639948104700,5.494104736328125,-0.383147656917572,1.5508241653442383,2.953432321548462
1772871639958037500,5.50403759765625,-0.490932434797287,0.8906260132789612,2.4375462532043457
1772871639967970600,5.513970458984375,-0.5365002155303955,0.17217496037483215,1.7527637481689453
1772871639977903600,5.523903564453125,-0.4917910397052765,-0.14174620807170868,1.148858666419983
1772871639987836700,5.533836669921875,-0.3039313852787018,0.008115184493362904,0.7195422053337097
1772871639997769500,5.54376953125,-0.07285956293344498,0.4965572953224182,0.4729350507259369
1772871640007702500,5.55370263671875,0.03635987266898155,1.0404030084609985,0.2731223404407501
1772871640017635600,5.563635498046875,0.02563505619764328,1.3329919576644897,0.02719406969845295
1772871640027567600,5.573567626953125,0.003032541600987315,1.3101439476013184,-0.25007960200309753
1772871640037500700,5.583500732421875,0.015088405460119247,1.0202583074569702,-0.5823127031326294
1772871640047433700,5.593433837890625,-0.009861152619123459,0.6120263934135437,-0.9092641472816467
1772871640057366500,5.603366455078125,-0.06629646569490433,0.16398601233959198,-1.1727309226989746
1772871640067299600,5.613299560546875,-0.07407848536968231,-0.21865138411521912,-1.2656198740005493
1772871640077232600,5.623232666015625,0.01745648868381977,-0.47235503792762756,-1.1594092845916748
1772871640087165700,5.633165771484375,0.15688414871692657,-0.5814540982246399,-0.9131984710693359
1772871640097097700,5.64309765625,0.2981909513473511,-0.5148037075996399,-0.6141300201416016
1772871640107030500,5.653030517578125,0.4058023691177368,-0.23385056853294373,-0.36276862025260925
1772871640116963600,5.662963623046875,0.47655561566352844,0.1288413405418396,-0.18056844174861908
1772871640126896600,5.672896728515625,0.5063308477401733,0.43044379353523254,-0.051486093550920486
1772871640136829700,5.68282958984375,0.4658380150794983,0.5473994612693787,0.03374464809894562
1772871640146762500,5.692762451171875,0.3688027858734131,0.5432973504066467,0.16031163930892944
1772871640156695600,5.702695556640625,0.2416946440935135,0.4302248954772949,0.34308570623397827
1772871640166628600,5.712628662109375,0.12322526425123215,0.3702518343925476,0.583173394203186
1772871640176560600,5.722560546875,0.008985771797597408,0.4181024432182312,0.8784071803092957
1772871640186493700,5.73249365234375,-0.1189812496304512,0.5527196526527405,1.1404310464859009
1772871640196426800,5.7424267578125,-0.22557081282138824,0.7131588459014893,1.259448528289795
1772871640206359600,5.752359619140625,-0.2708919644355774,0.9187607169151306,1.2038654088974
1772871640216293400,5.76229345703125,-0.2428738921880722,1.197854995727539,1.0663840770721436
1772871640226226400,5.772226318359375,-0.20210222899913788,1.4565845727920532,0.9959527254104614
1772871640236159200,5.7821591796875,-0.14982198178768158,1.6915768384933472,1.0904309749603271
1772871640246091000,5.792091064453125,-0.07577172666788101,1.777966022491455,1.329464077949524
1772871640256024000,5.802024169921875,0.004099670331925154,1.5223158597946167,1.5970609188079834
1772871640265957000,5.81195703125,0.03936578333377838,1.273996353149414,1.8757927417755127
1772871640275890400,5.821890380859375,-0.006203567609190941,1.109687328338623,1.8525235652923584
1772871640285823200,5.8318232421875,-0.13388216495513916,0.9683605432510376,1.516683578491211
1772871640295756300,5.84175634765625,-0.256319135427475,0.6875736117362976,1.0149644613265991
1772871640305689300,5.851689453125,-0.2000151127576828,0.059374112635850906,0.32023313641548157
1772871640315622400,5.861622314453125,-0.10562469810247421,-0.5830434560775757,-0.6485412120819092
1772871640325554200,5.87155419921875,-0.15391287207603455,-0.8697425723075867,-1.9740675687789917
1772871640335487200,5.8814873046875,-0.40593287348747253,-0.8459329009056091,-3.4929983615875244
1772871640345420000,5.891419921875,-0.5387271046638489,-0.518909215927124,-4.681609153747559
1772871640355353000,5.90135302734375,-0.12776461243629456,-0.09692494571208954,-4.844906806945801
1772871640365286400,5.911286376953125,0.3973050117492676,0.13085122406482697,-3.8343281745910645
1772871640375219500,5.921219482421875,0.4092530310153961,-0.10409790277481079,-1.782753586769104
1772871640385152300,5.93115234375,0.027292873710393906,-0.8289688229560852,0.8725357055664062
1772871640395085300,5.941085205078125,-0.2313365489244461,-1.0542101860046387,2.9130735397338867
1772871640405017000,5.95101708984375,-0.24746385216712952,-0.7038782835006714,3.6349785327911377
1772871640414950100,5.9609501953125,-0.16071005165576935,-0.02340572327375412,3.3460233211517334
1772871640424883200,5.97088330078125,0.08923240751028061,0.8725104331970215,2.4722096920013428
1772871640434816000,5.98081591796875,0.4949737787246704,1.6981953382492065,1.3081779479980469
1772871640444749000,5.9907490234375,0.8854552507400513,1.804057240486145,-0.0013275857781991363
1772871640454682400,6.000682373046875,1.3002777099609375,0.8403141498565674,-1.4889839887619019
1772871640464615400,6.010615478515625,1.552696704864502,-1.0620752573013306,-2.8906161785125732
1772871640474547200,6.020547119140625,1.3841431140899658,-2.7011990547180176,-3.216834306716919
1772871640484480300,6.030480224609375,1.1257799863815308,-3.711477041244507,-2.7672622203826904
1772871640494413000,6.0404130859375,0.8881234526634216,-4.135871410369873,-2.052039384841919
1772871640504346000,6.05034619140625,0.5144556164741516,-4.029922962188721,-1.2391704320907593
1772871640514279200,6.060279052734375,0.22172467410564423,-3.4305105209350586,-0.6225668787956238
1772871640524212200,6.070212158203125,0.13024349510669708,-2.421816825866699,-0.11099495738744736
1772871640534145000,6.08014501953125,0.14678597450256348,-1.04851496219635,0.4929274022579193
1772871640544078300,6.090078369140625,0.18876512348651886,0.3694973587989807,1.1002016067504883
1772871640554010000,6.100010009765625,0.09362901747226715,1.3141272068023682,1.5567740201950073
1772871640563943200,6.109943115234375,-0.20057916641235352,1.5953751802444458,1.8535102605819702
1772871640573876200,6.119876220703125,-0.6808435320854187,1.2727265357971191,2.0247702598571777
1772871640583809000,6.12980908203125,-1.2136988639831543,0.5580773949623108,2.0717923641204834
1772871640593742000,6.1397421875,-1.5111156702041626,-0.1751481145620346,1.995864748954773
1772871640603675100,6.149675048828125,-1.4835205078125,-0.6093741059303284,1.8256062269210815
1772871640613608200,6.159608154296875,-1.1700047254562378,-0.6872875690460205,1.5667991638183594
1772871640623541000,6.169541015625,-0.6859711408615112,-0.24939145147800446,1.1285814046859741
1772871640633473300,6.179473388671875,-0.12282685190439224,0.449424684047699,0.48962509632110596
1772871640643406000,6.189406005859375,0.38234150409698486,1.05097234249115,-0.20363488793373108
1772871640653339100,6.199339111328125,0.7481250762939453,1.2546535730361938,-0.8152111768722534
1772871640663272200,6.209272216796875,0.9403621554374695,1.0860974788665771,-1.3213859796524048
1772871640673205200,6.219205322265625,1.0242887735366821,0.5004154443740845,-1.7719560861587524
1772871640683138000,6.229137939453125,1.0209877490997314,-0.16553063690662384,-2.0707485675811768
1772871640693071000,6.239071044921875,0.8679742813110352,-0.6638720035552979,-2.1550986766815186
1772871640703003100,6.249003173828125,0.6230435967445374,-0.9201567769050598,-2.0550520420074463
1772871640712936200,6.258936279296875,0.34506258368492126,-0.9609246850013733,-1.769538164138794
1772871640722869200,6.268869140625,0.14272412657737732,-0.8297605514526367,-1.3522841930389404
1772871640732802000,6.278802001953125,0.005471730604767799,-0.5965248942375183,-0.9126647710800171
1772871640742735000,6.288735107421875,-0.10153035074472427,-0.3453161120414734,-0.5572326183319092
1772871640752668200,6.298668212890625,-0.19054651260375977,-0.17896975576877594,-0.3391146659851074
1772871640762601200,6.308601318359375,-0.23049232363700867,-0.1455249786376953,-0.2517496943473816
1772871640772534000,6.318533935546875,-0.1573113203048706,-0.19169805943965912,-0.2560115456581116
1772871640782466000,6.328466064453125,-0.010529606603085995,-0.2362503558397293,-0.3038099408149719
1772871640792399000,6.338399169921875,0.14349031448364258,-0.2086043357849121,-0.3859066963195801
1772871640802332200,6.348332275390625,0.24767771363258362,-0.1443300098180771,-0.47243839502334595
1772871640812265200,6.35826513671875,0.3153670132160187,-0.09876758605241776,-0.5329749584197998
1772871640822198300,6.3681982421875,0.33477160334587097,-0.050571564584970474,-0.5079122185707092
1772871640832131000,6.378131103515625,0.26303374767303467,0.05938582867383957,-0.37510570883750916
1772871640842064100,6.388064208984375,0.13492026925086975,0.28269773721694946,-0.18934328854084015
1772871640851996200,6.39799609375,-0.016691362485289574,0.5598766207695007,0.022937806323170662
1772871640861929200,6.40792919921875,-0.173567533493042,0.805537223815918,0.24500629305839539
1772871640871862300,6.4178623046875,-0.2730048894882202,0.9705685377120972,0.4937977194786072
1772871640881795000,6.427795166015625,-0.3590361773967743,1.104623794555664,0.8101431727409363
1772871640891728100,6.43772802734375,-0.5649003982543945,1.2672899961471558,0.9059759974479675
1772871640901661200,6.4476611328125,-0.7579071521759033,1.225744605064392,0.7143372893333435
1772871640911594200,6.45759423828125,-0.9146363139152527,0.9006760120391846,0.14543762803077698
1772871640921527000,6.467527099609375,-0.9263232946395874,0.4332939088344574,-0.6106215715408325
1772871640931459000,6.477458984375,-0.7094115018844604,0.02671203762292862,-1.362846851348877
1772871640941392100,6.48739208984375,-0.1871459186077118,-0.3143017292022705,-1.9098700284957886
1772871640951325200,6.4973251953125,0.3131696283817291,-0.28323331475257874,-2.261896848678589
1772871640961258200,6.50725830078125,0.42219945788383484,0.1350635439157486,-2.2386443614959717
1772871640971191000,6.51719091796875,0.261660099029541,0.4746013879776001,-1.6640673875808716
1772871640981124000,6.5271240234375,-0.20585596561431885,0.5954588651657104,-0.6928994059562683
1772871640991057200,6.53705712890625,-0.9186960458755493,0.520327627658844,0.5201339721679688
1772871641000989200,6.5469892578125,-1.3017182350158691,0.585719108581543,1.9791749715805054
1772871641010922200,6.556922119140625,-1.0805437564849854,0.7941751480102539,3.2306854724884033
1772871641020855300,6.566855224609375,-0.6828238368034363,1.1184014081954956,3.6788108348846436
1772871641030788000,6.5767880859375,-0.2360450178384781,1.2020549774169922,3.2369890213012695
1772871641040721200,6.58672119140625,0.38113829493522644,0.9566218256950378,2.209444284439087
1772871641050654200,6.596654296875,1.1821258068084717,0.4984627962112427,0.8259927034378052
1772871641060587300,6.606587158203125,1.870693325996399,-0.24260199069976807,-0.7188356518745422
1772871641070520000,6.61652001953125,2.2461342811584473,-1.1895941495895386,-2.155207633972168
1772871641080452000,6.6264521484375,2.317619562149048,-2.368006944656372,-3.1030383110046387
1772871641090385200,6.63638525390625,2.109156608581543,-3.3722219467163086,-3.202106237411499
1772871641100318200,6.646318115234375,1.7375121116638184,-3.773566722869873,-2.542466163635254
1772871641110251300,6.656251220703125,1.3928828239440918,-3.566941738128662,-1.5999104976654053
1772871641120184000,6.66618408203125,1.109028935432434,-2.8279218673706055,-0.7631692886352539
1772871641130117000,6.6761171875,0.8390539288520813,-1.814881682395935,-0.20565009117126465
1772871641140050200,6.68605029296875,0.5374823808670044,-0.6354323625564575,0.09989038109779358
1772871641149982200,6.695982177734375,0.13073058426380157,0.4712548851966858,0.3486165702342987
1772871641159915300,6.705915283203125,-0.3356997072696686,1.0868680477142334,0.5957611203193665
1772871641169848300,6.715848388671875,-0.6971220970153809,1.2192553281784058,0.7894901037216187
1772871641179781000,6.725781005859375,-0.90608811378479,0.9898836612701416,0.9965141415596008
1772871641189714200,6.735714111328125,-0.8671185970306396,0.5922209620475769,1.2146717309951782
1772871641199647200,6.745647216796875,-0.6004669070243835,0.31008410453796387,1.5138475894927979
1772871641209580300,6.755580322265625,-0.3952522575855255,0.10551071166992188,1.7698103189468384
1772871641219512800,6.765512939453125,-0.4027245342731476,-0.10808971524238586,1.8915373086929321
1772871641229444900,6.77544482421875,-0.5618425607681274,-0.28302478790283203,1.9153650999069214
1772871641239378000,6.7853779296875,-0.7640990018844604,-0.40119215846061707,1.9064643383026123
1772871641249311000,6.79531103515625,-0.9353205561637878,-0.393014132976532,1.9457789659500122
1772871641259244000,6.805244140625,-0.9586530327796936,-0.16969555616378784,1.9656946659088135
1772871641269176800,6.8151767578125,-0.7011203169822693,0.26284149289131165,1.9147555828094482
1772871641279110000,6.82510986328125,-0.18033036589622498,1.019584059715271,1.87213134765625
1772871641289043000,6.83504296875,0.3751344680786133,1.884073257446289,1.737780213356018
1772871641298975000,6.84497509765625,0.7017927169799805,2.1970536708831787,1.282826542854309
1772871641308908000,6.854907958984375,0.6995463371276855,1.7943871021270752,0.5177121162414551
1772871641318841000,6.864841064453125,0.566797137260437,0.9813508987426758,-0.30326932668685913
1772871641328774000,6.87477392578125,0.41613462567329407,0.2473999410867691,-0.8195981979370117
1772871641338707000,6.88470703125,0.30514898896217346,-0.07697787135839462,-0.9670355916023254
1772871641348640000,6.894639892578125,0.1810438185930252,-0.0992184653878212,-0.8663145899772644
1772871641358573000,6.904572998046875,-0.03057681769132614,-0.054490137845277786,-0.659984290599823
1772871641368505900,6.914505859375,-0.2347288876771927,0.018865033984184265,-0.4608520269393921
1772871641378438000,6.92443798828125,-0.36563390493392944,0.08742332458496094,-0.30786648392677307
1772871641388371000,6.934370849609375,-0.37796542048454285,0.1497357040643692,-0.21711261570453644
1772871641398304000,6.944303955078125,-0.2953467071056366,0.24967454373836517,-0.12313258647918701
1772871641408237000,6.954237060546875,-0.23396748304367065,0.2668237090110779,-0.01763252355158329
1772871641418169900,6.964169921875,-0.23009206354618073,0.15733902156352997,0.10810276865959167
1772871641428103000,6.97410302734375,-0.2529688775539398,-0.022402243688702583,0.21565106511116028
1772871641438036000,6.984035888671875,-0.275184690952301,-0.15023717284202576,0.2872072756290436
1772871641447968000,6.993968017578125,-0.283437579870224,-0.10589287430047989,0.31839820742607117
1772871641457901000,7.003901123046875,-0.2626689076423645,0.14526744186878204,0.28837907314300537
1772871641467834000,7.013834228515625,-0.21557968854904175,0.5128012299537659,0.2121673822402954
1772871641477767000,7.023766845703125,-0.19040723145008087,0.7824090123176575,0.10350961238145828
1772871641487700000,7.033699951171875,-0.16882577538490295,0.7802500128746033,-0.05544168874621391
1772871641497633000,7.043633056640625,-0.12132296711206436,0.5756992697715759,-0.21925245225429535
1772871641507566000,7.053566162109375,-0.0607866495847702,0.3431357741355896,-0.25913676619529724
1772871641517498000,7.063498046875,0.034636806696653366,0.15702210366725922,-0.01828712783753872
1772871641527431000,7.073430908203125,0.0962250679731369,0.20722270011901855,0.327034592628479
1772871641537364000,7.083364013671875,-0.09551240503787994,0.5156663060188293,0.3441978693008423
1772871641547297000,7.093297119140625,-0.42198026180267334,0.8386778831481934,0.13927532732486725
1772871641557230000,7.10322998046875,-0.6066025495529175,1.0403510332107544,-0.08342991024255753
1772871641567163000,7.113162841796875,-0.59623783826828,1.0890337228775024,-0.3257109820842743
1772871641577096000,7.123095947265625,-0.40953266620635986,1.0314702987670898,-0.6842880249023438
1772871641587028000,7.133028076171875,0.06692230701446533,0.682011604309082,-0.8880656957626343
1772871641596961000,7.1429609375,0.500153660774231,0.02497219480574131,-1.2312464714050293
1772871641606894000,7.15289404296875,0.5214871764183044,-0.8625875115394592,-1.9087605476379395
1772871641616827100,7.1628271484375,0.38492265343666077,-1.6460686922073364,-2.4728610515594482
1772871641626760000,7.172760009765625,0.24838291108608246,-2.0663557052612305,-2.5238146781921387
1772871641636693000,7.18269287109375,0.07633844763040543,-1.8126145601272583,-1.6826845407485962
1772871641646626000,7.1926259765625,0.014059892855584621,-0.9272660613059998,-0.13040834665298462
1772871641656558000,7.20255810546875,-0.1371179074048996,0.3498906195163727,1.393489122390747
1772871641666491100,7.2124912109375,-0.516752302646637,1.4386897087097168,2.3483705520629883
1772871641676424000,7.222423828125,-0.8869660496711731,2.0276331901550293,2.6291708946228027
1772871641686357000,7.23235693359375,-0.9669008255004883,2.365710496902466,2.372814655303955
1772871641696290000,7.2422900390625,-0.7372063994407654,2.4686689376831055,1.7332477569580078
1772871641706223000,7.25222314453125,-0.2436416894197464,2.148771286010742,0.7637607455253601
1772871641716156000,7.262156005859375,0.5230661630630493,0.9414671063423157,-0.6141806244850159
1772871641726089000,7.2720888671875,1.331615686416626,-0.5140148401260376,-1.6628633737564087
1772871641736021000,7.28202099609375,1.8055939674377441,-1.4039716720581055,-1.8459477424621582
1772871641745954000,7.2919541015625,1.8664213418960571,-1.7548569440841675,-1.57632315158844
1772871641755887000,7.30188720703125,1.5020824670791626,-1.793441653251648,-1.2225991487503052
1772871641765820000,7.31181982421875,0.9415733814239502,-1.476480484008789,-0.8411977887153625
1772871641775753000,7.3217529296875,0.5629853010177612,-0.7973322868347168,-0.35317111015319824
1772871641785686000,7.33168603515625,0.5593836903572083,-0.0709141194820404,0.1589536964893341
1772871641795619000,7.341619140625,0.8793914914131165,0.30043652653694153,0.4315758943557739
1772871641805551000,7.351551025390625,1.233349323272705,-0.07069654017686844,0.46923673152923584
1772871641815484200,7.361484130859375,1.268251895904541,-0.8057913184165955,0.7052391171455383
1772871641825417000,7.3714169921875,0.9771226048469543,-1.181785225868225,1.2189035415649414
1772871641835350000,7.38135009765625,0.4166526198387146,-1.1215606927871704,1.6876510381698608
1772871641845283000,7.391282958984375,-0.1442951261997223,-0.8840179443359375,1.883173942565918
1772871641855216000,7.401216064453125,-0.6191117167472839,-0.5468798875808716,1.8005355596542358
1772871641865149000,7.41114892578125,-0.8149129152297974,-0.1444980651140213,1.5094664096832275
1772871641875082000,7.42108203125,-0.9137345552444458,0.19612210988998413,1.0333962440490723
1772871641885014000,7.431013916015625,-0.8886614441871643,0.5986306667327881,0.6093538999557495
1772871641894947000,7.440947021484375,-0.5945107340812683,0.9487205147743225,0.4252042770385742
1772871641904880000,7.450880126953125,-0.43300390243530273,1.0750550031661987,0.04982880875468254
1772871641914813000,7.46081298828125,-0.48930978775024414,0.8802660703659058,-0.43452882766723633
1772871641924746000,7.47074609375,-0.6484125852584839,0.6503652334213257,-0.8629472851753235
1772871641934679000,7.480678955078125,-0.8170181512832642,0.6291672587394714,-1.1018568277359009
1772871641944612000,7.490612060546875,-0.9392529726028442,0.6231780648231506,-1.1686933040618896
1772871641954543900,7.5005439453125,-0.9874314069747925,0.6375109553337097,-1.1673625707626343
1772871641964477200,7.510477294921875,-1.0133540630340576,0.558804452419281,-1.1158701181411743
1772871641974410000,7.520409912109375,-0.9160152673721313,0.5005509853363037,-0.9960781931877136
1772871641984343000,7.530343017578125,-0.7053046822547913,0.4824233651161194,-0.7934440970420837
1772871641994276000,7.540276123046875,-0.4666667878627777,0.48596030473709106,-0.5636010766029358
1772871642004209200,7.550209228515625,-0.2978231608867645,0.3945550322532654,-0.4010486304759979
1772871642014142000,7.560141845703125,-0.1810656636953354,0.2910832464694977,-0.3415085971355438
1772871642024073700,7.57007373046875,-0.07218631356954575,0.2754206657409668,-0.3818637430667877
1772871642034006800,7.5800068359375,0.026272617280483246,0.35499483346939087,-0.5040605068206787
1772871642043939800,7.58993994140625,0.10162116587162018,0.42126360535621643,-0.646006166934967
1772871642053873200,7.599873046875,0.16121259331703186,0.4083704352378845,-0.7393587827682495
1772871642063806000,7.609805908203125,0.21021981537342072,0.2737942636013031,-0.7387382388114929
1772871642073739000,7.619739013671875,0.2356088012456894,0.09031498432159424,-0.625683069229126
1772871642083672000,7.629672119140625,0.22914636135101318,-0.04799894988536835,-0.5214256048202515
1772871642093603800,7.639603759765625,0.21011435985565186,-0.09643732011318207,-0.494965523481369
1772871642103537000,7.649536865234375,0.21186111867427826,-0.06630392372608185,-0.5255018472671509
1772871642113470000,7.659469970703125,0.2604909837245941,-0.03027215227484703,-0.5637049078941345
1772871642123402800,7.66940283203125,0.3885386884212494,0.02466433309018612,-0.5425348877906799
1772871642133335800,7.679335693359375,0.5193672776222229,0.060807157307863235,-0.4643476903438568
1772871642143269000,7.68926904296875,0.6209990978240967,-0.02365100011229515,-0.3684273064136505
1772871642153202200,7.6992021484375,0.6135377287864685,-0.24888359010219574,-0.2589135766029358
1772871642163134000,7.709134033203125,0.4680268466472626,-0.44952160120010376,0.1372273564338684
1772871642173066800,7.719066650390625,0.2622414827346802,-0.4109862148761749,0.4970843493938446
1772871642182999800,7.728999755859375,-0.010520284995436668,-0.07073994725942612,0.47695988416671753
1772871642192932900,7.738932861328125,-0.2699523866176605,0.240907683968544,0.4328784644603729
1772871642202866000,7.748865966796875,-0.40296584367752075,0.6311182975769043,0.5015142560005188
1772871642212798700,7.758798828125,-0.3003385365009308,1.1223112344741821,0.6110572218894958
1772871642222732000,7.76873193359375,-0.09459521621465683,1.3486108779907227,0.5883378386497498
1772871642232664000,7.7786640625,0.2561265826225281,1.4419435262680054,0.8411977887153625
1772871642242597000,7.78859716796875,0.7089465260505676,1.2622544765472412,0.45720377564430237
1772871642252530200,7.7985302734375,1.1260946989059448,1.7340302467346191,-0.528334379196167
1772871642262463000,7.808462890625,0.9477319121360779,1.2462069988250732,-1.7218239307403564
1772871642272396000,7.81839599609375,0.027644144371151924,-0.6989586353302002,-2.581784963607788
1772871642282329000,7.8283291015625,-1.233138918876648,-2.1567792892456055,-1.7627495527267456
1772871642292262100,7.83826220703125,-1.9121387004852295,-2.184987783432007,0.4166283905506134
1772871642302195200,7.8481953125,-1.9515380859375,-0.7344385981559753,2.7153220176696777
1772871642312127200,7.858127197265625,-1.3065185546875,1.1795319318771362,4.303288459777832
1772871642322060000,7.86806005859375,-0.5107559561729431,2.428504467010498,4.635818958282471
1772871642331993000,7.8779931640625,0.14045511186122894,2.4371845722198486,3.1944851875305176
1772871642341926100,7.887926025390625,0.7735984921455383,0.8995298147201538,0.4089376926422119
1772871642351859200,7.897859130859375,1.4496976137161255,-1.2795231342315674,-2.0530405044555664
1772871642361792000,7.9077919921875,1.9218776226043701,-2.859027862548828,-3.5885658264160156
1772871642371725000,7.91772509765625,2.1463427543640137,-3.14143443107605,-4.152641773223877
1772871642381657000,7.927656982421875,1.6944109201431274,-2.305067300796509,-3.8054392337799072
1772871642391590100,7.937590087890625,0.8373271226882935,-1.0944217443466187,-2.3446531295776367
1772871642401523200,7.947523193359375,0.364883154630661,-0.001100950757972896,-0.1521029770374298
1772871642411456000,7.9574560546875,0.331785649061203,0.6758328080177307,1.9276175498962402
1772871642421389000,7.96738916015625,0.34014105796813965,0.6943409442901611,3.029287099838257
1772871642431322000,7.977322021484375,0.13191328942775726,0.17903126776218414,3.1127521991729736
1772871642441255200,7.987255126953125,-0.2070586383342743,-0.5233135223388672,2.557023763656616
1772871642451186200,7.997186279296875,-0.529299795627594,-1.0852022171020508,1.6876137256622314
1772871642461118200,8.0071181640625,-0.6214166879653931,-1.298510193824768,0.715126097202301
1772871642471051300,8.01705126953125,-0.5280811190605164,-0.955927312374115,0.03813327103853226
1772871642480984300,8.026984375,-0.27629950642585754,-0.05916212499141693,-0.20820939540863037
1772871642490917000,8.036917236328126,-0.13475409150123596,0.7326875329017639,-0.29041823744773865
1772871642500850200,8.04685009765625,-0.17918972671031952,0.9429241418838501,-0.4321599304676056
1772871642510783200,8.056783203125,-0.2529723346233368,0.76212078332901,-0.5359808802604675
1772871642520716300,8.06671630859375,-0.3106028735637665,0.46086347103118896,-0.4827094078063965
1772871642530648000,8.07664794921875,-0.3778029680252075,0.32592537999153137,-0.3204730749130249
1772871642540581000,8.0865810546875,-0.4583284258842468,0.3708172142505646,-0.207076758146286
1772871642550514200,8.09651416015625,-0.5173808336257935,0.4505208432674408,-0.18566706776618958
1772871642560447200,8.106447265625,-0.6314687728881836,0.5081614851951599,-0.2672751247882843
1772871642570380300,8.11638037109375,-0.6911283731460571,0.4980103075504303,-0.433061420917511
1772871642580313000,8.12631298828125,-0.6276958584785461,0.4785063862800598,-0.5862754583358765
1772871642590246100,8.13624609375,-0.5061550736427307,0.5487129092216492,-0.6471121907234192
1772871642600178000,8.146177978515626,-0.36978551745414734,0.6242444515228271,-0.6101691126823425
1772871642610111000,8.156111083984374,-0.2541595697402954,0.6152495741844177,-0.49390825629234314
1772871642620044000,8.1660439453125,-0.19756580889225006,0.47890347242355347,-0.3164154887199402
1772871642629977300,8.175977294921875,-0.11167006939649582,0.3040919899940491,-0.1828361302614212
1772871642639910100,8.18591015625,0.015086008235812187,0.10607956349849701,-0.12519574165344238
1772871642649843200,8.19584326171875,0.13233593106269836,-0.05269277095794678,-0.13933365046977997
1772871642659776300,8.2057763671875,0.208534836769104,-0.1349239945411682,-0.22157447040081024
1772871642669708000,8.2157080078125,0.25052011013031006,-0.12589268386363983,-0.3315318524837494
1772871642679641000,8.22564111328125,0.28250280022621155,-0.13781273365020752,-0.38584914803504944
1772871642689574000,8.235573974609375,0.2838785946369171,-0.21574826538562775,-0.34384390711784363
1772871642699507000,8.2455068359375,0.26996782422065735,-0.2771027088165283,-0.2517549991607666
1772871642709440000,8.25543994140625,0.2456105649471283,-0.318036824464798,-0.1127164289355278
1772871642719373300,8.265373291015624,0.22139310836791992,-0.36292120814323425,-0.0010700580896809697
1772871642729306000,8.27530615234375,0.16891072690486908,-0.37964001297950745,0.1053466647863388
1772871642739238100,8.285238037109375,0.13833923637866974,-0.33382537961006165,0.38668006658554077
1772871642749171000,8.2951708984375,0.041799113154411316,-0.13449949026107788,0.6435097455978394
1772871642759104000,8.30510400390625,-0.1629822552204132,0.10454132407903671,0.704430341720581
1772871642769037000,8.315037109375,-0.29290351271629333,0.33563926815986633,0.634576141834259
1772871642778970000,8.32497021484375,-0.3149124085903168,0.5763799548149109,0.45210009813308716
1772871642788903000,8.33490283203125,-0.09532731771469116,0.4621894657611847,0.06942381709814072
1772871642798836000,8.3448359375,0.1701834499835968,-0.038187865167856216,-0.3356997072696686
1772871642808768000,8.35476806640625,0.12631745636463165,-0.28730422258377075,-0.6190041303634644
1772871642818701000,8.364701171875,-0.392529159784317,-0.6873381733894348,-1.1903326511383057
1772871642828635100,8.37463525390625,-1.1463366746902466,-1.480521559715271,-1.7491657733917236
1772871642838568200,8.384568115234375,-1.6063138246536255,-2.8105688095092773,-2.007521629333496
1772871642848501200,8.394501220703125,-1.5983413457870483,-3.628138780593872,-1.6463185548782349
1772871642858434300,8.404434326171875,-1.340287446975708,-3.387101411819458,-0.6035330295562744
1772871642868367000,8.4143671875,-0.7486342787742615,-2.4340083599090576,1.0322932004928589
1772871642878300200,8.424300048828124,-0.012252938002347946,-1.1403309106826782,2.346571683883667
1772871642888233200,8.434233154296875,0.43238815665245056,0.008474977687001228,2.819753408432007
1772871642898165200,8.444165283203125,0.48412540555000305,0.5845159292221069,2.449326515197754
1772871642908098300,8.454098388671875,0.3147006928920746,0.6435944437980652,1.5200926065444946
1772871642918031000,8.464031005859376,0.18780983984470367,0.10833659023046494,0.20051658153533936
1772871642927964200,8.473964111328126,0.19902122020721436,-0.9817583560943604,-1.1804109811782837
1772871642937897200,8.483897216796874,0.31037411093711853,-1.9397799968719482,-1.9318493604660034
1772871642947830300,8.493830322265625,0.48765674233436584,-2.285334587097168,-1.8133621215820312
1772871642957763000,8.50376318359375,0.6902708411216736,-2.033568859100342,-1.2058247327804565
1772871642967695000,8.513695068359375,0.8285751938819885,-1.4423505067825317,-0.4960630238056183
1772871642977628000,8.5236279296875,0.9879387617111206,-0.8828901052474976,0.02912912331521511
1772871642987561200,8.533561279296874,1.0797173976898193,-0.4326339662075043,0.3653007447719574
1772871642997494300,8.543494384765625,1.0312944650650024,-0.003924434073269367,0.6684576869010925
1772871643007427300,8.55342724609375,0.8755820989608765,0.2814388573169708,0.9324653744697571
1772871643017360100,8.563360107421875,0.655489981174469,0.30659961700439453,1.095818042755127
1772871643027293200,8.573293212890626,0.4549504816532135,0.19660787284374237,1.1801220178604126
1772871643037225000,8.583224853515626,0.2619709074497223,0.12145399302244186,1.3707337379455566
1772871643047158000,8.593157958984374,-0.0866941511631012,0.01293177716434002,1.5939178466796875
1772871643057091000,8.603091064453125,-0.40217408537864685,0.10625187307596207,1.9568926095962524
1772871643067024000,8.61302392578125,-0.5262869596481323,0.46759381890296936,2.169184923171997
1772871643076957200,8.622957275390625,-0.5134934186935425,0.7945924401283264,1.980910062789917
1772871643086890200,8.63289013671875,-0.4201160669326782,1.1304585933685303,1.4737088680267334
1772871643096823300,8.6428232421875,-0.35584890842437744,1.4322437047958374,0.9476168751716614
1772871643106755000,8.652755126953124,-0.35128211975097656,1.6200008392333984,0.5459509491920471
1772871643116688100,8.662688232421875,-0.4810712933540344,1.5490899085998535,0.15418104827404022
1772871643126621000,8.672620849609375,-0.5941339135169983,1.2123055458068848,-0.344970166683197
1772871643136554000,8.682553955078125,-0.6654136776924133,0.8517164587974548,-0.7397414445877075
1772871643146487000,8.692487060546876,-0.6675535440444946,0.5660242438316345,-1.0612469911575317
1772871643156420000,8.702420166015624,-0.5893452763557434,0.3703799247741699,-1.333349347114563
1772871643166352100,8.71235205078125,-0.4884575605392456,0.31150275468826294,-1.507271409034729
1772871643176285000,8.722284912109375,-0.3549972474575043,0.3200182318687439,-1.5485520362854004
1772871643186218000,8.732218017578125,-0.2028292715549469,0.36410045623779297,-1.426069974899292
1772871643196151000,8.742151123046876,-0.04734514653682709,0.3420100808143616,-1.1859418153762817
1772871643206084000,8.752083984375,0.07224810123443604,0.18521645665168762,-0.8891021609306335
1772871643216017400,8.762017333984375,0.14275209605693817,-0.029337648302316666,-0.6064329147338867
1772871643225950500,8.771950439453125,0.19213801622390747,-0.1961282342672348,-0.4140443205833435
1772871643235882500,8.781882568359375,0.23960593342781067,-0.2491304576396942,-0.32164648175239563
1772871643245815600,8.791815673828125,0.2629906237125397,-0.11116167157888412,-0.29136791825294495
1772871643255748600,8.80174853515625,0.2843688726425171,0.08083093166351318,-0.2772872745990753
1772871643265681400,8.811681396484374,0.3110628128051758,0.21868200600147247,-0.2681582272052765
1772871643275614500,8.821614501953125,0.30582675337791443,0.2516292929649353,-0.26704874634742737
1772871643285547500,8.831547607421875,0.2724224627017975,0.23333951830863953,-0.264314740896225
1772871643295480600,8.84148046875,0.1945311278104782,0.18533258140087128,-0.22042398154735565
1772871643305412600,8.85141259765625,0.09481626003980637,0.15315812826156616,-0.15578293800354004
1772871643315345400,8.861345458984376,0.020254671573638916,0.19235266745090485,-0.10964873433113098
1772871643325278500,8.871278564453124,0.014977085404098034,0.2940060496330261,-0.027753600850701332
1772871643335211500,8.88121142578125,0.06226976588368416,0.40127071738243103,0.09641735255718231
1772871643345144600,8.89114453125,0.11576841026544571,0.5095303654670715,0.19075024127960205
1772871643355077600,8.90107763671875,0.12670761346817017,0.4872458279132843,0.27709418535232544
1772871643365010400,8.911010498046876,0.05016463249921799,0.5370988845825195,0.6119949221611023
1772871643374942500,8.9209423828125,-0.16003121435642242,0.6198701858520508,0.9177939891815186
1772871643384875500,8.93087548828125,-0.4731704890727997,0.45627379417419434,0.9630629420280457
1772871643394808600,8.94080859375,-0.6896578073501587,0.17517341673374176,0.5096491575241089
1772871643404741600,8.95074169921875,-0.5234906673431396,-0.14193183183670044,-0.2672857642173767
1772871643414674400,8.96067431640625,-0.11663447320461273,-0.319381445646286,-0.8965291976928711
1772871643424607500,8.970607421875,0.3489215075969696,0.02153724990785122,-1.1562625169754028
1772871643434540500,8.98054052734375,0.33464109897613525,0.4312744438648224,-1.555687665939331
1772871643444472600,8.99047265625,-0.17661817371845245,-0.08733250945806503,-2.264552354812622
1772871643454405600,9.000405517578125,-0.7768914699554443,-1.3311586380004883,-2.58024263381958
1772871643464338400,9.01033837890625,-1.0352541208267212,-2.1008429527282715,-1.6395453214645386
1772871643474271500,9.020271484375,-0.8347702622413635,-1.5891218185424805,0.21922875940799713
1772871643484204500,9.03020458984375,-0.5663715600967407,-0.2567572295665741,1.8644540309906006
1772871643494137600,9.0401376953125,-0.42190757393836975,0.975879967212677,2.6149985790252686
1772871643504070400,9.0500703125,-0.20388229191303253,1.5409955978393555,2.4523277282714844
1772871643514002700,9.060002685546875,0.2618885934352875,1.5114281177520752,1.6866291761398315
1772871643523935500,9.069935546875,0.7649738192558289,1.1314932107925415,0.7267593741416931
1772871643533868500,9.07986865234375,1.1025958061218262,0.47596627473831177,-0.2738696336746216
1772871643543801600,9.089801513671874,1.2166038751602173,-0.3042200803756714,-1.0425910949707031
1772871643553734700,9.099734619140625,1.1593533754348755,-1.0681052207946777,-1.2617998123168945
1772871643563667500,9.10966748046875,0.9752639532089233,-1.7830760478973389,-1.0572336912155151
1772871643573600500,9.1196005859375,0.8022873997688293,-2.214974880218506,-0.770565390586853
1772871643583532500,9.129532470703126,0.7015501260757446,-2.23577880859375,-0.5652069449424744
1772871643593465600,9.139465576171874,0.692631721496582,-1.88211190700531,-0.5483906865119934
1772871643603398700,9.149398681640625,0.7124847769737244,-1.3119181394577026,-0.6606290340423584
1772871643613331500,9.15933154296875,0.6250998377799988,-0.7785447835922241,-0.644065797328949
1772871643623264500,9.169264404296875,0.429922878742218,-0.30996957421302795,-0.35325101017951965
1772871643633197600,9.179197509765626,0.23367853462696075,0.09689165651798248,0.06309667974710464
1772871643643130600,9.189130615234374,0.03804538771510124,0.3755272924900055,0.4250759184360504
1772871643653062700,9.199062744140624,-0.1805785596370697,0.38943377137184143,0.6812424659729004
1772871643662995500,9.208995361328125,-0.32600340247154236,0.2781860828399658,0.877929151058197
1772871643672928500,9.218928466796875,-0.4060734808444977,0.20732522010803223,1.1359732151031494
1772871643682861600,9.228861572265625,-0.4970739483833313,0.13609258830547333,1.401416301727295
1772871643692794600,9.238794677734376,-0.5116856694221497,0.13041739165782928,1.6938873529434204
1772871643702727700,9.248727783203124,-0.5391987562179565,0.31479257345199585,1.9596120119094849
1772871643712660500,9.258660400390625,-0.5650429129600525,0.6353594064712524,1.956611156463623
1772871643722592500,9.268592529296875,-0.5184479355812073,0.912446916103363,1.5817203521728516
1772871643732525600,9.278525634765625,-0.46475836634635925,0.8888060450553894,0.8333569169044495
1772871643742458600,9.288458740234375,-0.46530935168266296,0.605207085609436,-0.13573306798934937
1772871643752391700,9.2983916015625,-0.5082086324691772,0.327301949262619,-1.0102672576904297
1772871643762324500,9.308324462890624,-0.4997725486755371,0.20944936573505402,-1.6418675184249878
1772871643772257500,9.318257568359375,-0.41074278950691223,0.15757977962493896,-2.015636920928955
1772871643782189600,9.328189453125,-0.2741929292678833,0.13897332549095154,-2.1563758850097656
1772871643792122600,9.33812255859375,-0.1077973023056984,0.10682791471481323,-2.0406506061553955
1772871643802055700,9.3480556640625,0.04020760580897331,0.005480252671986818,-1.699072241783142
1772871643811988500,9.357988525390626,0.12355416268110275,-0.06590977311134338,-1.1886340379714966
1772871643821921500,9.367921630859374,0.10118387639522552,-0.09958118200302124,-0.672466516494751
1772871643831854600,9.3778544921875,0.008821721188724041,-0.12688976526260376,-0.23346228897571564
1772871643841787600,9.38778759765625,-0.030609307810664177,-0.04945463314652443,0.14524614810943604
1772871643851719700,9.3977197265625,-0.015750734135508537,0.10386408120393753,0.38350239396095276
1772871643861652700,9.40765283203125,-0.011991148814558983,0.23963363468647003,0.4371645450592041
1772871643871585500,9.41758544921875,-0.00836525484919548,0.26742878556251526,0.3468429148197174
1772871643881518600,9.4275185546875,0.03382028266787529,0.23591186106204987,0.20972447097301483
1772871643891451600,9.43745166015625,0.10561750829219818,0.15677283704280853,0.09660616517066956
1772871643901384700,9.447384765625,0.18190482258796692,0.12451955676078796,0.05173909291625023
1772871643911317500,9.4573173828125,0.20097865164279938,0.1536657214164734,0.08951736241579056
1772871643921249500,9.46724951171875,0.1696188598871231,0.26973453164100647,0.18356157839298248
1772871643931182600,9.4771826171875,0.13480602204799652,0.39038825035095215,0.22636176645755768
1772871643941115600,9.48711572265625,0.07230988144874573,0.4908163249492645,0.18096579611301422
1772871643951048700,9.497048583984375,-0.01404710952192545,0.5945382118225098,0.07558157294988632
1772871643960981500,9.5069814453125,-0.13588140904903412,0.7285918593406677,-0.0016373114194720984
1772871643970914600,9.51691455078125,-0.2585916221141815,0.8122952580451965,0.026741333305835724
1772871643980846600,9.5268466796875,-0.33464908599853516,0.801788866519928,0.13008396327495575
1772871643990779600,9.536779541015624,-0.4047381579875946,0.6355234384536743,0.2783075273036957
1772871644000712700,9.546712646484375,-0.5189059972763062,0.7002971172332764,0.7619695067405701
1772871644010645500,9.5566455078125,-0.7959181666374207,0.8453972935676575,0.8165419697761536
1772871644020578600,9.56657861328125,-1.0708967447280884,0.7635919451713562,0.4906251132488251
1772871644030511600,9.57651171875,-1.1727235317230225,0.5799733400344849,0.002910302486270666
1772871644040444700,9.586444580078124,-1.007129192352295,0.4757135510444641,-0.5410904288291931
1772871644050376700,9.596376708984375,-0.8301754593849182,0.26776379346847534,-1.470428466796875
1772871644060309800,9.606309814453125,-0.678508460521698,-0.28131103515625,-2.4880623817443848
1772871644070242600,9.61624267578125,-0.5728355646133423,-1.1797540187835693,-3.209055185317993
1772871644080175600,9.626175537109376,-0.7426072955131531,-2.4125783443450928,-3.4620676040649414
1772871644090108700,9.636108642578124,-0.7720296382904053,-3.2394955158233643,-2.546842098236084
1772871644100041700,9.646041748046875,-0.810983419418335,-3.0102779865264893,-0.9094045162200928
1772871644109974500,9.655974609375,-0.5746406316757202,-1.4758697748184204,1.3095500469207764
1772871644119906600,9.665906494140625,0.0704459398984909,0.6192368865013123,3.411536931991577
1772871644129839600,9.675839599609375,0.26627349853515625,2.3523294925689697,4.160653114318848
1772871644139772700,9.685772705078126,-0.09652014821767807,2.7006096839904785,3.6067349910736084
1772871644149705700,9.695705810546874,-0.48133814334869385,2.006486654281616,2.412306785583496
1772871644159638500,9.705638427734375,-0.6142314672470093,1.1413823366165161,1.2479993104934692
1772871644169571600,9.715571533203125,-0.4873073399066925,0.6395216584205627,0.3730257749557495
1772871644179504600,9.725504638671875,-0.06358376890420914,0.22885023057460785,-0.35878533124923706
1772871644189436700,9.735436767578125,0.6136144399642944,-0.1785058230161667,-0.6924445033073425
1772871644199369700,9.74536962890625,1.370764136314392,-0.5074794292449951,-0.6300415992736816
1772871644209302800,9.755302734375,1.878552794456482,-0.8001877665519714,-0.5596281290054321
1772871644219234800,9.76523486328125,1.9528206586837769,-1.0337417125701904,-0.6109880208969116
1772871644229167600,9.775167724609375,1.5583268404006958,-1.0249675512313843,-0.7188998460769653
1772871644239101000,9.785100830078125,0.9865190386772156,-0.7148385047912598,-0.760692834854126
1772871644249034000,9.795033935546876,0.5534895658493042,-0.20285457372665405,-0.5571905374526978
1772871644258965800,9.8049658203125,0.33128392696380615,0.31541335582733154,-0.2061009705066681
1772871644268898800,9.81489892578125,0.26762107014656067,0.5509265065193176,0.21675415337085724
1772871644278831600,9.82483154296875,0.33470314741134644,0.3934817910194397,0.5435072183609009
1772871644288764700,9.8347646484375,0.36627039313316345,0.12163961678743362,0.7834977507591248
1772871644298697700,9.84469775390625,0.2922219932079315,0.04634086787700653,1.0111298561096191
1772871644308630800,9.854630859375,0.11192333698272705,0.2257569581270218,1.2013846635818481
1772871644318562800,9.864562744140626,-0.07889427989721298,0.5577439665794373,1.2107164859771729
1772871644328495600,9.87449560546875,-0.2344718873500824,0.7615431547164917,0.9883094429969788
1772871644338428700,9.8844287109375,-0.3460303843021393,0.7164771556854248,0.6250675916671753
1772871644348361700,9.89436181640625,-0.3212941288948059,0.6132482290267944,0.24480895698070526
1772871644358294800,9.904294677734375,-0.29404228925704956,0.3725578486919403,-0.17544053494930267
1772871644368227800,9.914227783203126,-0.2874767780303955,-0.02376578375697136,-0.6885403394699097
1772871644378160600,9.92416064453125,-0.22950536012649536,-0.3785012364387512,-1.1956027746200562
1772871644388092700,9.9340927734375,-0.09292594343423843,-0.4935665726661682,-1.543889045715332
1772871644398025700,9.944025634765625,0.05781003460288048,-0.44339048862457275,-1.7392284870147705
1772871644407958800,9.953958740234375,0.1938408464193344,-0.3087778091430664,-1.8316571712493896
1772871644417891800,9.963891845703126,0.20237547159194946,-0.17703017592430115,-1.8100512027740479
1772871644427824600,9.97382470703125,0.0726451724767685,-0.14627546072006226,-1.7201770544052124
1772871644437757700,9.9837578125,-0.10718930512666702,-0.19351540505886078,-1.515476107597351
1772871644447689700,9.993689697265625,-0.2565974295139313,-0.20738434791564941,-1.1541708707809448
1772871644457622800,10.003622802734375,-0.2556144595146179,-0.1641513854265213,-0.6823111772537231
1772871644467555800,10.013555908203125,-0.16311702132225037,-0.06435129046440125,-0.23199808597564697
1772871644477488600,10.023488525390626,-0.05201180279254913,0.05752481147646904,0.11113078147172928
1772871644487421700,10.033421630859374,0.05885133147239685,0.1840105801820755,0.29810652136802673
1772871644497354800,10.043354736328125,0.14171692728996277,0.3199084997177124,0.3460490107536316
1772871644507287800,10.053287841796875,0.19332338869571686,0.49603956937789917,0.334102600812912
1772871644517219800,10.0632197265625,0.21914993226528168,0.6375125646591187,0.3213908076286316
1772871644527153000,10.07315283203125,0.22352097928524017,0.6885744333267212,0.3322114944458008
1772871644537085700,10.083085693359376,0.18887005746364594,0.7193102240562439,0.3697889745235443
1772871644547018800,10.093018798828124,0.13875442743301392,0.6882902383804321,0.43480420112609863
1772871644556951800,10.102951904296875,0.0760795846581459,0.595802366733551,0.5066648125648499
1772871644566884900,10.112884765625,-0.0015387744642794132,0.47573962807655334,0.5363907217979431
1772871644576817000,10.12281689453125,-0.08690693229436874,0.43983250856399536,0.4782872200012207
1772871644586749700,10.132749755859376,-0.16094174981117249,0.46708250045776367,0.3773723244667053
1772871644596682800,10.142682861328124,-0.18819573521614075,0.5492085218429565,0.25728878378868103
1772871644606615800,10.15261572265625,-0.18916645646095276,0.6132466197013855,0.12399065494537354
1772871644616548900,10.162548828125,-0.16935867071151733,0.6777505278587341,0.12314270436763763
1772871644626481700,10.172481689453125,-0.149208664894104,0.8030405044555664,0.3619115948677063
1772871644636414700,10.182414794921876,-0.3060257136821747,0.8223841190338135,0.3245677053928375
1772871644646346800,10.1923466796875,-0.5422970652580261,0.5361753106117249,0.04757604002952576
1772871644656279800,10.20227978515625,-0.7407928705215454,0.28253182768821716,-0.4072202444076538
1772871644666212900,10.212212890625,-0.7119622826576233,0.07452243566513062,-1.1166203022003174
1772871644676146000,10.22214599609375,-0.547153651714325,-0.6914149522781372,-2.2095067501068115
1772871644686078700,10.23207861328125,-0.11318860948085785,-2.332324981689453,-3.2769765853881836
1772871644696011800,10.24201171875,0.21919280290603638,-3.9150969982147217,-3.5438168048858643
1772871644705944800,10.25194482421875,0.3726491928100586,-4.8760986328125,-3.1127986907958984
1772871644715876900,10.261876953125,0.5120108127593994,-4.130781173706055,-1.2386444807052612
1772871644725810000,10.271809814453125,0.7195067405700684,-1.8473663330078125,0.762040913105011
1772871644735742700,10.28174267578125,0.43779703974723816,1.1128807067871094,2.0545148849487305
1772871644745675800,10.29167578125,-0.07471658289432526,3.074782609939575,2.4835867881774902
1772871644755608800,10.30160888671875,-0.3747752010822296,3.439840793609619,2.1769537925720215
1772871644765542000,10.3115419921875,-0.35643428564071655,2.7286367416381836,1.5109950304031372
1772871644775474000,10.321473876953124,-0.03723951429128647,1.646030068397522,0.8701586127281189
1772871644785406700,10.33140673828125,0.4564351737499237,0.54610675573349,0.4852639138698578
1772871644795339800,10.34133984375,0.9982239007949829,-0.31969118118286133,0.20911966264247894
1772871644805272800,10.35127294921875,1.4060931205749512,-0.7940566539764404,-0.18157725036144257
1772871644815206000,10.361205810546876,1.5551263093948364,-1.0986474752426147,-0.7193019390106201
1772871644825138700,10.371138671875,1.5043176412582397,-1.2693291902542114,-1.2675448656082153
1772871644835071700,10.38107177734375,1.2870503664016724,-1.2630640268325806,-1.6006892919540405
1772871644845003800,10.391003662109375,0.9632256627082825,-1.0330199003219604,-1.6431269645690918
1772871644854936800,10.400936767578125,0.6374294757843018,-0.6016395092010498,-1.3582649230957031
1772871644864870000,10.410869873046876,0.3407075107097626,-0.13176681101322174,-0.7808220386505127
1772871644874803000,10.420802978515624,0.08384403586387634,0.25822195410728455,0.037224866449832916
1772871644884735700,10.43073583984375,-0.10823379456996918,0.5221705436706543,1.0056400299072266
1772871644894668800,10.440668701171875,-0.16911952197551727,0.6826752424240112,1.974633812904358
1772871644904601900,10.450601806640625,-0.20648233592510223,0.7803618311882019,2.832468271255493
1772871644914534000,10.460533935546875,-0.29207393527030945,0.9351913928985596,3.5005459785461426
1772871644924467000,10.470467041015626,-0.46286991238594055,1.1070361137390137,3.7871272563934326
1772871644934399700,10.480399658203124,-0.6715033054351807,1.208907127380371,3.6676204204559326
1772871644944332800,10.490332763671875,-0.8790010809898376,1.1072903871536255,3.227663040161133
1772871644954265900,10.500265869140625,-1.1378251314163208,0.790139377117157,2.5773355960845947
1772871644964199000,10.510198974609375,-1.3384160995483398,0.23630015552043915,1.7663474082946777
1772871644974131000,10.520130859375,-1.3455804586410522,-0.45897743105888367,0.8720622062683105
1772871644984063700,10.530063720703126,-1.0854508876800537,-0.9794536232948303,0.1117081567645073
1772871644993996800,10.539996826171874,-0.6463494300842285,-1.1286489963531494,-0.4037021994590759
1772871645003929900,10.549929931640625,-0.19162508845329285,-0.937629222869873,-0.6939822435379028
1772871645013863000,10.55986279296875,0.17009928822517395,-0.5919354557991028,-0.8493776917457581
1772871645023796000,10.5697958984375,0.2922246754169464,-0.2441258430480957,-0.8942045569419861
1772871645033728800,10.579728759765626,0.23507003486156464,-0.00031079089967533946,-0.9046680927276611
1772871645043660800,10.589660888671874,0.07568544149398804,0.06131821870803833,-0.893991231918335
1772871645053593900,10.59959375,-0.12451183795928955,-0.01324256882071495,-0.7935730218887329
1772871645063527000,10.60952685546875,-0.2965054214000702,-0.1824483722448349,-0.5913072228431702
1772871645073460000,10.6194599609375,-0.44633886218070984,-0.31925228238105774,-0.32513388991355896
1772871645083392800,10.629392822265626,-0.5577194690704346,-0.3517031669616699,-0.04627801477909088
1772871645093325800,10.639325927734374,-0.6433640718460083,-0.3479047119617462,0.20875214040279388
1772871645103257900,10.6492578125,-0.7018305659294128,-0.32861489057540894,0.42069342732429504
1772871645113191000,10.65919091796875,-0.7683632373809814,-0.30589574575424194,0.6217027306556702
1772871645123124000,10.6691240234375,-0.8312721848487854,-0.27140140533447266,0.789093554019928
1772871645133056800,10.679056884765625,-0.8445174098014832,-0.23217038810253143,0.8702235817909241
1772871645142989800,10.68898974609375,-0.7972204685211182,-0.2282848358154297,0.8485097289085388
1772871645152923000,10.6989228515625,-0.7036087512969971,-0.22896979749202728,0.7430030107498169
1772871645162856000,10.70885595703125,-0.5617501735687256,-0.22540409862995148,0.6041144132614136
1772871645172788000,10.7187880859375,-0.4160001277923584,-0.23714490234851837,0.47141706943511963
1772871645182721000,10.728720947265625,-0.29901760816574097,-0.23411716520786285,0.45090433955192566
1772871645192653800,10.73865380859375,-0.22590689361095428,-0.16788168251514435,0.5445876717567444
1772871645202587000,10.7485869140625,-0.20726743340492249,-0.09138184785842896,0.7285593748092651
1772871645212520000,10.75852001953125,-0.22885261476039886,0.03550872579216957,0.9645434021949768
1772871645222452500,10.768452392578125,-0.21206991374492645,0.20477071404457092,1.1927515268325806
1772871645232384500,10.778384521484375,-0.11387010663747787,0.38993018865585327,1.3794807195663452
1772871645242317300,10.7883173828125,0.026575418189167976,0.5677593350410461,1.506959319114685
1772871645252250400,10.79825048828125,0.20778888463974,0.5782566666603088,1.5466790199279785
1772871645262183400,10.808183349609376,0.3883932828903198,0.6080960631370544,1.407525658607483
1772871645272116500,10.818116455078124,0.5062839388847351,0.6947124600410461,1.1564010381698608
1772871645282049500,10.828049560546875,0.666324257850647,0.6472418904304504,0.8857418298721313
1772871645291981600,10.837981689453125,1.0138622522354126,0.3005603551864624,0.5421791076660156
1772871645301914400,10.847914306640625,1.395501732826233,-0.346204549074173,-0.013235111720860004
1772871645311847400,10.857847412109376,1.6453126668930054,-0.7321208119392395,-0.8536874651908875
1772871645321780500,10.867780517578124,1.8304792642593384,-0.4959990978240967,-1.9645278453826904
1772871645331713500,10.877713623046875,1.9136852025985718,-0.47652101516723633,-2.739064931869507
1772871645341646300,10.887646240234375,1.4978166818618774,-1.1847440004348755,-2.640672206878662
1772871645351579400,10.897579345703125,0.6097530722618103,-2.0347959995269775,-1.7991245985031128
1772871645361511400,10.907511474609375,-0.4033762216567993,-2.296018123626709,-0.6391443014144897
1772871645371444500,10.917444580078126,-1.1855196952819824,-1.7396873235702515,0.3181217908859253
1772871645381377500,10.92737744140625,-1.5379472970962524,-0.6509713530540466,0.9834066033363342
1772871645391310300,10.937310302734375,-1.3735204935073853,0.8201044797897339,1.408867597579956
1772871645401243400,10.947243408203125,-0.9000459313392639,2.205496072769165,1.7522022724151611
1772871645411176400,10.957176513671875,-0.40411925315856934,3.0756242275238037,1.8808518648147583
1772871645421109500,10.967109619140626,-0.14139361679553986,3.040914297103882,1.596409797668457
1772871645431041500,10.97704150390625,-0.14878015220165253,2.173665761947632,0.9168539047241211
1772871645440974600,10.986974609375,-0.32931050658226013,0.7473809719085693,0.052934322506189346
1772871645450907400,10.996907470703125,-0.4883646070957184,-0.769589364528656,-0.7622012495994568
1772871645460840400,11.00684033203125,-0.5816716551780701,-1.9088082313537598,-1.2928166389465332
1772871645470773500,11.0167734375,-0.5790069103240967,-2.408803701400757,-1.474022388458252
1772871645480706600,11.02670654296875,-0.4690002501010895,-2.321620225906372,-1.3568919897079468
1772871645490638600,11.036638671875,-0.5779890418052673,-1.4211159944534302,-1.1529990434646606
1772871645500571400,11.0465712890625,-0.3682166337966919,-0.7713571786880493,-0.3889589309692383
1772871645510504400,11.05650439453125,-0.318894624710083,0.7735670804977417,0.3452242314815521
1772871645520437500,11.0664375,-0.24385793507099152,1.2262176275253296,0.6539977788925171
1772871645530370600,11.07637060546875,-0.05415831133723259,1.180819034576416,0.5702595114707947
1772871645540303400,11.086303466796876,0.1918426752090454,0.38403210043907166,0.19366320967674255
1772871645550236400,11.096236328125,0.42332011461257935,-0.23176585137844086,-0.19176331162452698
1772871645560168400,11.10616845703125,0.38808223605155945,-0.2997185289859772,-0.28386980295181274
1772871645570101500,11.1161015625,0.1639804095029831,-0.187632218003273,-0.24810141324996948
1772871645580034600,11.12603466796875,-0.12694516777992249,-0.11443443596363068,-0.17797692120075226
1772871645589967600,11.135967529296876,-0.42150434851646423,-0.06029370054602623,-0.06523093581199646
1772871645599900400,11.145900390625,-0.6417986750602722,-0.0900513306260109,0.0331646129488945
1772871645609833500,11.15583349609375,-0.6035441756248474,-0.18220601975917816,0.07879814505577087
1772871645619765500,11.165765625,-0.3432638943195343,-0.2463410645723343,0.12572038173675537
1772871645629698600,11.175698486328125,-0.0008295746520161629,-0.17768530547618866,0.13265977799892426
1772871645639631600,11.185631591796875,0.29771023988723755,-0.01272671390324831,0.054725561290979385
1772871645649564400,11.195564453125,0.5111628770828247,0.13043071329593658,-0.0878899097442627
1772871645659497500,11.20549755859375,0.5940292477607727,0.238013356924057,-0.22832158207893372
1772871645669430500,11.215430419921875,0.5675076246261597,0.2586616575717926,-0.30348318815231323
1772871645679362600,11.225362548828125,0.46828117966651917,0.2154609113931656,-0.2756856381893158
1772871645689295600,11.235295654296875,0.3576209843158722,0.12717792391777039,-0.1725507378578186
1772871645699228400,11.245228515625,0.26345640420913696,-0.03965393453836441,-0.079471655189991
1772871645709161500,11.255161376953126,0.1953234225511551,-0.17699368298053741,-0.035240013152360916
1772871645719094500,11.265094482421874,0.14542590081691742,-0.24301931262016296,-0.024287495762109756
1772871645729027600,11.275027587890625,0.09352382272481918,-0.23436057567596436,-0.019726833328604698
1772871645738960400,11.28496044921875,0.03864885866641998,-0.16155241429805756,-0.01967490091919899
1772871645748892700,11.294892578125,-0.01041482388973236,-0.035351600497961044,-0.010421215556561947
1772871645758825500,11.304825439453126,-0.027184216305613518,0.12309077382087708,0.010327205993235111
1772871645768758500,11.314758544921874,-0.04773157089948654,0.27704331278800964,0.024526115506887436
1772871645778691600,11.324691650390625,-0.08116036653518677,0.372951477766037,0.03435264900326729
1772871645788624600,11.334624755859375,-0.11447011679410934,0.3984222114086151,0.051417119801044464
1772871645798557400,11.344557373046875,-0.12282871454954147,0.2919759154319763,0.03911517933011055
1772871645808489500,11.354489501953125,-0.11599104851484299,0.1428239941596985,-0.028115257620811462
1772871645818422500,11.364422607421876,-0.09431691467761993,0.005320196971297264,-0.13747850060462952
1772871645828355600,11.37435546875,-0.057372480630874634,-0.09274112433195114,-0.25584936141967773
1772871645838288600,11.38428857421875,-0.0002817624481394887,-0.16120406985282898,-0.35517406463623047
1772871645848221400,11.394221435546875,0.03796309605240822,-0.18599437177181244,-0.41206613183021545
1772871645858154500,11.404154541015625,0.057189520448446274,-0.1264367699623108,-0.382179319858551
1772871645868087600,11.414087646484376,0.05830991268157959,0.045036982744932175,-0.21408672630786896
1772871645878019300,11.424019287109376,0.07726363092660904,0.32906365394592285,0.1961255669593811
1772871645887952400,11.433952392578124,0.0920225977897644,0.22764195501804352,0.2912643253803253
1772871645897885400,11.443885498046875,0.08724702149629593,0.05752481147646904,0.24389947950839996
1772871645907818500,11.453818603515625,0.08946117013692856,-0.13733336329460144,0.1093083843588829
1772871645917751600,11.46375146484375,0.1129734218120575,-0.2581591010093689,0.048839177936315536
1772871645927684600,11.4736845703125,0.132586270570755,-0.29851824045181274,0.08378065377473831
1772871645937616400,11.483616455078124,0.1443830132484436,-0.30093854665756226,0.15282443165779114
1772871645947549400,11.493549560546874,0.1564687043428421,-0.25300055742263794,0.17730580270290375
1772871645957482200,11.503482177734375,0.151694193482399,-0.1667351871728897,0.22241869568824768
1772871645967415300,11.513415283203125,0.13017211854457855,0.00965555664151907,0.3120654821395874
1772871645977348400,11.523348388671875,0.10914486646652222,0.15755073726177216,0.38946598768234253
