time,seconds_elapsed,z,y,x
1772807040250819300,0.0688193359375,-0.99273681640625,-0.020904541015625,-0.019744873046875
1772807040260750600,0.07875048828125,-0.9976043701171875,-0.01971435546875,-0.024017333984375
1772807040270682600,0.0886826171875,-0.9962005615234375,-0.0218353271484375,-0.024810791015625
1772807040280614700,0.09861474609375,-0.9934234619140625,-0.0205535888671875,-0.023468017578125
1772807040290545400,0.10854541015625,-0.9962310791015625,-0.0215301513671875,-0.0243072509765625
1772807040300477400,0.1184775390625,-0.9995880126953125,-0.020050048828125,-0.02520751953125
1772807040310409500,0.128409423828125,-0.99468994140625,-0.0237579345703125,-0.02032470703125
1772807040320340700,0.1383408203125,-0.9952239990234375,-0.022552490234375,-0.0201873779296875
1772807040330272500,0.1482724609375,-0.99810791015625,-0.02154541015625,-0.0244598388671875
1772807040340204500,0.15820458984375,-0.9957427978515625,-0.02227783203125,-0.0248565673828125
1772807040350136600,0.168136474609375,-0.993743896484375,-0.023956298828125,-0.02398681640625
1772807040360067600,0.178067626953125,-0.997344970703125,-0.0226898193359375,-0.0232086181640625
1772807040369999600,0.18799951171875,-0.996917724609375,-0.0219879150390625,-0.02435302734375
1772807040379931400,0.197931396484375,-0.995452880859375,-0.023101806640625,-0.02001953125
1772807040389862700,0.207862548828125,-0.9952850341796875,-0.0234222412109375,-0.0188751220703125
1772807040399794700,0.217794677734375,-0.996978759765625,-0.0228271484375,-0.0222930908203125
1772807040409726700,0.227726806640625,-0.994476318359375,-0.0213470458984375,-0.0235443115234375
1772807040419658500,0.237658447265625,-0.994537353515625,-0.021331787109375,-0.0236968994140625
1772807040429589500,0.247589599609375,-0.9970855712890625,-0.020782470703125,-0.02545166015625
1772807040439521500,0.257521484375,-0.9955902099609375,-0.021820068359375,-0.025421142578125
1772807040449453600,0.26745361328125,-0.994964599609375,-0.0201873779296875,-0.022735595703125
1772807040459384300,0.27738427734375,-0.996246337890625,-0.0201416015625,-0.0219879150390625
1772807040469316600,0.287316650390625,-0.9957122802734375,-0.0202484130859375,-0.022735595703125
1772807040479248600,0.29724853515625,-0.995574951171875,-0.0202789306640625,-0.021728515625
1772807040489179600,0.3071796875,-0.9944610595703125,-0.0196075439453125,-0.0234832763671875
1772807040499111700,0.317111572265625,-0.9963226318359375,-0.0197296142578125,-0.0246429443359375
1772807040509043500,0.32704345703125,-0.99609375,-0.020843505859375,-0.0241546630859375
1772807040518975500,0.3369755859375,-0.9954376220703125,-0.022308349609375,-0.0227813720703125
1772807040528906500,0.346906494140625,-0.9964752197265625,-0.0208892822265625,-0.0228118896484375
1772807040538838500,0.356838623046875,-0.997161865234375,-0.0225982666015625,-0.0222320556640625
1772807040548771000,0.36677099609375,-0.9949493408203125,-0.022003173828125,-0.0211029052734375
1772807040558702000,0.3767021484375,-0.9957275390625,-0.0226898193359375,-0.0232086181640625
1772807040568634000,0.386634033203125,-0.996551513671875,-0.02288818359375,-0.0254058837890625
1772807040578566100,0.396566162109375,-0.996612548828125,-0.0225982666015625,-0.0244293212890625
1772807040588497000,0.406496826171875,-0.9953460693359375,-0.022003173828125,-0.022857666015625
1772807040598429000,0.416428955078125,-0.994842529296875,-0.0230712890625,-0.020782470703125
1772807040608361000,0.42636083984375,-0.9952850341796875,-0.023284912109375,-0.02197265625
1772807040618293000,0.43629296875,-0.9958343505859375,-0.0224609375,-0.022613525390625
1772807040628224300,0.446224365234375,-0.995758056640625,-0.022003173828125,-0.0231475830078125
1772807040638156000,0.456156005859375,-0.9958953857421875,-0.0217742919921875,-0.0241241455078125
1772807040648088000,0.466088134765625,-0.996246337890625,-0.020843505859375,-0.0255889892578125
1772807040658019000,0.47601904296875,-0.9962310791015625,-0.0208587646484375,-0.0242767333984375
1772807040667951000,0.485951171875,-0.9970550537109375,-0.0212860107421875,-0.0233154296875
1772807040677883100,0.495883056640625,-0.9957275390625,-0.02093505859375,-0.0216522216796875
1772807040687814000,0.50581396484375,-0.9958953857421875,-0.02081298828125,-0.021484375
1772807040697746000,0.515745849609375,-0.997222900390625,-0.0208587646484375,-0.0228424072265625
1772807040707678000,0.525677978515625,-0.9947967529296875,-0.0208740234375,-0.0225982666015625
1772807040717610200,0.5356103515625,-0.9958648681640625,-0.0210418701171875,-0.0249481201171875
1772807040727541000,0.545541015625,-0.9954681396484375,-0.0205078125,-0.024444580078125
1772807040737473000,0.55547314453125,-0.995513916015625,-0.0219879150390625,-0.02435302734375
1772807040747405000,0.565405029296875,-0.9966583251953125,-0.0222930908203125,-0.023529052734375
1772807040757336000,0.575336181640625,-0.996917724609375,-0.0215606689453125,-0.022308349609375
1772807040767267800,0.585267822265625,-0.996429443359375,-0.0230560302734375,-0.0218048095703125
1772807040777199900,0.595199951171875,-0.9946136474609375,-0.0229949951171875,-0.0238800048828125
1772807040787132000,0.6051318359375,-0.9949798583984375,-0.0218658447265625,-0.023223876953125
1772807040797063200,0.615063232421875,-0.9952545166015625,-0.023284912109375,-0.0233917236328125
1772807040806995200,0.6249951171875,-0.99517822265625,-0.022979736328125,-0.0228271484375
1772807040816927000,0.634927001953125,-0.9949493408203125,-0.0217132568359375,-0.021270751953125
1772807040826858000,0.64485791015625,-0.9961395263671875,-0.0248260498046875,-0.020416259765625
1772807040836790000,0.6547900390625,-0.996063232421875,-0.023345947265625,-0.021087646484375
1772807040846722000,0.66472216796875,-0.99560546875,-0.021270751953125,-0.0257110595703125
1772807040856653000,0.674653076171875,-0.9958038330078125,-0.0216064453125,-0.0255126953125
1772807040866585000,0.684585205078125,-0.995849609375,-0.0212249755859375,-0.0244293212890625
1772807040876517000,0.69451708984375,-0.9959564208984375,-0.0198516845703125,-0.0229034423828125
1772807040886449200,0.70444921875,-0.9964752197265625,-0.0189971923828125,-0.0199737548828125
1772807040896380000,0.7143798828125,-0.995025634765625,-0.020477294921875,-0.02056884765625
1772807040906312000,0.72431201171875,-0.996795654296875,-0.021575927734375,-0.0211029052734375
1772807040916244000,0.734243896484375,-0.9965057373046875,-0.0211029052734375,-0.023406982421875
1772807040926175200,0.74417529296875,-0.99676513671875,-0.02301025390625,-0.0238494873046875
1772807040936107000,0.75410693359375,-0.9953765869140625,-0.02197265625,-0.022552490234375
1772807040946039000,0.7640390625,-0.9951629638671875,-0.0214080810546875,-0.0248260498046875
1772807040955970000,0.773969970703125,-0.99566650390625,-0.0230255126953125,-0.0229034423828125
1772807040965902000,0.783902099609375,-0.996490478515625,-0.0240631103515625,-0.02081298828125
1772807040975834000,0.793834228515625,-0.99658203125,-0.0229339599609375,-0.0211181640625
1772807040985766000,0.803765869140625,-0.9964447021484375,-0.0240936279296875,-0.0246124267578125
1772807040995697000,0.81369677734375,-0.99676513671875,-0.022552490234375,-0.0241241455078125
1772807041005629200,0.823629150390625,-0.9962921142578125,-0.0225830078125,-0.0246429443359375
1772807041015561200,0.833561279296875,-0.996673583984375,-0.022369384765625,-0.0241851806640625
1772807041025492000,0.843491943359375,-0.9956207275390625,-0.0225830078125,-0.0218658447265625
1772807041035424000,0.853424072265625,-0.996063232421875,-0.0213165283203125,-0.0211639404296875
1772807041045356000,0.86335595703125,-0.99468994140625,-0.0211944580078125,-0.0211639404296875
1772807041055287000,0.873287109375,-0.9956207275390625,-0.02117919921875,-0.0236053466796875
1772807041065218800,0.88321875,-0.994720458984375,-0.019927978515625,-0.025665283203125
1772807041075150800,0.89315087890625,-0.99493408203125,-0.0200347900390625,-0.026763916015625
1772807041085083000,0.903082763671875,-0.99652099609375,-0.02008056640625,-0.026275634765625
1772807041095014100,0.91301416015625,-0.9951171875,-0.020965576171875,-0.0236358642578125
1772807041104946200,0.9229462890625,-0.9965362548828125,-0.0213623046875,-0.020904541015625
1772807041114878000,0.9328779296875,-0.9972076416015625,-0.021575927734375,-0.020599365234375
1772807041124809000,0.94280908203125,-0.9976959228515625,-0.0213165283203125,-0.0200347900390625
1772807041134741000,0.952740966796875,-0.995025634765625,-0.02197265625,-0.0228424072265625
1772807041144673000,0.962673095703125,-0.9959716796875,-0.02142333984375,-0.025909423828125
1772807041154604000,0.97260400390625,-0.9957427978515625,-0.022216796875,-0.024932861328125
1772807041164536000,0.9825361328125,-0.996002197265625,-0.0221710205078125,-0.0260009765625
1772807041174468000,0.992468017578125,-0.9961090087890625,-0.023529052734375,-0.02362060546875
1772807041184400100,1.002400146484375,-0.9957122802734375,-0.0239105224609375,-0.0223541259765625
1772807041194331000,1.012330810546875,-0.9964141845703125,-0.022491455078125,-0.02227783203125
1772807041204263000,1.022262939453125,-0.9975433349609375,-0.0234222412109375,-0.02142333984375
1772807041214195000,1.03219482421875,-0.9956512451171875,-0.021728515625,-0.022979736328125
1772807041224126200,1.042126220703125,-0.996124267578125,-0.0208587646484375,-0.0233917236328125
1772807041234058200,1.052058349609375,-0.994873046875,-0.0222320556640625,-0.0231170654296875
1772807041243990000,1.061989990234375,-0.9962921142578125,-0.0222320556640625,-0.0224609375
1772807041253922000,1.071922119140625,-0.9969329833984375,-0.021026611328125,-0.02191162109375
1772807041263853000,1.08185302734375,-0.9970550537109375,-0.020355224609375,-0.0212860107421875
1772807041273785000,1.09178515625,-0.9964752197265625,-0.021331787109375,-0.0239715576171875
1772807041283717000,1.101717041015625,-0.995513916015625,-0.0195465087890625,-0.02508544921875
1772807041293648100,1.111648193359375,-0.9957733154296875,-0.0205841064453125,-0.0255279541015625
1772807041303580200,1.121580078125,-0.995941162109375,-0.0197906494140625,-0.0255279541015625
1772807041313512200,1.13151220703125,-0.9952239990234375,-0.0213165283203125,-0.0233306884765625
1772807041323443000,1.14144287109375,-0.99603271484375,-0.021209716796875,-0.0195159912109375
1772807041333375000,1.151375,-0.99615478515625,-0.0207061767578125,-0.0187225341796875
1772807041343307000,1.16130712890625,-0.99627685546875,-0.0230560302734375,-0.0208587646484375
1772807041353239000,1.171239013671875,-0.996246337890625,-0.022857666015625,-0.0222015380859375
1772807041363170000,1.181170166015625,-0.9964141845703125,-0.0219879150390625,-0.0246429443359375
1772807041373101800,1.191101806640625,-0.9954986572265625,-0.0228424072265625,-0.023834228515625
1772807041383034000,1.2010341796875,-0.9956207275390625,-0.0214691162109375,-0.0239410400390625
1772807041392965000,1.210965087890625,-0.99517822265625,-0.0232086181640625,-0.02178955078125
1772807041402897200,1.220897216796875,-0.995452880859375,-0.022003173828125,-0.0217742919921875
1772807041412829000,1.230828857421875,-0.9952850341796875,-0.02294921875,-0.0210723876953125
1772807041422760000,1.240760009765625,-0.996337890625,-0.0226898193359375,-0.02166748046875
1772807041432692000,1.25069189453125,-0.995849609375,-0.0207672119140625,-0.023590087890625
1772807041442624000,1.2606240234375,-0.996429443359375,-0.02288818359375,-0.0247802734375
1772807041452556000,1.27055615234375,-0.996368408203125,-0.020172119140625,-0.0233306884765625
1772807041462487000,1.280487060546875,-0.99652099609375,-0.0213165283203125,-0.023284912109375
1772807041472419000,1.290419189453125,-0.9967193603515625,-0.0210113525390625,-0.0214385986328125
1772807041482351000,1.30035107421875,-0.99676513671875,-0.0207672119140625,-0.023651123046875
1772807041492282000,1.3102822265625,-0.9959259033203125,-0.0205230712890625,-0.0217742919921875
1772807041502214000,1.3202138671875,-0.996734619140625,-0.0215606689453125,-0.0241241455078125
1772807041512146000,1.33014599609375,-0.9957733154296875,-0.0217742919921875,-0.0243682861328125
1772807041522077200,1.3400771484375,-0.9951934814453125,-0.020538330078125,-0.023712158203125
1772807041532009200,1.35000927734375,-0.9964599609375,-0.0206146240234375,-0.0228729248046875
1772807041541941000,1.35994091796875,-0.9969635009765625,-0.022247314453125,-0.021270751953125
1772807041551872300,1.369872314453125,-0.9957733154296875,-0.021881103515625,-0.0200042724609375
1772807041561803000,1.379802978515625,-0.9946746826171875,-0.0223846435546875,-0.0212554931640625
1772807041571735000,1.389735107421875,-0.9968109130859375,-0.022247314453125,-0.0233154296875
1772807041581667000,1.3996669921875,-0.9961700439453125,-0.02252197265625,-0.024444580078125
1772807041591598300,1.409598388671875,-0.9968414306640625,-0.021453857421875,-0.0238800048828125
1772807041601530400,1.4195302734375,-0.996185302734375,-0.0213165283203125,-0.024200439453125
1772807041611462100,1.429462158203125,-0.99578857421875,-0.022705078125,-0.0228424072265625
1772807041621394200,1.439394287109375,-0.996002197265625,-0.024322509765625,-0.021148681640625
1772807041631325200,1.4493251953125,-0.9952545166015625,-0.0221405029296875,-0.0220184326171875
1772807041641257200,1.45925732421875,-0.9965972900390625,-0.022247314453125,-0.0225372314453125
1772807041651189000,1.46918896484375,-0.9964752197265625,-0.022857666015625,-0.023406982421875
1772807041661120300,1.479120361328125,-0.9962005615234375,-0.0218963623046875,-0.024169921875
1772807041671052300,1.48905224609375,-0.996002197265625,-0.0230865478515625,-0.0223236083984375
1772807041680984300,1.498984375,-0.9964752197265625,-0.02264404296875,-0.024017333984375
1772807041690915000,1.5089150390625,-0.9959716796875,-0.0223236083984375,-0.02325439453125
1772807041700847000,1.51884716796875,-0.9955291748046875,-0.0223846435546875,-0.0240478515625
1772807041710779100,1.528779052734375,-0.994964599609375,-0.0213165283203125,-0.0225677490234375
1772807041720710400,1.53871044921875,-0.99652099609375,-0.0221710205078125,-0.021392822265625
1772807041730642400,1.548642333984375,-0.99615478515625,-0.0214691162109375,-0.0230560302734375
1772807041740574200,1.55857421875,-0.995697021484375,-0.0217742919921875,-0.02349853515625
1772807041750506200,1.56850634765625,-0.99566650390625,-0.0216064453125,-0.0218505859375
1772807041760437200,1.578437255859375,-0.9960479736328125,-0.0201873779296875,-0.02069091796875
1772807041770369300,1.588369384765625,-0.994659423828125,-0.0214691162109375,-0.0215911865234375
1772807041780301000,1.598301025390625,-0.9943084716796875,-0.0227508544921875,-0.02056884765625
1772807041790232000,1.608232177734375,-0.9964752197265625,-0.0224456787109375,-0.0220489501953125
1772807041800164000,1.6181640625,-0.9953155517578125,-0.022216796875,-0.02239990234375
1772807041810096400,1.628096435546875,-0.99566650390625,-0.021697998046875,-0.0236053466796875
1772807041820027100,1.638027099609375,-0.9967498779296875,-0.021209716796875,-0.022674560546875
1772807041829959200,1.647959228515625,-0.998504638671875,-0.0220184326171875,-0.0226898193359375
1772807041839891200,1.65789111328125,-0.9956817626953125,-0.0219573974609375,-0.0214996337890625
1772807041849823200,1.6678232421875,-0.995391845703125,-0.021759033203125,-0.0216522216796875
1772807041859754000,1.67775390625,-0.9957275390625,-0.02337646484375,-0.0211944580078125
1772807041869686000,1.68768603515625,-0.9970703125,-0.022735595703125,-0.021881103515625
1772807041879618000,1.6976181640625,-0.99554443359375,-0.0211334228515625,-0.0226287841796875
1772807041889549300,1.70754931640625,-0.9954986572265625,-0.0209197998046875,-0.02490234375
1772807041899481300,1.7174814453125,-0.9968719482421875,-0.0215606689453125,-0.02410888671875
1772807041909413000,1.7274130859375,-0.995513916015625,-0.0225067138671875,-0.02294921875
1772807041919345200,1.73734521484375,-0.9971160888671875,-0.021759033203125,-0.022430419921875
1772807041929276200,1.747276123046875,-0.9971160888671875,-0.02191162109375,-0.020355224609375
1772807041939208200,1.757208251953125,-0.9954071044921875,-0.0212860107421875,-0.0231781005859375
1772807041949140200,1.76714013671875,-0.994964599609375,-0.020721435546875,-0.0240631103515625
1772807041959071200,1.7770712890625,-0.996490478515625,-0.0212860107421875,-0.02294921875
1772807041969003300,1.787003173828125,-0.996612548828125,-0.02099609375,-0.024139404296875
1772807041978935300,1.796935302734375,-0.99688720703125,-0.0212860107421875,-0.023193359375
1772807041988866000,1.806865966796875,-0.99615478515625,-0.0221405029296875,-0.022003173828125
1772807041998798000,1.816798095703125,-0.9960784912109375,-0.021942138671875,-0.0220794677734375
1772807042008730000,1.826730224609375,-0.99639892578125,-0.0218658447265625,-0.02227783203125
1772807042018662100,1.836662109375,-0.99615478515625,-0.0224151611328125,-0.0241546630859375
1772807042028593400,1.846593505859375,-0.9963531494140625,-0.021636962890625,-0.02459716796875
1772807042038525200,1.856525146484375,-0.99786376953125,-0.0229949951171875,-0.0246124267578125
1772807042048457200,1.866457275390625,-0.9960479736328125,-0.0226898193359375,-0.0237579345703125
1772807042058388200,1.87638818359375,-0.9953155517578125,-0.0221405029296875,-0.022491455078125
1772807042068320300,1.8863203125,-0.9947052001953125,-0.0216064453125,-0.022552490234375
1772807042078252300,1.896252197265625,-0.9949798583984375,-0.0225830078125,-0.0225067138671875
1772807042088183000,1.90618310546875,-0.9959259033203125,-0.02227783203125,-0.0235137939453125
1772807042098115300,1.916115234375,-0.99664306640625,-0.0222320556640625,-0.025054931640625
1772807042108047400,1.92604736328125,-0.9959869384765625,-0.021484375,-0.0249786376953125
1772807042117979400,1.9359794921875,-0.994903564453125,-0.0205841064453125,-0.0242462158203125
1772807042127910100,1.94591015625,-0.99627685546875,-0.020660400390625,-0.022003173828125
1772807042137842200,1.95584228515625,-0.9946441650390625,-0.02044677734375,-0.0216827392578125
1772807042147774200,1.965774169921875,-0.9967498779296875,-0.02252197265625,-0.02056884765625
1772807042157705200,1.975705322265625,-0.997711181640625,-0.0208892822265625,-0.02142333984375
1772807042167637000,1.985636962890625,-0.9956207275390625,-0.0212554931640625,-0.0226898193359375
1772807042177569000,1.995569091796875,-0.9951171875,-0.021087646484375,-0.02532958984375
1772807042187500300,2.005500244140625,-0.9957733154296875,-0.02203369140625,-0.0247344970703125
1772807042197432300,2.015432373046875,-0.996795654296875,-0.023040771484375,-0.0228118896484375
1772807042207364400,2.0253642578125,-0.9968719482421875,-0.022216796875,-0.02386474609375
1772807042217296100,2.035296142578125,-0.9947662353515625,-0.0211029052734375,-0.022705078125
1772807042227227100,2.04522705078125,-0.995635986328125,-0.022735595703125,-0.021759033203125
1772807042237159200,2.0551591796875,-0.996337890625,-0.0224761962890625,-0.0220184326171875
1772807042247091200,2.06509130859375,-0.99639892578125,-0.0221405029296875,-0.023193359375
1772807042257022200,2.075022216796875,-0.995391845703125,-0.021697998046875,-0.022186279296875
1772807042266954200,2.084954345703125,-0.9954071044921875,-0.0210113525390625,-0.023345947265625
1772807042276886300,2.09488623046875,-0.996063232421875,-0.023284912109375,-0.022369384765625
1772807042286817300,2.1048173828125,-0.99468994140625,-0.0223541259765625,-0.0214080810546875
1772807042296749000,2.1147490234375,-0.99615478515625,-0.0231475830078125,-0.0243072509765625
1772807042306681000,2.12468115234375,-0.9964141845703125,-0.022491455078125,-0.0254364013671875
1772807042316613000,2.134613037109375,-0.9965362548828125,-0.02264404296875,-0.0262603759765625
1772807042326544400,2.14454443359375,-0.9964752197265625,-0.0209503173828125,-0.026336669921875
1772807042336476200,2.15447607421875,-0.9945068359375,-0.021270751953125,-0.0258941650390625
1772807042346408200,2.164408203125,-0.995574951171875,-0.0214691162109375,-0.022796630859375
1772807042356339200,2.174339111328125,-0.99639892578125,-0.0203399658203125,-0.0225067138671875
1772807042366271200,2.184271240234375,-0.9957733154296875,-0.0206298828125,-0.0210723876953125
1772807042376203300,2.194203369140625,-0.9962615966796875,-0.021728515625,-0.022430419921875
1772807042386134300,2.20413427734375,-0.995849609375,-0.0223388671875,-0.0229949951171875
1772807042396066300,2.21406640625,-0.995880126953125,-0.02191162109375,-0.0236663818359375
1772807042405998300,2.223998291015625,-0.996337890625,-0.02252197265625,-0.024200439453125
1772807042415930400,2.233930419921875,-0.9971771240234375,-0.0224456787109375,-0.0239410400390625
1772807042425861000,2.243861083984375,-0.99560546875,-0.021026611328125,-0.0243682861328125
1772807042435793200,2.253793212890625,-0.9954376220703125,-0.021270751953125,-0.0227813720703125
1772807042445725200,2.26372509765625,-0.9974365234375,-0.02154541015625,-0.023223876953125
1772807042455656200,2.27365625,-0.995849609375,-0.0225830078125,-0.0229339599609375
1772807042465588000,2.283587890625,-0.9963226318359375,-0.0222320556640625,-0.02166748046875
1772807042475520300,2.293520263671875,-0.9964752197265625,-0.0234527587890625,-0.0226898193359375
1772807042485451300,2.303451171875,-0.9956817626953125,-0.0225677490234375,-0.023712158203125
1772807042495383300,2.31338330078125,-0.9955902099609375,-0.022613525390625,-0.023040771484375
1772807042505315300,2.3233154296875,-0.9959869384765625,-0.022796630859375,-0.0238494873046875
1772807042515247000,2.3332470703125,-0.9971923828125,-0.023468017578125,-0.0245819091796875
1772807042525178000,2.34317822265625,-0.9952850341796875,-0.0214996337890625,-0.024444580078125
1772807042535110100,2.353110107421875,-0.997650146484375,-0.021697998046875,-0.0241851806640625
1772807042545042200,2.363042236328125,-0.9966278076171875,-0.0223846435546875,-0.021728515625
1772807042554974000,2.372973876953125,-0.996246337890625,-0.021514892578125,-0.02178955078125
1772807042564906200,2.38290625,-0.995361328125,-0.0209197998046875,-0.02142333984375
1772807042574838300,2.39283837890625,-0.9963531494140625,-0.0203399658203125,-0.01959228515625
1772807042584769300,2.402769287109375,-0.99639892578125,-0.01995849609375,-0.0225982666015625
1772807042594701000,2.412701171875,-0.996917724609375,-0.0204925537109375,-0.023040771484375
1772807042604633000,2.422633056640625,-0.996246337890625,-0.0215606689453125,-0.0220794677734375
1772807042614565000,2.432565185546875,-0.9957427978515625,-0.0214996337890625,-0.023956298828125
1772807042624496000,2.44249609375,-0.995208740234375,-0.0208892822265625,-0.0236968994140625
1772807042634428200,2.45242822265625,-0.996429443359375,-0.021331787109375,-0.02386474609375
1772807042644360200,2.462360107421875,-0.9961700439453125,-0.0227203369140625,-0.0238037109375
1772807042654291200,2.472291259765625,-0.9967803955078125,-0.021392822265625,-0.0224456787109375
1772807042664223200,2.48222314453125,-0.9967498779296875,-0.0231170654296875,-0.02325439453125
1772807042674155300,2.4921552734375,-0.9966278076171875,-0.0233306884765625,-0.0236663818359375
1772807042684087300,2.50208740234375,-0.996124267578125,-0.02215576171875,-0.02154541015625
1772807042694018000,2.51201806640625,-0.995758056640625,-0.0229949951171875,-0.021759033203125
1772807042703950000,2.5219501953125,-0.9969940185546875,-0.02288818359375,-0.0217132568359375
1772807042713882000,2.531882080078125,-0.9951934814453125,-0.022705078125,-0.0228118896484375
1772807042723813000,2.541813232421875,-0.997161865234375,-0.0230255126953125,-0.0245361328125
1772807042733745200,2.5517451171875,-0.99676513671875,-0.0218048095703125,-0.023223876953125
1772807042743677200,2.56167724609375,-0.9959869384765625,-0.021453857421875,-0.0225372314453125
1772807042753608200,2.571608154296875,-0.99554443359375,-0.020233154296875,-0.0247344970703125
1772807042763540200,2.581540283203125,-0.995880126953125,-0.021148681640625,-0.0230560302734375
1772807042773472000,2.591471923828125,-0.9965362548828125,-0.0201416015625,-0.0207977294921875
1772807042783403300,2.6014033203125,-0.9960479736328125,-0.020599365234375,-0.021240234375
1772807042793335300,2.611335205078125,-0.9965667724609375,-0.0206298828125,-0.0214691162109375
1772807042803267300,2.621267333984375,-0.9967803955078125,-0.0207366943359375,-0.023223876953125
1772807042813199400,2.631199462890625,-0.9954681396484375,-0.0207061767578125,-0.02288818359375
1772807042823130000,2.641130126953125,-0.9957427978515625,-0.022369384765625,-0.0236968994140625
1772807042833062100,2.651062255859375,-0.995849609375,-0.0208282470703125,-0.023193359375
1772807042842994200,2.660994140625,-0.9975128173828125,-0.022796630859375,-0.0231781005859375
1772807042852925200,2.67092529296875,-0.995269775390625,-0.0222930908203125,-0.0212249755859375
1772807042862857200,2.680857177734375,-0.9948577880859375,-0.02203369140625,-0.0220794677734375
1772807042872789200,2.690789306640625,-0.9950103759765625,-0.0238494873046875,-0.0221710205078125
1772807042882721300,2.70072119140625,-0.9946136474609375,-0.0246124267578125,-0.0236358642578125
1772807042892652300,2.71065234375,-0.9950103759765625,-0.02264404296875,-0.0223846435546875
1772807042902584000,2.720583984375,-0.997772216796875,-0.0225830078125,-0.0228118896484375
1772807042912516000,2.73051611328125,-0.9957275390625,-0.0211944580078125,-0.0213470458984375
1772807042922447000,2.740447021484375,-0.99652099609375,-0.022216796875,-0.0229034423828125
1772807042932379100,2.750379150390625,-0.9952239990234375,-0.02142333984375,-0.0223236083984375
1772807042942311200,2.760311279296875,-0.9959869384765625,-0.021881103515625,-0.0237579345703125
1772807042952242200,2.7702421875,-0.9959259033203125,-0.0216217041015625,-0.0236053466796875
1772807042962174200,2.78017431640625,-0.99468994140625,-0.02178955078125,-0.0228729248046875
1772807042972106200,2.790106201171875,-0.9954071044921875,-0.02191162109375,-0.0229949951171875
1772807042982037000,2.800037109375,-0.99639892578125,-0.0214691162109375,-0.02239990234375
1772807042991969000,2.809968994140625,-0.996063232421875,-0.020172119140625,-0.0218505859375
1772807043001901000,2.819901123046875,-0.995758056640625,-0.021026611328125,-0.0220794677734375
1772807043011833000,2.8298330078125,-0.99609375,-0.0201873779296875,-0.022735595703125
1772807043021764400,2.839764404296875,-0.995697021484375,-0.021331787109375,-0.0250396728515625
1772807043031696100,2.849696044921875,-0.9954681396484375,-0.02203369140625,-0.0236968994140625
1772807043041628200,2.859628173828125,-0.9964447021484375,-0.0208282470703125,-0.0245208740234375
1772807043051559200,2.86955908203125,-0.9957427978515625,-0.0224761962890625,-0.023895263671875
1772807043061491200,2.8794912109375,-0.9949951171875,-0.02374267578125,-0.022613525390625
1772807043071423000,2.889423095703125,-0.9951171875,-0.0221099853515625,-0.020538330078125
1772807043081355000,2.89935498046875,-0.9970855712890625,-0.021453857421875,-0.0196533203125
1772807043091286300,2.909286376953125,-0.9945068359375,-0.0218353271484375,-0.022369384765625
1772807043101218300,2.91921826171875,-0.994873046875,-0.020782470703125,-0.02215576171875
1772807043111150300,2.929150390625,-0.9962005615234375,-0.021240234375,-0.0227813720703125
1772807043121081000,2.9390810546875,-0.994476318359375,-0.02239990234375,-0.025146484375
1772807043131013000,2.94901318359375,-0.9958038330078125,-0.021881103515625,-0.02484130859375
1772807043140945200,2.958945068359375,-0.995452880859375,-0.02191162109375,-0.0230560302734375
1772807043150876200,2.968876220703125,-0.995880126953125,-0.022613525390625,-0.0241546630859375
1772807043160808200,2.97880810546875,-0.995452880859375,-0.0219268798828125,-0.0227813720703125
1772807043170740200,2.988740234375,-0.9954833984375,-0.0220794677734375,-0.02325439453125
1772807043180672300,2.99867236328125,-0.996734619140625,-0.0214996337890625,-0.0228729248046875
1772807043190603300,3.008603271484375,-0.994110107421875,-0.0210723876953125,-0.0228271484375
1772807043200535000,3.01853515625,-0.995452880859375,-0.021270751953125,-0.02154541015625
1772807043210467000,3.028467041015625,-0.9956207275390625,-0.0211639404296875,-0.0210113525390625
1772807043220398000,3.038398193359375,-0.9952392578125,-0.02105712890625,-0.0232696533203125
1772807043230330000,3.048330078125,-0.9958953857421875,-0.0218963623046875,-0.0240936279296875
1772807043240262100,3.05826220703125,-0.996002197265625,-0.022674560546875,-0.022735595703125
1772807043250193200,3.068193115234375,-0.995941162109375,-0.020416259765625,-0.023590087890625
1772807043260125200,3.078125244140625,-0.9952545166015625,-0.02154541015625,-0.0243988037109375
1772807043270057200,3.08805712890625,-0.995758056640625,-0.0227508544921875,-0.024169921875
1772807043279989200,3.0979892578125,-0.996795654296875,-0.022918701171875,-0.0233612060546875
1772807043289920000,3.107919921875,-0.9956207275390625,-0.0224609375,-0.0223236083984375
1772807043299852000,3.11785205078125,-0.99578857421875,-0.0208587646484375,-0.0224151611328125
1772807043309784000,3.1277841796875,-0.9951324462890625,-0.0213775634765625,-0.022186279296875
1772807043319715300,3.13771533203125,-0.995849609375,-0.0229339599609375,-0.02239990234375
1772807043329647000,3.147647216796875,-0.995941162109375,-0.022125244140625,-0.023529052734375
1772807043339579100,3.1575791015625,-0.9950714111328125,-0.0210723876953125,-0.0248565673828125
1772807043349510100,3.16751025390625,-0.996185302734375,-0.0216217041015625,-0.023590087890625
1772807043359442200,3.177442138671875,-0.9960784912109375,-0.0215301513671875,-0.0235595703125
1772807043369374200,3.187374267578125,-0.99481201171875,-0.022552490234375,-0.0216064453125
1772807043379306000,3.197305908203125,-0.994415283203125,-0.0198516845703125,-0.02154541015625
1772807043389237200,3.2072373046875,-0.9947052001953125,-0.0214996337890625,-0.0228424072265625
1772807043399169300,3.217169189453125,-0.9963836669921875,-0.02166748046875,-0.0233917236328125
1772807043409101300,3.227101318359375,-0.99609375,-0.022369384765625,-0.0231170654296875
1772807043419032000,3.237031982421875,-0.995819091796875,-0.0219879150390625,-0.02264404296875
1772807043428964000,3.246964111328125,-0.995513916015625,-0.021392822265625,-0.0222625732421875
1772807043438896000,3.256896240234375,-0.995849609375,-0.0217742919921875,-0.0230712890625
1772807043448827400,3.266827392578125,-0.996490478515625,-0.0208740234375,-0.022796630859375
1772807043458759200,3.27675927734375,-0.9963531494140625,-0.020599365234375,-0.0241546630859375
1772807043468691200,3.286691162109375,-0.9969482421875,-0.0208740234375,-0.02264404296875
1772807043478623200,3.296623291015625,-0.9954833984375,-0.022979736328125,-0.02337646484375
1772807043488554200,3.30655419921875,-0.99530029296875,-0.0232391357421875,-0.02374267578125
1772807043498486300,3.316486328125,-0.9955902099609375,-0.0225830078125,-0.0222320556640625
1772807043508418000,3.32641796875,-0.9951171875,-0.0219268798828125,-0.022491455078125
1772807043518349000,3.33634912109375,-0.9955291748046875,-0.0213623046875,-0.0223846435546875
1772807043528281000,3.346281005859375,-0.9961395263671875,-0.0206146240234375,-0.0217742919921875
1772807043538213400,3.35621337890625,-0.995574951171875,-0.0226593017578125,-0.0222015380859375
1772807043548144000,3.36614404296875,-0.9964752197265625,-0.0219573974609375,-0.021636962890625
1772807043558075400,3.376075439453125,-0.99615478515625,-0.0219268798828125,-0.023712158203125
1772807043568007200,3.386007080078125,-0.99737548828125,-0.023468017578125,-0.0240936279296875
1772807043577939200,3.395939208984375,-0.9959564208984375,-0.0217132568359375,-0.022552490234375
1772807043587870500,3.405870361328125,-0.996612548828125,-0.022064208984375,-0.023284912109375
1772807043597802500,3.415802490234375,-0.995635986328125,-0.022125244140625,-0.02337646484375
1772807043607734500,3.425734619140625,-0.9965362548828125,-0.022552490234375,-0.0234527587890625
1772807043617665300,3.435665283203125,-0.99658203125,-0.022796630859375,-0.0244903564453125
1772807043627597300,3.445597412109375,-0.9964599609375,-0.0224609375,-0.023040771484375
1772807043637529300,3.455529296875,-0.99627685546875,-0.0214691162109375,-0.0219879150390625
1772807043647460000,3.465460205078125,-0.9953460693359375,-0.022552490234375,-0.0215606689453125
1772807043657392400,3.475392333984375,-0.9969940185546875,-0.0223541259765625,-0.0222320556640625
1772807043667324400,3.485324462890625,-0.9949188232421875,-0.022308349609375,-0.0219573974609375
1772807043677256400,3.49525634765625,-0.9954833984375,-0.0217132568359375,-0.0224151611328125
1772807043687187500,3.5051875,-0.996185302734375,-0.0203094482421875,-0.02325439453125
1772807043697119200,3.515119140625,-0.9962158203125,-0.0224456787109375,-0.0231170654296875
1772807043707051300,3.52505126953125,-0.9960784912109375,-0.0216827392578125,-0.023040771484375
1772807043716982300,3.534982177734375,-0.995849609375,-0.022857666015625,-0.0213165283203125
1772807043726914300,3.544914306640625,-0.99713134765625,-0.020965576171875,-0.022308349609375
1772807043736846300,3.554846435546875,-0.995819091796875,-0.021697998046875,-0.02374267578125
1772807043746778400,3.5647783203125,-0.9958038330078125,-0.021820068359375,-0.0229949951171875
1772807043756709400,3.57470947265625,-0.9960784912109375,-0.021484375,-0.02166748046875
1772807043766641400,3.584641357421875,-0.9959869384765625,-0.02203369140625,-0.0231170654296875
1772807043776573400,3.594573486328125,-0.996002197265625,-0.0218048095703125,-0.0243072509765625
1772807043786504200,3.604504150390625,-0.994659423828125,-0.021453857421875,-0.025054931640625
1772807043796436200,3.614436279296875,-0.9958038330078125,-0.0220489501953125,-0.0233154296875
1772807043806368300,3.6243681640625,-0.99615478515625,-0.022064208984375,-0.0215606689453125
1772807043816299500,3.634299560546875,-0.9954833984375,-0.023040771484375,-0.0217742919921875
1772807043826231300,3.644231201171875,-0.9969329833984375,-0.0222320556640625,-0.022979736328125
1772807043836163300,3.654163330078125,-0.9954071044921875,-0.0207366943359375,-0.023162841796875
1772807043846095400,3.664095458984375,-0.99468994140625,-0.0223541259765625,-0.0240020751953125
1772807043856026400,3.6740263671875,-0.996978759765625,-0.0220794677734375,-0.02325439453125
1772807043865958100,3.683958251953125,-0.9962158203125,-0.0224761962890625,-0.0231170654296875
1772807043875890200,3.69389013671875,-0.9969635009765625,-0.0222015380859375,-0.0225677490234375
1772807043885821400,3.703821533203125,-0.9962158203125,-0.0213775634765625,-0.02392578125
1772807043895753500,3.71375341796875,-0.997222900390625,-0.0214996337890625,-0.022369384765625
1772807043905685500,3.723685546875,-0.9953765869140625,-0.0209197998046875,-0.0235137939453125
1772807043915616300,3.7336162109375,-0.9949188232421875,-0.021270751953125,-0.02276611328125
1772807043925548300,3.74354833984375,-0.995635986328125,-0.0223846435546875,-0.0234527587890625
1772807043935480300,3.753480224609375,-0.9960479736328125,-0.021026611328125,-0.0223541259765625
1772807043945412400,3.763412353515625,-0.9965057373046875,-0.0221710205078125,-0.022613525390625
1772807043955343400,3.77334326171875,-0.9958648681640625,-0.022491455078125,-0.0228729248046875
1772807043965275400,3.783275390625,-0.9957122802734375,-0.0224761962890625,-0.0227813720703125
1772807043975207400,3.79320751953125,-0.9951629638671875,-0.0228729248046875,-0.02435302734375
1772807043985138400,3.803138427734375,-0.996063232421875,-0.0231781005859375,-0.0223846435546875
1772807043995070200,3.8130703125,-0.9957427978515625,-0.02191162109375,-0.0240936279296875
1772807044005002200,3.823002197265625,-0.9958953857421875,-0.0222320556640625,-0.023773193359375
1772807044014934300,3.832934326171875,-0.9951934814453125,-0.0215301513671875,-0.0232391357421875
1772807044024865300,3.842865234375,-0.996368408203125,-0.02178955078125,-0.02105712890625
1772807044034797300,3.85279736328125,-0.996673583984375,-0.02252197265625,-0.021209716796875
1772807044044729300,3.862729248046875,-0.995330810546875,-0.0216827392578125,-0.0216827392578125
1772807044054660400,3.872660400390625,-0.99578857421875,-0.020294189453125,-0.0232086181640625
1772807044064592400,3.88259228515625,-0.9942626953125,-0.020263671875,-0.022857666015625
1772807044074524400,3.8925244140625,-0.994140625,-0.0204010009765625,-0.0237274169921875
1772807044084455200,3.902455078125,-0.995635986328125,-0.02142333984375,-0.0237884521484375
1772807044094387200,3.91238720703125,-0.99755859375,-0.0210723876953125,-0.02288818359375
1772807044104319200,3.9223193359375,-0.997100830078125,-0.0212249755859375,-0.02288818359375
1772807044114251300,3.932251220703125,-0.9958953857421875,-0.0208587646484375,-0.022918701171875
1772807044124182300,3.942182373046875,-0.995025634765625,-0.02081298828125,-0.021697998046875
1772807044134114300,3.9521142578125,-0.996673583984375,-0.022125244140625,-0.0229644775390625
1772807044144046300,3.96204638671875,-0.995208740234375,-0.0216522216796875,-0.0236663818359375
1772807044153977300,3.971977294921875,-0.9962158203125,-0.0215911865234375,-0.0222930908203125
1772807044163909400,3.981909423828125,-0.997711181640625,-0.02191162109375,-0.0224609375
1772807044173839400,3.99183935546875,-0.9967193603515625,-0.0209808349609375,-0.0237884521484375
1772807044183771400,4.001771484375,-0.9955902099609375,-0.022674560546875,-0.022430419921875
1772807044193703400,4.011703369140625,-0.996124267578125,-0.023834228515625,-0.0235595703125
1772807044203634200,4.02163427734375,-0.994659423828125,-0.0242462158203125,-0.02362060546875
1772807044213566200,4.031566162109375,-0.99566650390625,-0.02288818359375,-0.023651123046875
1772807044223498200,4.041498291015625,-0.994781494140625,-0.0216217041015625,-0.0221099853515625
1772807044233430300,4.05143017578125,-0.99615478515625,-0.0221099853515625,-0.022491455078125
1772807044243361300,4.061361328125,-0.9964447021484375,-0.0205535888671875,-0.0213470458984375
1772807044253293300,4.071293212890625,-0.9947052001953125,-0.021453857421875,-0.02069091796875
1772807044263225300,4.081225341796875,-0.9952850341796875,-0.021728515625,-0.0224456787109375
1772807044273156400,4.09115625,-0.9955902099609375,-0.02020263671875,-0.0233306884765625
1772807044283088400,4.10108837890625,-0.99560546875,-0.020416259765625,-0.023284912109375
1772807044293020200,4.111020263671875,-0.99560546875,-0.021942138671875,-0.0238037109375
1772807044302951400,4.120951416015625,-0.99493408203125,-0.020660400390625,-0.0240936279296875
1772807044312883500,4.130883544921875,-0.9956817626953125,-0.020233154296875,-0.0240936279296875
1772807044322815500,4.1408154296875,-0.995635986328125,-0.0223388671875,-0.0229644775390625
1772807044332747300,4.150747314453125,-0.9958953857421875,-0.0217132568359375,-0.0229949951171875
1772807044342678300,4.16067822265625,-0.9959716796875,-0.0218048095703125,-0.023162841796875
1772807044352610300,4.1706103515625,-0.9962158203125,-0.02081298828125,-0.0230865478515625
1772807044362542300,4.180542236328125,-0.99493408203125,-0.0221099853515625,-0.0225677490234375
1772807044372473300,4.190473388671875,-0.995330810546875,-0.02197265625,-0.022918701171875
1772807044382405400,4.2004052734375,-0.9955596923828125,-0.024322509765625,-0.022796630859375
1772807044392337400,4.21033740234375,-0.9968109130859375,-0.022552490234375,-0.0231475830078125
1772807044402269400,4.22026953125,-0.9952392578125,-0.0225372314453125,-0.023895263671875
1772807044412200200,4.2302001953125,-0.9965972900390625,-0.02337646484375,-0.023712158203125
1772807044422132200,4.24013232421875,-0.997039794921875,-0.023223876953125,-0.0242767333984375
1772807044432064300,4.250064208984375,-0.9971923828125,-0.0219573974609375,-0.0252685546875
1772807044441995300,4.259995361328125,-0.9970550537109375,-0.0216064453125,-0.0237274169921875
1772807044451927300,4.26992724609375,-0.9965667724609375,-0.0209808349609375,-0.022308349609375
1772807044461859300,4.279859375,-0.9969940185546875,-0.0220489501953125,-0.02301025390625
1772807044471790300,4.289790283203125,-0.99627685546875,-0.0207672119140625,-0.0243682861328125
1772807044481722400,4.299722412109375,-0.9956817626953125,-0.0214080810546875,-0.023651123046875
1772807044491654400,4.309654296875,-0.9963836669921875,-0.0199432373046875,-0.0224151611328125
1772807044501586400,4.31958642578125,-0.9951934814453125,-0.0211334228515625,-0.022979736328125
1772807044511517200,4.32951708984375,-0.996124267578125,-0.0206146240234375,-0.0235443115234375
1772807044521449200,4.33944921875,-0.996307373046875,-0.0206451416015625,-0.022857666015625
1772807044531381200,4.34938134765625,-0.9967193603515625,-0.0223541259765625,-0.0234222412109375
1772807044541313500,4.3593134765625,-0.99627685546875,-0.0214691162109375,-0.02178955078125
1772807044551245300,4.369245361328125,-0.99566650390625,-0.021697998046875,-0.0230560302734375
1772807044561176800,4.3791767578125,-0.9955596923828125,-0.022552490234375,-0.0226287841796875
1772807044571108900,4.38910888671875,-0.9958038330078125,-0.0220794677734375,-0.0223541259765625
1772807044581040600,4.39904052734375,-0.996429443359375,-0.0230865478515625,-0.022857666015625
1772807044590971600,4.4089716796875,-0.996246337890625,-0.023345947265625,-0.0221405029296875
1772807044600903700,4.418903564453125,-0.9972381591796875,-0.0233612060546875,-0.0212249755859375
1772807044610835700,4.428835693359375,-0.996002197265625,-0.0223846435546875,-0.023406982421875
1772807044620766700,4.4387666015625,-0.996429443359375,-0.0214080810546875,-0.0238037109375
1772807044630698800,4.44869873046875,-0.9966278076171875,-0.02252197265625,-0.0248260498046875
1772807044640630800,4.458630859375,-0.9968109130859375,-0.0218963623046875,-0.0235137939453125
1772807044650562800,4.468562744140625,-0.995697021484375,-0.02154541015625,-0.0229949951171875
1772807044660493600,4.47849365234375,-0.995330810546875,-0.022491455078125,-0.02349853515625
1772807044670425600,4.488425537109375,-0.997222900390625,-0.0211639404296875,-0.02362060546875
1772807044680357600,4.498357666015625,-0.994720458984375,-0.0221710205078125,-0.0233306884765625
1772807044690289000,4.508288818359375,-0.9969482421875,-0.0213165283203125,-0.023223876953125
1772807044700221000,4.518220947265625,-0.993621826171875,-0.0217742919921875,-0.023712158203125
1772807044710152700,4.528152587890625,-0.995941162109375,-0.021820068359375,-0.02435302734375
1772807044720084700,4.538084716796875,-0.99609375,-0.0225372314453125,-0.023468017578125
1772807044730015700,4.548015625,-0.995391845703125,-0.0212554931640625,-0.0238037109375
1772807044739947800,4.55794775390625,-0.9947967529296875,-0.021087646484375,-0.0234222412109375
1772807044749879600,4.567879638671875,-0.9961395263671875,-0.021026611328125,-0.0224151611328125
1772807044759810600,4.577810546875,-0.996337890625,-0.0226593017578125,-0.0229949951171875
1772807044769742800,4.587742919921875,-0.996551513671875,-0.02069091796875,-0.0237884521484375
1772807044779675000,4.5976748046875,-0.9954681396484375,-0.0216064453125,-0.022705078125
1772807044789605600,4.607605712890625,-0.995758056640625,-0.02105712890625,-0.023406982421875
1772807044799537700,4.61753759765625,-0.9961395263671875,-0.0221405029296875,-0.023681640625
1772807044809469700,4.6274697265625,-0.994415283203125,-0.0225677490234375,-0.02362060546875
1772807044819401700,4.637401611328125,-0.9956207275390625,-0.0231170654296875,-0.0238800048828125
1772807044829332500,4.64733251953125,-0.9952850341796875,-0.021759033203125,-0.023468017578125
1772807044839264500,4.657264404296875,-0.9956207275390625,-0.02252197265625,-0.02294921875
1772807044849196800,4.66719677734375,-0.9957733154296875,-0.0220489501953125,-0.023773193359375
1772807044859127800,4.6771279296875,-0.994537353515625,-0.0218963623046875,-0.0231475830078125
1772807044869059800,4.687059814453125,-0.99627685546875,-0.022918701171875,-0.023162841796875
1772807044878991600,4.69699169921875,-0.9952392578125,-0.021148681640625,-0.0222625732421875
1772807044888923600,4.706923583984375,-0.9946746826171875,-0.022247314453125,-0.02215576171875
1772807044898854700,4.716854736328125,-0.9962158203125,-0.020782470703125,-0.023162841796875
1772807044908786700,4.72678662109375,-0.99554443359375,-0.0212249755859375,-0.02374267578125
1772807044918718700,4.73671875,-0.9948577880859375,-0.0212860107421875,-0.0235748291015625
1772807044928649700,4.746649658203125,-0.996856689453125,-0.02166748046875,-0.02294921875
1772807044938581800,4.756581787109375,-0.997039794921875,-0.0222930908203125,-0.0225830078125
1772807044948513800,4.766513671875,-0.9963531494140625,-0.02325439453125,-0.0224609375
1772807044958444500,4.776444580078125,-0.9955902099609375,-0.021575927734375,-0.0224456787109375
1772807044968376600,4.78637646484375,-0.99639892578125,-0.020904541015625,-0.021148681640625
1772807044978308600,4.79630859375,-0.9958343505859375,-0.0223388671875,-0.0227203369140625
1772807044988240600,4.80624072265625,-0.99505615234375,-0.023712158203125,-0.0233917236328125
1772807044998172000,4.816171875,-0.995025634765625,-0.0218963623046875,-0.0218658447265625
1772807045008103700,4.826103759765625,-0.996337890625,-0.02130126953125,-0.02386474609375
1772807045018035700,4.83603564453125,-0.996551513671875,-0.0223236083984375,-0.023284912109375
1772807045027966700,4.845966796875,-0.996673583984375,-0.0209197998046875,-0.0240631103515625
1772807045037898800,4.855898681640625,-0.9948577880859375,-0.020477294921875,-0.0235137939453125
1772807045047830800,4.865830810546875,-0.9965972900390625,-0.0232391357421875,-0.023681640625
1772807045057762600,4.875762451171875,-0.996185302734375,-0.0222625732421875,-0.023345947265625
1772807045067693800,4.88569384765625,-0.996551513671875,-0.022674560546875,-0.0224456787109375
1772807045077625900,4.8956259765625,-0.9949798583984375,-0.023162841796875,-0.0222930908203125
1772807045087558000,4.905557861328125,-0.9952392578125,-0.022857666015625,-0.0222015380859375
1772807045097488600,4.915488525390625,-0.996551513671875,-0.023345947265625,-0.0224609375
1772807045107420700,4.925420654296875,-0.995880126953125,-0.0233154296875,-0.0220794677734375
1772807045117352700,4.935352783203125,-0.9960479736328125,-0.02142333984375,-0.0240478515625
1772807045127283700,4.94528369140625,-0.9954833984375,-0.0222625732421875,-0.0241546630859375
1772807045137215500,4.955215576171875,-0.9943389892578125,-0.0227813720703125,-0.0245208740234375
1772807045147147800,4.965147705078125,-0.9967041015625,-0.021331787109375,-0.0244598388671875
1772807045157079800,4.975079833984375,-0.9960174560546875,-0.0211334228515625,-0.0238800048828125
1772807045167010800,4.9850107421875,-0.9962158203125,-0.0217742919921875,-0.0233154296875
1772807045176942600,4.994942626953125,-0.9960174560546875,-0.020416259765625,-0.022491455078125
1772807045186874600,5.00487451171875,-0.9942626953125,-0.0211639404296875,-0.0215301513671875
1772807045196805600,5.0148056640625,-0.995086669921875,-0.020721435546875,-0.02301025390625
1772807045206737700,5.024737548828125,-0.9964447021484375,-0.020751953125,-0.022705078125
1772807045216669700,5.034669677734375,-0.99615478515625,-0.021697998046875,-0.02294921875
1772807045226600700,5.0446005859375,-0.995147705078125,-0.0233612060546875,-0.024505615234375
1772807045236532700,5.05453271484375,-0.996124267578125,-0.0225677490234375,-0.0233612060546875
1772807045246464800,5.06446484375,-0.9956207275390625,-0.0227508544921875,-0.023223876953125
1772807045256396800,5.074396728515625,-0.995941162109375,-0.0233917236328125,-0.0226287841796875
1772807045266327600,5.08432763671875,-0.996307373046875,-0.022674560546875,-0.024017333984375
1772807045276259600,5.094259521484375,-0.9978179931640625,-0.02294921875,-0.0235443115234375
1772807045286191600,5.104191650390625,-0.99560546875,-0.021697998046875,-0.0230255126953125
1772807045296123000,5.114122802734375,-0.9953155517578125,-0.022735595703125,-0.02203369140625
1772807045306054700,5.1240546875,-0.9957733154296875,-0.02294921875,-0.02166748046875
1772807045315986700,5.133986572265625,-0.995147705078125,-0.0217132568359375,-0.022216796875
1772807045325918700,5.143918701171875,-0.994720458984375,-0.02044677734375,-0.0217132568359375
1772807045335849700,5.153849609375,-0.994842529296875,-0.0218048095703125,-0.02294921875
1772807045345781800,5.16378173828125,-0.9964141845703125,-0.020050048828125,-0.02301025390625
1772807045355713500,5.173713623046875,-0.9956817626953125,-0.0212554931640625,-0.0235443115234375
1772807045365644800,5.183644775390625,-0.9954071044921875,-0.021026611328125,-0.022064208984375
1772807045375576800,5.193576904296875,-0.9955596923828125,-0.020904541015625,-0.0212249755859375
1772807045385508900,5.2035087890625,-0.99530029296875,-0.0206451416015625,-0.0225372314453125
1772807045395439600,5.213439697265625,-0.994598388671875,-0.02239990234375,-0.022613525390625
1772807045405371600,5.22337158203125,-0.9945220947265625,-0.0220489501953125,-0.024383544921875
1772807045415303700,5.2333037109375,-0.9951934814453125,-0.02044677734375,-0.025390625
1772807045425235700,5.243235595703125,-0.996917724609375,-0.0208892822265625,-0.0227508544921875
1772807045435166700,5.253166748046875,-0.9955902099609375,-0.0213165283203125,-0.022216796875
1772807045445098800,5.2630986328125,-0.9947052001953125,-0.0205841064453125,-0.022705078125
1772807045455030800,5.27303076171875,-0.9947662353515625,-0.020965576171875,-0.0236968994140625
1772807045464961800,5.2829619140625,-0.9968109130859375,-0.0231170654296875,-0.023468017578125
1772807045474893800,5.292893798828125,-0.9950714111328125,-0.02154541015625,-0.0232696533203125
1772807045484825600,5.30282568359375,-0.9964599609375,-0.0219879150390625,-0.0229949951171875
1772807045494757600,5.312757568359375,-0.9962921142578125,-0.022247314453125,-0.0228424072265625
1772807045504688600,5.322688720703125,-0.995819091796875,-0.02215576171875,-0.0233306884765625
1772807045514620700,5.33262060546875,-0.9948883056640625,-0.0221099853515625,-0.0220947265625
1772807045524552700,5.342552734375,-0.9963226318359375,-0.0218048095703125,-0.022308349609375
1772807045534483700,5.352483642578125,-0.995635986328125,-0.0222930908203125,-0.021209716796875
1772807045544415700,5.362415771484375,-0.9948883056640625,-0.02203369140625,-0.02288818359375
1772807045554347500,5.372347412109375,-0.995513916015625,-0.0216064453125,-0.0245513916015625
1772807045564278300,5.3822783203125,-0.9955596923828125,-0.020965576171875,-0.0245361328125
1772807045574210300,5.392210205078125,-0.993865966796875,-0.0218353271484375,-0.024139404296875
1772807045584142300,5.402142333984375,-0.9964752197265625,-0.021453857421875,-0.02276611328125
1772807045594074400,5.412074462890625,-0.9955902099609375,-0.0227813720703125,-0.021331787109375
1772807045604005400,5.42200537109375,-0.9958648681640625,-0.0215911865234375,-0.0238189697265625
1772807045613937400,5.4319375,-0.9951019287109375,-0.021270751953125,-0.0236358642578125
1772807045623869400,5.441869384765625,-0.9966888427734375,-0.021453857421875,-0.0230865478515625
1772807045633800400,5.451800537109375,-0.9958038330078125,-0.02203369140625,-0.0221405029296875
1772807045643732200,5.461732177734375,-0.994781494140625,-0.0220489501953125,-0.022674560546875
1772807045653664300,5.471664306640625,-0.9954376220703125,-0.022613525390625,-0.0232086181640625
1772807045663596300,5.48159619140625,-0.995330810546875,-0.0211181640625,-0.02239990234375
1772807045673527600,5.491527587890625,-0.995025634765625,-0.0224609375,-0.0231475830078125
1772807045683459600,5.50145947265625,-0.996246337890625,-0.022552490234375,-0.022674560546875
1772807045693391400,5.511391357421875,-0.99737548828125,-0.0227508544921875,-0.023712158203125
1772807045703322400,5.521322265625,-0.9959564208984375,-0.023406982421875,-0.0227508544921875
1772807045713254400,5.53125439453125,-0.996124267578125,-0.0232086181640625,-0.0234222412109375
1772807045723186400,5.5411865234375,-0.9949188232421875,-0.022613525390625,-0.025115966796875
1772807045733118200,5.5511181640625,-0.9951324462890625,-0.0221405029296875,-0.0244903564453125
1772807045743049500,5.561049560546875,-0.9964599609375,-0.0208740234375,-0.022186279296875
1772807045752981500,5.5709814453125,-0.9960784912109375,-0.0207366943359375,-0.02288818359375
1772807045762913500,5.58091357421875,-0.9962921142578125,-0.0214080810546875,-0.023345947265625
1772807045772844300,5.59084423828125,-0.9962310791015625,-0.0205841064453125,-0.0238037109375
1772807045782776300,5.6007763671875,-0.9957275390625,-0.0205078125,-0.02484130859375
1772807045792708400,5.610708251953125,-0.9957275390625,-0.0209808349609375,-0.0232391357421875
1772807045802639400,5.620639404296875,-0.9942474365234375,-0.020751953125,-0.0222320556640625
1772807045812571600,5.630571533203125,-0.9953765869140625,-0.0197296142578125,-0.021728515625
1772807045822503400,5.64050341796875,-0.9958953857421875,-0.0207061767578125,-0.0230712890625
1772807045832435500,5.650435546875,-0.9960479736328125,-0.02215576171875,-0.0222930908203125
1772807045842366500,5.660366455078125,-0.9945068359375,-0.0206146240234375,-0.023956298828125
1772807045852298500,5.670298583984375,-0.995513916015625,-0.021392822265625,-0.023223876953125
1772807045862230300,5.680230224609375,-0.9965972900390625,-0.023284912109375,-0.023406982421875
1772807045872161300,5.690161376953125,-0.995269775390625,-0.023193359375,-0.0225830078125
1772807045882093300,5.70009326171875,-0.99615478515625,-0.02294921875,-0.02435302734375
1772807045892025300,5.710025390625,-0.9968414306640625,-0.0235137939453125,-0.023834228515625
1772807045901956400,5.719956298828125,-0.9957733154296875,-0.021820068359375,-0.0229949951171875
1772807045911888400,5.729888427734375,-0.99615478515625,-0.0215911865234375,-0.022216796875
1772807045921820400,5.7398203125,-0.99603271484375,-0.0218048095703125,-0.0222015380859375
1772807045931752400,5.74975244140625,-0.9961700439453125,-0.0218963623046875,-0.023712158203125
1772807045941683500,5.759683349609375,-0.996734619140625,-0.022705078125,-0.02349853515625
1772807045951615200,5.769615234375,-0.995758056640625,-0.0222930908203125,-0.023681640625
1772807045961547300,5.77954736328125,-0.99530029296875,-0.02056884765625,-0.021392822265625
1772807045971478500,5.789478515625,-0.99737548828125,-0.0208740234375,-0.0222625732421875
1772807045981410600,5.79941064453125,-0.996307373046875,-0.02093505859375,-0.02197265625
1772807045991342300,5.80934228515625,-0.9967803955078125,-0.02044677734375,-0.0229339599609375
1772807046001274400,5.8192744140625,-0.9969329833984375,-0.020843505859375,-0.02252197265625
1772807046011205400,5.829205322265625,-0.9974212646484375,-0.0200347900390625,-0.02154541015625
1772807046021137400,5.839137451171875,-0.994873046875,-0.0211181640625,-0.02191162109375
1772807046031069400,5.8490693359375,-0.9939727783203125,-0.0218048095703125,-0.0219879150390625
1772807046041000400,5.85900048828125,-0.994964599609375,-0.0220489501953125,-0.02093505859375
1772807046050932500,5.868932373046875,-0.996734619140625,-0.0208282470703125,-0.0212554931640625
1772807046060864500,5.878864501953125,-0.9963531494140625,-0.022186279296875,-0.022308349609375
1772807046070796500,5.888796630859375,-0.9951171875,-0.0209808349609375,-0.0244140625
1772807046080727300,5.898727294921875,-0.994415283203125,-0.022216796875,-0.0260009765625
1772807046090659300,5.908659423828125,-0.996185302734375,-0.0234832763671875,-0.0234375
1772807046100591400,5.91859130859375,-0.99591064453125,-0.021881103515625,-0.022308349609375
1772807046110522600,5.928522705078125,-0.995758056640625,-0.0221710205078125,-0.021881103515625
1772807046120454400,5.938454345703125,-0.995513916015625,-0.02203369140625,-0.0220489501953125
1772807046130386400,5.948386474609375,-0.9957427978515625,-0.022857666015625,-0.0216522216796875
1772807046140318500,5.958318359375,-0.9954071044921875,-0.0237884521484375,-0.0217742919921875
1772807046150249500,5.96824951171875,-0.99560546875,-0.0225372314453125,-0.02392578125
1772807046160181500,5.978181396484375,-0.9951629638671875,-0.022216796875,-0.02294921875
1772807046170113300,5.98811328125,-0.9956512451171875,-0.0224609375,-0.0234375
1772807046180044300,5.998044189453125,-0.9963531494140625,-0.0227508544921875,-0.02362060546875
1772807046189976600,6.0079765625,-0.99560546875,-0.0218048095703125,-0.0230560302734375
1772807046199908600,6.01790869140625,-0.995941162109375,-0.021575927734375,-0.0247344970703125
1772807046209839400,6.02783935546875,-0.99566650390625,-0.0210113525390625,-0.023284912109375
1772807046219771400,6.037771484375,-0.99591064453125,-0.022674560546875,-0.0236358642578125
1772807046229703400,6.047703369140625,-0.9951019287109375,-0.0211944580078125,-0.0229034423828125
1772807046239635500,6.057635498046875,-0.9963226318359375,-0.02099609375,-0.0235595703125
1772807046249566200,6.067566162109375,-0.9951629638671875,-0.0208892822265625,-0.0228424072265625
1772807046259498200,6.077498291015625,-0.9954833984375,-0.022064208984375,-0.0225830078125
1772807046269430300,6.08743017578125,-0.996673583984375,-0.02069091796875,-0.0217437744140625
1772807046279361500,6.097361572265625,-0.99688720703125,-0.0210418701171875,-0.021240234375
1772807046289293600,6.10729345703125,-0.9965057373046875,-0.022552490234375,-0.022003173828125
1772807046299225300,6.117225341796875,-0.9965972900390625,-0.02203369140625,-0.0247039794921875
1772807046309156400,6.12715625,-0.996612548828125,-0.021240234375,-0.0237274169921875
1772807046319088400,6.13708837890625,-0.9952850341796875,-0.0211181640625,-0.0213165283203125
1772807046329020400,6.1470205078125,-0.995452880859375,-0.0225677490234375,-0.0228118896484375
1772807046338952200,6.1569521484375,-0.9972381591796875,-0.0207366943359375,-0.0221710205078125
1772807046348883500,6.166883544921875,-0.9952239990234375,-0.0205841064453125,-0.0227203369140625
1772807046358815500,6.1768154296875,-0.99591064453125,-0.0215606689453125,-0.0219573974609375
1772807046368747500,6.18674755859375,-0.99542236328125,-0.021148681640625,-0.024810791015625
1772807046378678300,6.19667822265625,-0.9956512451171875,-0.021270751953125,-0.0212860107421875
1772807046388610300,6.2066103515625,-0.99578857421875,-0.0217742919921875,-0.022491455078125
1772807046398542300,6.216542236328125,-0.9957275390625,-0.0222930908203125,-0.0228424072265625
1772807046408474400,6.226474365234375,-0.9964599609375,-0.0218353271484375,-0.0225677490234375
1772807046418405400,6.2364052734375,-0.99554443359375,-0.021636962890625,-0.0222930908203125
1772807046428337400,6.24633740234375,-0.9962615966796875,-0.0220947265625,-0.022064208984375
1772807046438269400,6.25626953125,-0.99676513671875,-0.0206298828125,-0.0224609375
1772807046448200400,6.266200439453125,-0.9967193603515625,-0.0205078125,-0.0243988037109375
1772807046458132500,6.276132568359375,-0.99566650390625,-0.020721435546875,-0.0245361328125
1772807046468064300,6.286064208984375,-0.9959259033203125,-0.022308349609375,-0.022491455078125
1772807046477996300,6.295996337890625,-0.9960479736328125,-0.02276611328125,-0.0222320556640625
1772807046487927600,6.305927490234375,-0.9951934814453125,-0.020965576171875,-0.023406982421875
1772807046497859600,6.315859619140625,-0.9971923828125,-0.021514892578125,-0.0221099853515625
1772807046507791600,6.32579150390625,-0.9966583251953125,-0.022247314453125,-0.022918701171875
1772807046517722400,6.335722412109375,-0.9948272705078125,-0.0222625732421875,-0.02362060546875
1772807046527654400,6.345654296875,-0.996246337890625,-0.0236663818359375,-0.0224761962890625
1772807046537586400,6.35558642578125,-0.995941162109375,-0.02276611328125,-0.0229949951171875
1772807046547517200,6.36551708984375,-0.9950714111328125,-0.0224609375,-0.023162841796875
1772807046557449200,6.37544921875,-0.9959564208984375,-0.0233001708984375,-0.022369384765625
1772807046567381200,6.38538134765625,-0.99591064453125,-0.021392822265625,-0.0233154296875
1772807046577313300,6.395313232421875,-0.995849609375,-0.0224761962890625,-0.0245361328125
1772807046587244300,6.405244384765625,-0.996246337890625,-0.022186279296875,-0.0233612060546875
1772807046597176300,6.41517626953125,-0.99737548828125,-0.02142333984375,-0.024810791015625
1772807046607108000,6.425108154296875,-0.9963531494140625,-0.0224151611328125,-0.0218505859375
1772807046617039000,6.4350390625,-0.99615478515625,-0.0234222412109375,-0.0227508544921875
1772807046626971100,6.44497119140625,-0.9958648681640625,-0.0214080810546875,-0.0222015380859375
1772807046636903200,6.454903076171875,-0.996337890625,-0.022979736328125,-0.021697998046875
1772807046646835200,6.464835205078125,-0.996917724609375,-0.0214080810546875,-0.0231170654296875
1772807046656766200,6.47476611328125,-0.9957733154296875,-0.0214080810546875,-0.0237579345703125
1772807046666698200,6.4846982421875,-0.995635986328125,-0.02252197265625,-0.0240478515625
1772807046676630300,6.49463037109375,-0.9965362548828125,-0.02301025390625,-0.02459716796875
1772807046686561000,6.50456103515625,-0.9953765869140625,-0.0225372314453125,-0.0234832763671875
1772807046696493000,6.5144931640625,-0.9949188232421875,-0.0223388671875,-0.022735595703125
1772807046706425000,6.524425048828125,-0.996673583984375,-0.0206756591796875,-0.022796630859375
1772807046716356400,6.5343564453125,-0.9958953857421875,-0.0213470458984375,-0.0216064453125
1772807046726288400,6.544288330078125,-0.99517822265625,-0.0217437744140625,-0.022705078125
1772807046736220200,6.55422021484375,-0.9950714111328125,-0.0202178955078125,-0.0234832763671875
1772807046746152200,6.564152099609375,-0.99639892578125,-0.0205535888671875,-0.023406982421875
1772807046756083200,6.574083251953125,-0.9970245361328125,-0.0213470458984375,-0.023773193359375
1772807046766015200,6.58401513671875,-0.9964447021484375,-0.021453857421875,-0.0228271484375
1772807046775947000,6.593947021484375,-0.99658203125,-0.02276611328125,-0.022491455078125
1772807046785878300,6.603878173828125,-0.9979705810546875,-0.0223846435546875,-0.0231781005859375
1772807046795810300,6.613810302734375,-0.996246337890625,-0.0219879150390625,-0.0234375
1772807046805742300,6.623742431640625,-0.9960784912109375,-0.0235137939453125,-0.02459716796875
1772807046815674400,6.63367431640625,-0.9966583251953125,-0.0225677490234375,-0.0222320556640625
1772807046825605000,6.643605224609375,-0.995819091796875,-0.0225982666015625,-0.0230255126953125
1772807046835537200,6.653537109375,-0.9962005615234375,-0.02099609375,-0.0214385986328125
1772807046845469200,6.66346923828125,-0.9936676025390625,-0.0225830078125,-0.0218048095703125
1772807046855400200,6.673400146484375,-0.9947357177734375,-0.0218658447265625,-0.022857666015625
1772807046865332200,6.683332275390625,-0.995880126953125,-0.0201873779296875,-0.022735595703125
1772807046875264300,6.69326416015625,-0.996551513671875,-0.02166748046875,-0.025390625
1772807046885196300,6.7031962890625,-0.9973602294921875,-0.0212860107421875,-0.0233917236328125
1772807046895127300,6.713127197265625,-0.9954071044921875,-0.022247314453125,-0.0249176025390625
1772807046905059000,6.72305908203125,-0.99493408203125,-0.02191162109375,-0.023834228515625
1772807046914991000,6.7329912109375,-0.9950714111328125,-0.0213165283203125,-0.023773193359375
1772807046924922000,6.742922119140625,-0.996124267578125,-0.02099609375,-0.02294921875
1772807046934854100,6.752854248046875,-0.996002197265625,-0.0197906494140625,-0.0234375
1772807046944786400,6.762786376953125,-0.99688720703125,-0.0211334228515625,-0.0230712890625
1772807046954718200,6.77271826171875,-0.9974212646484375,-0.0205230712890625,-0.0229339599609375
1772807046964649200,6.782649169921875,-0.996246337890625,-0.0230865478515625,-0.0233154296875
1772807046974581200,6.792581298828125,-0.9962310791015625,-0.0233917236328125,-0.0227813720703125
1772807046984513300,6.80251318359375,-0.99737548828125,-0.022979736328125,-0.02386474609375
1772807046994444000,6.812444091796875,-0.9952239990234375,-0.023193359375,-0.0223541259765625
1772807047004376000,6.8223759765625,-0.9957733154296875,-0.022216796875,-0.0208587646484375
1772807047014308000,6.83230810546875,-0.9963836669921875,-0.0218963623046875,-0.021942138671875
1772807047024239400,6.8422392578125,-0.9958648681640625,-0.0209503173828125,-0.02392578125
1772807047034171100,6.852171142578125,-0.9961700439453125,-0.020294189453125,-0.0230255126953125
1772807047044103200,6.862103271484375,-0.996124267578125,-0.021209716796875,-0.021881103515625
1772807047054035200,6.87203515625,-0.996795654296875,-0.02178955078125,-0.023468017578125
1772807047063966200,6.88196630859375,-0.9969329833984375,-0.0202178955078125,-0.0230865478515625
1772807047073898200,6.891898193359375,-0.9964447021484375,-0.021209716796875,-0.0224456787109375
1772807047083830000,6.901830078125,-0.9956817626953125,-0.021820068359375,-0.0229339599609375
1772807047093761300,6.91176123046875,-0.9958953857421875,-0.0217132568359375,-0.023712158203125
1772807047103693300,6.921693359375,-0.9967193603515625,-0.02008056640625,-0.0241241455078125
1772807047113625300,6.931625244140625,-0.995574951171875,-0.0213775634765625,-0.0243682861328125
1772807047123557000,6.94155712890625,-0.9951934814453125,-0.020965576171875,-0.0232696533203125
1772807047133488000,6.951488037109375,-0.9958953857421875,-0.0213623046875,-0.0211029052734375
1772807047143420200,6.961420166015625,-0.9957427978515625,-0.02276611328125,-0.023345947265625
1772807047153352200,6.971352294921875,-0.995697021484375,-0.0229949951171875,-0.02142333984375
1772807047163283200,6.981283203125,-0.996551513671875,-0.0229034423828125,-0.02215576171875
1772807047173215200,6.99121533203125,-0.9954833984375,-0.0233306884765625,-0.02301025390625
1772807047183147300,7.001147216796875,-0.995941162109375,-0.0235443115234375,-0.0225830078125
1772807047193079300,7.011079345703125,-0.9949188232421875,-0.02197265625,-0.0229949951171875
1772807047203010300,7.02101025390625,-0.99652099609375,-0.0233612060546875,-0.0222625732421875
1772807047212942000,7.030942138671875,-0.9952392578125,-0.0231781005859375,-0.022003173828125
1772807047222874000,7.0408740234375,-0.9958038330078125,-0.022308349609375,-0.024566650390625
1772807047232805400,7.050805419921875,-0.9967193603515625,-0.0221099853515625,-0.02276611328125
1772807047242737400,7.0607373046875,-0.995819091796875,-0.0221710205078125,-0.0223236083984375
1772807047252669200,7.070669189453125,-0.995086669921875,-0.0207672119140625,-0.0217437744140625
1772807047262600200,7.08060009765625,-0.9951629638671875,-0.0220947265625,-0.0221405029296875
1772807047272532200,7.0905322265625,-0.99688720703125,-0.0214691162109375,-0.0235443115234375
1772807047282464300,7.10046435546875,-0.9979400634765625,-0.02191162109375,-0.0234222412109375
1772807047292396300,7.110396240234375,-0.9965667724609375,-0.020599365234375,-0.0227813720703125
1772807047302327000,7.1203271484375,-0.994781494140625,-0.0207061767578125,-0.0236358642578125
1772807047312259000,7.130259033203125,-0.9946746826171875,-0.020111083984375,-0.0240020751953125
1772807047322191400,7.14019140625,-0.995452880859375,-0.022003173828125,-0.0245819091796875
1772807047332122000,7.1501220703125,-0.995941162109375,-0.0215911865234375,-0.025299072265625
1772807047342054100,7.16005419921875,-0.9963836669921875,-0.021636962890625,-0.0227203369140625
1772807047351986200,7.169986083984375,-0.9952850341796875,-0.0207366943359375,-0.0228118896484375
1772807047361918200,7.179918212890625,-0.995574951171875,-0.02105712890625,-0.021270751953125
1772807047371849200,7.18984912109375,-0.996795654296875,-0.0210723876953125,-0.0223388671875
1772807047381781000,7.199781005859375,-0.995025634765625,-0.0225067138671875,-0.0234222412109375
1772807047391713000,7.209713134765625,-0.9947052001953125,-0.0227813720703125,-0.022857666015625
1772807047401644300,7.219644287109375,-0.994720458984375,-0.0229644775390625,-0.0225677490234375
1772807047411576300,7.229576416015625,-0.995635986328125,-0.02166748046875,-0.023956298828125
1772807047421508400,7.23950830078125,-0.99652099609375,-0.021881103515625,-0.0238189697265625
1772807047431440100,7.249440185546875,-0.99688720703125,-0.022705078125,-0.02435302734375
1772807047441371100,7.25937109375,-0.995849609375,-0.0236663818359375,-0.023468017578125
1772807047451303200,7.26930322265625,-0.99481201171875,-0.020965576171875,-0.02288818359375
1772807047461235200,7.279235107421875,-0.9961395263671875,-0.0208740234375,-0.0226593017578125
1772807047471166200,7.289166259765625,-0.9955291748046875,-0.022308349609375,-0.0218505859375
1772807047481098200,7.29909814453125,-0.995208740234375,-0.0210418701171875,-0.0231170654296875
1772807047491030300,7.3090302734375,-0.9967041015625,-0.020751953125,-0.0218963623046875
1772807047500961300,7.318961181640625,-0.99676513671875,-0.0207366943359375,-0.022430419921875
1772807047510893000,7.32889306640625,-0.9964599609375,-0.02203369140625,-0.02362060546875
1772807047520825000,7.3388251953125,-0.9969482421875,-0.0213623046875,-0.0233306884765625
1772807047530757000,7.348757080078125,-0.9973907470703125,-0.021759033203125,-0.02264404296875
1772807047540688400,7.3586884765625,-0.9954681396484375,-0.021636962890625,-0.021697998046875
1772807047550620400,7.368620361328125,-0.9962921142578125,-0.0197601318359375,-0.0225677490234375
1772807047560553000,7.378552978515625,-0.9959716796875,-0.0204315185546875,-0.0229034423828125
1772807047570484000,7.38848388671875,-0.9962615966796875,-0.0217132568359375,-0.0237579345703125
1772807047580416000,7.398416015625,-0.9953765869140625,-0.0203857421875,-0.0227203369140625
1772807047590348000,7.40834814453125,-0.995849609375,-0.0223541259765625,-0.0225677490234375
1772807047600279800,7.41827978515625,-0.994781494140625,-0.02227783203125,-0.0224151611328125
1772807047610210800,7.4282109375,-0.9955291748046875,-0.02093505859375,-0.0236358642578125
1772807047620142800,7.438142822265625,-0.9953460693359375,-0.0221710205078125,-0.0226287841796875
1772807047630075000,7.448074951171875,-0.995391845703125,-0.023101806640625,-0.02325439453125
1772807047640006000,7.458005859375,-0.9954376220703125,-0.0234832763671875,-0.023773193359375
1772807047649938000,7.46793798828125,-0.9952545166015625,-0.0219879150390625,-0.0221405029296875
1772807047659870000,7.477869873046875,-0.9963226318359375,-0.0208282470703125,-0.023468017578125
1772807047669802000,7.487802001953125,-0.9960479736328125,-0.0204925537109375,-0.0235748291015625
1772807047679732700,7.497732666015625,-0.99420166015625,-0.02227783203125,-0.023223876953125
1772807047689664800,7.507664794921875,-0.997314453125,-0.0213623046875,-0.0252685546875
1772807047699596800,7.5175966796875,-0.996002197265625,-0.0201568603515625,-0.024932861328125
1772807047709528000,7.527528076171875,-0.9957427978515625,-0.0203094482421875,-0.0239410400390625
1772807047719460000,7.537460205078125,-0.9944915771484375,-0.02191162109375,-0.022491455078125
1772807047729391900,7.547391845703125,-0.9958648681640625,-0.021240234375,-0.021026611328125
1772807047739323000,7.557322998046875,-0.995086669921875,-0.0225982666015625,-0.021575927734375
1772807047749255000,7.5672548828125,-0.9965362548828125,-0.0224761962890625,-0.0222930908203125
1772807047759187000,7.57718701171875,-0.9954986572265625,-0.022247314453125,-0.0224151611328125
1772807047769119000,7.587118896484375,-0.9954071044921875,-0.02178955078125,-0.0226593017578125
1772807047779050000,7.597050048828125,-0.9957122802734375,-0.0214691162109375,-0.023651123046875
1772807047788982000,7.60698193359375,-0.996337890625,-0.0216827392578125,-0.023193359375
1772807047798914000,7.6169140625,-0.99591064453125,-0.021453857421875,-0.0220184326171875
1772807047808844800,7.6268447265625,-0.996063232421875,-0.021575927734375,-0.0227813720703125
1772807047818776800,7.63677685546875,-0.994873046875,-0.0216522216796875,-0.0212554931640625
1772807047828708900,7.646708984375,-0.996917724609375,-0.0224609375,-0.0218963623046875
1772807047838641000,7.656640869140625,-0.99615478515625,-0.0230712890625,-0.023284912109375
1772807047848572000,7.666572021484375,-0.995819091796875,-0.02252197265625,-0.023040771484375
1772807047858504000,7.67650390625,-0.997100830078125,-0.0212554931640625,-0.02227783203125
1772807047868436000,7.68643603515625,-0.996002197265625,-0.0222625732421875,-0.0234527587890625
1772807047878367000,7.696366943359375,-0.9956817626953125,-0.019989013671875,-0.022369384765625
1772807047888299000,7.706299072265625,-0.99578857421875,-0.0202178955078125,-0.0235595703125
1772807047898231000,7.71623095703125,-0.99603271484375,-0.02056884765625,-0.0219573974609375
1772807047908162800,7.726162841796875,-0.9958953857421875,-0.0207366943359375,-0.02325439453125
1772807047918093800,7.73609375,-0.9960479736328125,-0.02142333984375,-0.0225982666015625
1772807047928025900,7.74602587890625,-0.9954833984375,-0.0213470458984375,-0.0223541259765625
1772807047937958000,7.7559580078125,-0.9966278076171875,-0.0205230712890625,-0.0220947265625
1772807047947889000,7.765888916015625,-0.99591064453125,-0.0207366943359375,-0.0238189697265625
1772807047957821000,7.775821044921875,-0.996307373046875,-0.0231781005859375,-0.022216796875
1772807047967753000,7.7857529296875,-0.99542236328125,-0.0216064453125,-0.021759033203125
1772807047977685000,7.79568505859375,-0.99578857421875,-0.0223846435546875,-0.0225982666015625
1772807047987615700,7.80561572265625,-0.9951171875,-0.02239990234375,-0.0233306884765625
1772807047997547800,7.8155478515625,-0.995819091796875,-0.0205841064453125,-0.0250701904296875
1772807048007479800,7.825479736328125,-0.9962310791015625,-0.021575927734375,-0.0241546630859375
1772807048017411000,7.8354111328125,-0.9963226318359375,-0.0211944580078125,-0.024169921875
1772807048027342800,7.8453427734375,-0.995452880859375,-0.022705078125,-0.0225677490234375
1772807048037275000,7.85527490234375,-0.99530029296875,-0.0220947265625,-0.0224761962890625
1772807048047206000,7.865205810546875,-0.99639892578125,-0.0233612060546875,-0.0221710205078125
1772807048057138000,7.875137939453125,-0.99566650390625,-0.0220794677734375,-0.02178955078125
1772807048067070000,7.885070068359375,-0.994354248046875,-0.0223388671875,-0.023101806640625
1772807048077001700,7.895001708984375,-0.995391845703125,-0.022552490234375,-0.0244140625
1772807048086933000,7.90493310546875,-0.99609375,-0.021881103515625,-0.0222320556640625
1772807048096865000,7.914864990234375,-0.99700927734375,-0.0233917236328125,-0.023345947265625
1772807048106797000,7.924797119140625,-0.9955596923828125,-0.02178955078125,-0.0229034423828125
1772807048116727800,7.934727783203125,-0.9948883056640625,-0.0212249755859375,-0.0228424072265625
1772807048126659800,7.944659912109375,-0.9956207275390625,-0.022308349609375,-0.0225372314453125
1772807048136592000,7.954591796875,-0.9957275390625,-0.0220184326171875,-0.0235595703125
1772807048146524000,7.96452392578125,-0.99615478515625,-0.0223236083984375,-0.024017333984375
1772807048156455000,7.974454833984375,-0.99456787109375,-0.0212249755859375,-0.0220947265625
1772807048166387000,7.984386962890625,-0.9959564208984375,-0.02294921875,-0.02337646484375
1772807048176318000,7.99431787109375,-0.9962005615234375,-0.0218963623046875,-0.02337646484375
1772807048186250000,8.00425,-0.9979248046875,-0.0217132568359375,-0.022491455078125
1772807048196182000,8.01418212890625,-0.9960784912109375,-0.0222625732421875,-0.02447509765625
1772807048206112800,8.02411279296875,-0.9956817626953125,-0.02227783203125,-0.0226287841796875
1772807048216044800,8.034044921875,-0.9959716796875,-0.0213470458984375,-0.0240936279296875
1772807048225976800,8.043976806640625,-0.9942474365234375,-0.021636962890625,-0.0238800048828125
1772807048235908900,8.053908935546875,-0.9959259033203125,-0.02197265625,-0.02410888671875
1772807048245840000,8.06383984375,-0.99530029296875,-0.021759033203125,-0.02325439453125
1772807048255772000,8.07377197265625,-0.99444580078125,-0.022186279296875,-0.022247314453125
1772807048265704000,8.083703857421876,-0.9965667724609375,-0.02203369140625,-0.022552490234375
1772807048275635000,8.093635009765626,-0.99639892578125,-0.021759033203125,-0.02294921875
1772807048285566700,8.103566650390626,-0.995513916015625,-0.02203369140625,-0.0227813720703125
1772807048295498800,8.113498779296876,-0.99664306640625,-0.022369384765625,-0.0230712890625
1772807048305430000,8.123429931640626,-0.9960784912109375,-0.022125244140625,-0.0223541259765625
1772807048315362000,8.133362060546874,-0.9956512451171875,-0.0223236083984375,-0.0222015380859375
1772807048325294000,8.143294189453124,-0.99530029296875,-0.02099609375,-0.0228424072265625
1772807048335225900,8.153225830078124,-0.9960784912109375,-0.0205535888671875,-0.02301025390625
1772807048345156900,8.163156982421874,-0.9959716796875,-0.021026611328125,-0.0237579345703125
1772807048355089000,8.1730888671875,-0.996185302734375,-0.0223388671875,-0.023529052734375
1772807048365021000,8.18302099609375,-0.996185302734375,-0.0217132568359375,-0.023651123046875
1772807048374952000,8.192951904296875,-0.9961395263671875,-0.0219879150390625,-0.0223388671875
1772807048384884000,8.202884033203125,-0.9968414306640625,-0.02093505859375,-0.022186279296875
1772807048394816000,8.21281591796875,-0.995758056640625,-0.020050048828125,-0.0213470458984375
1772807048404748000,8.222748046875,-0.996246337890625,-0.0209197998046875,-0.0213623046875
1772807048414678800,8.2326787109375,-0.9948883056640625,-0.0205535888671875,-0.02301025390625
1772807048424610800,8.24261083984375,-0.99566650390625,-0.020721435546875,-0.02410888671875
1772807048434542800,8.25254296875,-0.99639892578125,-0.02117919921875,-0.024688720703125
1772807048444473900,8.262473876953125,-0.997314453125,-0.0220794677734375,-0.0235443115234375
1772807048454406100,8.27240625,-0.995208740234375,-0.02337646484375,-0.0224609375
1772807048464338000,8.282337890625,-0.9956512451171875,-0.0228729248046875,-0.0216217041015625
1772807048474270000,8.29227001953125,-0.99700927734375,-0.023162841796875,-0.022247314453125
1772807048484201000,8.302200927734376,-0.995269775390625,-0.0230712890625,-0.0228118896484375
1772807048494133000,8.312133056640626,-0.9953460693359375,-0.02227783203125,-0.02349853515625
1772807048504066000,8.322066162109374,-0.995574951171875,-0.022064208984375,-0.025390625
1772807048513996800,8.331996826171874,-0.9959564208984375,-0.0234527587890625,-0.02398681640625
1772807048523928800,8.3419287109375,-0.9955902099609375,-0.0220947265625,-0.0231781005859375
1772807048533860900,8.35186083984375,-0.9952392578125,-0.0215301513671875,-0.0230255126953125
1772807048543793000,8.36179296875,-0.9962615966796875,-0.021484375,-0.0225982666015625
1772807048553724000,8.371723876953125,-0.996612548828125,-0.021514892578125,-0.0214385986328125
1772807048563655200,8.3816552734375,-0.9961700439453125,-0.0207977294921875,-0.02423095703125
1772807048573587000,8.3915869140625,-0.995635986328125,-0.0215911865234375,-0.024017333984375
1772807048583518000,8.40151806640625,-0.99658203125,-0.0211944580078125,-0.02496337890625
1772807048593450000,8.411449951171875,-0.994903564453125,-0.0194091796875,-0.022247314453125
1772807048603382000,8.421382080078125,-0.997039794921875,-0.0218353271484375,-0.023193359375
1772807048613313000,8.43131298828125,-0.9962005615234375,-0.0217742919921875,-0.0216064453125
1772807048623245000,8.4412451171875,-0.9943695068359375,-0.0225067138671875,-0.0222015380859375
1772807048633177000,8.451177001953125,-0.9970550537109375,-0.0220794677734375,-0.0236358642578125
1772807048643109000,8.461109130859375,-1.0050201416015625,-0.0212249755859375,-0.02728271484375
1772807048653039900,8.471039794921875,-1.0028839111328125,-0.022430419921875,-0.0261383056640625
1772807048662972000,8.480971923828125,-0.9726104736328125,-0.0250244140625,-0.01263427734375
1772807048672904000,8.490904052734376,-1.0111236572265625,-0.0222625732421875,-0.0280609130859375
1772807048682835200,8.500835205078126,-0.988922119140625,-0.023773193359375,-0.0160369873046875
1772807048692767200,8.510767333984376,-0.9974365234375,-0.0230255126953125,-0.02020263671875
1772807048702699000,8.520698974609376,-0.9949798583984375,-0.0234375,-0.019378662109375
1772807048712631000,8.530631103515624,-0.9969329833984375,-0.022003173828125,-0.02264404296875
1772807048722562000,8.54056201171875,-0.99249267578125,-0.0237274169921875,-0.022186279296875
1772807048732494000,8.550494140625,-0.9960174560546875,-0.0235137939453125,-0.02227783203125
1772807048742425900,8.56042578125,-0.996734619140625,-0.02105712890625,-0.0211029052734375
1772807048752357000,8.570357177734374,-0.9950714111328125,-0.021881103515625,-0.02056884765625
1772807048762289200,8.5802890625,-0.9963836669921875,-0.020355224609375,-0.0209503173828125
1772807048772221200,8.59022119140625,-0.9940185546875,-0.0223541259765625,-0.019927978515625
1772807048782153200,8.6001533203125,-0.9878997802734375,-0.022796630859375,-0.0186004638671875
1772807048792084000,8.610083984375,-1.002410888671875,-0.0197906494140625,-0.0268707275390625
1772807048802016000,8.62001611328125,-1.015289306640625,-0.01947021484375,-0.0332489013671875
1772807048811948000,8.629947998046875,-0.987030029296875,-0.02294921875,-0.01824951171875
