time,seconds_elapsed,z,y,x
1772807040268198400,0.086198486328125,-0.00012156984303146601,0.007742130663245916,0.0028046027291566133
1772807040278130400,0.09613037109375,0.0012752581387758255,-0.010945537127554417,-0.0013451349223032594
1772807040288062500,0.1060625,0.00012777844676747918,-0.000028499402105808258,-0.0013256283709779382
1772807040297993500,0.115993408203125,0.0004393683047965169,0.012112585827708244,0.0022669758182018995
1772807040307925500,0.125925537109375,0.001285863108932972,-0.002733413828536868,-0.00360136479139328
1772807040317857500,0.135857421875,-0.0036569638177752495,-0.003688157070428133,0.0003678102802950889
1772807040327788500,0.14578857421875,0.0003069167141802609,0.005369939375668764,0.0023088024463504553
1772807040337720600,0.155720458984375,0.0014411569572985172,0.0022620302625000477,0.0000025048484530998394
1772807040347652400,0.16565234375,-0.0002541913418099284,-0.0071142748929560184,0.0012995445868000388
1772807040357583600,0.17558349609375,0.0014254642883315682,0.002186549361795187,0.00006809885962866247
1772807040367515600,0.185515625,0.0008217750582844019,0.003919238690286875,0.002828744472935796
1772807040377447700,0.19544775390625,0.0006950086099095643,-0.0025213498156517744,-0.001931389793753624
1772807040387379700,0.205379638671875,0.0015042047016322613,-0.003334070323035121,-0.0023852852173149586
1772807040397310500,0.215310546875,-0.0013054301962256432,0.0011070170439779758,0.000214492465602234
1772807040407242500,0.225242431640625,-0.00026599527336657047,-0.000995661597698927,0.0016986046684905887
1772807040417174500,0.235174560546875,-0.0013166123535484076,-0.0029368395917117596,0.0005350696737878025
1772807040427105500,0.24510546875,0.001515281037427485,0.0013356301933526993,0.0017864761175587773
1772807040437037600,0.25503759765625,0.001631394843570888,-0.0024372702464461327,0.0005222735926508904
1772807040446969600,0.264969482421875,-0.00033714098390191793,-0.0028543914668262005,0.000178139001945965
1772807040456901600,0.274901611328125,0.0009704710682854056,0.0014282381162047386,-0.0026030002627521753
1772807040466832600,0.28483251953125,0.0005081539275124669,0.002391387242823839,-0.0014934471109881997
1772807040476764400,0.294764404296875,-0.0018556679133325815,-0.0018736650235950947,-0.00010141282109543681
1772807040486696400,0.304696533203125,-0.0005819516954943538,0.0014122538268566132,0.0013447508681565523
1772807040496627500,0.31462744140625,0.00006413116352632642,0.0024871057830750942,0.0010773694375529885
1772807040506559500,0.3245595703125,0.0006771963671781123,-0.0022840620949864388,0.0016545566031709313
1772807040516491800,0.33449169921875,-0.0001862004864960909,-0.0008848374709486961,0.0013421678449958563
1772807040526422500,0.344422607421875,0.0009279764490202069,-0.0014210832305252552,0.0014880289090797305
1772807040536354600,0.3543544921875,-0.0002712450223043561,0.0002734861336648464,0.0007961395895108581
1772807040546286600,0.36428662109375,0.0010404119966551661,-0.002116777002811432,0.00017624875181354582
1772807040556219100,0.37421923828125,-0.0011569621274247766,-0.0013993214815855026,-0.001008591614663601
1772807040566150000,0.38414990234375,-0.00353575823828578,0.000599381048232317,0.000042025421862490475
1772807040576082000,0.39408203125,-0.002006571041420102,0.002245214767754078,-0.0029801297932863235
1772807040586014000,0.404013916015625,0.0018433529185131192,-0.001724302303045988,0.0017758363392204046
1772807040595945200,0.4139453125,0.0006995252333581448,0.0027042683213949203,0.0019220438553020358
1772807040605877000,0.423876953125,-0.0017060845857486129,-0.0006499434821307659,-0.0016111297300085425
1772807040615809000,0.43380908203125,-0.0002488029422238469,-0.001167661976069212,-0.0009605194209143519
1772807040625740000,0.443739990234375,0.003677554428577423,-0.0005698567256331444,0.0014923157868906856
1772807040635672000,0.453672119140625,0.0010415575234219432,-0.003967784345149994,-0.0008755007293075323
1772807040645604000,0.46360400390625,-0.00021104828920215368,0.00039656227454543114,0.002621897030621767
1772807040655535900,0.473535888671875,-0.0003231674199923873,-0.0021057440899312496,0.0009768623858690262
1772807040665467100,0.483467041015625,-0.0002801999216899276,-0.0007908572442829609,0.00230698985978961
1772807040675399200,0.493399169921875,-0.0025105972308665514,-0.00022653350606560707,0.0005567605257965624
1772807040685331200,0.503331298828125,-0.0005096367094665766,-0.0005979696288704872,0.0012226345716044307
1772807040695262000,0.513261962890625,0.0007622889243066311,-0.000662684440612793,-0.001260496792383492
1772807040705194000,0.523194091796875,-0.0007844296051189303,-0.0010791448876261711,-0.00104908540379256
1772807040715126000,0.5331259765625,0.0008278480963781476,0.0006820033304393291,0.001402354333549738
1772807040725057000,0.54305712890625,-0.0010441853664815426,-0.0010881489142775536,-0.0003828289045486599
1772807040734988800,0.55298876953125,-0.00023138849064707756,-0.0013328935019671917,0.0016291893552988768
1772807040744921000,0.562921142578125,0.001319702947512269,-0.003728632116690278,0.00020208768546581268
1772807040754853000,0.57285302734375,0.00010689947521314025,-0.00009261863306164742,-0.0012533299159258604
1772807040764784000,0.5827841796875,-0.0012492737732827663,0.0007037767209112644,0.0009295709314756095
1772807040774716200,0.592716064453125,0.00012518366565927863,0.0010475912131369114,-0.0002837652282323688
1772807040784648000,0.60264794921875,0.0025564772076904774,0.0013799536973237991,-0.0007421912159770727
1772807040794579000,0.612578857421875,-0.000830531120300293,-0.00033538835123181343,0.0023824956733733416
1772807040804511000,0.622510986328125,0.00008934159995988011,0.0008394075557589531,-0.0015527684008702636
1772807040814443000,0.632443115234375,-0.001351162325590849,-0.0014575687237083912,0.00018387893214821815
1772807040824374000,0.6423740234375,-0.0003231137525290251,-0.00216059572994709,-0.0009680361836217344
1772807040834306000,0.65230615234375,0.0014976895181462169,-0.00019065570086240768,-0.001550203305669129
1772807040844238000,0.662238037109375,0.00255924416705966,-0.0006132316775619984,0.0015060694422572851
1772807040854170000,0.672170166015625,-0.002263740636408329,0.0024635186418890953,0.0009923456236720085
1772807040864100900,0.682100830078125,-0.001301983604207635,0.0018752668984234333,-0.0013370467349886894
1772807040874033000,0.692032958984375,0.002053066622465849,-0.0014219931326806545,0.0005878859665244818
1772807040883965000,0.70196484375,-0.0008065956644713879,0.001145846676081419,0.0005064452416263521
1772807040893896200,0.711896240234375,0.0015305945416912436,0.0007437095046043396,-0.0007564257248304784
1772807040903828200,0.721828125,0.0013013773132115602,0.001372897531837225,0.0008920193649828434
1772807040913760000,0.731760009765625,-0.00039985007606446743,-0.000024196691811084747,-0.0013724664459004998
1772807040923692000,0.741692138671875,-0.00006695964839309454,-0.001743906643241644,-0.0008402580278925598
1772807040933623000,0.751623046875,-0.0006765571888536215,-0.0005295053124427795,-0.001225084881298244
1772807040943555000,0.76155517578125,0.0011524735018610954,-0.0010539819486439228,-0.0003657953639049083
1772807040953486800,0.77148681640625,0.001320518902502954,-0.0024702511727809906,-0.0009261244558729231
1772807040963418000,0.781418212890625,0.00032277818536385894,0.0005577104166150093,0.0011734523577615619
1772807040973350100,0.79135009765625,-0.0011512814089655876,-0.001535001676529646,0.0006490758969448507
1772807040983282200,0.8012822265625,0.0025965836830437183,-0.00008812732994556427,-0.00004106576307094656
1772807040993213000,0.811212890625,0.002084191422909498,-0.00005031051114201546,0.0001160607353085652
1772807041003145000,0.82114501953125,0.0011010839371010661,-0.0016486183740198612,-0.001572123495861888
1772807041013077000,0.831076904296875,-0.0013053483562543988,-0.0018089404329657555,-0.0009409543708898127
1772807041023009000,0.841009033203125,0.001129143638536334,0.0004527815617620945,-0.001241143443621695
1772807041032940000,0.85093994140625,-0.0023982133716344833,0.0002298750914633274,0.0005775293102487922
1772807041042872000,0.8608720703125,-0.0025787162594497204,-0.0016467254608869553,0.002214902313426137
1772807041052804000,0.87080419921875,0.0018266849219799042,0.0005874005146324635,-0.001129229087382555
1772807041062735000,0.880735107421875,0.0009142615599557757,-0.00029745325446128845,-0.0007416264852508903
1772807041072667100,0.890667236328125,-0.0011837766505777836,0.0027183103375136852,-0.00035813130671158433
1772807041082599000,0.900598876953125,-0.001114334212616086,0.0008146781474351883,-0.0006453415844589472
1772807041092530000,0.910530029296875,-0.000052798306569457054,0.001447711605578661,-0.001311131869442761
1772807041102462000,0.9204619140625,0.0004417987074702978,0.00025502126663923264,-0.0006096691940911114
1772807041112394000,0.93039404296875,0.0015448799822479486,-0.002185765653848648,-0.0004091331793460995
1772807041122326000,0.940325927734375,-0.0008133668452501297,-0.0009641861543059349,-0.0002474788052495569
1772807041132257000,0.950257080078125,-0.00038939155638217926,-0.0003492622636258602,-0.001130050397478044
1772807041142189000,0.96018896484375,-0.00031595188193023205,-0.0013351836241781712,-0.000006534817657666281
1772807041152121000,0.97012109375,-0.0003753404598683119,-0.0019927178509533405,0.0012986804358661175
1772807041162052000,0.980052001953125,0.0004207883612252772,-0.0006824345327913761,-0.0007150914170779288
1772807041171984000,0.98998388671875,-0.0006506013451144099,-0.00030932575464248657,0.0004489762941375375
1772807041181916000,0.999916015625,-0.00021018541883677244,0.0026111556217074394,-0.00041346735088154674
1772807041191848000,1.009847900390625,-0.0010323033202439547,-0.0007257852703332901,-0.0007492919685319066
1772807041201779200,1.019779296875,0.00024730642326176167,-0.001039396971464157,0.0006507267244160175
1772807041211711000,1.0297109375,0.0024217774625867605,-0.0014596437104046345,0.0012195779709145427
1772807041221643000,1.03964306640625,0.0006089748931117356,0.00035437243059277534,0.0011938384268432856
1772807041231574000,1.049573974609375,-0.00043818005360662937,-0.0002938411198556423,0.001245770021341741
1772807041241506000,1.059506103515625,-0.0007967121200636029,-0.0005894387140870094,-0.0002339711063541472
1772807041251438000,1.06943798828125,0.00141344522126019,-0.0001308424398303032,-0.0016467779641970992
1772807041261369000,1.079369140625,-0.0006480863085016608,-0.0011806590482592583,0.0014354673912748694
1772807041271301000,1.089301025390625,-0.00046912196557968855,0.0016015456058084965,-0.00008786072430666536
1772807041281233200,1.099233154296875,-0.0013278393307700753,-0.00043002236634492874,-0.0010453630238771439
1772807041291165200,1.109165283203125,-0.0015161248156800866,0.000385969877243042,-0.000025105935492319986
1772807041301096000,1.119095947265625,0.0017349307890981436,-0.0012081842869520187,0.0009545354405418038
1772807041311028000,1.129028076171875,0.00014449103036895394,-0.0001335986889898777,0.001118586165830493
1772807041320960000,1.1389599609375,0.001332629006356001,0.00004698801785707474,0.00019313297525513917
1772807041330891000,1.14889111328125,-0.0007204018766060472,-0.0024097783025354147,0.00045225853682495654
1772807041340823000,1.158822998046875,0.0015872055664658546,-0.001377621665596962,-0.0013858407037332654
1772807041350755000,1.168755126953125,0.0005882538389414549,-0.0009483201429247856,-0.0016574830515310168
1772807041360686000,1.17868603515625,0.00010499835480004549,-0.0003416570834815502,0.0015571118565276265
1772807041370618000,1.1886181640625,0.0008597382111474872,0.00002985401079058647,-0.0015848855255171657
1772807041380550100,1.198550048828125,-0.0011265674838796258,0.002407276537269354,-0.00032468282734043896
1772807041390482000,1.20848193359375,0.0015989115927368402,-0.001313691958785057,0.0003722664259839803
1772807041400413000,1.218412841796875,0.0001809712266549468,-0.00226126192137599,0.0007715540705248713
1772807041410345000,1.228344970703125,0.00029362289933487773,-0.0010535186156630516,0.00010123643733095378
1772807041420277000,1.238277099609375,-0.0025954670272767544,-0.0005915355868637562,0.000005559882993111387
1772807041430208000,1.2482080078125,-0.0012604242656379938,0.000675862655043602,-0.00022613511828240007
1772807041440140000,1.25814013671875,-0.001127899857237935,0.0013391952961683273,-0.0008385332766920328
1772807041450072000,1.268072021484375,0.0007962341187521815,-0.0021058698184788227,-0.0001423829817213118
1772807041460003000,1.278003173828125,0.001216772012412548,0.0005679628811776638,-0.002438371069729328
1772807041469934800,1.287934814453125,-0.0005779322236776352,-0.0006517646834254265,-0.0008324848022311926
1772807041479867000,1.297866943359375,0.0015769472811371088,-0.004155391827225685,-0.001940660527907312
1772807041489799000,1.307798828125,-0.00047634984366595745,0.000565859954804182,-0.0006365106673911214
1772807041499730200,1.317730224609375,-0.000339271267876029,-0.00026735011488199234,-0.0001203366118716076
1772807041509662200,1.327662109375,-0.0007099832873791456,-0.0007704212330281734,-0.00036454846849665046
1772807041519594000,1.337593994140625,0.0005567443440668285,-0.0013781082816421986,-0.0004795898566953838
1772807041529525000,1.34752490234375,0.0013921780046075583,0.000337233766913414,0.00038354063872247934
1772807041539457000,1.35745703125,0.0002856081700883806,-0.00039358530193567276,-0.0012852554209530354
1772807041549389000,1.36738916015625,-0.0014766055392101407,-0.000639661680907011,0.0014538057148456573
1772807041559319300,1.3773193359375,0.0005886628641746938,0.0002487138845026493,0.0002686633379198611
1772807041569251300,1.387251220703125,0.001223027822561562,-0.0034733202774077654,0.0013381887692958117
1772807041579183000,1.39718310546875,-0.00032048975117504597,0.0005567637272179127,0.0026874684263020754
1772807041589115100,1.407115234375,-0.001329561579041183,0.000035050325095653534,0.002516493434086442
1772807041599046100,1.417046142578125,0.0030408650636672974,0.0003373231738805771,-0.0009885794715955853
1772807041608978200,1.426978271484375,-0.0013474916340783238,0.00010536191985011101,-0.0004056135076098144
1772807041618910200,1.43691015625,-0.001258335541933775,-0.0004629609175026417,0.0020353796426206827
1772807041628841200,1.44684130859375,0.0026599732227623463,-0.0007037105970084667,0.00187266047578305
1772807041638773200,1.456773193359375,0.0012801976408809423,0.0008673346601426601,0.0015608960529789329
1772807041648705300,1.466705322265625,0.0019699563272297382,-0.0027987731155008078,-0.0009669765131548047
1772807041658636000,1.476635986328125,0.0008599967113696039,-0.0005311244167387486,0.002543986774981022
1772807041668568000,1.486568115234375,0.0009260430815629661,-0.002614515135064721,0.0006776436348445714
1772807041678500000,1.4965,0.00007790094241499901,-0.000430369284003973,-0.0005491110496222973
1772807041688432000,1.50643212890625,-0.0002027961891144514,-0.0010530161671340466,0.0007632947526872158
1772807041698363400,1.51636328125,0.0008734192815609276,-0.00018185749650001526,0.00032472689053975046
1772807041708295200,1.526295166015625,0.0005035062204115093,0.0015667742118239403,0.0002640068414621055
1772807041718227200,1.536227294921875,-0.001283313729800284,0.0003578783944249153,-0.0005981654394418001
1772807041728158200,1.546158203125,0.0006733107729814947,-0.0008096513338387012,-0.0012333292979747057
1772807041738090200,1.55609033203125,0.00020169222261756659,0.0017098276875913143,0.0006666257977485657
1772807041748022300,1.566022216796875,-0.0002502461429685354,-0.0004923404194414616,0.00009377989044878632
1772807041757953300,1.575953369140625,-0.0036918502300977707,0.001677636057138443,0.0003966395161114633
1772807041767885300,1.58588525390625,0.0014725517248734832,-0.00047632819041609764,0.001038727699778974
1772807041777817300,1.5958173828125,0.0007186810253188014,-0.0009642397053539753,0.0003467799979262054
1772807041787749400,1.605749267578125,-0.0004632298368960619,-0.0029949001036584377,-0.00016934059385675937
1772807041797680000,1.61568017578125,0.0009986135410144925,-0.0006524687632918358,-0.0010842090705409646
1772807041807612200,1.625612060546875,0.0016750565264374018,-0.0011089346371591091,0.0010668261675164104
1772807041817544200,1.635544189453125,0.0016422015614807606,-0.00014631636440753937,-0.001423853449523449
1772807041827475200,1.64547509765625,0.0001724030007608235,0.000995913054794073,0.0007721891161054373
1772807041837407200,1.6554072265625,0.0032410873100161552,-0.001411536242812872,-0.00024995801504701376
1772807041847339300,1.66533935546875,-0.0001437906175851822,-0.0020690709352493286,0.0010552572784945369
1772807041857271300,1.675271240234375,0.0007865592488087714,-0.0016590645536780357,0.0010114653268828988
1772807041867202300,1.685202392578125,0.0012606019154191017,0.002412109635770321,0.00198564981110394
1772807041877134300,1.69513427734375,0.0011419844813644886,-0.0006710812449455261,0.00040031044045463204
1772807041887066000,1.705066162109375,-0.00017175287939608097,-0.000057489145547151566,-0.00042740002390928566
1772807041896997000,1.7149970703125,-0.0001448400435037911,0.00038153165951371193,0.0016377272550016642
1772807041906929200,1.72492919921875,0.0017633148236200213,0.002442551776766777,0.0013759385328739882
1772807041916861200,1.734861083984375,-0.0009577812743373215,-0.00079315435141325,-0.00031647866126149893
1772807041926792200,1.744792236328125,-0.0005686934455297887,-0.002069074660539627,-0.0008983793086372316
1772807041936724200,1.75472412109375,0.0014182961313053966,-0.0005718083120882511,0.0006951062823645771
1772807041946656300,1.76465625,0.000053426134400069714,-0.0009166877716779709,0.0006844536401331425
1772807041956587300,1.774587158203125,-0.0008990379865281284,0.0005224612541496754,0.00003959677997045219
1772807041966519000,1.78451904296875,-0.00020421930821612477,0.00012831343337893486,-0.0006829187623225152
1772807041976451000,1.794451171875,0.002403748221695423,0.0005044480785727501,-0.0008976027020253241
1772807041986383000,1.804383056640625,-0.0016152278985828161,-0.0008795964531600475,-0.0029833903536200523
1772807041996314400,1.814314453125,0.0005823708488605917,-0.001080907415598631,0.0015266293194144964
1772807042006246100,1.82424609375,-0.000472773564979434,0.0017785290256142616,-0.0021594518329948187
1772807042016178200,1.83417822265625,0.0011047772131860256,0.000275168102234602,0.00025586134870536625
1772807042026109200,1.844109130859375,0.0015974619891494513,0.0003851568326354027,-0.0008048757445067167
1772807042036041200,1.854041259765625,-0.0011212672106921673,0.0008723391219973564,-0.0007902705110609531
1772807042045973200,1.86397314453125,-0.000043219595681875944,-0.00007920805364847183,-0.000542862864676863
1772807042055904300,1.873904296875,0.000996570335701108,0.0006366311572492123,0.0013325033942237496
1772807042065836300,1.883836181640625,0.0009467692580074072,0.0008315746672451496,-0.0021043058950453997
1772807042075768300,1.893768310546875,-0.00010320282308384776,-0.003258818294852972,-0.00034028940717689693
1772807042085700400,1.903700439453125,-0.0005428906879387796,-0.003498768899589777,-0.00010193647904088721
1772807042095631000,1.913631103515625,-0.0002634752308949828,0.0013201916590332985,-0.0003302643890492618
1772807042105563100,1.923563232421875,0.0022004814818501472,0.0003470722585916519,0.00014377827756106853
1772807042115495200,1.9334951171875,0.0023799261543899775,0.0015613418072462082,0.00007766986527713016
1772807042125426200,1.94342626953125,0.0011101309210062027,-0.0014653406105935574,0.00047155137872323394
1772807042135358200,1.953358154296875,-0.000658435863442719,-0.00005544722080230713,-0.000879349303431809
1772807042145290200,1.963290283203125,-0.00012580363545566797,-0.0014637266285717487,0.000006684370418952312
1772807042155221200,1.97322119140625,0.00043344247387722135,-0.001062124501913786,-0.00361436209641397
1772807042165153300,1.9831533203125,-0.001582304248586297,0.0015384522266685963,-0.0011448130244389176
1772807042175085300,1.993085205078125,-0.0015989330131560564,0.000987321138381958,-0.0017941512633115053
1772807042185017000,2.00301708984375,0.001645063515752554,-0.001163980457931757,-0.00046976126031950116
1772807042194948000,2.012947998046875,0.0007708308403380215,0.001569884829223156,0.0008661748142912984
1772807042204880100,2.022880126953125,-0.00012425752356648445,0.0016324687749147415,-0.0014579658163711429
1772807042214812200,2.032812255859375,-0.0012058313004672527,0.0007773051038384438,-0.002449257532134652
1772807042224743200,2.0427431640625,-0.000194895314052701,-0.0009106062352657318,-0.0010292601073160768
1772807042234675200,2.05267529296875,0.0005364887183532119,0.0007362612523138523,0.0013231708435341716
1772807042244607200,2.062607177734375,-0.0014883126132190228,0.0003229384310543537,-0.0023463990073651075
1772807042254539300,2.072539306640625,-0.0005640945164486766,-0.001851361244916916,0.0007635370129719377
1772807042264470000,2.082469970703125,-0.0005723503418266773,0.002178533934056759,-0.0025859205052256584
1772807042274402000,2.092402099609375,0.0003380571724846959,-0.0005051870830357075,-0.00030763563700020313
1772807042284334000,2.102333984375,0.0004312678356654942,-0.0004788218066096306,0.003304676152765751
1772807042294265300,2.112265380859375,0.002060358878225088,-0.002293745521456003,0.0007814856944605708
1772807042304197400,2.122197265625,0.0009522174368612468,-0.0021158461458981037,-0.0012811325723305345
1772807042314129200,2.132129150390625,0.0009511050302535295,-0.0007704342715442181,-0.0000606801149842795
1772807042324060200,2.14206005859375,0.00021767045836895704,0.0001211920753121376,0.0008168314234353602
1772807042333992200,2.1519921875,-0.0015882222214713693,-0.0012334608472883701,0.0011739576002582908
1772807042343924200,2.16192431640625,-0.000977825722657144,-0.0012100250460207462,-0.000028459580789785832
1772807042353855200,2.171855224609375,-0.0007993601029738784,0.00036587566137313843,-0.00011878946679644287
1772807042363787300,2.181787353515625,-0.0003138658357784152,-0.001400332897901535,-0.0007369091617874801
1772807042373719300,2.19171923828125,-0.0007617830997332931,-0.0006656576879322529,-0.00032196659594774246
1772807042383651300,2.2016513671875,0.0012089561205357313,-0.0017975014634430408,0.0014746019151061773
1772807042393582000,2.21158203125,0.0009676737245172262,-0.0018454380333423615,-0.001221848651766777
1772807042403514000,2.22151416015625,0.0014653176767751575,0.00042090145871043205,-0.0009673880995251238
1772807042413446100,2.231446044921875,0.002220490016043186,-0.0005106586031615734,0.0010653652716428041
1772807042423377200,2.241377197265625,-0.0007662450661882758,0.000008657574653625488,0.001347926678135991
1772807042433309400,2.251309326171875,-0.0013573020696640015,0.0008320366032421589,-0.0015699260402470827
1772807042443241200,2.2612412109375,-0.000019862549379467964,0.00005093170329928398,0.00040374265518039465
1772807042453172200,2.271172119140625,-0.00004424725193530321,-0.0004286225885152817,-0.0003498184960335493
1772807042463104300,2.281104248046875,-0.0027039460837841034,-0.0006398111581802368,-0.0021591701079159975
1772807042473036300,2.291036376953125,0.0020801969803869724,0.0006062430329620838,-0.0013854457065463066
1772807042482968000,2.300968017578125,0.000600012019276619,0.000550583004951477,0.00022363613243214786
1772807042492899000,2.310899169921875,0.0015252955490723252,-0.0007850187830626965,0.00013894007133785635
1772807042502831000,2.3208310546875,0.0017439411021769047,-0.0012207119725644588,-0.0025804138276726007
1772807042512763100,2.33076318359375,0.00046305503929033875,-0.001966973766684532,-0.00030444248113781214
1772807042522694100,2.340694091796875,0.000505399308167398,0.0008988538756966591,-0.00030284456443041563
1772807042532626200,2.350626220703125,0.0002587480121292174,0.00130122946575284,-0.001506623812019825
1772807042542558200,2.36055810546875,-0.0002829389413818717,-0.0031363959424197674,-0.000512732076458633
1772807042552490200,2.370490234375,-0.0006783837452530861,-0.0009262096136808395,-0.0006910881493240595
1772807042562422300,2.38042236328125,0.0012167217209935188,-0.0006439145654439926,0.002524679061025381
1772807042572354000,2.39035400390625,0.0006318470113910735,-0.002684079809114337,0.0013477803440764546
1772807042582286000,2.4002861328125,0.0011048244778066874,-0.002442264696583152,0.0024836186785250902
1772807042592217000,2.410217041015625,0.0025405348278582096,0.00009913602843880653,-0.0007320901495404541
1772807042602149400,2.4201494140625,0.00010640564141795039,-0.0015341807156801224,-0.0012010728241875768
1772807042612081200,2.4300810546875,0.0024596992880105972,0.0011390172876417637,-0.00229487381875515
1772807042622012200,2.44001220703125,-0.002560892142355442,0.0011637844145298004,-0.0003118840977549553
1772807042631944200,2.449944091796875,-0.0016020383918657899,-0.0014686197973787785,0.0021296185441315174
1772807042641876200,2.459876220703125,0.0001726922346279025,-0.00030694901943206787,0.001177272293716669
1772807042651807000,2.469806884765625,0.0007257310207933187,0.0009650280699133873,-0.00012139833415858448
1772807042661739000,2.479739013671875,0.0014626276679337025,-0.00043952278792858124,0.00236839079298079
1772807042671671000,2.489671142578125,-0.00005679018795490265,-0.001565026119351387,0.000362457794835791
1772807042681603000,2.49960302734375,0.0013288524933159351,0.0013122530654072762,0.0015342487022280693
1772807042691534300,2.509534423828125,0.0006500810850411654,-0.00008138222619891167,0.0011575361713767052
1772807042701466000,2.519466064453125,0.0016514296876266599,-0.0017943275161087513,-0.00026539069949649274
1772807042711398100,2.529398193359375,-0.001209680107422173,-0.0012792875058948994,0.00134024687577039
1772807042721329200,2.5393291015625,0.002431393601000309,-0.0010071126744151115,0.0003338383394293487
1772807042731261200,2.54926123046875,-0.0005274910945445299,0.0002767764963209629,-0.000744622724596411
1772807042741193000,2.55919287109375,-0.0008161778096109629,0.0009050159715116024,0.0008247781079262495
1772807042751125000,2.569125,0.001784440246410668,0.0016529960557818413,0.0004927018890157342
1772807042761056300,2.57905615234375,0.0007162463152781129,-0.0013047107495367527,-0.0011704422067850828
1772807042770988300,2.58898828125,0.0012715476332232356,0.0014653243124485016,-0.00017936935182660818
1772807042780920300,2.59892041015625,-0.002410272601991892,0.0013571996241807938,-0.0013325181789696217
1772807042790851000,2.60885107421875,-0.001580440322868526,0.0004532341845333576,-0.000206118100322783
1772807042800783000,2.618783203125,0.0005367727135308087,-0.0002841949462890625,0.0020165559835731983
1772807042810715100,2.628715087890625,0.0003620028728619218,0.00019975658506155014,-0.0006083836778998375
1772807042820646100,2.638646240234375,0.00022112170699983835,0.0017001815140247345,0.002281678607687354
1772807042830578200,2.648578125,0.001928852405399084,0.0005854503251612186,0.0003736305807251483
1772807042840510200,2.65851025390625,-0.00029675127007067204,0.002364175859838724,0.00033528104540891945
1772807042850442200,2.668442138671875,-0.0007759518921375275,0.0004235329106450081,-0.0014050813624635339
1772807042860373200,2.678373291015625,0.0021833525970578194,0.0024342196993529797,-0.0016173353651538491
1772807042870305000,2.688304931640625,0.00029016798362135887,-0.00215795636177063,-0.0010204933350905776
1772807042880237000,2.698237060546875,-0.0003974601859226823,-0.0014801817014813423,-0.0002223440387751907
1772807042890168000,2.70816796875,0.0005147492629475892,0.00022944947704672813,0.001984096597880125
1772807042900100400,2.718100341796875,0.0025017336010932922,-0.0017487462610006332,0.0008890046738088131
1772807042910032400,2.728032470703125,0.0011180822039023042,-0.001337581779807806,-0.0003919470473192632
1772807042919963100,2.737963134765625,0.0003335149376653135,-0.001051558181643486,0.0015380457043647766
1772807042929895200,2.747895263671875,0.0029251547530293465,-0.0039314464665949345,0.001308953738771379
1772807042939827200,2.7578271484375,-0.0007742422167211771,-0.0017604376189410686,-0.001924922689795494
1772807042949759200,2.76775927734375,-0.0008671530522406101,-0.0008399607613682747,0.001743836561217904
1772807042959690000,2.77768994140625,0.0003847989719361067,-0.0013102749362587929,-0.0006772431661374867
1772807042969622000,2.7876220703125,-0.00021895533427596092,0.0014361385256052017,0.0006412733346223831
1772807042979554300,2.79755419921875,0.0001253914088010788,0.0004513016901910305,-0.0006040207808837295
1772807042989485300,2.8074853515625,-0.0010279124835506082,-0.0019456790760159492,0.0008521286072209477
1772807042999417000,2.8174169921875,0.0012261869851499796,-0.0006284797564148903,0.002509680110961199
1772807043009349000,2.82734912109375,0.0035085799172520638,-0.0021634912118315697,-0.0002686185762286186
1772807043019280100,2.837280029296875,-0.0004017394967377186,-0.00021725334227085114,-0.0022081988863646984
1772807043029212200,2.847212158203125,-0.003287198022007942,-0.0008310265839099884,-0.0014244798803701997
1772807043039144200,2.857144287109375,-0.00009539932943880558,-0.000024621374905109406,0.0008906061411835253
1772807043049076000,2.867075927734375,0.0012779819080606103,0.0006027398630976677,0.0014498636592179537
1772807043059007200,2.87700732421875,-0.0008810427971184254,0.00019607506692409515,-0.0025941464118659496
1772807043068939300,2.886939208984375,0.002178473863750696,0.0011773575097322464,0.0031614499166607857
1772807043078871300,2.896871337890625,0.0024178922176361084,-0.003020050935447216,0.0005379699869081378
1772807043088802000,2.906802001953125,-0.0001251804642379284,-0.0015767798759043217,-0.00025521579664200544
1772807043098734000,2.916734130859375,0.00032968749292194843,0.00011512590572237968,-0.0003217948251403868
1772807043108666000,2.926666015625,-0.000045893481001257896,0.00021681562066078186,-0.000017507869415567257
1772807043118597400,2.936597412109375,0.0005836778436787426,-0.00043006613850593567,-0.00032483667018823326
1772807043128529200,2.946529052734375,-0.0015295901102945209,-0.00010060099884867668,0.0014092852361500263
1772807043138461200,2.956461181640625,-0.0016675418009981513,-0.0004135221242904663,-0.001334836008027196
1772807043148393200,2.966393310546875,0.0024373671039938927,0.0013791625387966633,-0.0002771358413156122
1772807043158324200,2.97632421875,0.00027514679823070765,-0.001128203235566616,0.00031541750649921596
1772807043168256000,2.986256103515625,0.0012218187330290675,0.0001027798280119896,0.0006861925940029323
1772807043178188000,2.99618798828125,-0.0005667601944878697,-0.0012889881618320942,0.003516600001603365
1772807043188119300,3.006119384765625,-0.00033287564292550087,-0.00015443377196788788,0.0006011079531162977
1772807043198051300,3.01605126953125,0.0006650108844041824,-0.0006923922337591648,-0.0034112106077373028
1772807043207983400,3.0259833984375,0.0007982088718563318,0.0011210627853870392,-0.0014415383338928223
1772807043217914000,3.0359140625,-0.0017501700203865767,0.0010776529088616371,-0.0004673540825024247
1772807043227846100,3.04584619140625,0.0003136185696348548,-0.001403834205120802,0.0001631315244594589
1772807043237778200,3.055778076171875,0.0003793986397795379,0.0001980573870241642,0.000717335322406143
1772807043247710200,3.065710205078125,0.0002296083839610219,-0.001059599220752716,0.0015341488178819418
1772807043257641000,3.075640869140625,-0.00009769410826265812,-0.0001762285828590393,0.0014675698475912213
1772807043267573000,3.085572998046875,-0.00013206538278609514,-0.0014781476929783821,0.0015941625460982323
1772807043277505300,3.09550537109375,0.0020828857086598873,0.0007000518962740898,-0.003309249645099044
1772807043287436300,3.105436279296875,0.0006635335739701986,-0.0024557856377214193,0.00021527934586629272
1772807043297368000,3.1153681640625,0.0015908463392406702,-0.001074403990060091,-0.002024439163506031
1772807043307300000,3.125300048828125,-0.0008052487391978502,0.0026869261637330055,0.0000944802159210667
1772807043317231000,3.135231201171875,0.00012552604312077165,-0.000856675673276186,-0.0006298996158875525
1772807043327163100,3.1451630859375,0.0004699442652054131,0.0013771294616162777,-0.00039132783422246575
1772807043337095200,3.15509521484375,-0.0014030570164322853,0.0009366427548229694,0.001714167301543057
1772807043347027000,3.16502685546875,0.0007691302453167737,0.0012271148152649403,-0.0010456357849761844
1772807043356958200,3.174958251953125,0.0003480844898149371,0.00008834712207317352,-0.0026267545763403177
1772807043366890200,3.18489013671875,0.0001498801284469664,0.0011858092620968819,-0.0008271783590316772
1772807043376822300,3.194822265625,-0.0008972748182713985,0.00020576640963554382,-0.0011281155748292804
1772807043386753000,3.2047529296875,0.0012795606162399054,0.0005755000747740269,-0.0012004985474050045
1772807043396685000,3.21468505859375,0.0011037919903174043,-0.0017339931800961494,-0.0018649572739377618
1772807043406617000,3.2246171875,0.0006458965945057571,-0.00011725397780537605,0.00018677013576962054
1772807043416549000,3.234549072265625,0.0008237957954406738,-0.00047971028834581375,-0.0006268256111070514
1772807043426480000,3.244480224609375,0.0009549265378154814,-0.0005609039217233658,0.001301692216657102
1772807043436412200,3.254412109375,0.0009538612794131041,-0.0009297518990933895,-0.0003380160196684301
1772807043446344200,3.26434423828125,0.001427535549737513,-0.0013313866220414639,0.0013679541880264878
1772807043456275200,3.274275146484375,0.00019369303481653333,0.00036078598350286484,0.00029976031510159373
1772807043466207200,3.284207275390625,0.0007781019667163491,-0.0012605907395482063,-0.00007680855924263597
1772807043476139000,3.294138916015625,0.0015464239986613393,-0.0008030598983168602,-0.0003891973465215415
1772807043486070300,3.3040703125,0.0012004547752439976,-0.0009487960487604141,0.00022877896844875067
1772807043496002300,3.314002197265625,0.0009282797109335661,-0.0005690292455255985,0.0004319781728554517
1772807043505934300,3.323934326171875,-0.001321907970122993,-0.0011599352583289146,0.000590525334700942
1772807043515866400,3.333866455078125,0.001506635220721364,-0.0014523505233228207,-0.0005202791653573513
1772807043525797000,3.343797119140625,-0.002041324507445097,-0.0014967233873903751,0.001060952665284276
1772807043535729200,3.353729248046875,0.0012359616812318563,-0.00041547976434230804,-0.0006269587320275605
1772807043545661200,3.3636611328125,-0.0007291645742952824,0.000784821342676878,-0.0005180540611036122
1772807043555591400,3.37359130859375,0.0004905631649307907,-0.00010520732030272484,0.00119302689563483
1772807043565523500,3.3835234375,-0.001521981437690556,0.0014644954353570938,-0.002983556129038334
1772807043575455500,3.39345556640625,0.0006114768912084401,-0.0019877604208886623,0.0007059871568344533
1772807043585386200,3.40338623046875,0.0031745927408337593,0.0008632554672658443,-0.00019395574054215103
1772807043595318300,3.413318359375,-0.00031095242593437433,-0.0011538229882717133,-0.0007489585550501943
1772807043605250300,3.423250244140625,-0.001129282871261239,0.0001617688685655594,0.0005726927774958313
1772807043615182300,3.433182373046875,0.00037779996637254953,0.0019639302045106888,-0.0012214788002893329
1772807043625113300,3.44311328125,0.0009346843580715358,0.000651305541396141,0.0006156031158752739
1772807043635045400,3.45304541015625,-0.0005987638141959906,0.00022706389427185059,-0.0013197161024436355
1772807043644977400,3.462977294921875,0.0016156705096364021,-0.0005807862617075443,-0.0034437754657119513
1772807043654908400,3.472908447265625,0.0002904815482906997,-0.0013033016584813595,-0.0024884995073080063
1772807043664840200,3.482840087890625,-0.0010944936657324433,-0.0023777144961059093,-0.0012110156239941716
1772807043674772200,3.492772216796875,0.0006544041680172086,-0.0012778290547430515,-0.002283204346895218
1772807043684703200,3.502703125,-0.00024139892775565386,0.0026940787211060524,0.00039787907735444605
1772807043694635300,3.51263525390625,0.0006172041757963598,-0.001448201946914196,-0.00014780262426938862
1772807043704567600,3.522567626953125,0.0018269717693328857,0.00010414840653538704,-0.002446546917781234
1772807043714499300,3.532499267578125,0.0014621187001466751,0.0022149700671434402,-0.0013112412998452783
1772807043724430300,3.542430419921875,0.00031014950945973396,-0.0019867178052663803,0.0006309712189249694
1772807043734362400,3.5523623046875,0.0006212067091837525,-0.0019299923442304134,0.0011556139215826988
1772807043744294400,3.56229443359375,0.0019186828285455704,-0.0009119235910475254,0.0009699166985228658
1772807043754225200,3.57222509765625,0.001477397046983242,-0.0020232610404491425,0.00014540203846991062
1772807043764157200,3.5821572265625,0.00006593961734324694,-0.0013746372424066067,-0.0016439181054010987
1772807043774089200,3.592089111328125,-0.00013592804316431284,-0.00011576106771826744,0.0019319081911817193
1772807043784020500,3.6020205078125,0.0016174460761249065,-0.001278773881494999,-0.0015068143839016557
1772807043793952300,3.6119521484375,-0.0004478354239836335,-0.0007069935090839863,-0.0010610012104734778
1772807043803884300,3.62188427734375,0.0015648368280380964,-0.0007425285875797272,-0.0003337943635415286
1772807043813816300,3.63181640625,-0.001634684856981039,-0.0029572134371846914,0.000060886130086146295
1772807043823747300,3.641747314453125,0.000508890429046005,0.00037338631227612495,0.002035290002822876
1772807043833679400,3.651679443359375,-0.00040776957757771015,0.0008029541932046413,-0.0011037779040634632
1772807043843611100,3.661611083984375,-0.00020004203543066978,-0.004639252554625273,-0.000969701970461756
1772807043853542400,3.67154248046875,0.00032380176708102226,-0.002545208903029561,-0.0009800882544368505
1772807043863474400,3.681474365234375,0.00007956428453326225,0.0020811744034290314,-0.0009772200137376785
1772807043873406500,3.691406494140625,-0.0012187267420813441,-0.0013258079998195171,-0.00037401411100290716
1772807043883337200,3.701337158203125,-0.0011731042759492993,-0.0025032889097929,-0.0017836838960647583
1772807043893269200,3.711269287109375,0.00005780882202088833,-0.0005634422414004803,0.0009148972458206117
1772807043903201300,3.721201171875,0.0004270766512490809,-0.0002419808879494667,-0.0009868217166513205
1772807043913133300,3.73113330078125,0.0010928668780252337,0.00030556507408618927,-0.00020864610269200057
1772807043923064300,3.741064208984375,0.0025081043131649494,0.0004475642926990986,0.00002548734119045548
1772807043932996400,3.750996337890625,-0.0013675939990207553,-0.0005428656004369259,-0.002188132144510746
1772807043942928400,3.760928466796875,0.0011863445397466421,-0.00018594367429614067,-0.0004989386070519686
1772807043952859400,3.770859375,0.00013226544251665473,0.00047212326899170876,-0.0002747004327829927
1772807043962791400,3.78079150390625,-0.002365567721426487,-0.0012680711224675179,-0.00241957139223814
1772807043972723200,3.79072314453125,-0.00010401150211691856,0.00037137046456336975,-0.0008837264613248408
1772807043982655200,3.8006552734375,-0.0011572415241971612,0.0009963992051780224,0.0018811270128935575
1772807043992586500,3.81058642578125,0.0014041867107152939,0.00012234970927238464,-0.0012827083701267838
1772807044002518500,3.8205185546875,-0.0009130530524998903,-0.0006170659326016903,-0.0004044596862513572
1772807044012450300,3.8304501953125,0.00042864744318649173,0.00044340454041957855,-0.0001772920659277588
1772807044022381300,3.84038134765625,0.0003601436037570238,0.0007773940451443195,-0.0007994125480763614
1772807044032313300,3.850313232421875,0.001196642522700131,0.0005195997655391693,-0.0004414837167132646
1772807044042245400,3.860245361328125,-0.000041814520955085754,-0.0007552518509328365,-0.0009724503033794463
1772807044052176100,3.870176025390625,-0.0004410224501043558,-0.0018554036505520344,0.0016832539113238454
1772807044062108200,3.880108154296875,0.0010980006773024797,-0.0005176304839551449,-0.00042499112896621227
1772807044072040200,3.890040283203125,0.0016468781977891922,0.0005164751783013344,0.0009966042125597596
1772807044081972500,3.899972412109375,0.0009339029202237725,-0.00033265119418501854,-0.0014174332609400153
1772807044091903500,3.909903564453125,0.0012082085013389587,-0.0023579848930239677,0.002663062186911702
1772807044101835300,3.919835205078125,-0.0014232827816158533,0.00012944405898451805,0.0001394172722939402
1772807044111767300,3.929767333984375,0.0021858331747353077,-0.002518536988645792,0.0010350383818149567
1772807044121698300,3.9396982421875,0.0009280830272473395,-0.0005583385936915874,0.001835788250900805
1772807044131630300,3.94963037109375,0.00023779168259352446,-0.002460634335875511,0.0003532064729370177
1772807044141562000,3.95956201171875,-0.00006623042281717062,-0.0021492266096174717,-0.0008750938577577472
1772807044151493400,3.969493408203125,-0.000620966893620789,0.0011451039463281631,-0.0020127962343394756
1772807044161425400,3.97942529296875,0.00038254173705354333,-0.003229493508115411,-0.0035157599486410618
1772807044171357400,3.989357421875,0.0008059843676164746,-0.0004957588389515877,0.00047072581946849823
1772807044181288200,3.9992880859375,-0.0001418772735632956,-0.0009127161465585232,-0.00014147147885523736
1772807044191220200,4.00922021484375,-0.0008793065208010375,0.0014835959300398827,-0.001216056989505887
1772807044201152300,4.01915234375,-0.00025895104045048356,-0.0001607281155884266,-0.0009201330249197781
1772807044211083500,4.02908349609375,0.000567161594517529,0.00022756075486540794,0.0014732497511431575
1772807044221015300,4.039015380859375,0.0015618284232914448,0.0006617885082960129,-0.0009381557465530932
1772807044230947300,4.048947265625,-0.0003844096208922565,-0.002634139498695731,0.00015533815894741565
1772807044240878300,4.05887841796875,-0.0008859101217240095,-0.0025479490868747234,-0.00044447823893278837
1772807044250810400,4.068810302734375,0.00041371246334165335,-0.0004855971783399582,-0.0006838963599875569
1772807044260742400,4.078742431640625,0.001406567171216011,0.0012968359515070915,-0.00022852660913486034
1772807044270673200,4.088673095703125,-0.0011380831710994244,-0.0005953400395810604,0.0007232871139422059
1772807044280605400,4.09860546875,-0.0010881333146244287,0.0011654580011963844,0.00047541220556013286
1772807044290537500,4.108537353515625,-0.0002452427870593965,-0.0011770585551857948,-0.0011219517327845097
1772807044300469500,4.118469482421875,-0.0005560008576139808,-0.0006054546684026718,-0.002034230390563607
1772807044310400300,4.128400146484375,0.0006133931456133723,0.0015370585024356842,0.0005255999858491123
1772807044320332300,4.138332275390625,-0.0008736830786801875,0.0011923722922801971,0.0006876263068988919
1772807044330264300,4.148264404296875,0.00023951823823153973,-0.00046517932787537575,0.0013100069481879473
1772807044340195300,4.1581953125,0.00021499430295079947,-0.0008968017064034939,0.00008455607166979462
1772807044350127000,4.168127197265625,0.0003912955289706588,-0.0014496739022433758,0.0008976191747933626
1772807044360059100,4.17805908203125,0.0015687755076214671,-0.0003531710244715214,0.0007708718767389655
1772807044369990400,4.187990478515625,-0.0008797348127700388,0.0006508408114314079,-0.00039905475568957627
1772807044379922400,4.19792236328125,-0.00043048826046288013,-0.0010793227702379227,0.0010566103737801313
1772807044389854500,4.2078544921875,0.00005766912363469601,0.0009287009015679359,-0.00005952044011792168
1772807044399786200,4.2177861328125,0.0010603552218526602,-0.0013060849159955978,0.0003975604195147753
1772807044409717200,4.22771728515625,-0.001379366498440504,0.0005868901498615742,0.0007211344782263041
1772807044419649300,4.237649169921875,-0.00010309851495549083,0.0007162401452660561,0.00006216032488737255
1772807044429581300,4.247581298828125,-0.00016994384350255132,-0.0010390491224825382,0.00035031436709687114
1772807044439512300,4.25751220703125,0.0009100867318920791,-0.0011341478675603867,0.0009720561210997403
1772807044449444400,4.2674443359375,-0.002110736910253763,-0.0014915438368916512,0.0003664533724077046
1772807044459376400,4.27737646484375,-0.00009351578773930669,0.00036392686888575554,0.0009338152594864368
1772807044469308400,4.287308349609375,-0.0013598487712442875,0.0014278599992394447,-0.0032883603125810623
1772807044479239200,4.2972392578125,0.0025862576439976692,-0.00021787779405713081,-0.0010494313901290298
1772807044489171200,4.307171142578125,0.0006623902590945363,0.000921688973903656,-0.0003319758106954396
1772807044499103200,4.317103271484375,0.0005714576691389084,-0.0001804167404770851,0.002597097074612975
1772807044509034500,4.327034423828125,-0.0013841013424098492,0.0006012208759784698,-0.0017449207371100783
1772807044518967300,4.33696728515625,0.00027524103643372655,0.00030550500378012657,0.0006026932969689369
1772807044528899300,4.3468994140625,-0.0016318485140800476,-0.00040049897506833076,0.0012125571956858039
1772807044538831400,4.356831298828125,0.0004796470748260617,-0.0019830181263387203,0.0002363273233640939
1772807044548763400,4.366763427734375,-0.003753181081265211,0.002459400799125433,-0.0007224106229841709
1772807044558694700,4.376694580078125,-0.0012469380162656307,-0.0015435703098773956,0.00045796125777997077
1772807044568626700,4.386626708984375,0.0007453729631379247,0.0008801724761724472,-0.0007007800741121173
1772807044578558700,4.396558837890625,0.00046240969095379114,-0.0011557280085980892,0.0018360769608989358
1772807044588489700,4.40648974609375,-0.0014161842409521341,0.0012115556746721268,-0.00006808323814766482
1772807044598421800,4.416421875,0.0023822151124477386,-0.00027826568111777306,0.0013484613737091422
1772807044608353500,4.426353515625,-0.0017113296780735254,-0.0003206096589565277,0.00038066861452534795
1772807044618284800,4.436284912109375,0.0009616742026992142,0.000007758848369121552,-0.0013121853116899729
1772807044628216800,4.446216796875,-0.0005422128015197814,-0.0013390015810728073,-0.001069038757123053
1772807044638148900,4.45614892578125,0.000729695544578135,-0.0013767187483608723,-0.0004043299413751811
1772807044648080600,4.46608056640625,0.0014865659177303314,0.0017048250883817673,-0.0023830586578696966
1772807044658011600,4.47601171875,0.0001816977746784687,-0.0018899575807154179,-0.0003922535106539726
1772807044667943700,4.485943603515625,-0.0009733151528052986,-0.000012428965419530869,0.00039417794323526323
1772807044677875700,4.495875732421875,0.0009635947644710541,-0.0006299619562923908,-0.0014505714643746614
1772807044687806700,4.505806640625,0.0005590606015175581,-0.002495772438123822,-0.0006550852558575571
1772807044697738800,4.51573876953125,-0.000055127020459622145,0.00015589408576488495,-0.0017306547379121184
1772807044707670800,4.5256708984375,0.0015939022414386272,0.0012744213454425335,-0.0006030723452568054
1772807044717602800,4.535602783203125,-0.000433940498623997,-0.00015983358025550842,0.003013947978615761
1772807044727533800,4.545533935546875,-0.0007993261679075658,-0.0011119134724140167,-0.0015594987198710442
1772807044737465600,4.555465576171875,0.00251063983887434,-0.0013452880084514618,-0.000827395124360919
1772807044747397600,4.565397705078125,0.001692783203907311,-0.0022102827206254005,0.0006618445040658116
1772807044757328600,4.57532861328125,-0.001334472792223096,0.0007809889502823353,-0.0004868104006163776
1772807044767260700,4.5852607421875,0.00028526177629828453,-0.0007404750213027,0.0004887055256403983
1772807044777192700,4.595192626953125,0.0015822042478248477,-0.0013859928585588932,0.0008098953403532505
1772807044787123700,4.605123779296875,-0.0005041161784902215,-0.0033751078881323338,-0.0003062354517169297
1772807044797055700,4.6150556640625,0.001948000630363822,0.00045007746666669846,-0.0000607020701863803
1772807044806987800,4.62498779296875,0.00046781578566879034,0.00021492037922143936,0.0014503755373880267
1772807044816919800,4.634919921875,0.0008914035861380398,0.00024088285863399506,-0.0005620835581794381
1772807044826850600,4.6448505859375,-0.0019467270467430353,0.0004427502863109112,-0.00016447363304905593
1772807044836782600,4.654782470703125,-0.0006305132992565632,-0.0010408274829387665,-0.00010067818948300555
1772807044846714600,4.664714599609375,-0.000624121748842299,-0.0008331011049449444,0.00024260325881186873
1772807044856646000,4.67464599609375,0.0014301843475550413,-0.002429513493552804,0.0012333214981481433
1772807044866577700,4.68457763671875,0.00020033650798723102,-0.0013005994260311127,-0.0005488658789545298
1772807044876509700,4.694509765625,0.0004949552239850163,0.00023969216272234917,-0.0008117295219562948
1772807044886441700,4.704441650390625,-0.0005095890955999494,-0.0005944096483290195,-0.00014460769307333976
1772807044896372700,4.714372802734375,0.0005496147787198424,-0.0016207336448132992,0.0013847571099177003
1772807044906304500,4.724304443359375,0.0005032757762819529,0.00024028355255723,-0.0016520455246791244
1772807044916236500,4.734236572265625,-0.0005965825985185802,-0.0014301734045147896,-0.00011406681005610153
1772807044926167800,4.744167724609375,0.00010116561315953732,0.0003964887000620365,-0.0015111610991880298
1772807044936099800,4.754099853515625,0.0011445394484326243,-0.0008746027015149593,-0.0026174536906182766
1772807044946031900,4.764031982421875,-0.0002123410813510418,-0.0002298513427376747,-0.0015050513902679086
1772807044955962600,4.773962646484375,-0.002307446440681815,0.00028016045689582825,0.0007838371093384922
1772807044965894700,4.783894775390625,-0.0004727947525680065,0.0015861745923757553,-0.0010657282546162605
1772807044975826700,4.79382666015625,0.0001453665317967534,-0.00121407862752676,0.0007048152619972825
1772807044985758700,4.8037587890625,-0.0017097913660109043,-0.000680913683027029,-0.0005564577877521515
1772807044995689700,4.813689697265625,-0.0006036933045834303,0.0016151145100593567,-0.0014069780008867383
1772807045005621800,4.823621826171875,0.00012388231698423624,-0.0005231378600001335,-0.001367030548863113
1772807045015553800,4.8335537109375,-0.0006081924075260758,-0.0012858840636909008,-0.0020426439587026834
1772807045025484800,4.84348486328125,-0.0000811528880149126,-0.0013782959431409836,-0.00011451544560259208
1772807045035416600,4.85341650390625,0.0011487121228128672,-0.001494118943810463,0.0022015043068677187
1772807045045348600,4.8633486328125,0.00220465543679893,-0.0005092821083962917,0.0010147996945306659
1772807045055280600,4.87328076171875,0.00004857446765527129,-0.0011173789389431477,0.0009693733882158995
1772807045065211600,4.883211669921875,0.0004991813329979777,0.0001396331936120987,0.0015648561529815197
1772807045075144000,4.89314404296875,-0.00013862631749361753,0.0008424464613199234,-0.0019054953008890152
1772807045085075700,4.90307568359375,0.00012555927969515324,-0.003594912588596344,-0.0006207864498719573
1772807045095006700,4.9130068359375,0.000684869010001421,0.0010332842357456684,0.001367979566566646
1772807045104938800,4.922938720703125,-0.0005029008025303483,-0.0028136519249528646,0.00011975597590208054
1772807045114870800,4.932870849609375,-0.00043880788143724203,0.0008952771313488483,0.00007454570732079446
1772807045124801500,4.942801513671875,-0.0013176510110497475,-0.00007171649485826492,-0.0025004649069160223
1772807045134733600,4.952733642578125,0.000582078006118536,0.0009185895323753357,0.0009689375874586403
1772807045144665600,4.96266552734375,-0.00005708064418286085,0.0006410880014300346,-0.0016327043995261192
1772807045154597600,4.97259765625,0.0009163228096440434,-0.0010476387105882168,0.0011265529319643974
1772807045164528600,4.982528564453125,0.002229793928563595,-0.0010745367035269737,0.0007313398527912796
1772807045174460700,4.992460693359375,-0.00013794878032058477,-0.00027634482830762863,-0.0012527520302683115
1772807045184392700,5.002392822265625,0.0014751278795301914,-0.0008539846166968346,0.0004929500864818692
1772807045194323700,5.01232373046875,0.0004388674860820174,0.0005496498197317123,-0.0009965169010683894
1772807045204255700,5.022255859375,0.0008175689727067947,-0.0019316175021231174,-0.00331346713937819
1772807045214187500,5.0321875,-0.0019651828333735466,0.0026084333658218384,0.0030563108157366514
1772807045224118800,5.042118896484375,0.0021587221417576075,0.0011543473228812218,-0.0025576327461749315
1772807045234050800,5.05205078125,-0.0015903342282399535,-0.001016472466289997,-0.0014298545429483056
1772807045243982800,5.06198291015625,-0.0009575671283528209,0.0007345560006797314,0.000490817183163017
1772807045253914600,5.07191455078125,0.0011387227568775415,-0.002482388401404023,-3.5890116123482585e-7
1772807045263845600,5.081845703125,0.00023910688469186425,0.0026223589666187763,-0.002276030136272311
1772807045273777700,5.091777587890625,-0.00025195046328008175,-0.00011670729145407677,0.0015697184717282653
1772807045283709700,5.101709716796875,0.0013352935202419758,0.0006798445247113705,0.0011872885515913367
1772807045293640700,5.111640625,0.0012965050991624594,0.0001811431720852852,0.0003179142950102687
1772807045303572700,5.12157275390625,0.0008917046361602843,-0.00133872264996171,-0.0012560138711705804
1772807045313504800,5.1315048828125,-0.00006954814307391644,0.000008231494575738907,-0.0008908980526030064
1772807045323436800,5.141436767578125,0.0012220849748700857,-0.001343056559562683,-0.0011497572995722294
1772807045333367600,5.151367431640625,-0.001101081958040595,-0.00013228971511125565,-0.001172258285805583
1772807045343299600,5.161299560546875,-0.001416666666045785,-0.0020521623082458973,-0.0016340503934770823
1772807045353231600,5.171231689453125,-0.0012211600551381707,-0.0017720279283821583,-0.0022214725613594055
1772807045363163000,5.181162841796875,0.00022440380416810513,0.0015422757714986801,0.002587930066511035
1772807045373095000,5.191094970703125,0.0009248901624232531,-0.00033492688089609146,0.0000474155240226537
1772807045383026700,5.201026611328125,-0.00043305568397045135,-0.0003668847493827343,-0.0011808343697339296
1772807045392957700,5.210957763671875,0.0008237064466811717,-0.0004893066361546516,0.00045559107093140483
1772807045402889700,5.2208896484375,-0.0007805817876942456,0.0017046057619154453,-0.001266675302758813
1772807045412821800,5.23082177734375,0.0016313332598656416,-0.00036291033029556274,-0.0011087279999628663
1772807045422753800,5.24075390625,0.00004968192661181092,-0.001339757815003395,0.0021397958043962717
1772807045432684500,5.2506845703125,0.0014847350539639592,-0.0007442636415362358,0.0025026858784258366
1772807045442616600,5.260616455078125,-0.0008372750598937273,0.0004035588353872299,0.00021476423717103899
1772807045452548900,5.270548828125,0.0004004014772363007,0.0001717694103717804,-0.0016631315229460597
1772807045462479600,5.280479736328125,0.0001681738067418337,-0.00292948167771101,0.0017699493328109384
1772807045472411600,5.29041162109375,-0.0010113022290170193,-0.0021071075461804867,-0.00011723655188689008
1772807045482343700,5.30034375,0.0011423961259424686,0.0008234349079430103,0.0003685240226332098
1772807045492275700,5.310275634765625,-0.0002891178010031581,0.0012036836706101894,-0.00017197465058416128
1772807045502206700,5.320206787109375,0.0015561864711344242,-0.0022749369964003563,0.002339918864890933
1772807045512138500,5.330138427734375,0.0002004976267926395,0.00007305433973670006,-0.000020102885173400864
1772807045522070500,5.340070556640625,-0.00013026699889451265,0.0007241968996822834,-0.001336237066425383
1772807045532001800,5.350001708984375,0.00018717418424785137,0.0026024417020380497,0.0009669021237641573
1772807045541933800,5.359933837890625,-0.0008602470625191927,0.00026738177984952927,-0.0009830644121393561
1772807045551865300,5.369865234375,-0.000033525750041007996,0.00017090607434511185,0.000024281696823891252
1772807045561796400,5.37979638671875,0.0014160327846184373,0.0017067515291273594,-0.0024495285470038652
1772807045571728400,5.389728271484375,-0.0002586875343695283,-0.0019773836247622967,-0.0022999336943030357
1772807045581660400,5.399660400390625,-0.001601985888555646,-0.001834105234593153,-0.003445625538006425
1772807045591592200,5.40959228515625,-0.0013729128986597061,0.0009255469776690006,0.00004451986387721263
1772807045601523500,5.4195234375,-0.00016170734306797385,0.003699761815369129,0.0008578492561355233
1772807045611455500,5.42945556640625,0.0001659393310546875,-0.0008479584939777851,-0.0026108636520802975
1772807045621387500,5.439387451171875,-0.000742997566703707,0.0010687182657420635,-0.000055028111091814935
1772807045631318300,5.449318359375,0.0010199613170698285,-0.0018453937955200672,-0.0005879913223907351
1772807045641250300,5.459250244140625,0.0004995795898139477,-0.002416109200567007,-0.0014037175569683313
1772807045651182300,5.469182373046875,0.0019222379196435213,0.00020117219537496567,0.0017010222654789686
1772807045661114400,5.4791142578125,0.000004495610482990742,0.0016105170361697674,-0.0012676033657044172
1772807045671045400,5.48904541015625,0.0006542097544297576,-0.001996297389268875,0.0001904815435409546
1772807045680977400,5.498977294921875,0.0005665917415171862,-0.003022946184501052,-0.0002822295646183193
1772807045690909400,5.508909423828125,-0.0004843011265620589,-0.0009583807550370693,-0.00009742641123011708
1772807045700840400,5.51884033203125,0.0023109526373445988,0.0016765506006777287,0.0011811573058366776
1772807045710772500,5.5287724609375,-0.0007590489694848657,0.0020207026973366737,-0.0024822745472192764
1772807045720704300,5.538704345703125,0.00008863519178703427,0.0009365295991301537,-0.001805565319955349
1772807045730636300,5.54863623046875,-0.002756442641839385,0.0027138954028487206,-0.00046841820585541427
1772807045740567600,5.558567626953125,0.0006481426535174251,-0.001199353951960802,-0.0003959802270401269
1772807045750499600,5.56849951171875,0.0009246038971468806,-0.0008641602471470833,-0.0037308193277567625
1772807045760431600,5.578431640625,-0.0037796038668602705,-0.000137383583933115,0.00005140184657648206
1772807045770362400,5.5883623046875,0.0006922644679434597,0.000493678729981184,-0.000002731518179643899
1772807045780294400,5.59829443359375,0.0023096022196114063,-0.000009925104677677155,0.0011525476584210992
1772807045790226400,5.608226318359375,-0.0023919283412396908,0.0015193736180663109,-0.000822584901470691
1772807045800157200,5.6181572265625,0.0010523376986384392,0.0012171044945716858,-0.0018388471798971295
1772807045810089500,5.62808935546875,0.0033657250460237265,-0.0004538474604487419,0.0004727841296698898
1772807045820021500,5.638021484375,-0.0010479316115379333,-0.00007807556539773941,0.0009393699001520872
1772807045829953500,5.64795361328125,0.0002880960237234831,-0.0007061269134283066,-0.0016773053212091327
1772807045839884500,5.657884521484375,-0.0021228636614978313,0.00023982813581824303,0.0023930699098855257
1772807045849816300,5.66781640625,0.0004989119479432702,-0.0006668241694569588,0.00023472326574847102
1772807045859748400,5.677748291015625,0.0005247446242719889,0.001482879277318716,0.0007886607199907303
1772807045869679400,5.687679443359375,-0.00032808142714202404,0.0012914990074932575,0.0011780954664573073
1772807045879611400,5.697611328125,0.00015128753148019314,-0.00021212175488471985,0.0012108522932976484
1772807045889543200,5.707543212890625,0.0013319095596671104,-0.000005641020834445953,0.0021997825242578983
1772807045899474400,5.717474365234375,0.0010882304050028324,-0.0017342986539006233,0.0010463674552738667
1772807045909406500,5.727406494140625,0.0006096994038671255,0.00022582011297345161,0.0005760656204074621
1772807045919338500,5.73733837890625,-0.001031340449117124,-0.0016202828846871853,0.001081267255358398
1772807045929270500,5.7472705078125,0.0010167555883526802,-0.0006643375381827354,0.0004673117073252797
1772807045939201300,5.757201171875,0.001340596005320549,-0.0007346454076468945,-0.0009976931614801288
1772807045949133300,5.76713330078125,0.0019758709240704775,-0.001405911985784769,-0.0013757909182459116
1772807045959065300,5.7770654296875,-0.0010028746910393238,0.0012141061015427113,-0.0023020384833216667
1772807045968996600,5.78699658203125,-0.0004954261239618063,0.001495099626481533,-0.0003275125054642558
1772807045978928400,5.796928466796875,-0.00014415523037314415,-0.0032682300079613924,-0.00016692388453520834
1772807045988860400,5.8068603515625,0.0008133652154356241,-0.0016569625586271286,-0.0011723850620910525
1772807045998792400,5.81679248046875,0.00008419167716056108,0.0014829044230282307,-0.0022967716213315725
1772807046008723500,5.826723388671875,0.0012051175581291318,-0.0008825450204312801,-0.00045321142533794045
1772807046018655200,5.8366552734375,0.0024831686168909073,0.0011076354421675205,0.00008527975296601653
1772807046028587300,5.846587158203125,-0.00043611653381958604,0.0007282793521881104,-0.001459261984564364
1772807046038518500,5.8565185546875,0.0015521994791924953,0.0005474509671330452,-0.00016496570606250316
1772807046048450600,5.866450439453125,-0.0011779918568208814,0.00020893104374408722,0.0005028813611716032
1772807046058382600,5.876382568359375,0.0009820980485528708,-0.0031674245838075876,0.0028445988427847624
1772807046068314400,5.886314453125,0.000736245303414762,-0.0030263697262853384,0.0005793874152004719
1772807046078245400,5.896245361328125,-0.0009375513764098287,0.00018273945897817612,-0.001395879196934402
1772807046088177400,5.906177490234375,0.0013889593537896872,-0.0013260506093502045,0.0013059481279924512
1772807046098109400,5.916109375,0.0001343442127108574,-0.0012581399641931057,-0.0002866222057491541
1772807046108040400,5.92604052734375,0.0005051863845437765,0.0005301027558743954,0.0020571148488670588
1772807046117972500,5.935972412109375,0.0015241117216646671,0.0004243752919137478,0.0011833315948024392
1772807046127904500,5.945904541015625,-0.0003844921011477709,0.0005957372486591339,-0.0015431393403559923
1772807046137836500,5.95583642578125,0.002245113253593445,-0.001271937508136034,0.0016545181861147285
1772807046147767300,5.965767333984375,-0.0016340527217835188,0.002520018257200718,0.0003391614882275462
1772807046157699300,5.97569921875,-0.0006337694358080626,-0.0010731187649071217,-0.0007474081940017641
1772807046167631400,5.98563134765625,-0.0008182107703760266,0.003754112869501114,-0.0024654201697558165
1772807046177562400,5.995562255859375,-0.0008658813312649727,-0.00043503986671566963,-0.0007322349119931459
1772807046187494400,6.005494384765625,-0.001282132463529706,-0.001359583344310522,-0.0003044039767701179
1772807046197426400,6.015426513671875,0.001895284978672862,-0.001112175639718771,-0.0015757970977574587
1772807046207357400,6.025357421875,-0.000480018206872046,0.000011908356100320816,0.002742728218436241
1772807046217289500,6.03528955078125,-0.0015348964370787144,0.0009594610892236233,0.00027690723072737455
1772807046227221500,6.045221435546875,0.000048922025598585606,-0.000966324470937252,0.0014689202653244138
1772807046237153500,6.055153564453125,-0.002427285071462393,0.0006848354823887348,-0.00019289215561002493
1772807046247084300,6.065084228515625,-0.0008258936577476561,-0.0015216553583741188,-0.0013324710307642817
1772807046257016300,6.075016357421875,-0.0003963257768191397,0.0006253854371607304,0.00006755276262992993
1772807046266948400,6.0849482421875,0.00006745191058143973,-0.0011104806326329708,0.0011000664671882987
1772807046276879400,6.09487939453125,-0.0002899442915804684,0.0006272317841649055,0.001332826679572463
1772807046286811400,6.104811279296875,0.0002243038034066558,-0.0022191177122294903,-0.001887318561784923
1772807046296743400,6.114743408203125,-0.0021573612466454506,-0.001434550154954195,-0.000917128985747695
1772807046306674400,6.12467431640625,-0.0014964538859203458,-0.0021806322038173676,0.0006685514817945659
1772807046316606500,6.1346064453125,-0.0000050836242735385895,-0.00006235390901565552,0.0009750813478603959
1772807046326538200,6.144538330078125,-0.001224772771820426,0.0013869013637304306,0.0011173197999596596
1772807046336470300,6.15447021484375,0.00009855191456153989,-0.001904765609651804,0.0012566031655296683
1772807046346401500,6.164401611328125,0.00012568844249472022,-0.0024114958941936493,-0.000596020370721817
1772807046356333600,6.17433349609375,0.0021856436505913734,-0.0005701864138245583,-0.000739032169803977
1772807046366265300,6.184265380859375,-0.00005418423097580671,0.0006811567582190037,-0.0020786479581147432
1772807046376196400,6.1941962890625,-0.0000011873198673129082,-0.0005233911797404289,-0.00023680555750615895
1772807046386128400,6.20412841796875,-0.0013258261606097221,0.00024117203429341316,-0.00208957283757627
1772807046396060400,6.214060302734375,-0.0014105145819485188,-0.0014499351382255554,-0.0015910291112959385
1772807046405992400,6.223992431640625,-0.002809002064168453,-0.0006677275523543358,0.0007366712088696659
1772807046415923500,6.23392333984375,-0.0005956490058451891,-0.00034947972744703293,0.000013889311958337203
1772807046425855500,6.24385546875,0.00004960130900144577,0.00042998045682907104,0.00031049884273670614
1772807046435787500,6.25378759765625,0.0000565254595130682,0.0013770004734396935,-0.00040136411553248763
1772807046445718500,6.263718505859375,-0.0004417381715029478,0.0006347279995679855,-0.001346769044175744
1772807046455650300,6.273650390625,0.0003263175021857023,-0.0013093794696033,0.0009379568509757519
1772807046465582300,6.283582275390625,0.001050845137797296,0.00030930666252970695,-0.00040985242230817676
1772807046475514400,6.293514404296875,-0.001585151650942862,-0.0006963028572499752,-0.0023374485317617655
1772807046485445400,6.3034453125,0.00008112884825095534,0.001089355442672968,0.0004900108906440437
1772807046495377400,6.31337744140625,0.0017109834589064121,-0.0017013712786138058,-0.0021238818299025297
1772807046505309400,6.323309326171875,-0.0007859094766899943,0.0017553837969899178,0.0010850216494873166
1772807046515240400,6.333240478515625,-0.00030041520949453115,-0.0005706208758056164,-0.0012519021984189749
1772807046525172500,6.34317236328125,0.0014505678554996848,0.0004082620143890381,-0.003080574795603752
1772807046535104500,6.3531044921875,-0.00012336031068116426,0.0006838995032012463,0.0006268118740990758
1772807046545035300,6.36303515625,-0.0012034839019179344,-0.0003640688955783844,-0.0008764067897573113
1772807046554967000,6.372967041015625,0.0010511482832953334,-0.0017747455276548862,-0.00044603997957892716
1772807046564899300,6.3828994140625,0.001127614756114781,-0.002932204632088542,-0.00014248484512791038
1772807046574831400,6.392831298828125,-0.0010202245321124792,-0.0007979474030435085,-0.003696739673614502
1772807046584762000,6.40276220703125,-0.0012603956274688244,0.0008199000731110573,-0.00009508273797109723
1772807046594694100,6.412694091796875,0.0009931712411344051,-0.00004669232293963432,-0.002011227188631892
1772807046604626200,6.422626220703125,0.0006543149938806891,0.0011723670177161694,-0.0006487825885415077
1772807046614557200,6.43255712890625,-0.001663700444623828,0.00015184376388788223,0.00045989133650437
1772807046624489200,6.4424892578125,0.0011940334225073457,-0.0010653901845216751,0.00005991219950374216
1772807046634421000,6.4524208984375,0.0003950851387344301,-0.002536253770813346,-0.0011198681313544512
1772807046644353000,6.46235302734375,-0.0006293655605986714,0.0015253699384629726,-0.002101963385939598
1772807046654284300,6.4722841796875,-0.0015553466510027647,-0.003460067557170987,0.003143398556858301
1772807046664216300,6.48221630859375,-0.0015024736057966948,0.0010780952870845795,-0.0009185104281641543
1772807046674148400,6.4921484375,-0.00016130576841533184,-0.0009560268372297287,0.0002572751836851239
1772807046684079000,6.5020791015625,-0.0003928951919078827,0.0002862298861145973,0.0011696959845721722
1772807046694011100,6.51201123046875,-0.0011353844311088324,-0.0017686649225652218,-0.0004788007936440408
1772807046703943200,6.521943115234375,0.000052959658205509186,-0.0011027799919247627,0.0009556407458148897
1772807046713874200,6.531874267578125,0.001016757683828473,-0.0004550991579890251,0.000050964936235686764
1772807046723806200,6.54180615234375,-0.00016960909124463797,-0.0012910510413348675,0.0012138934107497334
1772807046733738200,6.55173828125,0.0009960564784705639,0.0008554565720260143,0.0011651575332507491
1772807046743670300,6.561670166015625,0.0010095033794641495,0.0012007206678390503,-0.0010781926102936268
1772807046753601300,6.571601318359375,-0.0004786710487678647,-0.0030203897040337324,-0.00029096228536218405
1772807046763533000,6.581532958984375,0.0013943201629444957,-0.002147538587450981,0.002608270151540637
1772807046773465000,6.591465087890625,0.00015541765606030822,-0.00016401614993810654,-0.0004399839381221682
1772807046783396400,6.601396240234375,0.0019429096719250083,-0.002074688207358122,0.0021647773683071136
1772807046793328400,6.611328369140625,-0.0007122618844732642,0.0016598626971244812,0.000003888546416419558
1772807046803260200,6.62126025390625,0.0011829810682684183,-0.00010496657341718674,0.00016686329036019742
1772807046813192200,6.631192138671875,0.0016548932762816548,-0.00024877721443772316,-0.0025447672232985497
1772807046823123200,6.641123291015625,-0.0023287360090762377,0.00036292849108576775,-0.0007236358942463994
1772807046833055200,6.65105517578125,-0.00024268205743283033,0.001622337382286787,-0.0012626596726477146
1772807046842987300,6.6609873046875,-0.0005625187186524272,0.0014180638827383518,-0.0011776154860854149
1772807046852918300,6.670918212890625,0.0025925282388925552,0.0001418772153556347,0.0024155215360224247
1772807046862850300,6.680850341796875,0.00028176518389955163,0.0006619710475206375,0.0012212081346660852
1772807046872782300,6.6907822265625,0.000374975788872689,0.0009589134715497494,0.0012217407347634435
1772807046882714400,6.70071435546875,-0.0018609798280522227,0.00015057623386383057,-0.0002853132609743625
1772807046892645000,6.71064501953125,0.00008179631549865007,-0.0017615733668208122,0.000349850655766204
1772807046902577200,6.7205771484375,-0.000792834791354835,0.000484988559037447,-0.001496310462243855
1772807046912509200,6.73050927734375,0.00023408012930303812,0.002042404841631651,-0.0013770009391009808
1772807046922440200,6.740440185546875,0.000772372237406671,0.00003206264227628708,-0.00019188308215234429
1772807046932372000,6.7503720703125,0.001611001673154533,-0.000979672186076641,0.0013713925145566463
1772807046942304300,6.76030419921875,-0.0006557602901011705,-0.00014842627570033073,-0.00134241150226444
1772807046952236300,6.770236328125,0.00011469214223325253,-0.0009875884279608727,0.0008118194527924061
1772807046962167300,6.780167236328125,0.0005709793185815215,-0.0010735196992754936,-0.000526531832292676
1772807046972099300,6.790099365234375,-0.0000641846563667059,0.0000026635825634002686,-0.0026080585084855556
1772807046982031000,6.800031005859375,0.0005702961934730411,0.0004171868786215782,0.00006385163578670472
1772807046991962000,6.809962158203125,-0.0007434411672875285,-0.0006233099848031998,-0.0005814323085360229
1772807047001894100,6.81989404296875,-0.0001261953730136156,-0.0009806021116673946,-0.0010652970522642136
1772807047011826200,6.829826171875,0.0014328190591186285,-0.0020655738189816475,0.00028172985184937716
1772807047021757200,6.839757080078125,0.0007237005047500134,-0.002950796391814947,-0.0016080455388873816
1772807047031689200,6.849689208984375,0.0007905458332970738,-0.0019877972081303596,-0.002025629160925746
1772807047041621200,6.859621337890625,0.00031853688415139914,0.00034510623663663864,-0.0004732907109428197
1772807047051553300,6.86955322265625,0.002445337362587452,0.0006111562252044678,0.0004827840893995017
1772807047061484000,6.879484130859375,-0.0005075507797300816,-0.00006965454667806625,-0.00007385039498331025
1772807047071416000,6.889416015625,0.00006742565892636776,-0.003440151223912835,0.002215935382992029
1772807047081348000,6.89934814453125,-0.000662890262901783,0.0011906144209206104,-0.0006746609578840435
1772807047091279400,6.909279296875,0.0011216939892619848,0.00014372589066624641,-0.002002513036131859
1772807047101211400,6.91921142578125,0.0010417145676910877,-0.00039485376328229904,-0.0008426505955867469
1772807047111143200,6.92914306640625,-0.00014765316154807806,-0.00012986920773983002,-0.0000908402435015887
1772807047121075200,6.9390751953125,-0.002053177682682872,0.0013897540047764778,0.00010214663780061528
1772807047131006200,6.949006103515625,-0.0010353175457566977,-0.0016864635981619358,-0.0003314159985166043
1772807047140938200,6.958938232421875,0.0010629864409565926,0.0007963725365698338,-0.0026393565349280834
1772807047150870300,6.968870361328125,0.0003766898298636079,0.0018363366834819317,-0.0009445208124816418
1772807047160801300,6.97880126953125,0.0005859473603777587,-0.0011463640257716179,-0.003366919467225671
1772807047170733300,6.9887333984375,0.0007886139210313559,-0.00009281747043132782,-0.0022334782406687737
1772807047180665300,6.998665283203125,0.0015683944802731276,0.0009364942088723183,-0.002534052822738886
1772807047190597400,7.008597412109375,0.0011566698085516691,-0.0005343696102499962,-0.0024621475022286177
1772807047200528100,7.018528076171875,0.0017346960958093405,-0.0002742731012403965,0.001464345376007259
1772807047210460200,7.028460205078125,0.0026593455113470554,-0.00047454237937927246,0.0007122686365619302
1772807047220392200,7.03839208984375,0.002334145363420248,0.0002023647539317608,-0.00021987884247209877
1772807047230323200,7.0483232421875,0.0010001681512221694,-0.0005936543457210064,0.0012565776705741882
1772807047240255200,7.058255126953125,0.0013567284913733602,0.0007854513823986053,0.0004656262171920389
1772807047250187300,7.068187255859375,0.0023309127427637577,0.0016666911542415619,-0.001118155661970377
1772807047260118300,7.0781181640625,-0.0014832429587841034,-0.0033370149321854115,0.003443275112658739
1772807047270050300,7.08805029296875,-0.0007908209227025509,-0.0021894588135182858,0.0008027509320527315
1772807047279982000,7.097982177734375,-0.00010755844414234161,0.0006732894107699394,0.0012058902066200972
1772807047289914000,7.1079140625,0.0011089735198765993,0.00046902522444725037,0.00003543086495483294
1772807047299845000,7.11784521484375,0.0002968846820294857,-0.0021619112230837345,-0.0013314536772668362
1772807047309777200,7.127777099609375,-0.00017449480947107077,-0.001745658926665783,0.00041424832306802273
1772807047319709200,7.137709228515625,0.000955072813667357,0.000617150217294693,0.0019335232209414244
1772807047329640200,7.14764013671875,0.0005726428935304284,-0.0005913926288485527,-0.0015341787366196513
1772807047339572200,7.157572265625,-0.00026295543648302555,-0.001074120867997408,-0.0006190158892422915
1772807047349504300,7.167504150390625,0.00003585114609450102,-0.0003593284636735916,-0.0005726768868044019
1772807047359436300,7.177436279296875,0.000951320631429553,-0.0007517370395362377,0.0003022965101990849
1772807047369367000,7.187366943359375,0.00036009884206578135,-0.002265478018671274,0.0004250682541169226
1772807047379299000,7.197299072265625,-0.0006207628175616264,0.0016671456396579742,0.00018863297009374946
1772807047389231000,7.207231201171875,-0.0002497844398021698,-0.00023568281903862953,0.0004333775141276419
1772807047399162400,7.217162353515625,-0.003592908149585128,0.003910583909600973,-0.002007766393944621
1772807047409094100,7.22709423828125,0.0009602983482182026,-0.0008255820721387863,-0.0014730036491528153
1772807047419026200,7.237026123046875,-0.001135719590820372,0.0009492570534348488,-0.0009217803599312901
1772807047428958200,7.246958251953125,0.0006738984957337379,-0.0005607553757727146,0.00027211473206989467
1772807047438889200,7.25688916015625,-0.001256222720257938,0.0016565322875976562,-0.0004441644123289734
1772807047448821200,7.2668212890625,0.00021677155746147037,-0.0035147937014698982,-0.00028836948331445456
1772807047458753000,7.2767529296875,0.0013544326648116112,0.00020056124776601791,0.00009635173046262935
1772807047468684300,7.286684326171875,0.0004004883812740445,-0.00017254753038287163,0.0011528277536854148
1772807047478616300,7.2966162109375,-0.0007508881390094757,0.0005319169722497463,0.0009536336874589324
1772807047488548400,7.30654833984375,-0.00001265981700271368,-0.00031576724722981453,0.0021515237167477608
1772807047498479000,7.31647900390625,-0.000013654469512403011,-0.00022529484704136848,0.0002063435094896704
1772807047508411100,7.3264111328125,0.002212215680629015,0.0022980505600571632,-0.0016536081675440073
1772807047518343200,7.33634326171875,-0.0011261836625635624,-0.00009525241330265999,0.00040692187030799687
1772807047528275200,7.346275146484375,0.0018967704381793737,-0.002011663280427456,0.001461799954995513
1772807047538206200,7.356206298828125,-0.0006994893774390221,0.0012758406810462475,-0.001834835740737617
1772807047548138200,7.36613818359375,0.0008563292794860899,0.0019272495992481709,0.0009084864286705852
1772807047558070800,7.37607080078125,0.0017933016642928123,-0.001151870470494032,-0.00047737930435687304
1772807047568002000,7.386001953125,0.0013123347889631987,-0.0010085925459861755,0.0011226478964090347
1772807047577934000,7.39593408203125,0.0016852704575285316,0.0024571316316723824,-0.001459387131035328
1772807047587865900,7.405865966796875,0.0012218804331496358,0.000026731286197900772,-0.0012047889176756144
1772807047597798000,7.4157978515625,-0.0017060223035514355,0.002599574625492096,-0.0018715264741331339
1772807047607729000,7.42572900390625,-0.000995757058262825,0.0011087367311120033,0.0018963137408718467
1772807047617661000,7.435660888671875,0.000724524725228548,0.0019219438545405865,-0.0010969581780955195
1772807047627592700,7.4455927734375,0.0010014934232458472,-0.00026424508541822433,-0.0011262529296800494
1772807047637524000,7.45552392578125,0.001153692021034658,-0.0005162428133189678,0.0019315709359943867
1772807047647456000,7.4654560546875,-0.00007029681000858545,0.001161282416433096,-0.00023224749020300806
1772807047657388000,7.475387939453125,0.0011168642668053508,0.0041601285338401794,-0.001964624971151352
1772807047667320000,7.485320068359375,0.0014340467751026154,-0.0005520684644579887,-0.0013662126148119569
1772807047677250800,7.495250732421875,-0.0002723034704104066,0.00016016140580177307,-0.0004499377100728452
1772807047687182800,7.505182861328125,0.0025525116361677647,-0.0010382612235844135,0.0003394232189748436
1772807047697115000,7.515114990234375,0.0009161998750641942,-0.0024760994128882885,-0.0004224833392072469
1772807047707046100,7.525046142578125,0.002354572992771864,0.0025143977254629135,0.0009868614142760634
1772807047716978000,7.53497802734375,0.0010819514282047749,-0.000869962852448225,-0.0006061550811864436
1772807047726910000,7.544909912109375,-0.00032872497104108334,-0.0009410693310201168,-0.001048239879310131
1772807047736841000,7.554841064453125,0.0034125810489058495,-0.001251250971108675,-0.000581349479034543
1772807047746773000,7.56477294921875,-0.0003898805007338524,0.0004989788867533207,-0.0017371613066643476
1772807047756704800,7.574704833984375,0.002557894214987755,-0.0005797306075692177,-0.0004864109505433589
1772807047766636800,7.58463671875,-0.0009122046176344156,-0.0011094333603978157,-0.00047282883315347135
1772807047776567800,7.59456787109375,-0.0007599020609632134,0.00031415000557899475,-0.0005457630031742156
1772807047786500000,7.6045,-0.0021913512609899044,0.0020678420551121235,0.0006510615930892527
1772807047796432100,7.61443212890625,-0.00023183017037808895,0.001183787826448679,0.000937110569793731
1772807047806363000,7.62436279296875,0.0011149303754791617,-0.0004737637937068939,0.0010066189570352435
1772807047816295000,7.634294921875,-0.00033829116728156805,-0.0009305099956691265,-0.0033621841575950384
1772807047826227000,7.64422705078125,-0.0011931657791137695,-0.0014442335814237595,0.00220222445204854
1772807047836159000,7.654158935546875,0.002571487333625555,-0.0010196147486567497,-0.0012571312254294753
1772807047846089700,7.66408984375,-0.0028629591688513756,-0.0008331933058798313,-0.001089884783141315
1772807047856021800,7.674021728515625,0.00046498008305206895,-0.00023197662085294724,-0.002011524513363838
1772807047865954000,7.6839541015625,-0.00027271558064967394,-0.0015217452310025692,0.0009720147354528308
1772807047875885000,7.693885009765625,0.0010897800093516707,-0.001706675160676241,-0.0007804256747476757
1772807047885816800,7.70381689453125,-0.003238655859604478,-0.00032342923805117607,0.00005154588143341243
1772807047895748900,7.713748779296875,0.001027652295306325,0.000017813872545957565,-0.00025605305563658476
1772807047905681000,7.723680908203125,0.0012193998554721475,-0.000013611279428005219,0.0009106778306886554
1772807047915612000,7.73361181640625,0.001538806944154203,0.0008508572354912758,0.000010283329174853861
1772807047925544000,7.7435439453125,0.0023175152018666267,-0.0015371995978057384,0.0012553110718727112
1772807047935475700,7.753475830078125,0.001060868613421917,-0.0018105274066329002,-0.00021316844504326582
1772807047945407000,7.763406982421875,0.00265796622261405,0.001070746686309576,0.000242232097662054
1772807047955339000,7.773339111328125,0.002185568679124117,-0.0004952182061970234,0.002335337921977043
1772807047965271000,7.78327099609375,0.0009868796914815903,0.0008352971635758877,-0.0022876434959471226
1772807047975202800,7.793202880859375,-0.0002444642595946789,0.0015043639577925205,-0.001428792835213244
1772807047985133800,7.8031337890625,-0.0009544629137963057,0.0011528264731168747,0.00044980106758885086
1772807047995065900,7.81306591796875,0.0008494501234963536,0.001036288682371378,-0.0014790953136980534
1772807048004998000,7.822997802734375,-0.0006435179384425282,0.0011273687705397606,0.00046075123827904463
1772807048014929000,7.832928955078125,0.000363520928658545,-0.0023587311152368784,0.003189933020621538
1772807048024861000,7.84286083984375,-0.00168631412088871,0.002184355165809393,-0.0012586112134158611
1772807048034793000,7.85279296875,0.001267606276087463,-0.0006337831728160381,0.0007235251250676811
1772807048044724000,7.862723876953125,-0.000770244630984962,-0.002190933097153902,0.001740852720104158
1772807048054656000,7.872656005859375,-0.0016537015326321125,-0.001345058437436819,-0.0008912241901271045
1772807048064587800,7.882587890625,0.0009652511216700077,-0.001370890997350216,0.0016222671838477254
1772807048074519800,7.892519775390625,-0.0007871462730690837,-0.0019723018631339073,0.001251021632924676
1772807048084451000,7.902451171875,-0.0004467942053452134,-0.0005230098031461239,-0.0016579492948949337
1772807048094383000,7.912383056640625,0.001048699370585382,-0.0008870824240148067,-0.0012530407402664423
1772807048104315000,7.92231494140625,0.0002582731540314853,-0.0012242384254932404,-0.00037180064828135073
1772807048114246000,7.932245849609375,-0.0013878389727324247,0.0006950120441615582,-0.0006725686835125089
1772807048124178000,7.942177978515625,-0.00009407533798366785,0.0008606608025729656,-0.0019895019941031933
1772807048134110000,7.95210986328125,0.0006161527708172798,-0.0004248199984431267,-0.001679787877947092
1772807048144042000,7.9620419921875,-0.0016997321508824825,0.0011035683564841747,0.000518917862791568
1772807048153973000,7.971972900390625,0.00011886248830705881,0.0003963923081755638,-0.0015998906455934048
1772807048163905000,7.981905029296875,0.0007359168957918882,-0.0004901736974716187,-0.00010079731146106496
1772807048173834800,7.991834716796875,0.0007573338225483894,-0.0030202437192201614,0.0022494178265333176
1772807048183766800,8.001766845703125,-0.0009659455390647054,-0.00029718782752752304,0.0011427829740568995
1772807048193698800,8.01169873046875,0.0016046505188569427,0.00039021996781229973,0.0017552602803334594
1772807048203630000,8.021630126953125,-0.0007258817786350846,0.0015654731541872025,0.002509467536583543
1772807048213562000,8.03156201171875,0.0015901071019470692,-0.00023068580776453018,0.0012483655009418726
1772807048223494000,8.041493896484376,0.0025547039695084095,0.0031161089427769184,-0.00023741205222904682
1772807048233426000,8.051426025390626,0.001105541130527854,-0.0008629197254776955,0.0003049503720831126
1772807048243357000,8.06135693359375,-0.0007783789187669754,0.0010348488576710224,0.0032892886083573103
1772807048253289000,8.0712890625,0.0008500410476699471,-0.0008143945597112179,-0.000571954995393753
1772807048263221000,8.081220947265624,-0.000920428428798914,0.002662628423422575,0.0000496268185088411
1772807048273152000,8.091152099609374,0.0017262098845094442,-0.0001787007786333561,0.00013220882101450115
1772807048283084000,8.101083984375,-0.00039632944390177727,-0.0016487655229866505,-0.0007013605791144073
1772807048293016000,8.11101611328125,0.0018782555125653744,-0.00030116131529212,0.00019326181791257113
1772807048302948000,8.120947998046875,0.0016465603839606047,-0.0008393861353397369,0.0007924730307422578
1772807048312878800,8.13087890625,-0.0013650220353156328,0.0008714902214705944,-0.0007615617942065
1772807048322811000,8.140810791015625,0.0005292844725772738,-0.0011980519630014896,-0.0018284241668879986
1772807048332743000,8.150742919921875,0.0018883355660364032,0.0010123145766556263,0.001246284693479538
1772807048342674000,8.160673828125,0.0027099207509309053,-0.0023129084147512913,-0.0004163268022239208
1772807048352605700,8.170605712890625,0.00012489256914705038,0.0012997323647141457,-0.0009236875921487808
1772807048362538000,8.1805380859375,0.00029986229492351413,-0.0016891336999833584,0.0013988552382215858
1772807048372470000,8.190469970703125,0.0011262206826359034,-0.0013576634228229523,-0.0008318718755617738
1772807048382401000,8.200401123046875,-0.0019915420562028885,0.0011728722602128983,0.0011271494440734386
1772807048392333000,8.2103330078125,0.0011276606237515807,-0.002084141131490469,0.0011048120213672519
1772807048402264800,8.220264892578125,0.0015356569783762097,0.00028553977608680725,-0.0002464759163558483
1772807048412195800,8.23019580078125,-0.0015936304116621614,0.00143710570409894,-0.001960044028237462
1772807048422127900,8.2401279296875,-0.00003994221333414316,0.00010898709297180176,-0.0006156802992336452
1772807048432060000,8.250059814453126,0.00034081435296684504,0.0013386975042521954,0.0009534399723634124
1772807048441991700,8.25999169921875,0.0032516494393348694,-0.001290641725063324,0.00015156218432821333
1772807048451923000,8.2699228515625,0.0010384670458734035,-0.0020566615276038647,0.0010393982520326972
1772807048461855000,8.27985498046875,-0.000009753159247338772,-0.0008529126644134521,-0.0021872876677662134
1772807048471787000,8.289787109375,0.00005392683669924736,0.00036238180473446846,0.00015448289923369884
1772807048481717800,8.2997177734375,-0.0006989488610997796,0.0000025886110961437225,-0.0007286212639883161
1772807048491649800,8.30964990234375,-0.00034438923466950655,-0.000004826579242944717,-0.0016509800916537642
1772807048501581800,8.319581787109374,0.002301993779838085,-0.001488739624619484,0.0010143114486709237
1772807048511513900,8.329513916015625,-0.00032284436747431755,-0.00022322777658700943,-0.0009265093831345439
1772807048521444900,8.33944482421875,0.0008694528369233012,-0.000846407376229763,0.0012964311754330993
1772807048531377000,8.349376953125,-0.0011809905990958214,-0.0009171012789011002,0.0010048869298771024
1772807048541309000,8.359308837890625,-0.00028723361901938915,0.0020059840753674507,-0.002212211722508073
1772807048551240000,8.369239990234375,0.0003423986490815878,0.0010590865276753902,0.0014696535654366016
1772807048561171000,8.3791708984375,0.00007821305189281702,-0.00150021119043231,0.0000390035129385069
1772807048571103000,8.38910302734375,-0.0025219747330993414,-0.001022540032863617,0.00020813177980016917
1772807048581034000,8.399033935546875,0.0006333385244943202,-0.004107279237359762,-0.0015298471553251147
1772807048590966000,8.408966064453125,0.0018198052421212196,-0.002393702045083046,-0.0007160192471928895
1772807048600898000,8.41889794921875,0.0016083503141999245,0.001769350841641426,-0.00027286921977065504
1772807048610830000,8.428830078125,0.00028365658363327384,-0.0004578889347612858,-0.0016786674968898296
1772807048620761000,8.438760986328125,0.001372889382764697,-0.0011420552618801594,0.0009251050068996847
1772807048630692900,8.44869287109375,0.0016866583609953523,-0.0008207992650568485,0.0030813366174697876
1772807048640625000,8.458625,-0.003189589362591505,0.09387721121311188,0.026161888614296913
1772807048650556200,8.46855615234375,-0.0008070135954767466,0.04548290744423866,0.011793690733611584
1772807048660488200,8.47848828125,0.00021936872508376837,-0.0182579904794693,-0.004889681935310364
1772807048670420000,8.488419921875,-0.0017679753946140409,0.046189215034246445,0.013288130983710289
1772807048680352000,8.49835205078125,0.0014666999923065305,-0.005932040512561798,-0.0018327651778236032
1772807048690283000,8.508282958984376,0.0001058792695403099,0.023775409907102585,0.006517923437058926
1772807048700215000,8.518215087890624,0.00039909331826493144,-0.006684227380901575,-0.001648127450607717
1772807048710147000,8.52814697265625,0.0008135543903335929,0.01549598015844822,0.0048321872018277645
1772807048720078000,8.538078125,0.00022286531748250127,-0.009037593379616737,-0.0027586203068494797
1772807048730010000,8.548010009765624,0.0002222041948698461,-0.004778789356350899,-0.001060943934135139
1772807048739942100,8.557942138671875,0.0005034340429119766,-0.016600295901298523,-0.00800833199173212
1772807048749874200,8.567874267578125,0.00027299101930111647,-0.017704181373119354,-0.0075662280432879925
1772807048759805000,8.577804931640625,-0.0008436724310740829,-0.027030572295188904,-0.007820293307304382
1772807048769737000,8.587737060546875,0.0007069780258461833,-0.04655494540929794,-0.01193192321807146
1772807048779669000,8.5976689453125,0.002396487398073077,-0.10548750311136246,-0.02874179743230343
1772807048789600300,8.607600341796875,-0.0036162459291517735,-0.00003238441422581673,-0.0004536752821877599
1772807048799532000,8.617531982421875,0.00041418184991925955,0.07669035345315933,0.020451605319976807
1772807048809464000,8.627464111328125,0.0012008727062493563,-0.028429392725229263,-0.010167405940592289
