time,seconds_elapsed,z,y,x
1772807040255784400,0.073784423828125,-0.002383262850344181,0.007469900418072939,0.0013523531379178166
1772807040265716500,0.083716552734375,0.0005693838465958834,0.018546786159276962,0.002737463219091296
1772807040275648500,0.0936484375,-0.0024519723374396563,0.0013310478534549475,-0.000966993800830096
1772807040285580500,0.10358056640625,-0.0017496967921033502,0.003916977439075708,-0.0025776736438274384
1772807040295511600,0.113511474609375,-0.0008974852971732616,0.01684183068573475,0.0006327670416794717
1772807040305443600,0.123443603515625,-0.0024051007349044085,0.006563093978911638,-0.00021198761533014476
1772807040315375600,0.133375732421875,-0.0009030779474414885,-0.0027257453184574842,0.0005576659459620714
1772807040325306600,0.143306640625,-0.001023186487145722,0.010773551650345325,-0.00115394766908139
1772807040335238400,0.15323828125,0.00008841694943839684,0.01104332972317934,-0.0002663161139935255
1772807040345170400,0.16317041015625,-0.0009219863568432629,-0.0006631271098740399,-0.0009645969257690012
1772807040355101700,0.173101806640625,-0.0004040015337523073,0.007284544408321381,-0.0011611381778493524
1772807040365033700,0.18303369140625,-0.000258859246969223,0.015223694033920765,0.0011446266435086727
1772807040374965500,0.192965576171875,-0.0008295746520161629,0.0030916635878384113,0.00028628981090150774
1772807040384897500,0.2028974609375,-0.000535561703145504,0.003760383464396,-0.002245843643322587
1772807040394828500,0.21282861328125,-0.002127066720277071,0.009283246472477913,0.00041332258842885494
1772807040404760600,0.222760498046875,-0.0005078648100607097,0.006931409239768982,-0.001258876291103661
1772807040414692600,0.232692626953125,0.00006178533658385277,0.0023734092246741056,-0.0009643306257203221
1772807040424623600,0.24262353515625,-0.001127848750911653,0.00743101816624403,0.0008077367674559355
1772807040434555600,0.2525556640625,0.00021118867152836174,0.006503439508378506,0.0007334345718845725
1772807040444487700,0.26248779296875,-0.0024549018125981092,0.00549250328913331,-0.00014168016787152737
1772807040454419700,0.272419677734375,-0.000949150591623038,0.0067689563147723675,0.0010538127971813083
1772807040464350500,0.2823505859375,-0.0011297129094600677,0.007261108607053757,0.0014511564513668418
1772807040474282500,0.292282470703125,-0.003457315731793642,0.0022455775178968906,-0.0010186590952798724
1772807040484214500,0.302214599609375,-0.0020423782989382744,0.00606481684371829,0.0015331818722188473
1772807040494145500,0.3121455078125,-0.0015036207623779774,0.006434996146708727,-0.00010226538870483637
1772807040504077300,0.322077392578125,-0.0005302353529259562,0.005113002844154835,0.0012519520241767168
1772807040514009600,0.332009521484375,0.00020373181905597448,0.0038136467337608337,-0.0010756507981568575
1772807040523940600,0.341940673828125,-0.0009949569357559085,0.004855741746723652,0.002415753435343504
1772807040533872600,0.35187255859375,-0.0021949773654341698,0.006836600601673126,-0.002332396572455764
1772807040543804700,0.3618046875,-0.0003038666909560561,0.0035300198942422867,-0.0014721954939886928
1772807040553737000,0.371737060546875,-0.0018072210950776935,0.006047506351023912,-0.0016636766958981752
1772807040563668000,0.38166796875,-0.001076715998351574,0.007436610758304596,-0.0025806031189858913
1772807040573600000,0.39160009765625,-0.0014471617760136724,0.0038195056840777397,-0.0019142802339047194
1772807040583532000,0.401531982421875,0.0013848437229171395,0.006400108803063631,0.0014831144362688065
1772807040593463000,0.411463134765625,0.00014381069922819734,0.005291168577969074,-0.00031638352083973587
1772807040603395000,0.42139501953125,-0.00005699164830730297,0.007243265397846699,-0.0001781654718797654
1772807040613327000,0.4313271484375,-0.0012082761386409402,0.003940945956856012,-0.0007262440049089491
1772807040623258000,0.441258056640625,-0.00105301383882761,0.004962800536304712,0.00047164582065306604
1772807040633190100,0.451190185546875,0.0009257147903554142,0.00373108871281147,-0.001484179636463523
1772807040643122000,0.461121826171875,-0.0014799186028540134,0.005505552981048822,0.0000327568814100232
1772807040653054000,0.471053955078125,-0.0007981493836268783,0.006396113894879818,0.00047697214176878333
1772807040662985000,0.48098486328125,-0.002091380301862955,0.005736981518566608,0.004458930809050798
1772807040672917200,0.490917236328125,-0.000559263804461807,0.0073170349933207035,-0.0009246495319530368
1772807040682849000,0.50084912109375,-0.001401089015416801,0.006530071143060923,0.00019920444174204022
1772807040692780000,0.510780029296875,0.0000351537273672875,0.007735151331871748,0.0005315669695846736
1772807040702712000,0.520712158203125,-0.00253426400013268,0.007831824012100697,-0.0009350358741357923
1772807040712644000,0.53064404296875,-0.0012594088912010193,0.007961786352097988,0.00002210423735959921
1772807040722574800,0.540574951171875,-0.001600559800863266,0.006653907708823681,0.0004628573951777071
1772807040732507000,0.5505068359375,-0.0007158577209338546,0.008748483844101429,-0.0005803027888759971
1772807040742439000,0.56043896484375,-0.0006458165589720011,0.004997421521693468,0.0034463966730982065
1772807040752371200,0.57037109375,-0.0013970943400636315,0.003962783608585596,-0.0020543625578284264
1772807040762302000,0.580302001953125,-0.0019765980541706085,0.004604339133948088,-0.0005083974683657289
1772807040772234000,0.59023388671875,-0.0010157296201214194,0.005717274267226458,-0.00015206649550236762
1772807040782166000,0.600166015625,-0.0032682311721146107,0.007951400242745876,0.0007424892974086106
1772807040792097000,0.610096923828125,0.0016911072889342904,0.009157279506325722,0.0000023968450477696024
1772807040802029000,0.620029052734375,-0.001189900329336524,0.00666296249255538,0.0007512777228839695
1772807040811960800,0.6299609375,-0.0005824333056807518,0.004036020487546921,0.0022120214998722076
1772807040821892000,0.63989208984375,-0.0016580841038376093,0.005667739547789097,0.0007198524544946849
1772807040831824100,0.64982421875,-0.0008841694798320532,0.007789480034261942,0.0000780306218075566
1772807040841756200,0.659756103515625,-0.0006191849242895842,0.004462658893316984,-0.0017752632265910506
1772807040851688200,0.669688232421875,-0.000333161442540586,0.004729241598397493,-0.0015140071045607328
1772807040861619000,0.679618896484375,-0.0024495755787938833,0.008548746816813946,-0.00036991306114941835
1772807040871551000,0.689551025390625,-0.00014700648898724467,0.0027569043450057507,0.0007877630414441228
1772807040881483000,0.69948291015625,0.0014397049089893699,0.007877896539866924,0.0005113269435241818
1772807040891414000,0.7094140625,-0.0027025758754462004,0.009165002964437008,-0.0007789746159687638
1772807040901346000,0.719345947265625,-0.0013611416798084974,0.006627808790653944,0.0004751079250127077
1772807040911278000,0.729278076171875,-0.0013116068439558148,0.007909055799245834,0.000978711643256247
1772807040921210000,0.739210205078125,-0.0017981663113459945,0.006465089973062277,-0.001237571006640792
1772807040931141000,0.74914111328125,-0.002694586291909218,0.007258711848407984,-0.0018381137633696198
1772807040941073000,0.759072998046875,-0.00009054747351910919,0.004858937580138445,-0.001431182725355029
1772807040951005000,0.7690048828125,0.00044554684427566826,0.0060270000249147415,-0.0024343954864889383
1772807040960936200,0.778936279296875,-0.0023031015880405903,0.008827047422528267,-0.0006623281515203416
1772807040970868200,0.7888681640625,-0.0009960222523659468,0.006177468225359917,0.0011805793037638068
1772807040980800300,0.79880029296875,-0.0014942996203899384,0.0028660940006375313,0.00026525085559114814
1772807040990731000,0.80873095703125,-0.0014122743159532547,0.007074687164276838,0.00021997711155563593
1772807041000663000,0.8186630859375,-0.0006420881254598498,0.005983057431876659,0.0010655306978151202
1772807041010595000,0.828594970703125,-0.001442900625988841,0.005906624719500542,-0.0011209244839847088
1772807041020527000,0.838527099609375,0.000014913702216290403,0.008257930167019367,-0.0010120011866092682
1772807041030457900,0.848457763671875,-0.0023694143164902925,0.003969974350184202,-0.00018082863243762404
1772807041040390000,0.858389892578125,0.0012263857061043382,0.006167881190776825,0.00045087316539138556
1772807041050322200,0.868322265625,0.0005081311101093888,0.005394765175879002,-0.00008921589324017987
1772807041060253200,0.878253173828125,-0.0006655239267274737,0.007675496395677328,-0.002529470482841134
1772807041070185000,0.88818505859375,-0.0028884646017104387,0.005609150044620037,0.0013765880139544606
1772807041080117000,0.898116943359375,-0.0018676748732104897,0.007453655358403921,-0.0008333030855283141
1772807041090048000,0.908048095703125,-0.0008404936525039375,0.00589490681886673,0.0010567422723397613
1772807041099980000,0.91797998046875,-0.002603772561997175,0.007272826507687569,0.0000013315805063029984
1772807041109911800,0.927911865234375,-0.00010812433902174234,0.006481068674474955,0.000046871635277057067
1772807041119843800,0.93784375,0.0003400856803636998,0.00577719509601593,-0.00015925703337416053
1772807041129775000,0.947775146484375,0.001389371114782989,0.0026849990244954824,0.0013704627053812146
1772807041139707100,0.95770703125,-0.001389637473039329,0.0046570696868002415,-0.0018426411552354693
1772807041149639200,0.96763916015625,-0.0006897587445564568,0.0052078114822506905,0.001139300293289125
1772807041159570000,0.97756982421875,-0.0005398227367550135,0.006330866366624832,0.00013129384024068713
1772807041169502000,0.987501953125,0.00048389637959189713,0.006201170384883881,0.001192829804494977
1772807041179434000,0.99743408203125,-0.0037550569977611303,0.007759386207908392,0.0004386226355563849
1772807041189366000,1.007365966796875,0.0003150519623886794,0.005219263024628162,0.00043063313933089375
1772807041199297000,1.017297119140625,-0.0005089300684630871,0.006543120369315147,-0.001574194524437189
1772807041209229000,1.02722900390625,-0.0026019082870334387,0.006335660349577665,0.00108284130692482
1772807041219161000,1.0371611328125,0.00020373181905597448,0.007150587625801563,0.0007411577389575541
1772807041229092000,1.047092041015625,-0.0014985607704147696,0.005855225957930088,0.0013334447285160422
1772807041239023900,1.05702392578125,0.0009353021741844714,0.0065740132704377174,-0.0009731190511956811
1772807041248956000,1.066955810546875,-0.0004575310740619898,0.004082093480974436,-0.0010831075487658381
1772807041258887200,1.07688720703125,0.0002540655550546944,0.007809720002114773,0.000303334032651037
1772807041268819200,1.086819091796875,-0.0006407565670087934,0.005943110212683678,-0.0013515542959794402
1772807041278751200,1.096751220703125,-0.002157160546630621,0.005026184022426605,-0.0012434299569576979
1772807041288683000,1.10668310546875,-0.004240817856043577,0.00737242866307497,-0.0010482202051207423
1772807041298614000,1.116614013671875,-0.0019971043802797794,0.008734902366995811,0.001838646363466978
1772807041308546000,1.126546142578125,-0.0005696501466445625,0.007465639617294073,0.00028522455249913037
1772807041318478000,1.13647802734375,0.00007590009045088664,0.00737242866307497,0.0009587379754520953
1772807041328408800,1.146408935546875,-0.00040559942135587335,0.007303186692297459,0.00009081379539566115
1772807041338341000,1.156341064453125,-0.0011704593198373914,0.004334561061114073,0.0009334379574283957
1772807041348273200,1.166273193359375,-0.001954493811354041,0.0038722362369298935,0.00008681904728291556
1772807041358204200,1.1762041015625,0.0012895026011392474,0.0016418388113379478,-0.0005896238726563752
1772807041368136000,1.186135986328125,-0.0018820558907464147,0.005630188621580601,0.0023377228062599897
1772807041378068000,1.19606787109375,0.0006418218254111707,0.006040848325937986,0.0014482269762083888
1772807041388000000,1.206,0.002400306984782219,0.003981958609074354,0.0005755090969614685
1772807041397931000,1.215930908203125,-0.0014386395923793316,0.005930859595537186,0.00036671728594228625
1772807041407863000,1.225863037109375,-0.0018788601737469435,0.007667240686714649,0.0012357067316770554
1772807041417794800,1.235794921875,-0.0014689996605738997,0.006410228554159403,0.0003779025573749095
1772807041427726000,1.24572607421875,-0.0006548712844960392,0.006746852304786444,-0.002341983839869499
1772807041437658000,1.255658203125,0.0009869674686342478,0.0072957295924425125,-0.0007997472421266139
1772807041447590100,1.265590087890625,-0.0021108214277774096,0.006755374372005463,-0.0014924354618415236
1772807041457521000,1.27552099609375,0.001445830101147294,0.005978796631097794,-0.0012857741676270962
1772807041467453000,1.285452880859375,-0.0012572783743962646,0.007345530670136213,0.00010040117194876075
1772807041477385000,1.295385009765625,0.00005273058923194185,0.0051534827798604965,-0.0028093685396015644
1772807041487317000,1.30531689453125,-0.0007278419216163456,0.006672816351056099,-0.0012884372845292091
1772807041497248000,1.315248046875,-0.0009150621481239796,0.004135622642934322,0.0009406284661963582
1772807041507180000,1.325179931640625,-0.0020911141764372587,0.006500243674963713,0.0008641957538202405
1772807041517112000,1.335112060546875,0.0001752359967213124,0.006080795545130968,0.0018836538074538112
1772807041527043000,1.34504296875,-0.002432797569781542,0.007445399183779955,0.0005187837523408234
1772807041536975000,1.35497509765625,-0.001085770782083273,0.007215036079287529,0.0009084042394533753
1772807041546907000,1.364906982421875,-0.0008199872681871057,0.005497563164681196,0.00033422670094296336
1772807041556837400,1.37483740234375,0.0014583469601348042,0.00538357999175787,0.0017185378819704056
1772807041566769200,1.38476904296875,-0.0011768508702516556,0.001651692553423345,0.0024493092205375433
1772807041576701200,1.394701171875,-0.0013432984706014395,0.004337756894528866,0.0015488944482058287
1772807041586633200,1.40463330078125,0.000150202278746292,0.004337224178016186,0.0007398261222988367
1772807041596564200,1.414564208984375,-0.00005858954318682663,0.005989449098706245,-0.00173744629137218
1772807041606496000,1.42449609375,-0.0010258496040478349,0.004027764778584242,0.0015579492319375277
1772807041616428000,1.434427978515625,-0.0009337042574770749,0.005135905928909779,0.00010705907334340736
1772807041626359300,1.444359375,0.00006604639202123508,0.007607852108776569,0.00046685212873853743
1772807041636291300,1.454291259765625,-0.0010639328975230455,0.007838482037186623,0.0014053500490263104
1772807041646223400,1.464223388671875,-0.00449727987870574,0.006810235325247049,-0.00006924218905624002
1772807041656154000,1.474154052734375,-0.0010684601729735732,0.00586800929158926,0.001582716591656208
1772807041666086100,1.484086181640625,0.0011358382180333138,0.0023696806747466326,0.002323075430467725
1772807041676018200,1.49401806640625,-0.0005707154050469398,0.004767591133713722,-0.00008096009696600959
1772807041685950200,1.5039501953125,-0.002270078519359231,0.005672000348567963,-0.0011321097845211625
1772807041695881200,1.513881103515625,0.001303351018577814,0.006659500766545534,0.0012596751330420375
1772807041705813200,1.523813232421875,-0.0034991272259503603,0.007478955201804638,0.001930791768245399
1772807041715745300,1.533745361328125,-0.0018104169284924865,0.0059899818152189255,-0.0000250337143370416
1772807041725676300,1.54367626953125,-0.0006870955694466829,0.006149505265057087,-0.000028762138754245825
1772807041735608000,1.553608154296875,0.0018759306985884905,0.008754342794418335,0.0015600797487422824
1772807041745540000,1.5635400390625,-0.00011451592581579462,0.00481446273624897,-0.00034168356796726584
1772807041755471000,1.57347119140625,-0.0028360001742839813,0.005288771353662014,0.0024855281226336956
1772807041765403400,1.5834033203125,-0.0010479538468644023,0.0049034119583666325,-0.002005093963816762
1772807041775335400,1.59333544921875,-0.001475657569244504,0.003937483765184879,-0.00001997370782191865
1772807041785267200,1.60326708984375,-0.00005912217602599412,0.005293565336614847,-0.0013739247806370258
1772807041795198200,1.6131982421875,-0.0019057580502703786,0.006740726996213198,-0.0014048174489289522
1772807041805130200,1.623130126953125,-0.0012506204657256603,0.0059961071237921715,-0.0018967032665386796
1772807041815062300,1.633062255859375,-0.0003765709698200226,0.008164718747138977,-0.0007896272582001984
1772807041824993000,1.642992919921875,0.00044767739018425345,0.006068279035389423,-0.000021837920940015465
1772807041834925000,1.652925048828125,0.001336107961833477,0.005111138802021742,-0.0021949773654341698
1772807041844857000,1.662857177734375,0.0002924150903709233,0.006715693045407534,-0.0000655137628200464
1772807041854789400,1.672789306640625,-0.00017789915727917105,0.006351639050990343,0.002650910522788763
1772807041864720100,1.68272021484375,-0.00247540813870728,0.006986270658671856,0.0012580773327499628
1772807041874652200,1.692652099609375,-0.003245061729103327,0.0030458574183285236,0.0020010992884635925
1772807041884584200,1.702584228515625,-0.0007946872501634061,0.006591856479644775,-0.0010301107540726662
1772807041894515200,1.71251513671875,-0.0014761901693418622,0.007260842248797417,0.0008442220860160887
1772807041904447200,1.722447265625,-0.000862864195369184,0.003862116253003478,-0.0003856257244478911
1772807041914379000,1.73237890625,-0.0009837717516347766,0.005121524911373854,-0.0001728391507640481
1772807041924310300,1.742310302734375,-0.003495665267109871,0.004878644831478596,-0.001425057533197105
1772807041934242300,1.7522421875,-0.001654355670325458,0.004904743749648333,-0.002011485630646348
1772807041944174300,1.76217431640625,-0.00166607357095927,0.0042719766497612,-0.0007337008719332516
1772807041954105000,1.77210498046875,-0.00250576832331717,0.005720736458897591,0.0007070692372508347
1772807041964037000,1.782037109375,-0.00014540860138367862,0.004874916281551123,-0.001127848750911653
1772807041973969200,1.79196923828125,0.0002724413643591106,0.005289037711918354,0.0012801815755665302
1772807041983901200,1.801901123046875,0.0009723200928419828,0.006100236903876066,0.0015912387752905488
1772807041993832200,1.811832275390625,-0.0005555353709496558,0.005694637540727854,-0.0002519350382499397
1772807042003764200,1.82176416015625,0.00009480853623244911,0.006360161118209362,0.000264718197286129
1772807042013696300,1.8316962890625,-0.0013547500129789114,0.007153783459216356,-0.0006815029191784561
1772807042023627300,1.841627197265625,0.0005270395777188241,0.00487331859767437,-0.0008426241693086922
1772807042033559300,1.851559326171875,-0.0028474517166614532,0.008392419666051865,-0.002409095410257578
1772807042043491000,1.861490966796875,-0.000892425247002393,0.005371595732867718,0.001547030289657414
1772807042053422300,1.87142236328125,-0.0016932378057390451,0.003852528752759099,-0.0006191849242895842
1772807042063354400,1.881354248046875,-0.0034735610242933035,0.007833155803382397,-0.0033939324785023928
1772807042073286400,1.891286376953125,-0.0013323795283213258,0.0063095614314079285,-0.0003254382754676044
1772807042083218200,1.90121826171875,0.00016538229829166085,0.004443750716745853,-0.0021339908707886934
1772807042093149200,1.911149169921875,0.00037923414492979646,0.004538292996585369,0.002116147894412279
1772807042103081200,1.921081298828125,0.0013049489352852106,0.002912166528403759,0.0025651566684246063
1772807042113013200,1.93101318359375,0.00007243797881528735,0.006631270982325077,0.001612011343240738
1772807042122944000,1.940944091796875,-0.0016205335268750787,0.00635004136711359,0.0015611450653523207
1772807042132876000,1.9508759765625,-0.0017124125733971596,0.008108260110020638,-0.0004814995336346328
1772807042142808300,1.960808349609375,-0.0010221211705356836,0.006488525774329901,-0.0007246461464092135
1772807042152739300,1.9707392578125,-0.0023339942563325167,0.006454969756305218,-0.001710548298433423
1772807042162671000,1.980671142578125,-0.0031558459158986807,0.00628985371440649,-0.0021020330023020506
1772807042172603100,1.99060302734375,-0.0046512107364833355,0.006178533658385277,-0.002225070958957076
1772807042182535200,2.00053515625,0.0006897587445564568,0.008136223070323467,-0.0017382452497258782
1772807042192466200,2.010466064453125,-0.0002892192860599607,0.0037705034483224154,-0.0010277138790115714
1772807042202398200,2.020398193359375,-0.0020442423410713673,0.005945506971329451,0.00011824435205198824
1772807042212330000,2.030330078125,0.0004780374001711607,0.007897071540355682,-0.00018908442871179432
1772807042222261200,2.04026123046875,0.0001840244367485866,0.004770520608872175,0.0009901633020490408
1772807042232193300,2.050193359375,-0.0007550061563961208,0.005346828605979681,-0.00047857005847617984
1772807042242125300,2.060125244140625,0.0003057308786083013,0.007028880994766951,0.000036218989407643676
1772807042252057300,2.070057373046875,-0.0009017463307827711,0.006502906791865826,-0.00046099317842163146
1772807042261988000,2.079988037109375,-0.0011978897964581847,0.006631004624068737,0.0009249158320017159
1772807042271920000,2.089920166015625,0.0002759034978225827,0.008479771204292774,-0.0000756337758502923
1772807042281852200,2.09985205078125,-0.00005459480235003866,0.006324208807200193,0.00046046054922044277
1772807042291783200,2.109783203125,-0.002457032445818186,0.0026852653827518225,0.00005805691034765914
1772807042301715200,2.119715087890625,-0.0026935210917145014,0.0037356161046773195,-0.00021891183860134333
1772807042311647200,2.129647216796875,-0.00007723167072981596,0.0037891454994678497,0.000821318884845823
1772807042321578200,2.139578125,-0.0015720640076324344,0.006331665441393852,-0.00036724991514347494
1772807042331510300,2.14951025390625,0.000007456851108145202,0.007017695810645819,0.000895621080417186
1772807042341442000,2.159442138671875,-0.0011089402250945568,0.00720411678776145,-0.0005041363765485585
1772807042351373300,2.169373291015625,-0.0008807073463685811,0.005079447291791439,-0.0010439591715112329
1772807042361305300,2.179305419921875,-0.0003022687742486596,0.007684018462896347,-0.0010700580896809697
1772807042371237400,2.1892373046875,-0.0024402544368058443,0.006403304636478424,0.00013875069271307439
1772807042381169400,2.19916943359375,-0.002575543010607362,0.0033654365688562393,-0.0008338357438333333
1772807042391100200,2.20910009765625,-0.0010961571242660284,0.0044109937734901905,-0.0011997540714219213
1772807042401032200,2.2190322265625,-0.000645550258923322,0.004816859494894743,-0.00019574233738239855
1772807042410964200,2.228964111328125,0.0011345066595822573,0.004820321686565876,0.001996305538341403
1772807042420895000,2.23889501953125,0.00007962851668708026,0.004845887888222933,0.000508663768414408
1772807042430827300,2.2488271484375,-0.0012229235144332051,0.008924252353608608,-0.0015254586469382048
1772807042440759300,2.25875927734375,-0.0004450142150744796,0.007447263691574335,-0.0000977380113909021
1772807042450690300,2.268690185546875,-0.0013933659065514803,0.006671750918030739,0.0002932140196207911
1772807042460622300,2.278622314453125,-0.0014801849611103535,0.006329535041004419,0.00040559942135587335
1772807042470554000,2.28855419921875,-0.0014452975010499358,0.006934338714927435,-0.0005419532535597682
1772807042480486100,2.298486083984375,-0.00040480049210600555,0.004905276466161013,0.0005941512063145638
1772807042490417200,2.308417236328125,-0.0010357033461332321,0.00446798512712121,0.0018905780743807554
1772807042500349200,2.31834912109375,0.0009363674325868487,0.004917527083307505,0.0017097494564950466
1772807042510281000,2.328281005859375,-0.0015369103057309985,0.006533266510814428,-0.00016671388584654778
1772807042520212200,2.338212158203125,-0.0005661880713887513,0.006740726996213198,0.002394980750977993
1772807042530144300,2.348144287109375,-0.0015180017799139023,0.006027798634022474,-0.0026375947054475546
1772807042540076300,2.358076171875,-0.0026905916165560484,0.005816077347844839,0.0015968313673511147
1772807042550008000,2.368008056640625,-0.0032530513126403093,0.009914948605000973,-0.0004756405542138964
1772807042559940000,2.377940185546875,0.0011704593198373914,0.006042978726327419,-0.0013142699608579278
1772807042569872100,2.3878720703125,0.0025680861435830593,0.004245611373335123,0.0006628608098253608
1772807042579804200,2.39780419921875,-0.0011763182701542974,0.006473079323768616,0.003063966752961278
1772807042589735200,2.407735107421875,-0.001189900329336524,0.005362008698284626,-0.00018562232435215265
1772807042599667200,2.417667236328125,-0.0026040389202535152,0.007125287316739559,-0.0009190568816848099
1772807042609599200,2.42759912109375,-0.00009347695595351979,0.0049590724520385265,-0.003169161733239889
1772807042619530200,2.4375302734375,-0.0018927085911855102,0.0064895907416939735,-0.0009219863568432629
1772807042629462300,2.447462158203125,-0.0007440872141160071,0.0059689427725970745,-0.00040293627534992993
1772807042639394000,2.45739404296875,-0.001371794263832271,0.006037918850779533,0.0004463458026293665
1772807042649325000,2.467324951171875,-0.001969141187146306,0.008862201124429703,-0.000049801110435510054
1772807042659257000,2.477257080078125,0.0007757788407616317,0.006788930390030146,0.000764593540225178
1772807042669189000,2.487189208984375,0.0003475425182841718,0.0037856835406273603,0.0014857775531709194
1772807042679121200,2.49712109375,-0.0009142631897702813,0.006237389519810677,-0.00027510453946888447
1772807042689052200,2.50705224609375,-0.0006716492353007197,0.006338589824736118,0.0008804410463199019
1772807042698984200,2.516984130859375,-0.000021837920940015465,0.004474110435694456,-0.0017584852175787091
1772807042708916200,2.526916259765625,0.0004844290087930858,0.004820853937417269,0.0008902947301976383
1772807042718847200,2.53684716796875,-0.0006418218254111707,0.0038511971943080425,0.002469282830134034
1772807042728779000,2.546779052734375,0.0009017463307827711,0.0059867859818041325,0.0009195895399898291
1772807042738711000,2.5567109375,0.0005225121858529747,0.0043295007199049,0.001032507512718439
1772807042748643000,2.56664306640625,-0.0005558017292059958,0.008097341284155846,-0.00020479709201026708
1772807042758574300,2.57657421875,-0.0018599516479298472,0.007143130525946617,-0.0007275756215676665
1772807042768506000,2.586506103515625,0.0002689792599994689,0.00817910023033619,0.0004391552647575736
1772807042778438100,2.596438232421875,0.0002998719282913953,0.004840295296162367,-0.0012895026011392474
1772807042788369200,2.606369140625,-0.0010090717114508152,0.005519134923815727,-0.002930542454123497
1772807042798301200,2.61630126953125,-0.000645550258923322,0.005773467011749744,0.000502804818097502
1772807042808233200,2.626233154296875,-0.0036008600145578384,0.005021656397730112,-0.00024208133982028812
1772807042818164200,2.636164306640625,-0.00020879182557109743,0.007951400242745876,-0.0015161376213654876
1772807042828096300,2.64609619140625,-0.0007475492893718183,0.00478303711861372,-0.0005012069013901055
1772807042838028300,2.6560283203125,-0.0008889631717465818,0.007417169865220785,-0.0023390543647110462
1772807042847960300,2.665960205078125,-0.0011520835105329752,0.005013933405280113,0.0013259878614917397
1772807042857891000,2.67589111328125,-0.0011076086666435003,0.00706829596310854,-0.0014466290595009923
1772807042867823000,2.685822998046875,-0.00005406216951087117,0.004299940075725317,0.000477504770969972
1772807042877755100,2.695755126953125,0.00023196132679004222,0.006103432737290859,-0.0013278521364554763
1772807042887686100,2.70568603515625,0.0022394522093236446,0.007196127437055111,0.0006032059900462627
1772807042897618200,2.7156181640625,-0.0023547669406980276,0.006133792456239462,0.0006258428329601884
1772807042907550200,2.72555029296875,0.00013795174891129136,0.006203833501785994,0.0012474246323108673
1772807042917481200,2.735481201171875,-0.002261556452140212,0.003631486324593425,0.0005880259559489787
1772807042927413200,2.745413330078125,-0.0024234766606241465,0.004072505980730057,0.001600559800863266
1772807042937345300,2.75534521484375,0.00017097493400797248,0.004397944081574678,-0.0001608549355296418
1772807042947277000,2.765277099609375,-0.0021430456545203924,0.010192982852458954,0.0004873584839515388
1772807042957208000,2.7752080078125,0.0002162486780434847,0.003763046581298113,-0.00011664645717246458
1772807042967140000,2.78514013671875,-0.0007321029552258551,0.00675324397161603,-0.0015662050573155284
1772807042977072000,2.795072021484375,-0.003674629610031843,0.006792126223444939,-0.0029854036401957273
1772807042987003100,2.805003173828125,-0.0005193164106458426,0.007639543619006872,-0.0003707120195031166
1772807042996935200,2.81493505859375,-0.0008966863388195634,0.006729275453835726,0.0005459480453282595
1772807043006867200,2.8248671875,-0.0025180187076330185,0.005528988782316446,0.0020237360149621964
1772807043016798200,2.834798095703125,-0.0016647420125082135,0.0008873652550391853,0.0009273127070628107
1772807043026730000,2.84472998046875,-0.00096086849225685,0.007699997629970312,0.0016330503858625889
1772807043036662000,2.854662109375,-0.0013345100451260805,0.006148706190288067,0.00027510453946888447
1772807043046594000,2.864593994140625,0.0017813884187489748,0.005114334635436535,0.0009257147903554142
1772807043056525300,2.874525390625,0.00029294771957211196,0.0049550775438547134,-0.00048629322554916143
1772807043066457300,2.884457275390625,-0.001127316034398973,0.0067899953573942184,-0.0011046791914850473
1772807043076389000,2.89438916015625,0.00046845004544593394,0.006938599981367588,-0.0005094627267681062
1772807043086320000,2.904320068359375,0.0005049353349022567,0.006399043370038271,-0.0014468954177573323
1772807043096252200,2.914252197265625,-0.0009672601008787751,0.005160140804946423,0.0008862999966368079
1772807043106184200,2.92418408203125,-0.0009307747823186219,0.00487225316464901,-0.002541188383474946
1772807043116115200,2.934115234375,-0.0022053637076169252,0.004708202555775642,0.0018226674292236567
1772807043126047200,2.944047119140625,-0.001148355077020824,0.005082643125206232,0.00045912896166555583
1772807043135979300,2.953979248046875,-0.000431432097684592,0.005289836786687374,-0.0002412823960185051
1772807043145911300,2.963911376953125,0.00010253170330543071,0.0067838700488209724,0.0003177151083946228
1772807043155842000,2.973842041015625,0.00003941478280466981,0.0026929883752018213,0.001490304945036769
1772807043165774000,2.983774169921875,0.0010969560826197267,0.005378520116209984,-0.00020293287525419146
1772807043175706000,2.9937060546875,-0.0015193333383649588,0.005400358233600855,0.0014317154418677092
1772807043185637000,3.00363720703125,-0.001520132296718657,0.006052832584828138,0.00018349179299548268
1772807043195569200,3.013569091796875,0.001606152392923832,0.007182279136031866,0.0012309130979701877
1772807043205501200,3.023501220703125,-0.0021781993564218283,0.006470682565122843,-0.000556334329303354
1772807043215432200,3.03343212890625,-0.0018104169284924865,0.004855475388467312,0.0003454120014794171
1772807043225364200,3.0433642578125,-0.0014708638191223145,0.005346562247723341,-0.0005560680292546749
1772807043235296300,3.053296142578125,0.0014455638593062758,0.0036107138730585575,-0.0012175972806289792
1772807043245228000,3.06322802734375,0.00013555490295402706,0.00737402681261301,-0.0009976201690733433
1772807043255159000,3.073158935546875,-0.0013829795643687248,0.008079764433205128,-0.0008785768295638263
1772807043265091000,3.083091064453125,-0.0015837819082662463,0.00860041193664074,-0.00115421402733773
1772807043275023000,3.093023193359375,-0.0013068130938336253,0.006585731171071529,-0.00250496924854815
1772807043284954000,3.1029541015625,-0.0022333269007503986,0.00427250936627388,-0.001076982356607914
1772807043294886100,3.11288623046875,-0.0010692591313272715,0.0032834112644195557,0.0007768440991640091
1772807043304818200,3.122818115234375,-0.0036658411845564842,0.007559382822364569,-0.00049082055920735
1772807043314749200,3.132749267578125,-0.002142513170838356,0.0067543089389801025,-0.0015073491958901286
1772807043324681000,3.142680908203125,0.0014692660188302398,0.00686056911945343,-0.0007563377148471773
1772807043334613000,3.152613037109375,-0.0020849888678640127,0.007448861375451088,-0.0008743157959543169
1772807043344545000,3.162544921875,0.0012679309584200382,0.0067718857899308205,0.0007605988066643476
1772807043354476300,3.172476318359375,0.00009906959166983142,0.005564941558986902,0.0005022721597924829
1772807043364408300,3.182408203125,-0.003307912265881896,0.007852330803871155,0.0006412891671061516
1772807043374340000,3.192340087890625,-0.0010772485984489322,0.005546565633267164,-0.0011456918437033892
1772807043384271000,3.20227099609375,0.0004996090428903699,0.00748960766941309,-0.0013560815714299679
1772807043394203100,3.212203125,0.0012479572324082255,0.006650712341070175,0.0008572715451009572
1772807043404135200,3.22213525390625,-0.0022620889358222485,0.006794256623834372,0.0003281014505773783
1772807043414067200,3.232067138671875,-0.0022778017446398735,0.005903429351747036,-0.0006460828590206802
1772807043423998200,3.241998291015625,0.00025353292585350573,0.003644003299996257,-0.002138784620910883
1772807043433930200,3.25193017578125,-0.00020586235041264445,0.006296778097748756,0.0012210593558847904
1772807043443862300,3.2618623046875,-0.0013134710025042295,0.004742823541164398,-0.0004117247008252889
1772807043453793000,3.27179296875,0.0002569950302131474,0.00418515782803297,0.0022008363157510757
1772807043463725000,3.28172509765625,-0.0011499529937282205,0.006086654495447874,0.0008713863207958639
1772807043473657000,3.291656982421875,-0.0013725932221859694,0.003762780223041773,0.00008495483780279756
1772807043483588000,3.301588134765625,0.00030599720776081085,0.004022172186523676,0.001597630325704813
1772807043493520400,3.311520263671875,-0.0014466290595009923,0.006865895353257656,-0.0015009575290605426
1772807043503452200,3.3214521484375,0.0015488944482058287,0.006583333946764469,0.0008109325426630676
1772807043513384200,3.33138427734375,-0.0034943337086588144,0.005248291417956352,-0.0016993631143122911
1772807043523315200,3.341315185546875,0.00008229167724493891,0.004202468320727348,-0.003650128608569503
1772807043533247200,3.351247314453125,-0.0008415589109063148,0.006012884899973869,-0.0006511429091915488
1772807043543179300,3.36117919921875,-0.0023289343807846308,0.005799299571663141,0.0010207896120846272
1772807043553109500,3.371109619140625,-0.001193362521007657,0.006738063879311085,0.0025212145410478115
1772807043563041500,3.38104150390625,-0.003097256412729621,0.006611830089241266,-0.0003755057114176452
1772807043572973300,3.390973388671875,0.0003073287953156978,0.0031372036319226027,0.0011052117915824056
1772807043582904300,3.400904296875,0.0011227887589484453,0.006759635638445616,-0.0006828344776295125
1772807043592836400,3.41083642578125,-0.003043993143364787,0.006684267893433571,0.00033928672201000154
1772807043602768400,3.420768310546875,-0.0005736448802053928,0.006968427449464798,-0.00018029600323643535
1772807043612700200,3.4307001953125,-0.00012996226723771542,0.00526799913495779,-0.002511627273634076
1772807043622631400,3.44063134765625,-0.0013528858544304967,0.006049370393157005,-0.0011089402250945568
1772807043632563500,3.4505634765625,-0.0007672567153349519,0.003712446428835392,0.0007262440049089491
1772807043642495500,3.46049560546875,-0.0006157228490337729,0.003983023576438427,-0.0013670006301254034
1772807043652426200,3.47042626953125,0.0011547466274350882,0.008358597755432129,-0.000874582096002996
1772807043662358300,3.480358154296875,-0.0015361113473773003,0.0043308325111866,-0.00017097493400797248
1772807043672290300,3.490290283203125,-0.0003842941368930042,0.007851798087358475,-0.0016365124611184
1772807043682221300,3.50022119140625,0.000030892668291926384,0.007870440371334553,-0.00036245622322894633
1772807043692153000,3.510153076171875,0.0013070794520899653,0.0044235107488930225,-0.000013848437447450124
1772807043702085400,3.52008544921875,-0.0008367652189917862,0.006566023454070091,-0.0016753945965319872
1772807043712017400,3.530017333984375,0.0012442287988960743,0.0038219024427235126,-0.0001680454588495195
1772807043721948400,3.539948486328125,-0.0009864348685368896,0.005945773329585791,-0.00022556974727194756
1772807043731880400,3.54988037109375,0.0013843111228197813,0.00788775086402893,-0.001353152096271515
1772807043741812200,3.559812255859375,-0.0018876485992223024,0.006333795841783285,0.001606152392923832
1772807043751743200,3.5697431640625,-0.003022954100742936,0.007732754573225975,0.00031425300403498113
1772807043761675300,3.57967529296875,-0.0003709783486556262,0.006666158325970173,-0.00029348034877330065
1772807043771607300,3.589607177734375,-0.0014884406700730324,0.006067479960620403,0.00115421402733773
1772807043781538300,3.599538330078125,-0.0015403723809868097,0.0060030315071344376,-0.0010636665392667055
1772807043791470300,3.60947021484375,-0.0006053365068510175,0.003868241561576724,0.0000697748182574287
1772807043801402400,3.61940234375,0.00018801917030941695,0.004860268905758858,-0.00170815153978765
1772807043811334400,3.62933447265625,-0.0016045545926317573,0.004415787290781736,-0.0032349417451769114
1772807043821265200,3.63926513671875,0.0012444951571524143,0.006472546607255936,-0.0016138756182044744
1772807043831197200,3.649197265625,-0.0036727653350681067,0.005909820552915335,0.001085770782083273
1772807043841129200,3.659129150390625,-0.00042983421008102596,0.006598780397325754,0.0013765880139544606
1772807043851060500,3.669060546875,-0.0016202671686187387,0.006941263098269701,-0.0016844493802636862
1772807043860992500,3.678992431640625,0.0015459649730473757,0.006454969756305218,-0.000056459015468135476
1772807043870924300,3.68892431640625,-0.0015137407463043928,0.006589991971850395,-0.0007574030314572155
1772807043880855300,3.698855224609375,-0.0011265170760452747,0.006059224251657724,0.0004918858758173883
1772807043890787300,3.708787353515625,-0.0003789678157772869,0.006085056811571121,0.0014682007022202015
1772807043900719400,3.71871923828125,0.001175519311800599,0.004535097163170576,0.000547279603779316
1772807043910651400,3.7286513671875,-0.0012828446924686432,0.006473345682024956,0.0009952232940122485
1772807043920582400,3.73858251953125,-0.0007858988246880472,0.007703726179897785,0.000794420950114727
1772807043930514400,3.748514404296875,-0.0016247945604845881,0.005820072256028652,-0.0005041363765485585
1772807043940446500,3.758446533203125,-0.004066114313900471,0.005279717035591602,0.0023550332989543676
1772807043950377200,3.768377197265625,-0.0005725796218030155,0.005507949739694595,-0.002594451420009136
1772807043960309200,3.778309326171875,-0.0012548814993351698,0.0034115093294531107,0.0026285399217158556
1772807043970241300,3.7882412109375,-0.00021944446780253202,0.005084773525595665,-0.0034887411165982485
1772807043980173300,3.79817333984375,0.0003837615076918155,0.005487177055329084,0.0002620550512801856
1772807043990104300,3.808104248046875,0.00011664645717246458,0.007157511543482542,-0.0012767193838953972
1772807044000036400,3.818036376953125,-0.005252552684396505,0.008431035093963146,-0.0009488842915743589
1772807044009968400,3.827968505859375,-0.0011797803454101086,0.007296528667211533,0.0013174657942727208
1772807044019899400,3.8378994140625,-0.0024319987278431654,0.005857622716575861,-0.0006644586683250964
1772807044029831400,3.84783154296875,-0.002264752285555005,0.005648564547300339,0.0002567287301644683
1772807044039763200,3.85776318359375,0.0010751180816441774,0.006345513742417097,-0.0031153657473623753
1772807044049694200,3.867694091796875,-0.0015614113071933389,0.005885852500796318,0.00047857005847617984
1772807044059626200,3.877626220703125,0.0001579254458192736,0.0051931641064584255,-0.0016855146968737245
1772807044069558300,3.887558349609375,0.00016777914424892515,0.005845372099429369,0.0014889733865857124
1772807044079490300,3.897490234375,-0.002222940558567643,0.005025384947657585,-0.0005014732014387846
1772807044089421300,3.90742138671875,-0.00013741910515818745,0.005280782002955675,-0.0004700479330495
1772807044099353300,3.917353271484375,-0.00006950850365683436,0.00563977612182498,-0.0012631373247131705
1772807044109285400,3.927285400390625,-0.00025033715064637363,0.004024835303425789,0.0006245112745091319
1772807044119216400,3.93721630859375,-0.0010996191995218396,0.005900765769183636,0.0001978728687390685
1772807044129148200,3.947148193359375,-0.0026109630707651377,0.006068811286240816,0.0012058793799951673
1772807044139080200,3.957080078125,-0.002886600326746702,0.006730606779456139,-0.0009922938188537955
1772807044149011500,3.967011474609375,0.0011113371001556516,0.006044310517609119,-0.0005904228310100734
1772807044158943500,3.976943603515625,-0.0014684670604765415,0.006531136110424995,-0.0032091091852635145
1772807044168875300,3.986875244140625,-0.0012098740553483367,0.0034011229872703552,0.00032091091270558536
1772807044178805200,3.99680517578125,0.0004601942200679332,0.006344448775053024,0.002210689941421151
1772807044188737300,4.0067373046875,-0.0032690302468836308,0.006645918358117342,-0.00003435477628954686
1772807044198669300,4.01666943359375,-0.0007251787465065718,0.008037419989705086,0.0028703550342470407
1772807044208600300,4.026600341796875,0.00014753911818843335,0.0068115671165287495,0.0011829761788249016
1772807044218532400,4.036532470703125,0.0023132218047976494,0.00720571493729949,0.0006346312584355474
1772807044228464400,4.04646435546875,-0.0026080335956066847,0.0072805495001375675,-0.003603257006034255
1772807044238395100,4.05639501953125,-0.0007664577569812536,0.007744472473859787,0.000002663161012605997
1772807044248327200,4.0663271484375,-0.0017323862994089723,0.005429386626929045,-0.003183010034263134
1772807044258259200,4.07625927734375,-0.0023702133912593126,0.006333529483526945,0.0005009406013414264
1772807044268191200,4.086191162109375,-0.0028160265646874905,0.006746585946530104,-0.0005113269435241818
1772807044278122500,4.09612255859375,-0.0012660667998716235,0.005697300657629967,0.0011669971281662583
1772807044288054300,4.10605419921875,-0.00036991306114941835,0.0051931641064584255,-0.0005408879951573908
1772807044297986300,4.115986328125,0.0000780306218075566,0.006086920853704214,-0.000046072687837295234
1772807044307917300,4.125917236328125,-0.0007193197961896658,0.006174805108457804,0.00042770366417244077
1772807044317849300,4.135849365234375,-0.0015941682504490018,0.004316451493650675,0.00224957219325006
1772807044327781400,4.145781494140625,0.0008484831196255982,0.007012369576841593,-0.00045593318645842373
1772807044337712400,4.15571240234375,-0.0016431703697890043,0.008984972722828388,-0.00043595946044661105
1772807044347644400,4.16564453125,0.0005787048721686006,0.005230980925261974,0.00019494339358061552
1772807044357576400,4.175576416015625,0.0013797837309539318,0.00672235107049346,0.0004420847399160266
1772807044367508500,4.185508544921875,0.0004916195175610483,0.0057739997282624245,-0.0010197244118899107
1772807044377439200,4.195439208984375,-0.002389654517173767,0.005724464543163776,0.0011821772204712033
1772807044387371300,4.205371337890625,-0.0012636699248105288,0.008620652370154858,-0.001475391210988164
1772807044397303300,4.21530322265625,-0.0012895026011392474,0.007075486239045858,0.0007510114228352904
1772807044407234300,4.225234375,-0.0020719394087791443,0.006193713750690222,-0.00044128578156232834
1772807044417166300,4.235166259765625,-0.0014476943761110306,0.006727677304297686,-0.0001323590986430645
1772807044427098400,4.245098388671875,0.00023755396250635386,0.006768424063920975,-0.00015526228526141495
1772807044437029400,4.255029296875,0.0007669904152862728,0.008141815662384033,-0.00016351809608750045
1772807044446961400,4.26496142578125,-0.0023521038237959146,0.002697515767067671,0.0011377023765817285
1772807044456893400,4.2748935546875,-0.0010785802733153105,0.006229666527360678,-0.0014450311427935958
1772807044466825200,4.2848251953125,-0.002502838848158717,0.004582767374813557,-0.0012652678415179253
1772807044476756200,4.294756103515625,0.0013371731620281935,0.005071457475423813,-0.0005041363765485585
1772807044486688300,4.304688232421875,0.00011664645717246458,0.0065447185188531876,-0.0015614113071933389
1772807044496620500,4.31462060546875,-0.002234658459201455,0.0048980857245624065,0.0005036037764512002
1772807044506551300,4.32455126953125,-0.0005488775204867125,0.0046424223110079765,0.0002181128947995603
1772807044516484400,4.334484375,0.00041305628838017583,0.006010754499584436,-0.00021012341312598437
1772807044526415400,4.344415283203125,-0.002240783767774701,0.00711862975731492,-0.00046871634549461305
1772807044536347400,4.354347412109375,-0.00003834952076431364,0.006636863574385643,-0.00028069718973711133
1772807044546279400,4.364279541015625,0.0002849582233466208,0.0065527078695595264,-0.0019265307346358895
1772807044556210700,4.374210693359375,-0.0009811085183173418,0.003805124433711171,-0.001330249011516571
1772807044566142700,4.384142822265625,-0.0006005428149364889,0.005658418405801058,0.0013398362789303064
1772807044576074500,4.394074462890625,0.0002812298189383,0.006917294580489397,-0.0013427657540887594
1772807044586006500,4.404006591796875,-0.0018660769565030932,0.00720491586253047,-0.0028533106669783592
1772807044595937800,4.413937744140625,-0.002644518855959177,0.007786017842590809,0.0002932140196207911
1772807044605869800,4.423869873046875,-0.002103897277265787,0.003260508179664612,0.0018314558546990156
1772807044615801900,4.4338017578125,-0.002602973720058799,0.006711165886372328,-0.0006146575906313956
1772807044625732600,4.443732666015625,-0.002350772265344858,0.005620335228741169,-0.0007006776868365705
1772807044635664600,4.45366455078125,-0.0011116034584119916,0.00768721429631114,-0.0008910936885513365
1772807044645596700,4.4635966796875,-0.00042530681821517646,0.0073625752702355385,0.0009784454014152288
1772807044655527700,4.473527587890625,-0.00180855265352875,0.005768673028796911,-0.0007749798824079335
1772807044665459700,4.483459716796875,-0.004549744538962841,0.004394748248159885,0.000010386328540334944
1772807044675391700,4.493391845703125,-0.0010018812026828527,0.002685531508177519,0.0005789712304249406
1772807044685323800,4.50332373046875,-0.0009294432238675654,0.0043713124468922615,0.000996554852463305
1772807044695254800,4.5132548828125,-0.0010000169277191162,0.004825914278626442,0.0017917747609317303
1772807044705186600,4.5231865234375,-0.0005672533297911286,0.006068811286240816,0.00035712990211322904
1772807044715118600,4.53311865234375,0.0003736414946615696,0.0038123151753097773,0.0005201153689995408
1772807044725049900,4.5430498046875,-0.0012298477813601494,0.006620618514716625,-0.00019361180602572858
1772807044734982000,4.55298193359375,-0.0019387812353670597,0.0058669438585639,-0.0013491574209183455
1772807044744914000,4.562913818359375,0.00031558459158986807,0.00395585922524333,-0.00005273058923194185
1772807044754845700,4.572845703125,-0.0008740494376979768,0.003863980295136571,0.00009693906031316146
1772807044764776700,4.582776611328125,-0.0005054679932072759,0.0065132929012179375,-0.0008998821140266955
1772807044774708700,4.592708740234375,-0.0015044197207316756,0.0073260897770524025,-0.0001233043585671112
1772807044784640800,4.602640869140625,-0.0015646071406081319,0.006472546607255936,0.00006950850365683436
1772807044794571500,4.612571533203125,-0.0021057615522295237,0.006357231643050909,-0.0008602010202594101
1772807044804503600,4.622503662109375,0.0001323590986430645,0.006503173150122166,0.0018785938154906034
1772807044814435800,4.632435791015625,0.0012607404496520758,0.005898901727050543,-0.0023521038237959146
1772807044824366800,4.642366943359375,0.000493750034365803,0.007217965554445982,-0.0007584682898595929
1772807044834298600,4.652298583984375,-0.0014562164433300495,0.005894374568015337,-0.0015430354978889227
1772807044844230700,4.662230712890625,-0.00170815153978765,0.0059750680811703205,-0.0003254382754676044
1772807044854162700,4.67216259765625,-0.0006319681415334344,0.006214486435055733,0.0020421119406819344
1772807044864093700,4.68209375,-0.0029755497816950083,0.00631994754076004,0.001996838254854083
1772807044874025700,4.692025634765625,0.00013422331539914012,0.007121292874217033,-0.002266349969431758
1772807044883957500,4.70195751953125,-0.0009560748003423214,0.005563077051192522,-0.0022775353863835335
1772807044893888800,4.711888671875,-0.0013406352372840047,0.005012601613998413,0.00006125270738266408
1772807044903820800,4.72182080078125,-0.0006998787284828722,0.006584133021533489,-0.0004649879119824618
1772807044913752800,4.7317529296875,-0.00010945591930067167,0.005613144487142563,-0.0005352954030968249
1772807044923683600,4.74168359375,-0.0020788635592907667,0.006479204632341862,-0.0011241203173995018
1772807044933615600,4.75161572265625,0.00010173275222769007,0.006735667120665312,0.0007994809420779347
1772807044943547600,4.761547607421875,-0.001178448786959052,0.008402273058891296,-0.001205080421641469
1772807044953479700,4.771479736328125,-0.0005976133397780359,0.005970807280391455,0.0009659285424277186
1772807044963410700,4.78141064453125,-0.0019489012192934752,0.007251521106809378,0.0015126754296943545
1772807044973342700,4.7913427734375,-0.0023031015880405903,0.0049494849517941475,-0.0010615360224619508
1772807044983274800,4.801274658203125,-0.0008543420699425042,0.005584382452070713,0.0003861583536490798
1772807044993205800,4.811205810546875,0.0010538127971813083,0.004944957327097654,0.00021438446128740907
1772807045003137500,4.821137451171875,-0.00039494677912443876,0.004704740364104509,-0.000993625377304852
1772807045013069600,4.831069580078125,-0.0023843280505388975,0.006788930390030146,-0.00011132013605674729
1772807045023001600,4.841001708984375,-0.001085770782083273,0.007740743923932314,0.0012056130217388272
1772807045032932900,4.850932861328125,-0.0012961605098098516,0.0060344566591084,0.0009416937828063965
1772807045042865000,4.860864990234375,0.0010479538468644023,0.006473878398537636,0.00046339002437889576
1772807045052796700,4.870796630859375,0.0003499393642414361,0.00794341042637825,0.001085770782083273
1772807045062727700,4.880727783203125,-0.0020447750575840473,0.007025685161352158,-0.0017803232185542583
1772807045072659700,4.89065966796875,0.0025965820532292128,0.004932973068207502,-0.0009736517095007002
1772807045082591700,4.900591796875,-0.001341434195637703,0.0036525253672152758,-0.000007456851108145202
1772807045092522500,4.9105224609375,0.000027164242055732757,0.006302370689809322,0.0010407633380964398
1772807045102454800,4.920454833984375,-0.0007536745979450643,0.006102100946009159,-0.0006562029011547565
1772807045112386800,4.93038671875,-0.00023409185814671218,0.0049678608775138855,-0.0011174624087288976
1772807045122318800,4.94031884765625,-0.001520398654974997,0.00660410663112998,-0.0035214978270232677
1772807045132249600,4.95024951171875,0.0013046825770288706,0.006400907412171364,0.0031366711482405663
1772807045142181600,4.960181640625,0.0005520732956938446,0.007006244268268347,-0.0006215817993506789
1772807045152113700,4.97011376953125,0.0014178669080138206,0.006048038601875305,-0.0004423510399647057
1772807045162044700,4.980044677734375,0.0012743226252496243,0.006401972845196724,0.0012831110507249832
1772807045171976700,4.989976806640625,-0.0026471822056919336,0.005596366710960865,0.0009856359101831913
1772807045181908500,4.999908447265625,-0.002141980454325676,0.005598230753093958,-0.0009962886106222868
1772807045191840800,5.0098408203125,0.002046106616035104,0.0036365464329719543,0.0009206547983922064
1772807045201771800,5.019771728515625,0.0004700479330495,0.004148405976593494,-0.0005547364708036184
1772807045211703800,5.029703857421875,-0.00020746025256812572,0.006481867749243975,-0.0008617989369668067
1772807045221635800,5.0396357421875,-0.0006181196658872068,0.006203567609190941,-0.0004593952908180654
1772807045231566600,5.049566650390625,-0.0003438140847720206,0.007861651480197906,0.002269279444590211
1772807045241498600,5.05949853515625,-0.0036887445021420717,0.0065681543201208115,0.000526773277670145
1772807045251430700,5.0694306640625,0.001597363967448473,0.006764162797480822,0.0008649947121739388
1772807045261361700,5.079361572265625,-0.0013574132462963462,0.00788455456495285,-0.002010952914133668
1772807045271293700,5.089293701171875,-0.0023917849175632,0.0070405988954007626,0.0010998855577781796
1772807045281225700,5.099225830078125,-0.0006708502769470215,0.006398777011781931,-0.0004218447138555348
1772807045291157800,5.10915771484375,-0.0000756337758502923,0.006284527480602264,0.0008777778712101281
1772807045301088800,5.1190888671875,0.00038775624125264585,0.005953496787697077,-0.0032173648942261934
1772807045311020500,5.1290205078125,-0.0012394351651892066,0.005489573813974857,-0.002161954063922167
1772807045320952600,5.13895263671875,-0.0007225155713967979,0.004929777234792709,-0.0022570290602743626
1772807045330883800,5.1488837890625,-0.001127848750911653,0.006572148762643337,-0.004572647623717785
1772807045340816000,5.15881591796875,-0.0015539544401690364,0.006748982705175877,0.0009928264189511538
1772807045350747600,5.16874755859375,-0.0024557008873671293,0.007115433923900127,-0.000639424950350076
1772807045360679700,5.1786796875,-0.0014439659425988793,0.004979046061635017,0.0005374259199015796
1772807045370610700,5.188610595703125,-0.0007422229973599315,0.005930859595537186,-0.0020423782989382744
1772807045380542700,5.198542724609375,0.0009161274065263569,0.005420598201453686,0.002147306688129902
1772807045390474800,5.208474853515625,0.00035260253935121,0.0065444521605968475,-0.00024447820032946765
1772807045400405800,5.21840576171875,-0.0013632721966132522,0.0067788101732730865,-0.00152332813013345
1772807045410337800,5.228337890625,-0.0012844426091760397,0.005212871357798576,0.0015374429058283567
1772807045420269800,5.238269775390625,-0.0007811051327735186,0.005646966863423586,0.0008029430755414069
1772807045430200800,5.248200927734375,-0.00022929816623218358,0.0060147494077682495,0.0004391552647575736
1772807045440132600,5.258132568359375,-0.00043116576853208244,0.0059540290385484695,-0.00048363005043938756
1772807045450064600,5.268064697265625,-0.003168096300214529,0.00720518222078681,0.001437308033928275
1772807045459996700,5.27799658203125,-0.0005243764026090503,0.007690676487982273,0.0020178770646452904
1772807045469927700,5.287927734375,-0.0021824603900313377,0.0059692091308534145,-0.003263970138505101
1772807045479859700,5.297859619140625,-0.0003635214816313237,0.0059630838222801685,-0.0017174725653603673
1772807045489791700,5.307791748046875,0.0009776464430615306,0.005800098646432161,-0.0014716627774760127
1772807045499722800,5.31772265625,0.001458080718293786,0.004519650712609291,0.0002956108655780554
1772807045509654800,5.32765478515625,0.0008210525847971439,0.006874151527881622,0.0015656723408028483
1772807045519586800,5.3375869140625,-0.0015696671325713396,0.0043920851312577724,0.0002689792599994689
1772807045529518600,5.3475185546875,-0.0013824469642713666,0.006003297865390778,-0.00010146643762709573
1772807045539449600,5.35744970703125,-0.002129996195435524,0.0065801385790109634,-0.00013369068619795144
1772807045549381600,5.367381591796875,-0.002234658459201455,0.0041220407001674175,0.0007147924043238163
1772807045559313400,5.3773134765625,-0.0015249260468408465,0.005136971361935139,0.002825347473844886
1772807045569244400,5.387244384765625,-0.0021632856223732233,0.00762915750965476,-0.0018666095566004515
1772807045579176400,5.397176513671875,-0.0018495653057470918,0.004983573220670223,-0.0004114583716727793
1772807045589108500,5.4071083984375,-0.003034938359633088,0.00621182331815362,-0.0028192223981022835
1772807045599039200,5.417039306640625,0.0007861651247367263,0.005115133244544268,-0.0009869674686342478
1772807045608971300,5.42697119140625,0.00012650014832615852,0.0039044604636728764,-0.0006838997360318899
1772807045618903300,5.4369033203125,0.0015198660548776388,0.003079146845266223,-0.0003328951424919069
1772807045628835300,5.44683544921875,-0.0018618159228935838,0.007712514605373144,-0.0006495449924841523
1772807045638766600,5.4567666015625,0.0011472897604107857,0.005648031830787659,-0.0008058725506998599
1772807045648698400,5.466698486328125,0.00005805691034765914,0.006399576086550951,-0.0007808388327248394
1772807045658630400,5.47663037109375,-0.0011677960865199566,0.0068272799253463745,-0.0022301310673356056
1772807045668561400,5.4865615234375,-0.00007217166421469301,0.006177468225359917,-0.0009379653492942452
1772807045678493400,5.496493408203125,-0.000278300343779847,0.0045572011731565,-0.002383795566856861
1772807045688425200,5.50642529296875,-0.000483363721286878,0.007562045939266682,-0.001377919572405517
1772807045698357200,5.516357177734375,0.0005281048361212015,0.0029856697656214237,-0.0000399474156438373
1772807045708288500,5.52628857421875,-0.001514806062914431,0.005978796631097794,-0.0019707391038537025
1772807045718220500,5.536220458984375,-0.0014735270524397492,0.005351089406758547,0.0015046859625726938
1772807045728152600,5.546152587890625,-0.0003502056933939457,0.007480020634829998,0.0007635282818228006
1772807045738083300,5.556083251953125,-0.0014183996245265007,0.007174556143581867,-0.0012620720081031322
1772807045748015400,5.566015380859375,-0.0008364989189431071,0.008787899278104305,-0.00187992537394166
1772807045757947400,5.575947509765625,-0.0016381103778257966,0.008101335726678371,-0.00020932445477228612
1772807045767878400,5.58587841796875,-0.0006210491410456598,0.005948170088231564,-0.0016189356101676822
1772807045777810400,5.595810546875,0.0012767193838953972,0.004402471706271172,0.0000655137628200464
1772807045787742500,5.605742431640625,-0.002549444092437625,0.005431783385574818,0.0005107942852191627
1772807045797674500,5.615674560546875,-0.0024743429385125637,0.004379302263259888,-0.0006463492172770202
1772807045807605500,5.62560546875,-0.0003480751474853605,0.00625975988805294,0.002413356676697731
1772807045817537300,5.635537353515625,-0.003565173828974366,0.006354302167892456,0.0015070828376337886
1772807045827469300,5.64546923828125,-0.001213602488860488,0.007840612903237343,0.0004791026876773685
1772807045837400300,5.655400390625,0.00038163099088706076,0.005079979542642832,0.0016045545926317573
1772807045847332400,5.665332275390625,-0.0006676545017398894,0.007001183927059174,-0.0008796420879662037
1772807045857264600,5.6752646484375,-0.0014154701493680477,0.005890646018087864,0.00017443705291952938
1772807045867196400,5.685196533203125,-0.001924932817928493,0.007183078210800886,0.0008934905636124313
1772807045877127400,5.69512744140625,-0.0010985539993271232,0.0054397727362811565,-0.0002580603177193552
1772807045887059500,5.7050595703125,-0.001330249011516571,0.007451790850609541,0.0009784454014152288
1772807045896991500,5.714991455078125,0.0014258564915508032,0.005622465629130602,-0.002549976808950305
1772807045906922200,5.724922119140625,0.00044341632747091353,0.003930559381842613,0.001249821507371962
1772807045916854300,5.734854248046875,-0.0024650217965245247,0.0027358653023838997,0.0012716593919321895
1772807045926786300,5.744786376953125,-0.0013339773286134005,0.004840561654418707,0.0007560714147984982
1772807045936717600,5.754717529296875,-0.0008325041271746159,0.005044293589890003,-0.0009747169679030776
1772807045946649300,5.7646494140625,-0.0001430117554264143,0.0051505533047020435,-0.0009957558941096067
1772807045956581400,5.774581298828125,-0.0011978897964581847,0.00592420157045126,-0.0026056368369609118
1772807045966513400,5.784513427734375,-0.0001960086519829929,0.001978195970878005,-0.001184574095532298
1772807045976444400,5.7944443359375,-0.000022903184799361043,0.006054696626961231,-0.00020453077740967274
1772807045986376400,5.80437646484375,-0.0010301107540726662,0.0039007319137454033,0.0012096078135073185
1772807045996308200,5.81430810546875,0.00019334549142513424,0.004055994097143412,0.00043329631444066763
1772807046006239500,5.824239501953125,-0.0011646003695204854,0.0062123560346663,0.0015486282063648105
1772807046016171500,5.834171630859375,-5.326322138898831e-7,0.0037476003635674715,-0.001674595638178289
1772807046026103600,5.844103515625,-0.0005105279851704836,0.007369765546172857,-0.0019113506423309445
1772807046036035300,5.854035400390625,-0.001445830101147294,0.006144977640360594,0.0004980111261829734
1772807046045966300,5.86396630859375,0.0004010720585938543,0.006774548906832933,0.0001853560097515583
1772807046055898400,5.8738984375,-0.0017475662752985954,0.005950034596025944,0.0011587414192035794
1772807046065830400,5.883830322265625,-0.0011446266435086727,0.00691969133913517,0.00044581317342817783
1772807046075761400,5.893761474609375,0.00041625206358730793,0.006726612336933613,-0.0006775081856176257
1772807046085693400,5.903693359375,-0.00036698358599096537,0.007743140682578087,-0.0014231932582333684
1772807046095625500,5.91362548828125,-0.00250496924854815,0.006741526070982218,0.00046339002437889576
1772807046105557500,5.9235576171875,-0.0004905542591586709,0.006845921743661165,0.0035217641852796078
1772807046115488500,5.933488525390625,-0.0013353090034797788,0.006106362212449312,-0.0001882854849100113
1772807046125420300,5.943420166015625,-0.0020754013676196337,0.0032754219137132168,-0.0013736584223806858
1772807046135352300,5.953352294921875,-0.00034674355993047357,0.007218231912702322,-0.00044581317342817783
1772807046145283600,5.96328369140625,-0.0011885687708854675,0.005149488337337971,-0.001942776027135551
1772807046155215600,5.973215576171875,0.00005166532355360687,0.0059963734820485115,-0.00006178533658385277
1772807046165147400,5.9831474609375,-0.0014567491598427296,0.007540474180132151,-0.0002993392990902066
1772807046175078400,5.993078369140625,-0.0009800433181226254,0.007878162898123264,-0.0022413162514567375
1772807046185010400,6.003010498046875,-0.001392566948197782,0.004858138505369425,-0.0015198660548776388
1772807046194942500,6.0129423828125,0.0010689928894862533,0.00572952488437295,-0.0009294432238675654
1772807046204874500,6.02287451171875,-0.0023787354584783316,0.0059937103651463985,0.0007592672482132912
1772807046214805200,6.03280517578125,-0.0020716730505228043,0.004107393324375153,0.0012402341235429049
1772807046224737300,6.0427373046875,-0.00000958738019107841,0.0024985778145492077,0.0001227717293659225
1772807046234669600,6.052669677734375,-0.0019859191961586475,0.006609699688851833,0.001582982949912548
1772807046244600300,6.062600341796875,-0.00021491710504051298,0.0065228804014623165,0.002561161993071437
1772807046254532400,6.072532470703125,0.0003981425834354013,0.007449127733707428,0.0017504957504570484
1772807046264464400,6.08246435546875,-0.0005784385721199214,0.005064533557742834,0.0005784385721199214
1772807046274396400,6.092396484375,0.0003020024741999805,0.005314071662724018,0.0003307645965833217
1772807046284327400,6.102327392578125,-0.002370745874941349,0.006857373286038637,-0.0016586167039349675
1772807046294259200,6.11225927734375,-0.0011587414192035794,0.005063734482973814,-0.0024767396971583366
1772807046304191200,6.122191162109375,-0.0018024274613708258,0.007759652566164732,0.00013262542779557407
1772807046314122500,6.13212255859375,-0.0008333030855283141,0.005637912079691887,-0.0013824469642713666
1772807046324054500,6.142054443359375,-0.0018002968281507492,0.006356965284794569,-0.0013765880139544606
1772807046333986600,6.151986572265625,-0.0011739213950932026,0.006277336739003658,0.00009374327055411413
1772807046343917300,6.161917236328125,-0.00003408846168895252,0.0055090151727199554,-0.0004069310089107603
1772807046353849300,6.171849365234375,0.0005717806634493172,0.004248274490237236,-0.0006551376427523792
1772807046363781400,6.181781494140625,-0.0021667478140443563,0.007847269997000694,-0.00044847631943412125
1772807046373713400,6.19171337890625,0.000028495824153651483,0.006739661563187838,-0.0008346347021870315
1772807046383644400,6.20164453125,-0.0014937670202925801,0.007633951026946306,-0.0007241134881041944
1772807046393576400,6.211576416015625,-0.0009070726810023189,0.004989165812730789,0.0007723167072981596
1772807046403508500,6.221508544921875,-0.0034943337086588144,0.006147108506411314,-0.00019201391842216253
1772807046413439500,6.231439453125,-0.0026051041204482317,0.00549276964738965,0.0018482337472960353
1772807046423371300,6.241371337890625,0.0017012272728607059,0.006433397997170687,0.0018319884547963738
1772807046433303300,6.25130322265625,0.00042983421008102596,0.0057526943273842335,-0.0007912251749075949
1772807046443235300,6.2612353515625,-0.0023161512799561024,0.005629390012472868,0.0008327704854309559
1772807046453166600,6.27116650390625,0.0006452839006669819,0.007031544111669064,0.00014807176194153726
1772807046463098600,6.2810986328125,-0.0003856257244478911,0.004865062423050404,-0.0003528688393998891
1772807046473030400,6.291030517578125,-0.0009869674686342478,0.005587844643741846,-0.0015251922886818647
1772807046482961400,6.30096142578125,-0.0016929714474827051,0.007040865253657103,-0.0010277138790115714
1772807046492893400,6.3108935546875,-0.001680454588495195,0.0076334187760949135,-0.0008343683439306915
1772807046502825500,6.320825439453125,0.0002854908525478095,0.00660463934764266,0.0014591459184885025
1772807046512756200,6.330756103515625,-0.0011054781498387456,0.006387059111148119,0.0014631407102569938
1772807046522688500,6.3406884765625,0.00041731735109351575,0.006112221162766218,0.0011880361707881093
1772807046532620500,6.35062060546875,-0.0024674187880009413,0.006213953718543053,0.0008490157779306173
1772807046542552600,6.360552490234375,-0.002628007438033819,0.003921770956367254,-0.002460228279232979
1772807046552483300,6.3704833984375,-0.0016431703697890043,0.004135889001190662,-0.00037950044497847557
1772807046562415000,6.3804150390625,0.0000045273736759554595,0.0043990095146000385,-0.0012122709304094315
1772807046572347100,6.39034716796875,-0.0014106763992458582,0.0033939324785023928,0.0015907060587778687
1772807046582278100,6.400278076171875,-0.0009086705395020545,0.006439523305743933,0.0002844255941454321
1772807046592210200,6.410210205078125,-0.0006151901907287538,0.006306897848844528,-0.00041305628838017583
1772807046602142200,6.42014208984375,-0.002264219569042325,0.00512791657820344,-0.0004394215648062527
1772807046612074200,6.43007421875,-0.001210673013702035,0.006935670506209135,0.0014711301773786545
1772807046622005200,6.440005126953125,-0.0035918052308261395,0.008375908248126507,0.0007949535502120852
1772807046631937300,6.449937255859375,0.0002364887041039765,0.004603540059179068,0.00005219795639277436
1772807046641869300,6.459869384765625,-0.0035691685043275356,0.007480020634829998,-0.0007214503129944205
1772807046651800000,6.469800048828125,-0.0011150655336678028,0.0031667647417634726,0.0007755124825052917
1772807046661732000,6.479732177734375,-0.0004719121498055756,0.003877029987052083,0.0009664611425250769
1772807046671664000,6.4896640625,-0.0013310478534549475,0.006332997232675552,-0.0005406216951087117
1772807046681596200,6.49959619140625,-0.0034756914246827364,0.006400108803063631,0.000660463934764266
1772807046691527200,6.509527099609375,-0.0006583334179595113,0.007835020311176777,-0.0006058691651560366
1772807046701459200,6.519459228515625,-0.001019990653730929,0.005902097560465336,-0.0024341291282325983
1772807046711391200,6.52939111328125,-0.002633600030094385,0.005564941558986902,0.00017363809456583112
1772807046721322200,6.539322265625,-0.0023518374655395746,0.006537261418998241,0.00155288923997432
1772807046731254000,6.54925390625,-0.0011446266435086727,0.007763913366943598,-0.0020306603983044624
1772807046741186000,6.55918603515625,-0.0003502056933939457,0.005023254547268152,0.00031798143754713237
1772807046751117300,6.569117431640625,-0.00044661210267804563,0.004741758108139038,-0.0012394351651892066
1772807046761049300,6.57904931640625,-0.00006205165118444711,0.004000866785645485,0.0007070692372508347
1772807046770981400,6.5889814453125,-0.0025217472575604916,0.0062547000125050545,0.0009379653492942452
1772807046780913200,6.5989130859375,-0.0019118833588436246,0.005060005933046341,-0.0006452839006669819
1772807046790844200,6.60884423828125,-0.004082093480974436,0.0073529877699911594,-0.000835966260638088
1772807046800776200,6.618776123046875,-0.0011267834343016148,0.0060083577409386635,0.0010269149206578732
1772807046810708200,6.628708251953125,0.00003941478280466981,0.007634750101715326,0.0009068063227459788
1772807046820639200,6.63863916015625,-0.003368099918588996,0.008874451741576195,0.0010498181218281388
1772807046830571300,6.6485712890625,-0.0027079021092504263,0.006405701395124197,-0.0013640711549669504
1772807046840503300,6.65850341796875,-0.0005286374944262207,0.007413974031805992,0.002213619416579604
1772807046850435300,6.668435302734375,0.0004596615908667445,0.005351355765014887,-0.00014274542627390474
1772807046860366000,6.678365966796875,-0.0032565132714807987,0.005764145869761705,0.001448759576305747
1772807046870298000,6.688298095703125,0.0005105279851704836,0.0032024511601775885,0.0010953581659123302
1772807046880230100,6.698230224609375,-0.0015241270884871483,0.006628874223679304,0.0012871057260781527
1772807046890161200,6.7081611328125,-0.001532116555608809,0.0068120998330414295,0.0004801679460797459
1772807046900093400,6.718093505859375,0.00033103092573583126,0.006710899528115988,0.000358461489668116
1772807046910025200,6.728025146484375,0.0012484899489209056,0.005730323493480682,0.002507632365450263
1772807046919957200,6.737957275390625,-0.0025486452504992485,0.007874168455600739,-0.0024176177103072405
1772807046929888300,6.74788818359375,-0.0015238607302308083,0.005287440028041601,0.0013025520602241158
1772807046939820300,6.7578203125,-0.002183525823056698,0.006894125137478113,-0.0003299656673334539
1772807046949752000,6.767751953125,0.0006378270918503404,0.006087453570216894,0.00036245622322894633
1772807046959683000,6.77768310546875,-0.00022530343267135322,0.003751861397176981,-0.0009110674145631492
1772807046969615000,6.787614990234375,-0.0003430151555221528,0.006679474376142025,-0.0002772350562736392
1772807046979547100,6.797547119140625,-0.0014325142838060856,0.006050701718777418,-0.0011235876008868217
1772807046989478100,6.80747802734375,-0.0006159891490824521,0.007466970942914486,0.002561428351327777
1772807046999410200,6.81741015625,-0.0018583538476377726,0.00577826052904129,-0.002010686555877328
1772807047009342200,6.82734228515625,-0.003489273600280285,0.0067899953573942184,-0.00019201391842216253
1772807047019274200,6.837274169921875,-0.002909769769757986,0.005841909907758236,-0.0016282566357403994
1772807047029205200,6.847205322265625,-0.001672198879532516,0.006262689363211393,-0.0010423612548038363
1772807047039137000,6.857136962890625,-0.0004500742070376873,0.003989947959780693,0.0019244002178311348
1772807047049069000,6.867069091796875,-0.0008362325606867671,0.005823800805956125,0.0007664577569812536
1772807047059000300,6.877000244140625,0.0016591493040323257,0.004205131437629461,0.0013347762869670987
1772807047068932400,6.886932373046875,0.0012695288751274347,0.0070914654061198235,0.002034655073657632
1772807047078864100,6.896864013671875,0.00003728425508597866,0.004252003040164709,-0.00010519486386328936
1772807047088796200,6.906796142578125,-0.0017054883064702153,0.005042695440351963,-0.0014149374328553677
1772807047098727200,6.91672705078125,-0.0007126618875190616,0.0033606430515646935,-0.003291400847956538
1772807047108659200,6.9266591796875,-0.001978462329134345,0.007458715233951807,0.00032623723382130265
1772807047118591200,6.93659130859375,-0.0015283881220966578,0.004601143300533295,-0.0013339773286134005
1772807047128522200,6.946522216796875,0.00024154871061909944,0.005592105444520712,-0.00038296254933811724
1772807047138454300,6.956454345703125,0.001448759576305747,0.005372661165893078,0.0024796691723167896
1772807047148386300,6.96638623046875,-0.0010135991033166647,0.005784652195870876,-0.001076715998351574
1772807047158318300,6.976318359375,0.00026045716367661953,0.004788097459822893,-0.0011523497523739934
1772807047168249000,6.9862490234375,-0.0013262542197480798,0.005687713157385588,-0.0005928196478635073
1772807047178181000,6.99618115234375,-0.003287938656285405,0.003829625668004155,-0.0006269080913625658
1772807047188113200,7.006113037109375,0.0021110877860337496,0.0029145635198801756,-0.0007568703731521964
1772807047198044400,7.01604443359375,-0.0014647386269643903,0.004337490536272526,0.0011736550368368626
1772807047207976200,7.02597607421875,-0.0008604673203080893,0.0043590618297457695,-0.0009105347562581301
1772807047217908200,7.035908203125,0.0011491540353745222,0.0059966398403048515,-0.000601075473241508
1772807047227840300,7.04584033203125,0.002581934677436948,0.004800880327820778,0.0022831279784440994
1772807047237771300,7.055771240234375,-0.001094825565814972,0.006159359123557806,0.0031345405150204897
1772807047247703300,7.065703369140625,-0.0022218753583729267,0.005643771030008793,0.00016351809608750045
1772807047257635000,7.075635009765625,-0.0036402747500687838,0.006440322380512953,0.0004215783847030252
1772807047267566000,7.085566162109375,-0.002948119305074215,0.006183593533933163,0.0006958839949220419
1772807047277498400,7.095498291015625,-0.0021020330023020506,0.007251254748553038,0.000934236915782094
1772807047287430400,7.105430419921875,-0.002397377509623766,0.006838198751211166,0.00024341292737517506
1772807047297361200,7.115361083984375,-0.0010128001449629664,0.005964415613561869,-0.00006205165118444711
1772807047307293200,7.125293212890625,-0.0005054679932072759,0.00498091010376811,0.0004977448261342943
1772807047317225200,7.13522509765625,-0.0009651295840740204,0.006650179624557495,-0.0012631373247131705
1772807047327157200,7.1451572265625,-0.0009049421059899032,0.006163353566080332,-0.00023995080846361816
1772807047337088000,7.155087890625,0.0003478088474366814,0.007506385911256075,-0.0017917747609317303
1772807047347020000,7.16502001953125,0.00001704423084447626,0.005717274267226458,-0.002498843939974904
1772807047356952000,7.1749521484375,0.0001525991247035563,0.006244313903152943,-0.001868473831564188
1772807047366883300,7.18488330078125,-0.0018152105621993542,0.00857111718505621,-0.001415736391209066
1772807047376815400,7.1948154296875,-0.001275920425541699,0.004190217703580856,0.0021646174136549234
1772807047386747100,7.2047470703125,0.00026312030968256295,0.007601194549351931,-0.0009217200567945838
1772807047396679200,7.21467919921875,-0.0012564794160425663,0.006910370197147131,-0.001311873085796833
1772807047406610200,7.224610107421875,-0.00019467707898002118,0.006262423470616341,-0.00035446672700345516
1772807047416542200,7.234542236328125,0.0013515542959794402,0.004950284026563168,0.0008218514849431813
1772807047426474000,7.244473876953125,0.00014381069922819734,0.0070496536791324615,-0.00023142869758885354
1772807047436405200,7.2544052734375,-0.0012623383663594723,0.006112487055361271,-0.000969923275988549
1772807047446337300,7.264337158203125,0.0007603325066156685,0.005317001137882471,-0.0014077469240874052
1772807047456269300,7.274269287109375,-0.002526008291170001,0.005370530765503645,-0.00048655952559784055
1772807047466200000,7.284199951171875,0.001353152096271515,0.0051566786132752895,0.001275920425541699
1772807047476132000,7.294132080078125,-0.00044767739018425345,0.004910869058221579,0.00019734023953787982
1772807047486064000,7.304064208984375,-0.002998985582962632,0.00487118773162365,0.00010492854926269501
1772807047495996200,7.31399609375,-0.0008122641011141241,0.005042162723839283,-0.0007584682898595929
1772807047505927200,7.32392724609375,-0.0006482133758254349,0.00714712543413043,0.0014671353856101632
1772807047515859200,7.333859130859375,-0.001493234420195222,0.006049104034900665,0.0014476943761110306
1772807047525791200,7.343791259765625,-0.0016761935548856854,0.004960403777658939,0.0004290352517273277
1772807047535722200,7.35372216796875,-0.002591255819424987,0.0067899953573942184,-0.001110005541704595
1772807047545654300,7.363654296875,-0.0018849853659048676,0.00490287970751524,0.00041305628838017583
1772807047555586000,7.3735859375,-0.0006636597099713981,0.005244829226285219,0.0004237089306116104
1772807047565518800,7.383518798828125,-0.0003802994033321738,0.006327936891466379,0.001157143502496183
1772807047575449900,7.393449951171875,-0.00038216362008824944,0.005258411634713411,-0.000284159294096753
1772807047585382000,7.4033818359375,0.0005201153689995408,0.0065441858023405075,0.0007701861904934049
1772807047595314000,7.41331396484375,0.0004444815858732909,0.004260791465640068,0.00030360036180354655
1772807047605245000,7.423244873046875,-0.004591023549437523,0.006794256623834372,0.0003323625132907182
1772807047615177000,7.433177001953125,0.00019654128118418157,0.003997138235718012,0.0014391721924766898
1772807047625109000,7.44310888671875,-0.0002109223569277674,0.006474144756793976,0.0010237190872430801
1772807047635041000,7.453041015625,-0.0014559502014890313,0.006736465729773045,0.0011515507940202951
1772807047644971800,7.4629716796875,-0.0010612696642056108,0.005020325072109699,-0.0015198660548776388
1772807047654903800,7.47290380859375,-0.0017915084026753902,0.006180131807923317,-0.002612294629216194
1772807047664835800,7.4828359375,-0.0018546254141256213,0.004577707499265671,-0.0005872269975952804
1772807047674767000,7.49276708984375,-0.0015805860748514533,0.007241134997457266,-0.0021382521372288465
1772807047684699000,7.502698974609375,-0.002614957746118307,0.0062728095799684525,0.000041278995922766626
1772807047694631000,7.512630859375,-0.0024708807468414307,0.005261074751615524,-0.0014820491196587682
1772807047704563000,7.52256298828125,-0.0022919164039194584,0.005317533854395151,0.002662095706909895
1772807047714494000,7.532493896484375,0.0013930995482951403,0.0046482812613248825,-0.00022450447431765497
1772807047724426000,7.542426025390625,-0.0018391790799796581,0.0075937374494969845,0.0003539340978022665
1772807047734357800,7.552357666015625,-0.0004165183927398175,0.0049007488414645195,-0.00012756542128045112
1772807047744289000,7.5622890625,-0.001192829804494977,0.0063034361228346825,-0.00017896443023346364
1772807047754221000,7.572220947265625,-0.0014961638953536749,0.007415305823087692,-0.00035233621019870043
1772807047764153000,7.582153076171875,0.00037923414492979646,0.005286907311528921,-0.0024674187880009413
1772807047774083800,7.592083740234375,0.0010804444318637252,0.00475400872528553,0.0005515406373888254
1772807047784016000,7.602015869140625,-0.0007416903390549123,0.005945773329585791,0.0013994910987094045
1772807047793948000,7.611947998046875,-0.000639424950350076,0.004117247182875872,0.0015337144723162055
1772807047803880000,7.6218798828125,0.0013622068800032139,0.0053553506731987,0.0013148026773706079
1772807047813811000,7.63181103515625,-0.002416019793599844,0.005399825517088175,-0.0020453077740967274
1772807047823743000,7.641742919921875,-0.0015853798249736428,0.006651777308434248,-0.001264202524907887
1772807047833675000,7.651675048828125,-0.00044288369826972485,0.00606295233592391,0.0019499665359035134
1772807047843606000,7.66160595703125,-0.002157160546630621,0.006872020661830902,0.00010439591278554872
1772807047853537800,7.671537841796875,-0.0024810009635984898,0.005893841851502657,-0.0000010652644277797663
1772807047863469800,7.6814697265625,0.0003576625313144177,0.005792108830064535,-0.00040746363811194897
1772807047873401900,7.69140185546875,-0.0031609057914465666,0.005515939090400934,-0.00018349179299548268
1772807047883332900,7.701332763671875,-0.0024322650860995054,0.0041457428596913815,-0.0008759136544540524
1772807047893265000,7.711264892578125,0.0009912285022437572,0.004516721237450838,-0.000185888638952747
1772807047903197000,7.721197021484375,-0.0004620584368240088,0.007528756279498339,-0.001812014845199883
1772807047913128000,7.7311279296875,-0.0010000169277191162,0.006687730085104704,-0.0002287655370309949
1772807047923060000,7.74106005859375,-0.0009672601008787751,0.006167348474264145,0.0012684636749327183
1772807047932992000,7.750991943359375,0.00010040117194876075,0.005000617355108261,0.0013659353135153651
1772807047942924000,7.760924072265625,0.0007845672662369907,0.003970772959291935,0.000037017940485384315
1772807047952854800,7.770854736328125,-0.0017233315156772733,0.0027292075101286173,0.0011520835105329752
1772807047962786800,7.780786865234375,-0.0012357067316770554,0.005125519819557667,-0.0008902947301976383
1772807047972718800,7.79071875,-0.001326786819845438,0.00691889226436615,-0.000928377965465188
1772807047982649900,7.80064990234375,-0.0014921691035851836,0.007386011071503162,0.0007107976707629859
1772807047992582000,7.810581787109375,-0.0013667342718690634,0.005794239696115255,0.0007808388327248394
1772807048002514000,7.820513916015625,-0.000494016392622143,0.003935885615646839,0.003053047927096486
1772807048012446000,7.830446044921875,-0.0000045273736759554595,0.005554288625717163,0.0025419872254133224
1772807048022377000,7.840376953125,0.0015180017799139023,0.005941246170550585,0.0009872338268905878
1772807048032308700,7.850308837890625,-0.0006301039247773588,0.005745769944041967,-0.00009960222087102011
1772807048042240800,7.86024072265625,-0.00070493872044608,0.0023635553661733866,-0.0014495585346594453
1772807048052172000,7.870172119140625,-0.002584864152595401,0.0079133166000247,-0.0012639362830668688
1772807048062104000,7.88010400390625,-0.0009041432058438659,0.0065447185188531876,-0.0016610135789960623
1772807048072036000,7.8900361328125,-0.0004165183927398175,0.00586587842553854,-0.0011536814272403717
1772807048081966800,7.899966796875,-0.0020482372492551804,0.0051835766062140465,0.00022690132027491927
1772807048091899000,7.90989892578125,-0.0019331886433064938,0.007640609052032232,-0.0007068029372021556
1772807048101831000,7.919830810546875,-0.0025768745690584183,0.006360427476465702,0.0007150587625801563
1772807048111763000,7.929762939453125,-0.0026296053547412157,0.006838465109467506,-0.0013222594279795885
1772807048121694000,7.93969384765625,-0.0005624596378766,0.007833422161638737,0.001193362521007657
1772807048131626000,7.9496259765625,-0.0020849888678640127,0.00635057408362627,0.0005776396137662232
1772807048141558000,7.95955810546875,-0.0016522251535207033,0.005971073638647795,0.00011584750609472394
1772807048151489000,7.969489013671875,-0.0009627327090129256,0.00737189594656229,-0.001005609636195004
1772807048161420800,7.9794208984375,0.0005379585199989378,0.004786765668541193,-0.00205276464112103
1772807048171352800,7.989352783203125,-0.0007922904333099723,0.0044408212415874004,-0.0004021373169962317
1772807048181283800,7.999283935546875,-0.0002271676348755136,0.005327919963747263,-0.0016413062112405896
1772807048191215900,8.0092158203125,-0.0009068063227459788,0.006160157732665539,-0.0006519418093375862
1772807048201148000,8.01914794921875,-0.0011342403013259172,0.004150802735239267,0.000523843802511692
1772807048211079000,8.029078857421876,0.0006343649583868682,0.004055728204548359,-0.000297475082334131
1772807048221011000,8.039010986328124,0.0003038666909560561,0.006631270982325077,0.002341983839869499
1772807048230943000,8.04894287109375,0.00031318774563260376,0.0055803875438869,-0.0011315771844238043
1772807048240873700,8.058873779296874,-0.0006471481174230576,0.005645102355629206,0.00044075315236113966
1772807048250805800,8.0688056640625,-0.0001328917423961684,0.006028064992278814,0.00021358551748562604
1772807048260737800,8.07873779296875,-0.0005925533478148282,0.004227235447615385,0.000020240024241502397
1772807048270669000,8.0886689453125,0.00010839065362233669,0.005735916085541248,0.0037268276792019606
1772807048280601000,8.09860107421875,-0.0017291904659941792,0.004944424610584974,-0.00007297061529243365
1772807048290532900,8.108532958984375,-0.0018706043483689427,0.007881359197199345,0.0004649879119824618
1772807048300465000,8.11846484375,-0.0010655306978151202,0.006683468818664551,0.000428502622526139
1772807048310396000,8.12839599609375,-0.00009800432599149644,0.006988134700804949,0.0006386260502040386
1772807048320328000,8.138327880859375,-0.0006181196658872068,0.0046418895944952965,0.0016269250772893429
1772807048330259700,8.148259765625,0.0015448997728526592,0.004983306862413883,0.0008317052270285785
1772807048340191700,8.158191650390625,0.0015867113834246993,0.004971588961780071,-0.0007624630234204233
1772807048350123000,8.168123046875,-0.001347825862467289,0.005389705300331116,-0.00047936898772604764
1772807048360055000,8.178054931640625,-0.002498843939974904,0.005912217777222395,0.001241033081896603
1772807048369987000,8.187987060546876,-0.001958222361281514,0.006302370689809322,-0.00037390782381407917
1772807048379917800,8.197917724609376,-0.0016029566759243608,0.006395847536623478,-0.00013741910515818745
1772807048389849900,8.207849853515626,-0.00014460964302998036,0.004233094397932291,-0.003153981640934944
1772807048399782000,8.217781982421876,-0.002612294629216194,0.006804110016673803,0.0003347593592479825
1772807048409713200,8.227713134765626,-0.001660214620642364,0.0054301852360367775,-0.0016554208705201745
1772807048419645000,8.23764501953125,-0.0015464976895600557,0.005163602996617556,0.0008202536264434457
1772807048429577000,8.247576904296874,0.0002692455891519785,0.006272276863455772,-0.00021225394448265433
1772807048439509000,8.257509033203124,-0.001241033081896603,0.008082693442702293,0.00033156355493701994
1772807048449440000,8.26743994140625,-0.0017648768844082952,0.0052112736739218235,0.0008436894277110696
1772807048459371800,8.277371826171875,-0.0002008023438975215,0.0062613580375909805,0.0022860574536025524
1772807048469303800,8.2873037109375,-0.00022770027862861753,0.005218197591602802,-0.00020053602929692715
1772807048479234800,8.29723486328125,-0.001989913871511817,0.0049124667420983315,0.0004644552827812731
1772807048489166800,8.307166748046875,-0.0018064221367239952,0.005209409166127443,0.001136637176387012
1772807048499100000,8.317099853515625,-0.0025984463281929493,0.005000350996851921,0.0015307849971577525
1772807048509032000,8.327031982421875,-0.0008873652550391853,0.005331115797162056,0.00041625206358730793
1772807048518963000,8.336962890625,0.0018471685471013188,0.003900199430063367,0.0003427488263696432
1772807048528895000,8.34689501953125,-0.002453836612403393,0.005178783088922501,-0.0015068164793774486
1772807048538827000,8.356826904296875,-0.0011936287628486753,0.005380916874855757,0.0014990933705121279
1772807048548758000,8.366758056640625,-0.0007507451227866113,0.006668022833764553,-0.00024101608141791075
1772807048558689000,8.37668896484375,-0.001755289500579238,0.006314621306955814,0.00018136126163881272
1772807048568620800,8.386620849609375,-0.000919323181733489,0.004763596225529909,0.0017457021167501807
1772807048578552000,8.396552001953125,0.0013960290234535933,0.006396113894879818,0.0007017429452389479
1772807048588484000,8.406484130859376,-0.000017843178284238093,0.0062696137465536594,0.0007073355955071747
1772807048598416100,8.416416015625,-0.0021547635551542044,0.007148989476263523,0.00023196132679004222
1772807048608348200,8.42634814453125,-0.0008684568456374109,0.005595301277935505,-0.0010953581659123302
1772807048618279000,8.43627880859375,-0.00048709215479902923,0.006223807577043772,-0.000627973407972604
1772807048628211000,8.4462109375,-0.0025627599097788334,0.004041080828756094,0.0024410535115748644
1772807048638143000,8.45614306640625,-0.003698598127812147,0.08190339058637619,0.021376395598053932
1772807048648074200,8.46607421875,-0.0022327941842377186,0.08834557235240936,0.022371351718902588
1772807048658006000,8.476006103515624,-0.0011773834703490138,-0.028498485684394836,-0.007439806591719389
1772807048667938000,8.48593798828125,-0.003037335118278861,0.05921458825469017,0.013836986385285854
1772807048677870000,8.4958701171875,-0.000544350128620863,0.0020186761394143105,-0.002886333968490362
1772807048687801000,8.505801025390625,-0.002448510378599167,0.030614634975790977,0.0072776200249791145
1772807048697732900,8.51573291015625,-0.0005078648100607097,-0.00022397184511646628,-0.003637611633166671
1772807048707665000,8.525664794921875,-0.0016500946367159486,0.02449708618223667,0.004316185135394335
1772807048717596200,8.53559619140625,-0.0001893507578643039,-0.00019627496658358723,-0.0025121597573161125
1772807048727528200,8.545528076171875,-0.0007265103631652892,0.0037792918737977743,-0.0012402341235429049
1772807048737460200,8.555460205078125,-0.0006838997360318899,-0.005903162993490696,-0.006175870541483164
1772807048747392000,8.56539208984375,-0.0013741911388933659,-0.012762666679918766,-0.005891445092856884
1772807048757323000,8.575322998046875,-0.0012990899849683046,-0.01786741428077221,-0.007454986684024334
1772807048767255000,8.585255126953125,0.0007334345718845725,-0.02827771008014679,-0.008262723684310913
1772807048777187000,8.59518701171875,0.0006716492353007197,-0.0969260111451149,-0.026624154299497604
1772807048787118000,8.6051181640625,-0.00006418218254111707,-0.030416496098041534,-0.00899882148951292
1772807048797050000,8.615050048828126,-0.003963582683354616,0.08235666155815125,0.022039787843823433
1772807048806982100,8.624982177734376,-0.002162486780434847,0.01200126949697733,0.0005784385721199214
