time,seconds_elapsed,z,y,x
1772807465227493000,0.0524931640625,-0.057769775390625,0.971282958984375,0.2042999267578125
1772807465237425200,0.062425048828125,-0.060791015625,0.9741058349609375,0.2004241943359375
1772807465247357200,0.072357177734375,-0.065216064453125,0.9741363525390625,0.198822021484375
1772807465257289200,0.082289306640625,-0.06402587890625,0.9719390869140625,0.1963958740234375
1772807465267221200,0.09222119140625,-0.063568115234375,0.975128173828125,0.198150634765625
1772807465277152000,0.102152099609375,-0.059783935546875,0.975067138671875,0.1988372802734375
1772807465287084000,0.112083984375,-0.0604400634765625,0.9728851318359375,0.2000885009765625
1772807465297016000,0.12201611328125,-0.0624542236328125,0.9742889404296875,0.2010955810546875
1772807465306948000,0.131947998046875,-0.061279296875,0.9753265380859375,0.20263671875
1772807465316880100,0.141880126953125,-0.0545806884765625,0.9721221923828125,0.2106170654296875
1772807465326812000,0.15181201171875,-0.060333251953125,0.9733428955078125,0.1994476318359375
1772807465336744200,0.161744140625,-0.056732177734375,0.9697418212890625,0.2012176513671875
1772807465346676200,0.17167626953125,-0.0545196533203125,0.9709625244140625,0.2027435302734375
1772807465356607200,0.181607177734375,-0.055694580078125,0.9696502685546875,0.203857421875
1772807465366539000,0.1915390625,-0.065460205078125,0.968597412109375,0.2039031982421875
1772807465376471000,0.201470947265625,-0.0782928466796875,0.971893310546875,0.205474853515625
1772807465386403000,0.211403076171875,-0.0770263671875,0.9745330810546875,0.2036590576171875
1772807465396335000,0.221335205078125,-0.0694732666015625,0.9732818603515625,0.2008514404296875
1772807465406267100,0.23126708984375,-0.0596923828125,0.9723052978515625,0.2013702392578125
1772807465416199200,0.24119921875,-0.05218505859375,0.971527099609375,0.203857421875
1772807465426131000,0.251130859375,-0.0565032958984375,0.970947265625,0.206634521484375
1772807465436062200,0.261062255859375,-0.0670318603515625,0.972137451171875,0.205352783203125
1772807465445994200,0.270994140625,-0.07440185546875,0.97454833984375,0.2042083740234375
1772807465455926300,0.28092626953125,-0.0730438232421875,0.975250244140625,0.2044677734375
1772807465465858300,0.2908583984375,-0.0638275146484375,0.972503662109375,0.2048797607421875
1772807465475790000,0.3007900390625,-0.0591583251953125,0.9717864990234375,0.2048492431640625
1772807465485722000,0.31072216796875,-0.0573883056640625,0.970733642578125,0.2060394287109375
1772807465495654100,0.320654052734375,-0.0618133544921875,0.9692840576171875,0.204559326171875
1772807465505586200,0.330586181640625,-0.0677337646484375,0.9736785888671875,0.2024078369140625
1772807465515518200,0.340518310546875,-0.070404052734375,0.97589111328125,0.199462890625
1772807465525449000,0.350448974609375,-0.0703887939453125,0.9767608642578125,0.199310302734375
1772807465535381000,0.360381103515625,-0.0655975341796875,0.975555419921875,0.200439453125
1772807465545313000,0.37031298828125,-0.063751220703125,0.9763031005859375,0.198699951171875
1772807465555245000,0.3802451171875,-0.06402587890625,0.9752655029296875,0.1984405517578125
1772807465565177000,0.390177001953125,-0.065673828125,0.97503662109375,0.1988067626953125
1772807465575109000,0.400109130859375,-0.0711212158203125,0.9727783203125,0.200714111328125
1772807465585041200,0.410041259765625,-0.0712432861328125,0.9725341796875,0.2006988525390625
1772807465594973200,0.41997314453125,-0.0682220458984375,0.9701995849609375,0.20159912109375
1772807465604904200,0.429904296875,-0.0668487548828125,0.9710540771484375,0.2049407958984375
1772807465614836200,0.439836181640625,-0.0661468505859375,0.9742889404296875,0.208526611328125
1772807465624768000,0.44976806640625,-0.0640716552734375,0.975494384765625,0.20770263671875
1772807465634700000,0.459699951171875,-0.0632476806640625,0.9728546142578125,0.2082366943359375
1772807465644632000,0.469632080078125,-0.0632171630859375,0.9721221923828125,0.210052490234375
1772807465654564000,0.479564208984375,-0.0665283203125,0.9707794189453125,0.2105865478515625
1772807465664496000,0.48949609375,-0.0680694580078125,0.9711456298828125,0.2126312255859375
1772807465674428200,0.49942822265625,-0.0681610107421875,0.9694976806640625,0.2125091552734375
1772807465684359200,0.509359130859375,-0.068603515625,0.9685821533203125,0.2163543701171875
1772807465694291200,0.519291259765625,-0.068267822265625,0.97003173828125,0.2165069580078125
1772807465704223200,0.52922314453125,-0.06787109375,0.972442626953125,0.2159576416015625
1772807465714155300,0.5391552734375,-0.0676422119140625,0.97412109375,0.2158660888671875
1772807465724087000,0.549087158203125,-0.0654296875,0.9713134765625,0.218658447265625
1772807465734019000,0.55901904296875,-0.06304931640625,0.9679107666015625,0.2193603515625
1772807465743951000,0.568951171875,-0.0631561279296875,0.9683990478515625,0.2214508056640625
1772807465753883100,0.578883056640625,-0.0663299560546875,0.9698028564453125,0.2219696044921875
1772807465763815200,0.588815185546875,-0.0640869140625,0.971649169921875,0.2211456298828125
1772807465773746000,0.598745849609375,-0.0625,0.970123291015625,0.2214508056640625
1772807465783678000,0.608677978515625,-0.0620269775390625,0.96868896484375,0.2220306396484375
1772807465793610000,0.61860986328125,-0.0624237060546875,0.96923828125,0.22119140625
1772807465803542000,0.6285419921875,-0.06024169921875,0.9692230224609375,0.2223052978515625
1772807465813474300,0.638474365234375,-0.0583038330078125,0.9692840576171875,0.221954345703125
1772807465823406300,0.64840625,-0.0594329833984375,0.9694976806640625,0.2158203125
1772807465833338000,0.658338134765625,-0.05792236328125,0.97015380859375,0.21295166015625
1772807465843270100,0.668270263671875,-0.0554046630859375,0.96832275390625,0.207916259765625
1772807465853201200,0.678201171875,-0.052215576171875,0.9656829833984375,0.202972412109375
1772807465863133200,0.68813330078125,-0.0524139404296875,0.96356201171875,0.19976806640625
1772807465873065000,0.69806494140625,-0.0549468994140625,0.964263916015625,0.196044921875
1772807465882997000,0.7079970703125,-0.0593109130859375,0.965911865234375,0.1904754638671875
1772807465892929000,0.717928955078125,-0.0634002685546875,0.9666290283203125,0.1880950927734375
1772807465902861000,0.727861083984375,-0.0627288818359375,0.9685516357421875,0.1886749267578125
1772807465912793000,0.73779296875,-0.0592803955078125,0.971343994140625,0.185760498046875
1772807465922725000,0.74772509765625,-0.0573272705078125,0.9732208251953125,0.186676025390625
1772807465932656000,0.75765625,-0.05572509765625,0.976226806640625,0.181732177734375
1772807465942588200,0.767588134765625,-0.0536956787109375,0.978912353515625,0.1796112060546875
1772807465952520200,0.777520263671875,-0.051513671875,0.980804443359375,0.177398681640625
1772807465962452200,0.7874521484375,-0.052520751953125,0.9795989990234375,0.1771392822265625
1772807465972384300,0.79738427734375,-0.0507965087890625,0.982025146484375,0.17864990234375
1772807465982316000,0.80731591796875,-0.0467681884765625,0.9826202392578125,0.17962646484375
1772807465992248000,0.817248046875,-0.0442962646484375,0.980743408203125,0.1795806884765625
1772807466002180000,0.82718017578125,-0.04608154296875,0.981781005859375,0.1836700439453125
1772807466012111600,0.837111572265625,-0.044464111328125,0.979766845703125,0.187255859375
1772807466022042600,0.847042724609375,-0.045989990234375,0.976715087890625,0.193145751953125
1772807466031974700,0.856974609375,-0.0474700927734375,0.974945068359375,0.1959075927734375
1772807466041906700,0.86690673828125,-0.051513671875,0.972930908203125,0.1966552734375
1772807466051838700,0.876838623046875,-0.052825927734375,0.97625732421875,0.1980438232421875
1772807466061770800,0.886770751953125,-0.0529937744140625,0.9772186279296875,0.1982421875
1772807466071702500,0.89670263671875,-0.050262451171875,0.974945068359375,0.1986083984375
1772807466081634600,0.906634521484375,-0.0449066162109375,0.9759063720703125,0.19866943359375
1772807466091566600,0.916566650390625,-0.041229248046875,0.973388671875,0.201324462890625
1772807466101497600,0.92649755859375,-0.040435791015625,0.9716033935546875,0.20458984375
1772807466111429400,0.936429443359375,-0.0411834716796875,0.9700469970703125,0.2067718505859375
1772807466121361400,0.946361328125,-0.05084228515625,0.97344970703125,0.2091522216796875
1772807466131293400,0.95629345703125,-0.043304443359375,0.974609375,0.2115478515625
1772807466141225500,0.9662255859375,-0.04693603515625,0.9717559814453125,0.2126617431640625
1772807466151157500,0.976157470703125,-0.0465087890625,0.9646759033203125,0.211639404296875
1772807466161089500,0.986089599609375,-0.04034423828125,0.9699859619140625,0.2133026123046875
1772807466171021600,0.996021484375,-0.047515869140625,0.9738311767578125,0.2193450927734375
1772807466180953600,1.00595361328125,-0.0428619384765625,0.973297119140625,0.2179412841796875
1772807466190884600,1.015884521484375,-0.0392913818359375,0.9728546142578125,0.2173614501953125
1772807466200816600,1.025816650390625,-0.0466461181640625,0.971099853515625,0.21630859375
1772807466210748700,1.035748779296875,-0.051239013671875,0.9721832275390625,0.216705322265625
1772807466220680400,1.045680419921875,-0.0513458251953125,0.97052001953125,0.2196044921875
1772807466230612500,1.055612548828125,-0.048095703125,0.9655914306640625,0.2241668701171875
1772807466240544500,1.06554443359375,-0.05242919921875,0.9618682861328125,0.223114013671875
1772807466250476500,1.0754765625,-0.047027587890625,0.96307373046875,0.217193603515625
1772807466260408600,1.08540869140625,-0.054351806640625,0.9647674560546875,0.2179718017578125
1772807466270339600,1.095339599609375,-0.0587158203125,0.9656982421875,0.21832275390625
1772807466280271600,1.105271728515625,-0.0569305419921875,0.9648284912109375,0.220550537109375
1772807466290203600,1.11520361328125,-0.052825927734375,0.9653472900390625,0.2210540771484375
1772807466300135700,1.1251357421875,-0.051544189453125,0.968170166015625,0.2203521728515625
1772807466310067700,1.135067626953125,-0.0471954345703125,0.9748687744140625,0.219207763671875
1772807466319999500,1.14499951171875,-0.0465850830078125,0.9752197265625,0.213531494140625
1772807466329931500,1.154931640625,-0.0411834716796875,0.9744720458984375,0.2132568359375
1772807466339863600,1.164863525390625,-0.0422821044921875,0.9686126708984375,0.216278076171875
1772807466349795600,1.174795654296875,-0.0407257080078125,0.9661102294921875,0.222076416015625
1772807466359726600,1.1847265625,-0.03948974609375,0.9643707275390625,0.22369384765625
1772807466369658400,1.194658447265625,-0.041290283203125,0.9656982421875,0.222381591796875
1772807466379590400,1.20459033203125,-0.043914794921875,0.9692230224609375,0.2277374267578125
1772807466389522400,1.2145224609375,-0.0407867431640625,0.9722442626953125,0.2284698486328125
1772807466399454700,1.224454833984375,-0.0384674072265625,0.9716644287109375,0.229705810546875
1772807466409386800,1.23438671875,-0.0391693115234375,0.9708404541015625,0.2340087890625
1772807466419318800,1.24431884765625,-0.0312042236328125,0.968536376953125,0.2333984375
1772807466429250600,1.25425048828125,-0.0284271240234375,0.9736328125,0.233734130859375
1772807466439181600,1.264181640625,-0.0313873291015625,0.97454833984375,0.2390899658203125
1772807466449113600,1.274113525390625,-0.026641845703125,0.9766845703125,0.2306671142578125
1772807466459045600,1.284045654296875,-0.027099609375,0.975738525390625,0.229522705078125
1772807466468977700,1.293977783203125,-0.030517578125,0.97357177734375,0.229095458984375
1772807466478909400,1.303909423828125,-0.029449462890625,0.9658203125,0.2337799072265625
1772807466488841500,1.313841552734375,-0.024749755859375,0.966278076171875,0.2355499267578125
1772807466498773500,1.3237734375,-0.0257110595703125,0.969207763671875,0.2368621826171875
1772807466508705500,1.33370556640625,-0.02728271484375,0.969573974609375,0.2378082275390625
1772807466518637600,1.343637451171875,-0.0245361328125,0.9734344482421875,0.2286834716796875
1772807466528568600,1.353568603515625,-0.023895263671875,0.9767608642578125,0.2221221923828125
1772807466538500600,1.36350048828125,-0.0242462158203125,0.97906494140625,0.221893310546875
1772807466548432600,1.3734326171875,-0.021759033203125,0.979248046875,0.222900390625
1772807466558364700,1.38336474609375,-0.013763427734375,0.97418212890625,0.2251434326171875
1772807466568296700,1.393296630859375,-0.0183563232421875,0.96990966796875,0.232452392578125
1772807466578228500,1.403228515625,-0.0205078125,0.9688568115234375,0.2353515625
1772807466588160500,1.413160400390625,-0.0225982666015625,0.9720306396484375,0.2371826171875
1772807466598092500,1.423092529296875,-0.021636962890625,0.970611572265625,0.2374267578125
1772807466608023600,1.4330234375,-0.0157318115234375,0.967498779296875,0.2387847900390625
1772807466617955600,1.44295556640625,-0.0065460205078125,0.96728515625,0.2374267578125
1772807466627887400,1.452887451171875,-0.0053253173828125,0.9661712646484375,0.2364044189453125
1772807466637819600,1.462819580078125,-0.0063934326171875,0.9631805419921875,0.2359619140625
1772807466647751700,1.472751708984375,-0.0096435546875,0.965240478515625,0.236175537109375
1772807466657683700,1.48268359375,-0.010772705078125,0.96978759765625,0.23724365234375
1772807466667615700,1.49261572265625,-0.0100860595703125,0.9725799560546875,0.23760986328125
1772807466677547500,1.502547607421875,-0.0126800537109375,0.9712371826171875,0.235107421875
1772807466687479600,1.5124794921875,-0.0111846923828125,0.9652252197265625,0.2381134033203125
1772807466697410600,1.52241064453125,-0.00927734375,0.9633941650390625,0.2403564453125
1772807466707342600,1.532342529296875,-0.007415771484375,0.96484375,0.2447662353515625
1772807466717274600,1.542274658203125,-0.0028076171875,0.966094970703125,0.2441253662109375
1772807466727206400,1.552206298828125,-0.0017242431640625,0.9643096923828125,0.23980712890625
1772807466737138400,1.562138427734375,-0.0015716552734375,0.9606170654296875,0.2381134033203125
1772807466747070500,1.572070556640625,-0.0052642822265625,0.9602203369140625,0.238983154296875
1772807466757002500,1.58200244140625,-0.007110595703125,0.957611083984375,0.23931884765625
1772807466766934500,1.5919345703125,-0.00860595703125,0.959991455078125,0.238555908203125
1772807466776865500,1.601865478515625,-0.01025390625,0.966094970703125,0.2391510009765625
1772807466786797600,1.611797607421875,-0.0133514404296875,0.96697998046875,0.235931396484375
1772807466796729600,1.6217294921875,-0.0141448974609375,0.9652862548828125,0.23211669921875
1772807466806661600,1.63166162109375,-0.0233306884765625,0.9687042236328125,0.2278900146484375
1772807466816593700,1.64159375,-0.02484130859375,0.970062255859375,0.2198944091796875
1772807466826525700,1.651525634765625,-0.024505615234375,0.9715423583984375,0.214691162109375
1772807466836457500,1.66145751953125,-0.029632568359375,0.9653778076171875,0.2171783447265625
1772807466846389500,1.671389404296875,-0.028564453125,0.9633331298828125,0.2179412841796875
1772807466856321500,1.681321533203125,-0.0262298583984375,0.969268798828125,0.220947265625
1772807466866252500,1.69125244140625,-0.03338623046875,0.9733734130859375,0.2252349853515625
1772807466876184600,1.7011845703125,-0.0300140380859375,0.9659576416015625,0.226287841796875
1772807466886116600,1.71111669921875,-0.029266357421875,0.9636383056640625,0.2310638427734375
1772807466896048600,1.721048583984375,-0.02581787109375,0.966949462890625,0.2330780029296875
1772807466905980700,1.730980712890625,-0.024169921875,0.9697723388671875,0.2357635498046875
1772807466915912700,1.74091259765625,-0.026824951171875,0.973388671875,0.237762451171875
1772807466925844700,1.7508447265625,-0.028106689453125,0.977203369140625,0.237274169921875
1772807466935776500,1.760776611328125,-0.027740478515625,0.9802398681640625,0.238800048828125
1772807466945708500,1.77070849609375,-0.028411865234375,0.9798736572265625,0.24432373046875
1772807466955639600,1.7806396484375,-0.0294952392578125,0.9767913818359375,0.244476318359375
1772807466965571600,1.790571533203125,-0.0339508056640625,0.973175048828125,0.2393341064453125
1772807466975503600,1.800503662109375,-0.03759765625,0.97265625,0.2364959716796875
1772807466985435400,1.810435302734375,-0.0377349853515625,0.9697113037109375,0.2354583740234375
1772807466995367400,1.820367431640625,-0.0343780517578125,0.9682769775390625,0.2341766357421875
1772807467005299700,1.8302998046875,-0.0272216796875,0.96820068359375,0.2364349365234375
1772807467015231700,1.840231689453125,-0.0233917236328125,0.9673614501953125,0.23626708984375
1772807467025163800,1.850163818359375,-0.023834228515625,0.964935302734375,0.236297607421875
1772807467035094800,1.8600947265625,-0.0223846435546875,0.9686126708984375,0.236419677734375
1772807467045026800,1.87002685546875,-0.019989013671875,0.970550537109375,0.236328125
1772807467054958800,1.879958740234375,-0.017425537109375,0.970367431640625,0.2390594482421875
1772807467064890600,1.889890625,-0.018157958984375,0.9684600830078125,0.242523193359375
1772807467074822700,1.89982275390625,-0.0184326171875,0.968353271484375,0.24658203125
1772807467084754700,1.909754638671875,-0.01593017578125,0.9669036865234375,0.2490692138671875
1772807467094686700,1.919686767578125,-0.01385498046875,0.964935302734375,0.2518157958984375
1772807467104618800,1.92961865234375,-0.010284423828125,0.9656982421875,0.2505035400390625
1772807467114550800,1.93955078125,-0.013214111328125,0.9647979736328125,0.25335693359375
1772807467124481800,1.949481689453125,-0.0102691650390625,0.9648284912109375,0.2533721923828125
1772807467134413800,1.959413818359375,-0.0089874267578125,0.964385986328125,0.25244140625
1772807467144345900,1.969345947265625,-0.01385498046875,0.9634246826171875,0.251068115234375
1772807467154278000,1.97927783203125,-0.0128936767578125,0.96380615234375,0.2503662109375
1772807467164210000,1.9892099609375,-0.011138916015625,0.9626312255859375,0.2526397705078125
1772807467174141700,1.9991416015625,-0.013275146484375,0.9643707275390625,0.2532196044921875
1772807467184073700,2.00907373046875,-0.0140533447265625,0.96490478515625,0.2578125
1772807467194005800,2.019005859375,-0.0146331787109375,0.960418701171875,0.2558746337890625
1772807467203936800,2.028936767578125,-0.01513671875,0.955596923828125,0.249542236328125
1772807467213868800,2.038868896484375,-0.017822265625,0.957794189453125,0.243621826171875
1772807467223800600,2.048800537109375,-0.0209197998046875,0.957550048828125,0.2409820556640625
1772807467233732600,2.058732666015625,-0.01806640625,0.9575347900390625,0.2398223876953125
1772807467243664600,2.06866455078125,-0.0189666748046875,0.9622039794921875,0.239532470703125
1772807467253596700,2.0785966796875,-0.0171051025390625,0.9652862548828125,0.2329864501953125
1772807467263528700,2.08852880859375,-0.019500732421875,0.965118408203125,0.2347412109375
1772807467273460700,2.098460693359375,-0.0234375,0.9663543701171875,0.232513427734375
1772807467283392800,2.108392822265625,-0.0283050537109375,0.965728759765625,0.2317352294921875
1772807467293323800,2.11832373046875,-0.0294036865234375,0.9666595458984375,0.23040771484375
1772807467303255800,2.128255859375,-0.02667236328125,0.9654541015625,0.2301788330078125
1772807467313187800,2.138187744140625,-0.0269622802734375,0.966400146484375,0.23028564453125
1772807467323119600,2.14811962890625,-0.0272064208984375,0.9675445556640625,0.22955322265625
1772807467333051600,2.1580517578125,-0.0272674560546875,0.968902587890625,0.2274017333984375
1772807467342983700,2.167983642578125,-0.026458740234375,0.96820068359375,0.229095458984375
1772807467352915700,2.177915771484375,-0.02679443359375,0.9696502685546875,0.2310791015625
1772807467362847700,2.18784765625,-0.0284576416015625,0.96954345703125,0.233154296875
1772807467372779800,2.19777978515625,-0.02972412109375,0.96630859375,0.2329864501953125
1772807467382710800,2.207710693359375,-0.0296783447265625,0.966522216796875,0.231842041015625
1772807467392642800,2.217642822265625,-0.0289306640625,0.973358154296875,0.231658935546875
1772807467402574800,2.227574951171875,-0.028656005859375,0.9750823974609375,0.2294769287109375
1772807467412507000,2.2375068359375,-0.02630615234375,0.97698974609375,0.2326812744140625
1772807467422438700,2.247438720703125,-0.026336669921875,0.9756927490234375,0.232330322265625
1772807467432370700,2.25737060546875,-0.02581787109375,0.9731903076171875,0.23486328125
1772807467442302700,2.267302734375,-0.02587890625,0.970733642578125,0.2358245849609375
1772807467452234800,2.27723486328125,-0.02752685546875,0.971160888671875,0.2363739013671875
1772807467462165800,2.287165771484375,-0.0283050537109375,0.9693450927734375,0.2371673583984375
1772807467472097500,2.29709765625,-0.0302581787109375,0.968231201171875,0.23760986328125
1772807467482029600,2.307029541015625,-0.0290374755859375,0.9700164794921875,0.2386474609375
1772807467491961600,2.316961669921875,-0.0269622802734375,0.96929931640625,0.241973876953125
1772807467501893600,2.3268935546875,-0.0258026123046875,0.96807861328125,0.2447509765625
1772807467511826000,2.336825927734375,-0.0269775390625,0.9694976806640625,0.240447998046875
1772807467521758000,2.346758056640625,-0.0256500244140625,0.9696197509765625,0.2394561767578125
1772807467531689700,2.356689697265625,-0.025360107421875,0.9691009521484375,0.2348175048828125
1772807467541621800,2.366621826171875,-0.02264404296875,0.9664764404296875,0.2366180419921875
1772807467551552800,2.376552734375,-0.020294189453125,0.9621734619140625,0.24005126953125
1772807467561484800,2.38648486328125,-0.0183868408203125,0.963165283203125,0.244049072265625
1772807467571416800,2.396416748046875,-0.0185699462890625,0.9626312255859375,0.2487030029296875
1772807467581348600,2.4063486328125,-0.0216217041015625,0.959075927734375,0.253662109375
1772807467591280600,2.41628076171875,-0.025238037109375,0.9574127197265625,0.2554931640625
1772807467601212700,2.426212646484375,-0.026519775390625,0.9599609375,0.2570037841796875
1772807467611144700,2.436144775390625,-0.0262603759765625,0.9617767333984375,0.25750732421875
1772807467621076700,2.44607666015625,-0.0258941650390625,0.961029052734375,0.2566070556640625
1772807467631008500,2.456008544921875,-0.022705078125,0.961395263671875,0.2554779052734375
1772807467640939800,2.465939697265625,-0.0207061767578125,0.9648590087890625,0.2527008056640625
1772807467650871800,2.475871826171875,-0.021392822265625,0.96807861328125,0.249542236328125
1772807467660803800,2.485803955078125,-0.0226898193359375,0.966888427734375,0.2484588623046875
1772807467670736000,2.49573583984375,-0.0244903564453125,0.967193603515625,0.246307373046875
1772807467680667600,2.505667724609375,-0.02374267578125,0.9668426513671875,0.2454681396484375
1772807467690599700,2.515599609375,-0.019195556640625,0.967041015625,0.2438201904296875
1772807467700531700,2.52553173828125,-0.017913818359375,0.9654693603515625,0.2415771484375
1772807467710463700,2.535463623046875,-0.0177001953125,0.960601806640625,0.24267578125
1772807467720395800,2.545395751953125,-0.0201416015625,0.9591827392578125,0.2436981201171875
1772807467730326500,2.555326416015625,-0.0244293212890625,0.959564208984375,0.2446441650390625
1772807467740258800,2.5652587890625,-0.0218658447265625,0.963134765625,0.24261474609375
1772807467750190800,2.57519091796875,-0.02227783203125,0.967041015625,0.2438507080078125
1772807467760123000,2.585122802734375,-0.0230865478515625,0.969482421875,0.2461090087890625
1772807467770055000,2.595054931640625,-0.0238037109375,0.96966552734375,0.2459564208984375
1772807467779986700,2.604986572265625,-0.0220947265625,0.968719482421875,0.2437591552734375
1772807467789918700,2.614918701171875,-0.022613525390625,0.96844482421875,0.2407684326171875
1772807467799850800,2.624850830078125,-0.0200347900390625,0.9689788818359375,0.23956298828125
1772807467809782800,2.63478271484375,-0.016510009765625,0.9704437255859375,0.2362823486328125
1772807467819713800,2.6447138671875,-0.0192413330078125,0.9710540771484375,0.232208251953125
1772807467829645600,2.6546455078125,-0.0181884765625,0.9691162109375,0.2293243408203125
1772807467839577600,2.66457763671875,-0.01690673828125,0.9686126708984375,0.228302001953125
1772807467849509600,2.674509521484375,-0.0161590576171875,0.967132568359375,0.2278289794921875
1772807467859441700,2.684441650390625,-0.01666259765625,0.9669189453125,0.226318359375
1772807467869373700,2.694373779296875,-0.0203857421875,0.968841552734375,0.226287841796875
1772807467879305700,2.7043056640625,-0.0186309814453125,0.972015380859375,0.2252960205078125
1772807467889237800,2.71423779296875,-0.01617431640625,0.9703369140625,0.227386474609375
1772807467899168800,2.724168701171875,-0.0186767578125,0.9711456298828125,0.2261810302734375
1772807467909100800,2.734100830078125,-0.014190673828125,0.9719390869140625,0.225006103515625
1772807467919032800,2.74403271484375,-0.0154876708984375,0.96954345703125,0.228546142578125
1772807467928964900,2.75396484375,-0.018035888671875,0.9723663330078125,0.2302093505859375
1772807467938896600,2.763896728515625,-0.0134429931640625,0.9727630615234375,0.234619140625
1772807467948828700,2.77382861328125,-0.0111541748046875,0.970062255859375,0.236724853515625
1772807467958760700,2.7837607421875,-0.0150909423828125,0.9738922119140625,0.2366180419921875
1772807467968692700,2.793692626953125,-0.00982666015625,0.9739227294921875,0.2364044189453125
1772807467978624800,2.803624755859375,-0.0182342529296875,0.96826171875,0.2353363037109375
1772807467988555800,2.8135556640625,-0.0151824951171875,0.96588134765625,0.2345733642578125
1772807467998487800,2.82348779296875,-0.015533447265625,0.9687347412109375,0.2359619140625
1772807468008419800,2.833419921875,-0.01324462890625,0.973541259765625,0.2414398193359375
1772807468018351900,2.843351806640625,-0.0141143798828125,0.971466064453125,0.247406005859375
1772807468028284000,2.853283935546875,-0.012664794921875,0.9660491943359375,0.2440948486328125
1772807468038215700,2.863215576171875,-0.0164794921875,0.9707183837890625,0.2416839599609375
1772807468048147700,2.873147705078125,-0.02093505859375,0.977325439453125,0.242767333984375
1772807468058079700,2.883079833984375,-0.02105712890625,0.97857666015625,0.238861083984375
1772807468068011800,2.89301171875,-0.0210723876953125,0.979736328125,0.2335968017578125
1772807468077943800,2.90294384765625,-0.021240234375,0.9791107177734375,0.23016357421875
1772807468087874600,2.91287451171875,-0.021270751953125,0.97784423828125,0.2279815673828125
1772807468097806600,2.922806640625,-0.0267181396484375,0.974151611328125,0.2317962646484375
1772807468107738600,2.932738525390625,-0.018585205078125,0.971923828125,0.227752685546875
1772807468117670700,2.942670654296875,-0.0191802978515625,0.9755401611328125,0.229522705078125
1772807468127602700,2.952602783203125,-0.0265655517578125,0.972869873046875,0.2312469482421875
1772807468137535000,2.962534912109375,-0.0227508544921875,0.9644622802734375,0.2296295166015625
1772807468147466800,2.972466796875,-0.016021728515625,0.9640960693359375,0.2294921875
1772807468157398800,2.982398681640625,-0.0195159912109375,0.9635162353515625,0.2311859130859375
1772807468167329800,2.992329833984375,-0.024505615234375,0.9607391357421875,0.2342681884765625
1772807468177261800,3.00226171875,-0.036468505859375,0.9636688232421875,0.2366790771484375
1772807468187193600,3.012193603515625,-0.0331268310546875,0.9652252197265625,0.238128662109375
1772807468197125600,3.022125732421875,-0.0361328125,0.9658203125,0.2313232421875
1772807468207057700,3.0320576171875,-0.0360565185546875,0.9663238525390625,0.22747802734375
1772807468216989700,3.04198974609375,-0.0322265625,0.965423583984375,0.2220916748046875
1772807468226921700,3.051921630859375,-0.027099609375,0.9679412841796875,0.2171783447265625
1772807468236853800,3.061853759765625,-0.0320281982421875,0.9672393798828125,0.2178192138671875
1772807468246785500,3.07178564453125,-0.0400543212890625,0.96319580078125,0.2227935791015625
1772807468256716800,3.081716796875,-0.0356903076171875,0.9628753662109375,0.22314453125
1772807468266648800,3.09164892578125,-0.05120849609375,0.961639404296875,0.226043701171875
1772807468276580900,3.101580810546875,-0.0404052734375,0.96466064453125,0.2225494384765625
1772807468286513000,3.111512939453125,-0.0460968017578125,0.965484619140625,0.22119140625
1772807468296444700,3.121444580078125,-0.04541015625,0.9659271240234375,0.2191162109375
1772807468306376700,3.131376708984375,-0.042938232421875,0.97027587890625,0.2196502685546875
1772807468316308700,3.141308837890625,-0.038421630859375,0.9721527099609375,0.225738525390625
1772807468326240800,3.15124072265625,-0.035186767578125,0.966766357421875,0.2289581298828125
1772807468336172800,3.1611728515625,-0.03741455078125,0.95880126953125,0.226165771484375
1772807468346104600,3.1711044921875,-0.038787841796875,0.9586181640625,0.2261810302734375
1772807468356035600,3.18103564453125,-0.0423126220703125,0.9713897705078125,0.2286376953125
1772807468365968000,3.1909677734375,-0.0417938232421875,0.9784393310546875,0.228057861328125
1772807468375900000,3.20089990234375,-0.0320892333984375,0.9786224365234375,0.2297515869140625
1772807468385832000,3.21083203125,-0.0340576171875,0.974029541015625,0.2333526611328125
1772807468395763700,3.220763671875,-0.0379638671875,0.96527099609375,0.2307586669921875
1772807468405695700,3.23069580078125,-0.0329742431640625,0.9629058837890625,0.234222412109375
1772807468415627800,3.240627685546875,-0.039825439453125,0.9622955322265625,0.2360076904296875
1772807468425559800,3.250559814453125,-0.0391693115234375,0.9627838134765625,0.2385406494140625
1772807468435491800,3.260491943359375,-0.0408172607421875,0.9641571044921875,0.2367095947265625
1772807468445422600,3.270422607421875,-0.0416259765625,0.9644622802734375,0.2321624755859375
1772807468455354600,3.280354736328125,-0.042938232421875,0.9636993408203125,0.2281036376953125
1772807468465286700,3.29028662109375,-0.0501861572265625,0.9666595458984375,0.223907470703125
1772807468475218700,3.30021875,-0.0444793701171875,0.9677581787109375,0.2198333740234375
1772807468485150700,3.310150634765625,-0.0468597412109375,0.973175048828125,0.21331787109375
1772807468495082800,3.320082763671875,-0.0475921630859375,0.977752685546875,0.2095184326171875
1772807468505014800,3.330014892578125,-0.048248291015625,0.97271728515625,0.210784912109375
1772807468514946800,3.33994677734375,-0.05303955078125,0.9664764404296875,0.2149658203125
1772807468524878800,3.34987890625,-0.055206298828125,0.9663848876953125,0.21539306640625
1772807468534809900,3.359809814453125,-0.0528717041015625,0.9629669189453125,0.2249755859375
1772807468544741600,3.36974169921875,-0.0510101318359375,0.97027587890625,0.224090576171875
1772807468554673700,3.379673583984375,-0.0559844970703125,0.97906494140625,0.2273406982421875
1772807468564605700,3.389605712890625,-0.0603179931640625,0.978179931640625,0.2271881103515625
1772807468574537700,3.399537841796875,-0.057952880859375,0.9767608642578125,0.2263641357421875
1772807468584469800,3.4094697265625,-0.0545501708984375,0.981658935546875,0.22552490234375
1772807468594401800,3.41940185546875,-0.0529632568359375,0.9852752685546875,0.2259063720703125
1772807468604333600,3.42933349609375,-0.0489349365234375,0.9773712158203125,0.232177734375
1772807468614265600,3.439265625,-0.045074462890625,0.9725189208984375,0.228118896484375
1772807468624196900,3.44919677734375,-0.055084228515625,0.9688568115234375,0.2210693359375
1772807468634129000,3.45912890625,-0.0636749267578125,0.9664764404296875,0.2182769775390625
1772807468644061000,3.46906103515625,-0.0691070556640625,0.9662322998046875,0.2117462158203125
1772807468653992700,3.47899267578125,-0.0765228271484375,0.967193603515625,0.20867919921875
1772807468663924700,3.4889248046875,-0.07806396484375,0.9672088623046875,0.2065277099609375
1772807468673856800,3.498856689453125,-0.0761566162109375,0.97186279296875,0.200347900390625
1772807468683788800,3.508788818359375,-0.0779571533203125,0.9741973876953125,0.1944122314453125
1772807468693720800,3.518720947265625,-0.0798492431640625,0.9706268310546875,0.1909332275390625
1772807468703652600,3.528652587890625,-0.080718994140625,0.9758758544921875,0.1890106201171875
1772807468713584600,3.538584716796875,-0.0837554931640625,0.9787445068359375,0.1925201416015625
1772807468723515600,3.548515625,-0.0740966796875,0.973846435546875,0.196136474609375
1772807468733447700,3.55844775390625,-0.065155029296875,0.96783447265625,0.198272705078125
1772807468743379700,3.568379638671875,-0.070465087890625,0.9638519287109375,0.2005462646484375
1772807468753311700,3.578311767578125,-0.0726318359375,0.9642486572265625,0.1998748779296875
1772807468763243800,3.588243896484375,-0.07513427734375,0.96038818359375,0.196533203125
1772807468773175800,3.59817578125,-0.07647705078125,0.9608001708984375,0.19781494140625
1772807468783107800,3.60810791015625,-0.0757598876953125,0.9664459228515625,0.194915771484375
1772807468793040000,3.618039794921875,-0.0796661376953125,0.976104736328125,0.19219970703125
1772807468802972000,3.627971923828125,-0.0795440673828125,0.9779205322265625,0.192047119140625
1772807468812902700,3.637902587890625,-0.080413818359375,0.9789581298828125,0.1905517578125
1772807468822834700,3.647834716796875,-0.0780487060546875,0.9771270751953125,0.18756103515625
1772807468832766700,3.6577666015625,-0.0782623291015625,0.9732818603515625,0.18896484375
1772807468842698800,3.66769873046875,-0.0811614990234375,0.96240234375,0.192779541015625
1772807468852630800,3.677630859375,-0.0836639404296875,0.955474853515625,0.193450927734375
1772807468862562600,3.6875625,-0.0876312255859375,0.954010009765625,0.198974609375
1772807468872494600,3.69749462890625,-0.0943756103515625,0.9574432373046875,0.199371337890625
1772807468882426600,3.707426513671875,-0.09368896484375,0.9643096923828125,0.2004241943359375
1772807468892358700,3.717358642578125,-0.0879058837890625,0.9682769775390625,0.199951171875
1772807468902289700,3.72728955078125,-0.0875701904296875,0.9751739501953125,0.198699951171875
1772807468912221700,3.7372216796875,-0.0872344970703125,0.9850006103515625,0.1984405517578125
1772807468922153700,3.74715380859375,-0.0873565673828125,0.9808807373046875,0.20037841796875
1772807468932085800,3.757085693359375,-0.0819091796875,0.9681243896484375,0.198455810546875
1772807468942017800,3.767017822265625,-0.0797119140625,0.9584197998046875,0.196563720703125
1772807468951949800,3.77694970703125,-0.0941619873046875,0.9524078369140625,0.2003326416015625
1772807468961881600,3.786881591796875,-0.110076904296875,0.950439453125,0.2021331787109375
1772807468971813600,3.796813720703125,-0.1067962646484375,0.9605560302734375,0.2031707763671875
1772807468981745700,3.80674560546875,-0.112457275390625,0.9704742431640625,0.1998138427734375
1772807468991677700,3.816677734375,-0.1130828857421875,0.9774017333984375,0.1920166015625
1772807469001609000,3.82660888671875,-0.1103973388671875,0.9780426025390625,0.1839599609375
1772807469011541200,3.836541259765625,-0.1115875244140625,0.974639892578125,0.1729736328125
1772807469021473300,3.846473388671875,-0.1082305908203125,0.9766693115234375,0.1670074462890625
1772807469031405300,3.8564052734375,-0.106536865234375,0.9718475341796875,0.1715087890625
1772807469041337300,3.86633740234375,-0.106292724609375,0.9657440185546875,0.1776580810546875
1772807469051269400,3.876269287109375,-0.1053924560546875,0.9607086181640625,0.1828765869140625
1772807469061201400,3.886201416015625,-0.1160125732421875,0.96319580078125,0.182525634765625
1772807469071133200,3.89613330078125,-0.12310791015625,0.970947265625,0.1832733154296875
1772807469081065200,3.906065185546875,-0.1191864013671875,0.9728546142578125,0.185577392578125
1772807469090996200,3.915996337890625,-0.111053466796875,0.98089599609375,0.1842498779296875
1772807469100928300,3.92592822265625,-0.110931396484375,0.9862518310546875,0.180938720703125
1772807469110860300,3.9358603515625,-0.108001708984375,0.9885711669921875,0.18133544921875
1772807469120792000,3.9457919921875,-0.10540771484375,0.9893341064453125,0.1836090087890625
1772807469130724000,3.95572412109375,-0.1068267822265625,0.98834228515625,0.182861328125
1772807469140656000,3.96565625,-0.1070556640625,0.97833251953125,0.18603515625
1772807469150588200,3.975588134765625,-0.1066741943359375,0.9697113037109375,0.18719482421875
1772807469160518100,3.98551806640625,-0.109039306640625,0.97088623046875,0.19091796875
1772807469170450200,3.9954501953125,-0.1072540283203125,0.9722900390625,0.1958465576171875
1772807469180382200,4.00538232421875,-0.1033935546875,0.9757537841796875,0.2007904052734375
1772807469190314200,4.015314208984375,-0.098297119140625,0.9804229736328125,0.206146240234375
1772807469200246300,4.025246337890625,-0.096343994140625,0.98333740234375,0.20855712890625
1772807469210178000,4.035177978515625,-0.0948028564453125,0.982757568359375,0.205413818359375
1772807469220110000,4.045110107421875,-0.0937347412109375,0.978607177734375,0.20391845703125
1772807469230042000,4.0550419921875,-0.0910491943359375,0.97320556640625,0.204559326171875
1772807469239973400,4.064973388671875,-0.09259033203125,0.9682159423828125,0.20379638671875
1772807469249905400,4.074905517578125,-0.094451904296875,0.9617919921875,0.2036590576171875
1772807469259837200,4.084837158203125,-0.0914154052734375,0.9586944580078125,0.20361328125
1772807469269769200,4.094769287109375,-0.0915069580078125,0.9600372314453125,0.2035980224609375
1772807469279701200,4.104701171875,-0.092620849609375,0.9605255126953125,0.200439453125
1772807469289633300,4.11463330078125,-0.09039306640625,0.9648284912109375,0.1953277587890625
1772807469299565300,4.1245654296875,-0.0886383056640625,0.968231201171875,0.191131591796875
1772807469309497300,4.134497314453125,-0.0885009765625,0.96881103515625,0.187591552734375
1772807469319429000,4.14442919921875,-0.0878448486328125,0.96856689453125,0.1866455078125
1772807469329361200,4.154361083984375,-0.086151123046875,0.9691314697265625,0.188934326171875
1772807469339292200,4.164292236328125,-0.0841827392578125,0.9671630859375,0.193817138671875
1772807469349224400,4.174224365234375,-0.0792388916015625,0.9669342041015625,0.198577880859375
1772807469359156200,4.18415625,-0.0747833251953125,0.967437744140625,0.2023468017578125
1772807469369088300,4.194088134765625,-0.075286865234375,0.966278076171875,0.205169677734375
1772807469379020300,4.204020263671875,-0.0777587890625,0.9658966064453125,0.2048187255859375
1772807469388952300,4.213952392578125,-0.08135986328125,0.9692230224609375,0.2053680419921875
1772807469398884400,4.22388427734375,-0.083526611328125,0.971649169921875,0.203582763671875
1772807469408816400,4.23381640625,-0.07940673828125,0.975128173828125,0.20526123046875
1772807469418748200,4.243748046875,-0.0812530517578125,0.975616455078125,0.20184326171875
1772807469428679200,4.25367919921875,-0.0813140869140625,0.9759368896484375,0.1982269287109375
1772807469438611200,4.263611083984375,-0.077545166015625,0.9736328125,0.1970672607421875
1772807469448543200,4.273543212890625,-0.0743255615234375,0.9727783203125,0.1968994140625
1772807469458475300,4.283475341796875,-0.0740203857421875,0.9710845947265625,0.1957855224609375
1772807469468407000,4.293406982421875,-0.076507568359375,0.97137451171875,0.196624755859375
1772807469478339000,4.303339111328125,-0.0794830322265625,0.9767303466796875,0.1969757080078125
1772807469488271400,4.313271240234375,-0.0796051025390625,0.9766387939453125,0.19482421875
1772807469498203400,4.323203369140625,-0.078155517578125,0.975494384765625,0.1930694580078125
1772807469508135400,4.333135498046875,-0.0778045654296875,0.9753265380859375,0.1927642822265625
1772807469518067200,4.343067138671875,-0.0798187255859375,0.9779205322265625,0.1941070556640625
1772807469527998200,4.352998291015625,-0.0786895751953125,0.9776153564453125,0.195556640625
1772807469537931300,4.36293115234375,-0.0764617919921875,0.9777374267578125,0.195709228515625
1772807469547863300,4.37286328125,-0.0738677978515625,0.9786224365234375,0.19488525390625
1772807469557795300,4.38279541015625,-0.0735321044921875,0.975616455078125,0.194671630859375
1772807469567727400,4.392727294921875,-0.0719757080078125,0.9709930419921875,0.1952667236328125
1772807469577659100,4.4026591796875,-0.0680694580078125,0.9685821533203125,0.1928253173828125
1772807469587591200,4.412591064453125,-0.066375732421875,0.9686737060546875,0.1929931640625
1772807469597523200,4.422523193359375,-0.072174072265625,0.9757537841796875,0.1928253173828125
1772807469607455200,4.432455322265625,-0.0762939453125,0.9822845458984375,0.1913909912109375
1772807469617387300,4.44238720703125,-0.073394775390625,0.9835357666015625,0.1891021728515625
1772807469627318000,4.452318115234375,-0.069793701171875,0.9779815673828125,0.18927001953125
1772807469637250300,4.462250244140625,-0.068634033203125,0.974334716796875,0.1923675537109375
1772807469647182300,4.472182373046875,-0.06268310546875,0.97283935546875,0.1959228515625
1772807469657114400,4.4821142578125,-0.0583648681640625,0.974334716796875,0.1984710693359375
1772807469667046400,4.49204638671875,-0.058074951171875,0.974395751953125,0.2008056640625
1772807469676978400,4.501978515625,-0.0601043701171875,0.9747314453125,0.2027435302734375
1772807469686910200,4.51191015625,-0.0623626708984375,0.9739532470703125,0.203582763671875
1772807469696842200,4.52184228515625,-0.06036376953125,0.9736328125,0.2069549560546875
1772807469706774300,4.531774169921875,-0.0549468994140625,0.9732666015625,0.210235595703125
1772807469716705300,4.541705322265625,-0.0543060302734375,0.9712066650390625,0.2141265869140625
1772807469726637000,4.551636962890625,-0.053863525390625,0.97332763671875,0.2132110595703125
1772807469736569000,4.561569091796875,-0.0577545166015625,0.9748992919921875,0.212432861328125
1772807469746501000,4.571501220703125,-0.0629119873046875,0.971832275390625,0.20703125
1772807469756433200,4.58143310546875,-0.067901611328125,0.9714508056640625,0.2047271728515625
1772807469766365200,4.591365234375,-0.0683135986328125,0.97021484375,0.20111083984375
1772807469776297200,4.601297119140625,-0.066619873046875,0.9704437255859375,0.199493408203125
1772807469786229200,4.611229248046875,-0.0697784423828125,0.9717559814453125,0.201141357421875
1772807469796161300,4.621161376953125,-0.067657470703125,0.9757843017578125,0.2027587890625
1772807469806093300,4.63109326171875,-0.0694580078125,0.9766998291015625,0.2025909423828125
1772807469816024300,4.6410244140625,-0.0653228759765625,0.9773406982421875,0.2003631591796875
1772807469825956400,4.650956298828125,-0.059295654296875,0.97650146484375,0.197998046875
1772807469835888000,4.66088818359375,-0.059722900390625,0.97259521484375,0.1975250244140625
1772807469845820200,4.670820068359375,-0.0643310546875,0.971832275390625,0.194000244140625
1772807469855752200,4.680752197265625,-0.0673065185546875,0.9707794189453125,0.1936187744140625
1772807469865684200,4.690684326171875,-0.0672454833984375,0.9694061279296875,0.191497802734375
1772807469875616300,4.7006162109375,-0.0644683837890625,0.969207763671875,0.193756103515625
1772807469885548300,4.71054833984375,-0.0647125244140625,0.9721527099609375,0.1935577392578125
1772807469895480000,4.72047998046875,-0.0642852783203125,0.974395751953125,0.1927337646484375
1772807469905412000,4.730412109375,-0.0618133544921875,0.9757537841796875,0.1933746337890625
1772807469915343400,4.74034326171875,-0.0585174560546875,0.978668212890625,0.1923370361328125
1772807469925275400,4.750275390625,-0.0589599609375,0.9797210693359375,0.19061279296875
1772807469935207200,4.760207275390625,-0.0570831298828125,0.9786834716796875,0.1896209716796875
1772807469945139200,4.77013916015625,-0.053924560546875,0.97674560546875,0.1910247802734375
1772807469955071200,4.7800712890625,-0.054962158203125,0.9724884033203125,0.1922760009765625
1772807469965003300,4.790003173828125,-0.0570526123046875,0.97052001953125,0.1950225830078125
1772807469974935300,4.799935302734375,-0.0621490478515625,0.97296142578125,0.19708251953125
1772807469984867300,4.809867431640625,-0.06292724609375,0.9747161865234375,0.1979217529296875
1772807469994799000,4.819799072265625,-0.0596923828125,0.9745941162109375,0.195831298828125
1772807470004731100,4.829731201171875,-0.05816650390625,0.9745941162109375,0.197845458984375
1772807470014662100,4.839662109375,-0.057220458984375,0.9762420654296875,0.2013397216796875
1772807470024594200,4.84959423828125,-0.054107666015625,0.9757843017578125,0.2047882080078125
1772807470034526200,4.859526123046875,-0.0572052001953125,0.977142333984375,0.2063140869140625
1772807470044458200,4.869458251953125,-0.0572509765625,0.9763946533203125,0.2061309814453125
1772807470054390000,4.87939013671875,-0.057891845703125,0.9748382568359375,0.209503173828125
1772807470064322000,4.889322021484375,-0.0611572265625,0.9732818603515625,0.2131195068359375
1772807470074254000,4.899254150390625,-0.0605926513671875,0.9723358154296875,0.2118072509765625
1772807470084186000,4.90918603515625,-0.0625152587890625,0.9688873291015625,0.2108154296875
1772807470094118100,4.9191181640625,-0.06451416015625,0.9699249267578125,0.2112274169921875
1772807470104050200,4.92905029296875,-0.06463623046875,0.9700927734375,0.2115020751953125
1772807470113981000,4.93898095703125,-0.06683349609375,0.9698028564453125,0.2087860107421875
1772807470123913000,4.948912841796875,-0.0643768310546875,0.9712371826171875,0.2066192626953125
1772807470133845000,4.958844970703125,-0.0630340576171875,0.9745941162109375,0.2106170654296875
1772807470143777000,4.968777099609375,-0.0632476806640625,0.9766845703125,0.2127685546875
1772807470153709000,4.978708984375,-0.06878662109375,0.97454833984375,0.213348388671875
1772807470163641000,4.98864111328125,-0.068206787109375,0.976165771484375,0.2138824462890625
1772807470173573000,4.998572998046875,-0.0626220703125,0.976165771484375,0.21563720703125
1772807470183505200,5.008505126953125,-0.07025146484375,0.97412109375,0.2106475830078125
1772807470193437200,5.018437255859375,-0.0675201416015625,0.9703521728515625,0.210540771484375
1772807470203369200,5.028369140625,-0.0608978271484375,0.964874267578125,0.212066650390625
1772807470213301200,5.03830126953125,-0.0611724853515625,0.963592529296875,0.213714599609375
1772807470223232000,5.04823193359375,-0.0640716552734375,0.9642486572265625,0.2083892822265625
1772807470233164000,5.0581640625,-0.0683135986328125,0.9690093994140625,0.20660400390625
1772807470243096000,5.068095947265625,-0.065643310546875,0.9722442626953125,0.2042083740234375
1772807470253028000,5.078028076171875,-0.0638427734375,0.9730072021484375,0.20458984375
1772807470262959900,5.0879599609375,-0.062896728515625,0.9729461669921875,0.205535888671875
1772807470272892000,5.097891845703125,-0.061492919921875,0.970977783203125,0.2086639404296875
1772807470282824000,5.107823974609375,-0.059356689453125,0.97015380859375,0.208953857421875
1772807470292756000,5.117755859375,-0.05950927734375,0.9723052978515625,0.2103729248046875
1772807470302688000,5.12768798828125,-0.0647735595703125,0.9711761474609375,0.207427978515625
1772807470312620300,5.137620361328125,-0.0643157958984375,0.9693756103515625,0.20416259765625
1772807470322551000,5.147551025390625,-0.061126708984375,0.9717254638671875,0.202301025390625
1772807470332483000,5.157483154296875,-0.06231689453125,0.97369384765625,0.19891357421875
1772807470342415000,5.1674150390625,-0.0668487548828125,0.9726409912109375,0.1970062255859375
1772807470352347100,5.17734716796875,-0.06927490234375,0.9715423583984375,0.1964111328125
1772807470362279200,5.187279052734375,-0.067169189453125,0.9745330810546875,0.197509765625
1772807470372211000,5.1972109375,-0.0645599365234375,0.9771270751953125,0.19647216796875
1772807470382143000,5.20714306640625,-0.068450927734375,0.975677490234375,0.1973724365234375
1772807470392075000,5.217074951171875,-0.0696258544921875,0.977020263671875,0.1988372802734375
1772807470402007000,5.227007080078125,-0.06756591796875,0.977447509765625,0.19793701171875
1772807470411939000,5.23693896484375,-0.0657196044921875,0.973968505859375,0.19720458984375
1772807470421870000,5.2468701171875,-0.0650634765625,0.97418212890625,0.1956634521484375
1772807470431802000,5.256802001953125,-0.066864013671875,0.9744873046875,0.1922760009765625
1772807470441734100,5.266734130859375,-0.069366455078125,0.9724578857421875,0.1936798095703125
1772807470451666200,5.276666259765625,-0.0695343017578125,0.9727783203125,0.1959686279296875
1772807470461598200,5.28659814453125,-0.0707550048828125,0.9725189208984375,0.1966705322265625
1772807470471530000,5.296530029296875,-0.071746826171875,0.968902587890625,0.1949920654296875
1772807470481462000,5.3064619140625,-0.074005126953125,0.9703521728515625,0.1940765380859375
1772807470491394000,5.31639404296875,-0.069061279296875,0.9734954833984375,0.192474365234375
1772807470501326000,5.326326171875,-0.067535400390625,0.97705078125,0.194183349609375
1772807470511258000,5.336258056640625,-0.0684967041015625,0.977447509765625,0.1964874267578125
1772807470521190100,5.346190185546875,-0.0695953369140625,0.9774932861328125,0.200286865234375
1772807470531121000,5.356120849609375,-0.06884765625,0.978424072265625,0.201812744140625
1772807470541053200,5.36605322265625,-0.068572998046875,0.9765777587890625,0.20135498046875
1772807470550985200,5.375985107421875,-0.0694732666015625,0.973663330078125,0.2008514404296875
1772807470560917200,5.385917236328125,-0.0697784423828125,0.972320556640625,0.1987152099609375
1772807470570849300,5.395849365234375,-0.071044921875,0.973297119140625,0.1998443603515625
1772807470580781000,5.405781005859375,-0.0719146728515625,0.969940185546875,0.1999969482421875
1772807470590713000,5.415713134765625,-0.0726470947265625,0.972259521484375,0.1959075927734375
1772807470600645000,5.42564501953125,-0.072601318359375,0.974395751953125,0.1968536376953125
1772807470610577200,5.4355771484375,-0.0714874267578125,0.9759674072265625,0.1960296630859375
1772807470620509200,5.44550927734375,-0.0681915283203125,0.975860595703125,0.1952972412109375
1772807470630440000,5.45543994140625,-0.0702667236328125,0.971923828125,0.1912994384765625
1772807470640372000,5.4653720703125,-0.0673065185546875,0.97003173828125,0.1949615478515625
1772807470650304000,5.475303955078125,-0.069091796875,0.9702606201171875,0.1938018798828125
1772807470660236000,5.485236083984375,-0.0706329345703125,0.9705657958984375,0.1911468505859375
1772807470670168000,5.49516796875,-0.072509765625,0.972137451171875,0.1951904296875
1772807470680099800,5.505099853515625,-0.0743560791015625,0.973236083984375,0.1966552734375
1772807470690032000,5.5150322265625,-0.0750732421875,0.9698638916015625,0.1969146728515625
1772807470699964200,5.524964111328125,-0.0795745849609375,0.9652252197265625,0.195556640625
1772807470709896200,5.534896240234375,-0.0824127197265625,0.96600341796875,0.1960296630859375
1772807470719828200,5.544828125,-0.0826873779296875,0.968231201171875,0.196258544921875
1772807470729759000,5.554759033203125,-0.0828094482421875,0.971435546875,0.197509765625
1772807470739691000,5.56469091796875,-0.082183837890625,0.9744720458984375,0.1994171142578125
1772807470749623000,5.574623046875,-0.08123779296875,0.9730377197265625,0.2014007568359375
1772807470759555000,5.58455517578125,-0.078460693359375,0.975372314453125,0.2018585205078125
1772807470769487000,5.594487060546875,-0.0780487060546875,0.9740753173828125,0.200439453125
1772807470779419100,5.604419189453125,-0.079315185546875,0.9739532470703125,0.201141357421875
1772807470789351000,5.614350830078125,-0.0769195556640625,0.975494384765625,0.204315185546875
1772807470799283000,5.624282958984375,-0.075897216796875,0.975494384765625,0.2064056396484375
1772807470809215000,5.634215087890625,-0.073699951171875,0.9720458984375,0.205718994140625
1772807470819147000,5.64414697265625,-0.0712890625,0.9716949462890625,0.207000732421875
1772807470829079000,5.6540791015625,-0.0727081298828125,0.9741668701171875,0.2104339599609375
1772807470839010000,5.664010009765625,-0.0756988525390625,0.975128173828125,0.2122344970703125
1772807470848942000,5.673942138671875,-0.0759124755859375,0.9743499755859375,0.2087554931640625
1772807470858874000,5.6838740234375,-0.077392578125,0.9752197265625,0.2085723876953125
1772807470868806100,5.69380615234375,-0.0772705078125,0.9739990234375,0.208465576171875
1772807470878738200,5.70373828125,-0.074981689453125,0.9712371826171875,0.2050323486328125
1772807470888670000,5.713669921875,-0.0716552734375,0.970977783203125,0.2009735107421875
1772807470898602000,5.72360205078125,-0.0691986083984375,0.9708404541015625,0.198272705078125
1772807470908534000,5.733533935546875,-0.0708465576171875,0.9724273681640625,0.201934814453125
1772807470918466000,5.743466064453125,-0.0702362060546875,0.972747802734375,0.2031402587890625
1772807470928398000,5.753398193359375,-0.0706787109375,0.9716339111328125,0.20556640625
1772807470938329000,5.7633291015625,-0.0746002197265625,0.9697265625,0.2042236328125
1772807470948261000,5.77326123046875,-0.0764312744140625,0.9686126708984375,0.20208740234375
1772807470958193200,5.783193115234375,-0.0754241943359375,0.968719482421875,0.202362060546875
1772807470968125200,5.793125244140625,-0.071380615234375,0.970794677734375,0.204315185546875
1772807470978057200,5.80305712890625,-0.0691070556640625,0.9716033935546875,0.203521728515625
1772807470987989200,5.8129892578125,-0.0690765380859375,0.97430419921875,0.202117919921875
1772807470997921000,5.822921142578125,-0.071990966796875,0.9737396240234375,0.2028350830078125
1772807471007853000,5.83285302734375,-0.071441650390625,0.9759674072265625,0.2023162841796875
1772807471017785000,5.84278515625,-0.0647125244140625,0.9765167236328125,0.202117919921875
1772807471027716900,5.852716796875,-0.0638427734375,0.971038818359375,0.20660400390625
1772807471037649000,5.86264892578125,-0.065032958984375,0.9696197509765625,0.2071990966796875
1772807471047580000,5.872579833984375,-0.0656890869140625,0.9683837890625,0.20513916015625
1772807471057512000,5.882511962890625,-0.0653533935546875,0.9687957763671875,0.2037353515625
1772807471067444000,5.89244384765625,-0.0664520263671875,0.9712371826171875,0.2059478759765625
1772807471077376000,5.9023759765625,-0.0715484619140625,0.9709014892578125,0.2044677734375
1772807471087308000,5.91230810546875,-0.074310302734375,0.9703369140625,0.2026519775390625
1772807471097240000,5.922239990234375,-0.07427978515625,0.9726409912109375,0.202301025390625
1772807471107172000,5.932172119140625,-0.07489013671875,0.9730072021484375,0.199554443359375
1772807471117104000,5.942104248046875,-0.0711822509765625,0.975189208984375,0.1994781494140625
1772807471127036200,5.9520361328125,-0.0720062255859375,0.9742431640625,0.1991729736328125
1772807471136968000,5.961968017578125,-0.0699462890625,0.9745941162109375,0.198760986328125
1772807471146900000,5.97189990234375,-0.069091796875,0.9739227294921875,0.1972808837890625
1772807471156831000,5.9818310546875,-0.0705718994140625,0.9737548828125,0.19805908203125
1772807471166763000,5.991762939453125,-0.0714874267578125,0.9778289794921875,0.2003631591796875
1772807471176694800,6.00169482421875,-0.0710601806640625,0.977203369140625,0.200653076171875
1772807471186626800,6.011626708984375,-0.0694732666015625,0.974273681640625,0.2024078369140625
1772807471196558800,6.021558837890625,-0.069854736328125,0.97015380859375,0.2027587890625
1772807471206491000,6.031490966796875,-0.0732879638671875,0.9691925048828125,0.2037353515625
1772807471216423000,6.0414228515625,-0.07440185546875,0.9695892333984375,0.2014923095703125
1772807471226355200,6.051355224609375,-0.0719146728515625,0.97149658203125,0.2009124755859375
1772807471236287000,6.061286865234375,-0.07330322265625,0.9739532470703125,0.1981964111328125
1772807471246219000,6.071218994140625,-0.07244873046875,0.977508544921875,0.1976165771484375
1772807471256150000,6.08114990234375,-0.0677947998046875,0.977325439453125,0.1993408203125
1772807471266082000,6.09108203125,-0.0673828125,0.9742279052734375,0.200225830078125
1772807471276014000,6.10101416015625,-0.07122802734375,0.9719085693359375,0.1983642578125
1772807471285945900,6.11094580078125,-0.0694122314453125,0.97125244140625,0.2002105712890625
1772807471295878000,6.1208779296875,-0.0691680908203125,0.9714813232421875,0.2016143798828125
1772807471305810000,6.130809814453125,-0.0686187744140625,0.97314453125,0.200042724609375
1772807471315742000,6.140741943359375,-0.0659637451171875,0.97369384765625,0.2026824951171875
1772807471325674000,6.150674072265625,-0.067108154296875,0.971221923828125,0.20123291015625
1772807471335606000,6.16060595703125,-0.070526123046875,0.972076416015625,0.1967010498046875
1772807471345537800,6.170537841796875,-0.0714569091796875,0.9734039306640625,0.1927032470703125
1772807471355469800,6.1804697265625,-0.07080078125,0.9757232666015625,0.1935882568359375
1772807471365401900,6.19040185546875,-0.0686492919921875,0.9759979248046875,0.197906494140625
1772807471375333000,6.2003330078125,-0.068817138671875,0.9733428955078125,0.19842529296875
1772807471385265000,6.210264892578125,-0.0713958740234375,0.972198486328125,0.2021331787109375
1772807471395197000,6.220197021484375,-0.0696258544921875,0.9727020263671875,0.2038726806640625
1772807471405129000,6.23012890625,-0.065826416015625,0.974395751953125,0.2017669677734375
1772807471415061000,6.24006103515625,-0.0655670166015625,0.97344970703125,0.2023773193359375
1772807471424993000,6.249992919921875,-0.0667724609375,0.9710693359375,0.202880859375
1772807471434925000,6.259925048828125,-0.06890869140625,0.972412109375,0.205535888671875
1772807471444856800,6.26985693359375,-0.0657806396484375,0.9710540771484375,0.2055511474609375
1772807471454788900,6.279788818359375,-0.0644073486328125,0.9728240966796875,0.2063446044921875
1772807471464721000,6.289720947265625,-0.0677032470703125,0.968536376953125,0.205474853515625
1772807471474652200,6.299652099609375,-0.07220458984375,0.971923828125,0.2027740478515625
1772807471484584200,6.309584228515625,-0.0733795166015625,0.9741973876953125,0.201141357421875
1772807471494516000,6.319515869140625,-0.0699920654296875,0.9728851318359375,0.19989013671875
1772807471504448000,6.329447998046875,-0.0671539306640625,0.9710235595703125,0.201629638671875
1772807471514380000,6.339380126953125,-0.0663909912109375,0.969940185546875,0.2016448974609375
1772807471524312000,6.34931201171875,-0.066986083984375,0.97235107421875,0.1998748779296875
1772807471534244000,6.359244140625,-0.0714569091796875,0.9730987548828125,0.2013397216796875
1772807471544176000,6.369176025390625,-0.070831298828125,0.9742279052734375,0.1987762451171875
1772807471554108000,6.37910791015625,-0.0710906982421875,0.9731903076171875,0.19805908203125
1772807471564040000,6.3890400390625,-0.0687255859375,0.9742431640625,0.198883056640625
1772807471573972000,6.398971923828125,-0.0680999755859375,0.97454833984375,0.20001220703125
1772807471583903000,6.408903076171875,-0.071075439453125,0.9744873046875,0.200225830078125
1772807471593834800,6.418834716796875,-0.0704193115234375,0.975830078125,0.2033233642578125
1772807471603767000,6.42876708984375,-0.069244384765625,0.9766998291015625,0.2019195556640625
1772807471613699000,6.438698974609375,-0.070648193359375,0.974761962890625,0.2020111083984375
1772807471623631000,6.448631103515625,-0.0699310302734375,0.97283935546875,0.20318603515625
1772807471633563100,6.458563232421875,-0.06689453125,0.9725494384765625,0.204925537109375
1772807471643495200,6.4684951171875,-0.067596435546875,0.9729766845703125,0.205780029296875
1772807471653427000,6.478427001953125,-0.0703125,0.97088623046875,0.208160400390625
1772807471663359000,6.48835888671875,-0.068603515625,0.9708099365234375,0.2091522216796875
1772807471673291000,6.498291015625,-0.0667572021484375,0.973052978515625,0.2072906494140625
1772807471683223000,6.50822314453125,-0.0674285888671875,0.9731292724609375,0.20965576171875
1772807471693154000,6.518154052734375,-0.067291259765625,0.969696044921875,0.2103271484375
1772807471703085800,6.5280859375,-0.066864013671875,0.9676055908203125,0.209136962890625
1772807471713017900,6.538017822265625,-0.0652923583984375,0.9682769775390625,0.2090301513671875
1772807471722950000,6.547949951171875,-0.06793212890625,0.96771240234375,0.2095947265625
1772807471732882000,6.5578818359375,-0.0705108642578125,0.967041015625,0.208587646484375
1772807471742814000,6.56781396484375,-0.0710601806640625,0.9681396484375,0.2059478759765625
1772807471752746000,6.57774609375,-0.0731201171875,0.9727020263671875,0.2080230712890625
1772807471762678000,6.587677978515625,-0.0723724365234375,0.972198486328125,0.20458984375
1772807471772610000,6.597610107421875,-0.0731048583984375,0.974334716796875,0.20159912109375
1772807471782542000,6.6075419921875,-0.07159423828125,0.97576904296875,0.19903564453125
1772807471792474000,6.61747412109375,-0.0697479248046875,0.9732818603515625,0.1984710693359375
1772807471802404900,6.62740478515625,-0.0699615478515625,0.9727630615234375,0.19793701171875
1772807471812337000,6.6373369140625,-0.070648193359375,0.973297119140625,0.19732666015625
1772807471822269000,6.64726904296875,-0.0728912353515625,0.9738616943359375,0.1986846923828125
1772807471832201000,6.657200927734375,-0.0756378173828125,0.9749603271484375,0.1996307373046875
1772807471842133000,6.667133056640625,-0.0768280029296875,0.9734039306640625,0.1979827880859375
1772807471852065000,6.67706494140625,-0.07757568359375,0.9738922119140625,0.2006988525390625
1772807471861996800,6.686996826171875,-0.075958251953125,0.9755401611328125,0.201812744140625
1772807471871928800,6.6969287109375,-0.0738525390625,0.9747314453125,0.2004547119140625
1772807471881860900,6.70686083984375,-0.075439453125,0.9751434326171875,0.1967620849609375
1772807471891793000,6.71679296875,-0.072296142578125,0.9770050048828125,0.19580078125
1772807471901725000,6.726724853515625,-0.0699005126953125,0.975128173828125,0.197509765625
1772807471911657200,6.7366572265625,-0.07122802734375,0.9701690673828125,0.1995697021484375
1772807471921588000,6.746587890625,-0.073211669921875,0.970794677734375,0.198974609375
1772807471931520000,6.75652001953125,-0.072601318359375,0.97027587890625,0.199127197265625
1772807471941452000,6.7664521484375,-0.0742034912109375,0.9714202880859375,0.2001800537109375
1772807471951384000,6.776384033203125,-0.076019287109375,0.97076416015625,0.198394775390625
1772807471961315800,6.78631591796875,-0.0731048583984375,0.97247314453125,0.1988372802734375
1772807471971247900,6.796247802734375,-0.071685791015625,0.975982666015625,0.202301025390625
1772807471981180000,6.806179931640625,-0.074432373046875,0.97186279296875,0.202606201171875
1772807471991112000,6.81611181640625,-0.076019287109375,0.9687347412109375,0.2007904052734375
1772807472001044000,6.8260439453125,-0.0704193115234375,0.9715576171875,0.202911376953125
1772807472010975500,6.8359755859375,-0.0687713623046875,0.97332763671875,0.205718994140625
1772807472020907500,6.845907470703125,-0.071807861328125,0.9705047607421875,0.20635986328125
1772807472030838300,6.85583837890625,-0.073333740234375,0.9695892333984375,0.2026214599609375
1772807472040770300,6.865770263671875,-0.071563720703125,0.975006103515625,0.2031097412109375
1772807472050702300,6.875702392578125,-0.07135009765625,0.976898193359375,0.2034149169921875
1772807472060634400,6.88563427734375,-0.069671630859375,0.97174072265625,0.20220947265625
1772807472070566400,6.89556640625,-0.0712432861328125,0.970306396484375,0.20318603515625
1772807472080498200,6.905498291015625,-0.0701751708984375,0.9736328125,0.2057342529296875
1772807472090430200,6.91543017578125,-0.0710906982421875,0.9724273681640625,0.2050933837890625
1772807472100362200,6.9253623046875,-0.074249267578125,0.9722442626953125,0.20477294921875
1772807472110294300,6.935294189453125,-0.0721435546875,0.97344970703125,0.2054290771484375
1772807472120226300,6.945226318359375,-0.0694122314453125,0.974853515625,0.2039794921875
1772807472130158300,6.955158447265625,-0.06854248046875,0.976226806640625,0.1998443603515625
1772807472140090000,6.965090087890625,-0.067474365234375,0.9738006591796875,0.19805908203125
1772807472150021400,6.975021484375,-0.067596435546875,0.9737091064453125,0.1998138427734375
1772807472159953400,6.984953369140625,-0.0699615478515625,0.972747802734375,0.2007904052734375
1772807472169885400,6.994885498046875,-0.072479248046875,0.9704437255859375,0.1988525390625
1772807472179817500,7.0048173828125,-0.0728302001953125,0.967376708984375,0.1980438232421875
1772807472189749200,7.014749267578125,-0.072540283203125,0.9683074951171875,0.2007598876953125
1772807472199681300,7.024681396484375,-0.0695953369140625,0.97119140625,0.198150634765625
1772807472209613300,7.03461328125,-0.0693817138671875,0.9713287353515625,0.1980743408203125
1772807472219545300,7.04454541015625,-0.0658111572265625,0.9740447998046875,0.2004547119140625
1772807472229477400,7.054477294921875,-0.066375732421875,0.9749908447265625,0.2025604248046875
1772807472239409200,7.0644091796875,-0.0671234130859375,0.9741058349609375,0.2012939453125
1772807472249341200,7.074341064453125,-0.0645751953125,0.9692840576171875,0.201568603515625
1772807472259272400,7.0842724609375,-0.067626953125,0.9698486328125,0.2004852294921875
1772807472269204500,7.09420458984375,-0.07281494140625,0.9716949462890625,0.1982421875
1772807472279136500,7.104136474609375,-0.0753631591796875,0.9715423583984375,0.1943817138671875
1772807472289068300,7.114068359375,-0.0747528076171875,0.9748382568359375,0.1946258544921875
1772807472299000300,7.124000244140625,-0.072113037109375,0.9751739501953125,0.195220947265625
1772807472308932400,7.133932373046875,-0.0733489990234375,0.9724578857421875,0.1950531005859375
1772807472318864400,7.143864501953125,-0.073974609375,0.9734344482421875,0.1956329345703125
1772807472328796400,7.15379638671875,-0.0741119384765625,0.9744415283203125,0.1971588134765625
1772807472338728400,7.163728515625,-0.0773468017578125,0.9766998291015625,0.1981658935546875
1772807472348660200,7.17366015625,-0.0799102783203125,0.97528076171875,0.19805908203125
1772807472358592300,7.18359228515625,-0.0774383544921875,0.973419189453125,0.1992950439453125
1772807472368524300,7.193524169921875,-0.076385498046875,0.9745330810546875,0.20074462890625
1772807472378455300,7.203455322265625,-0.0726165771484375,0.9765625,0.20050048828125
1772807472388387300,7.21338720703125,-0.0723876953125,0.973236083984375,0.1979522705078125
1772807472398319400,7.2233193359375,-0.0738372802734375,0.9724578857421875,0.1953582763671875
1772807472408251400,7.23325146484375,-0.0747528076171875,0.9760284423828125,0.193206787109375
1772807472418183400,7.243183349609375,-0.0758056640625,0.9766082763671875,0.196197509765625
1772807472428115500,7.253115478515625,-0.0747528076171875,0.9752349853515625,0.19830322265625
1772807472438047500,7.263047607421875,-0.0755462646484375,0.9747772216796875,0.20062255859375
1772807472447979300,7.272979248046875,-0.0739593505859375,0.9740142822265625,0.2006988525390625
1772807472457911300,7.282911376953125,-0.073272705078125,0.9747314453125,0.20147705078125
1772807472467843300,7.29284326171875,-0.0701751708984375,0.9726104736328125,0.202392578125
1772807472477775400,7.302775390625,-0.07061767578125,0.9718017578125,0.2033233642578125
1772807472487707400,7.312707275390625,-0.0664825439453125,0.9681549072265625,0.20513916015625
1772807472497638100,7.32263818359375,-0.0694732666015625,0.966552734375,0.2050018310546875
1772807472507570200,7.332570068359375,-0.0708770751953125,0.9673614501953125,0.203125
1772807472517502200,7.342502197265625,-0.072662353515625,0.9692840576171875,0.20050048828125
1772807472527434200,7.352434326171875,-0.0724029541015625,0.9719696044921875,0.199005126953125
1772807472537366300,7.3623662109375,-0.072113037109375,0.974700927734375,0.1987457275390625
1772807472547298300,7.37229833984375,-0.0731201171875,0.975128173828125,0.2005615234375
1772807472557230300,7.382230224609375,-0.0738983154296875,0.9755706787109375,0.1992950439453125
1772807472567162400,7.392162353515625,-0.0732574462890625,0.9732666015625,0.1996612548828125
1772807472577094400,7.402094482421875,-0.0728759765625,0.972442626953125,0.2006378173828125
1772807472587026400,7.4120263671875,-0.0742340087890625,0.974456787109375,0.1977691650390625
1772807472596958500,7.42195849609375,-0.0739288330078125,0.973541259765625,0.1973419189453125
1772807472606889200,7.43188916015625,-0.0727081298828125,0.9713287353515625,0.19415283203125
1772807472616821200,7.4418212890625,-0.074188232421875,0.970977783203125,0.195465087890625
1772807472626753300,7.451753173828125,-0.0767364501953125,0.9709320068359375,0.1989288330078125
1772807472636685300,7.461685302734375,-0.0749053955078125,0.97259521484375,0.196258544921875
1772807472646617300,7.471617431640625,-0.076416015625,0.9739227294921875,0.1928253173828125
1772807472656549000,7.481549072265625,-0.077667236328125,0.9754180908203125,0.1916046142578125
1772807472666481200,7.491481201171875,-0.0782470703125,0.9773101806640625,0.19281005859375
1772807472676413200,7.5014130859375,-0.0772705078125,0.97625732421875,0.1929473876953125
1772807472686345200,7.51134521484375,-0.0779571533203125,0.9752044677734375,0.192840576171875
1772807472696277500,7.521277587890625,-0.0791473388671875,0.973876953125,0.1921539306640625
1772807472706209500,7.53120947265625,-0.077545166015625,0.97332763671875,0.1939849853515625
1772807472716141300,7.541141357421875,-0.0751495361328125,0.9726409912109375,0.1959228515625
1772807472726072300,7.551072265625,-0.0753326416015625,0.9714202880859375,0.1949462890625
1772807472736004400,7.56100439453125,-0.0752716064453125,0.972808837890625,0.193084716796875
1772807472745936400,7.570936279296875,-0.0753631591796875,0.972930908203125,0.193817138671875
1772807472755868400,7.580868408203125,-0.0756378173828125,0.9740753173828125,0.1976776123046875
1772807472765800200,7.59080029296875,-0.0752716064453125,0.9725341796875,0.19708251953125
1772807472775732200,7.600732177734375,-0.075836181640625,0.969940185546875,0.1979827880859375
1772807472785664300,7.610664306640625,-0.076263427734375,0.9713134765625,0.1941680908203125
1772807472795596300,7.62059619140625,-0.0776519775390625,0.9743194580078125,0.1950531005859375
1772807472805528300,7.6305283203125,-0.079803466796875,0.975921630859375,0.19244384765625
1772807472815460000,7.640460205078125,-0.0781402587890625,0.973846435546875,0.192230224609375
1772807472825392000,7.65039208984375,-0.07598876953125,0.9740447998046875,0.1940155029296875
1772807472835324200,7.66032421875,-0.074432373046875,0.9739837646484375,0.194244384765625
1772807472845255400,7.67025537109375,-0.0750274658203125,0.9726409912109375,0.19329833984375
1772807472855187500,7.6801875,-0.07513427734375,0.9722747802734375,0.196014404296875
1772807472865119200,7.690119140625,-0.0755615234375,0.97198486328125,0.1957244873046875
1772807472875051300,7.70005126953125,-0.07659912109375,0.9718170166015625,0.19512939453125
1772807472884983300,7.7099833984375,-0.076873779296875,0.9715423583984375,0.1956024169921875
1772807472894915300,7.719915283203125,-0.075286865234375,0.97430419921875,0.1929168701171875
1772807472904847400,7.729847412109375,-0.075897216796875,0.9727783203125,0.1916961669921875
1772807472914779400,7.739779296875,-0.077423095703125,0.973388671875,0.19146728515625
1772807472924711200,7.749711181640625,-0.07904052734375,0.975830078125,0.193389892578125
1772807472934643200,7.759643310546875,-0.0799713134765625,0.9752655029296875,0.1931304931640625
1772807472944575200,7.7695751953125,-0.082305908203125,0.9748687744140625,0.1956939697265625
1772807472954507300,7.77950732421875,-0.0818328857421875,0.972686767578125,0.1973419189453125
1772807472964438500,7.7894384765625,-0.081207275390625,0.9722747802734375,0.1973724365234375
1772807472974370300,7.799370361328125,-0.078216552734375,0.9725799560546875,0.199005126953125
1772807472984302300,7.80930224609375,-0.078582763671875,0.9735107421875,0.200408935546875
1772807472994234400,7.819234375,-0.0747833251953125,0.9734344482421875,0.20257568359375
1772807473004166400,7.82916650390625,-0.074066162109375,0.97509765625,0.203704833984375
1772807473014099000,7.839098876953125,-0.074554443359375,0.9722442626953125,0.201690673828125
1772807473024031000,7.849031005859375,-0.0740203857421875,0.97039794921875,0.20123291015625
1772807473033963000,7.858962890625,-0.0739593505859375,0.971710205078125,0.1984710693359375
1772807473043895000,7.86889501953125,-0.0775604248046875,0.97406005859375,0.1952667236328125
1772807473053827000,7.8788271484375,-0.08258056640625,0.974029541015625,0.1957550048828125
1772807473063758800,7.8887587890625,-0.0744476318359375,0.9752349853515625,0.19879150390625
1772807473073691000,7.89869091796875,-0.07928466796875,0.9736785888671875,0.1987457275390625
1772807473083622000,7.908621826171875,-0.08416748046875,0.97296142578125,0.19921875
1772807473093554000,7.918553955078125,-0.0872344970703125,0.972930908203125,0.19586181640625
1772807473103486000,7.92848583984375,-0.08563232421875,0.9736785888671875,0.19525146484375
1772807473113418000,7.93841796875,-0.07989501953125,0.9730072021484375,0.1982421875
1772807473123350000,7.94835009765625,-0.0744781494140625,0.974395751953125,0.19659423828125
1772807473133282000,7.958281982421875,-0.0790252685546875,0.9756622314453125,0.2008514404296875
1772807473143214000,7.968214111328125,-0.080780029296875,0.9710693359375,0.2046661376953125
1772807473153146000,7.97814599609375,-0.0795745849609375,0.9720458984375,0.1997222900390625
1772807473163078000,7.988077880859375,-0.082611083984375,0.9723663330078125,0.1999359130859375
1772807473173010000,7.998010009765625,-0.0805816650390625,0.9734039306640625,0.1981353759765625
1772807473182942000,8.00794189453125,-0.0823974609375,0.9715118408203125,0.196685791015625
1772807473192874000,8.0178740234375,-0.0838623046875,0.9686279296875,0.196075439453125
1772807473202805000,8.027804931640626,-0.0806884765625,0.97265625,0.195709228515625
1772807473212736800,8.03773681640625,-0.0866546630859375,0.9757080078125,0.197296142578125
1772807473222668800,8.047668701171874,-0.0762939453125,0.9744415283203125,0.1991424560546875
1772807473232600800,8.057600830078124,-0.067169189453125,0.974456787109375,0.1991729736328125
