time,seconds_elapsed,z,y,x
1772807465227493000,0.0524931640625,0.013863084837794304,0.010822287760674953,0.017703630030155182
1772807465237425200,0.062425048828125,0.01187929604202509,0.01836036518216133,0.0037286917213350534
1772807465247357200,0.072357177734375,0.010452374815940857,0.020976388826966286,-0.005302886478602886
1772807465257289200,0.082289306640625,0.0075689698569476604,0.013236443512141705,-0.007901065982878208
1772807465267221200,0.09222119140625,0.005409945268183947,0.018331602215766907,-0.004545216914266348
1772807465277152000,0.102152099609375,0.004363589454442263,0.02111886814236641,0.005007808096706867
1772807465287084000,0.112083984375,0.0005491438205353916,0.020480774343013763,0.018134262412786484
1772807465297016000,0.12201611328125,0.000005060006060375599,0.02160276286303997,0.0356898196041584
1772807465306948000,0.131947998046875,-0.01344310399144888,0.03115898370742798,0.053948983550071716
1772807465316880100,0.141880126953125,-0.005784918554127216,0.02870834432542324,0.06774735450744629
1772807465326812000,0.15181201171875,0.009133310988545418,0.06250012665987015,0.08904998004436493
1772807465336744200,0.161744140625,0.017355287447571754,0.07868842035531998,0.12673157453536987
1772807465346676200,0.17167626953125,0.021470138803124428,0.08849391341209412,0.1663476973772049
1772807465356607200,0.181607177734375,0.013500895351171494,0.052677594125270844,0.1478341966867447
1772807465366539000,0.1915390625,0.010044111870229244,0.034018952399492264,0.0757237896323204
1772807465376471000,0.201470947265625,0.0073439329862594604,0.014280402101576328,-0.013818077743053436
1772807465386403000,0.211403076171875,0.0004319647268857807,-0.013361877761781216,-0.07312214374542236
1772807465396335000,0.221335205078125,0.0015986956423148513,-0.01070857048034668,-0.06778490543365479
1772807465406267100,0.23126708984375,0.0014231932582333684,0.00264744833111763,-0.02509603276848793
1772807465416199200,0.24119921875,0.005133775528520346,0.016575781628489494,0.017764350399374962
1772807465426131000,0.251130859375,0.007433681283146143,0.022303175181150436,0.026626285165548325
1772807465436062200,0.261062255859375,0.006422479171305895,0.006387059111148119,0.004969724919646978
1772807465445994200,0.270994140625,0.0033784860279411077,-0.007644337601959705,-0.02322649210691452
1772807465455926300,0.28092626953125,0.003834685543552041,-0.014754178933799267,-0.03749517723917961
1772807465465858300,0.2908583984375,0.006440855097025633,-0.008915730752050877,-0.029823143035173416
1772807465475790000,0.3007900390625,0.010305368341505527,0.002924683503806591,-0.01269608736038208
1772807465485722000,0.31072216796875,0.014223144389688969,0.012054000049829483,-0.0018658105982467532
1772807465495654100,0.320654052734375,0.013741645030677319,0.010149040259420872,-0.011759188026189804
1772807465505586200,0.330586181640625,0.01324283517897129,0.008238755166530609,-0.02088024839758873
1772807465515518200,0.340518310546875,0.011750399135053158,-0.0005435511702671647,-0.022709306329488754
1772807465525449000,0.350448974609375,0.009562079794704914,0.006907973438501358,-0.014003966003656387
1772807465535381000,0.360381103515625,0.010428939014673233,0.01344470214098692,0.0005145227187313139
1772807465545313000,0.37031298828125,0.01025636587291956,0.017047958448529243,0.0024706146214157343
1772807465555245000,0.3802451171875,0.00893969926983118,0.017298562452197075,0.0007166566210798919
1772807465565177000,0.390177001953125,0.008082693442702293,0.019346266984939575,-0.007002782076597214
1772807465575109000,0.400109130859375,0.001019990653730929,0.015107314102351665,-0.016156598925590515
1772807465585041200,0.410041259765625,0.0014825817197561264,0.013078250922262669,-0.021205419674515724
1772807465594973200,0.41997314453125,0.0023430490400642157,0.016860205680131912,-0.018746256828308105
1772807465604904200,0.429904296875,0.001960619119927287,0.020385699346661568,-0.012501411139965057
1772807465614836200,0.439836181640625,0.0018556906143203378,0.01792653650045395,-0.004829110112041235
1772807465624768000,0.44976806640625,0.0014359764754772186,0.020962540060281754,0.0010793792316690087
1772807465634700000,0.459699951171875,0.00014274542627390474,0.019595006480813026,-0.002837864449247718
1772807465644632000,0.469632080078125,-0.0008303736103698611,0.02159424126148224,-0.001781921018846333
1772807465654564000,0.479564208984375,0.00012623383372556418,0.019123626872897148,-0.00785659160465002
1772807465664496000,0.48949609375,-0.00005246427463134751,0.016268718987703323,-0.016201073303818703
1772807465674428200,0.49942822265625,0.004448011517524719,0.012083294801414013,-0.026090722531080246
1772807465684359200,0.509359130859375,0.003300189273431897,0.008470184169709682,-0.028711805120110512
1772807465694291200,0.519291259765625,0.0046482812613248825,0.00926487147808075,-0.023363379761576653
1772807465704223200,0.52922314453125,0.0036751623265445232,0.005628590937703848,-0.015242869034409523
1772807465714155300,0.5391552734375,0.004267183132469654,0.0033910030033439398,-0.01079911831766367
1772807465724087000,0.549087158203125,0.0043683829717338085,-0.00490208063274622,-0.013345099985599518
1772807465734019000,0.55901904296875,0.0035659726709127426,-0.009280317462980747,-0.017120130360126495
1772807465743951000,0.568951171875,0.0035185683518648148,-0.01824291981756687,-0.024715466424822807
1772807465753883100,0.578883056640625,0.002767557045444846,-0.02430427446961403,-0.028789037838578224
1772807465763815200,0.588815185546875,0.0019121496006846428,-0.03061862848699093,-0.03142876178026199
1772807465773746000,0.598745849609375,0.007597998715937138,-0.03780064359307289,-0.034143589437007904
1772807465783678000,0.608677978515625,0.008332764729857445,-0.04031040519475937,-0.030789071694016457
1772807465793610000,0.61860986328125,0.015598400495946407,-0.04746578633785248,-0.020930849015712738
1772807465803542000,0.6285419921875,0.016154468059539795,-0.0545058511197567,-0.013668674044311047
1772807465813474300,0.638474365234375,0.016406403854489326,-0.05693039298057556,-0.011122159659862518
1772807465823406300,0.64840625,0.016453275457024574,-0.06673029065132141,-0.01900511607527733
1772807465833338000,0.658338134765625,0.01654328964650631,-0.07109974324703217,-0.0327339768409729
1772807465843270100,0.668270263671875,0.01950126327574253,-0.07335037738084793,-0.04911428317427635
1772807465853201200,0.678201171875,0.021750036627054214,-0.06792685389518738,-0.06269799917936325
1772807465863133200,0.68813330078125,0.02436392940580845,-0.06288042664527893,-0.07373067736625671
1772807465873065000,0.69806494140625,0.027578631415963173,-0.059538163244724274,-0.08156250417232513
1772807465882997000,0.7079970703125,0.03188549354672432,-0.053113020956516266,-0.084626205265522
1772807465892929000,0.717928955078125,0.03717559948563576,-0.05013640224933624,-0.08133480697870255
1772807465902861000,0.727861083984375,0.03653377667069435,-0.05475139617919922,-0.07596027851104736
1772807465912793000,0.73779296875,0.04056793078780174,-0.04863891005516052,-0.06855829060077667
1772807465922725000,0.74772509765625,0.040701091289520264,-0.034450117498636246,-0.062072426080703735
1772807465932656000,0.75765625,0.04136049002408981,-0.025470472872257233,-0.05480252951383591
1772807465942588200,0.767588134765625,0.04189551994204521,-0.010025469586253166,-0.050583548843860626
1772807465952520200,0.777520263671875,0.03795324265956879,0.0003355582884978503,-0.047329697757959366
1772807465962452200,0.7874521484375,0.032220788300037384,0.008186290971934795,-0.045580800622701645
1772807465972384300,0.79738427734375,0.026824956759810448,0.015960058197379112,-0.05288878083229065
1772807465982316000,0.80731591796875,0.018460499122738838,0.024885110557079315,-0.05451676994562149
1772807465992248000,0.817248046875,0.014786136336624622,0.03515505790710449,-0.05626966431736946
1772807466002180000,0.82718017578125,0.00672181835398078,0.04603034257888794,-0.04994252696633339
1772807466012111600,0.837111572265625,0.006362025626003742,0.04909351095557213,-0.040895234793424606
1772807466022042600,0.847042724609375,0.006729275453835726,0.05982498452067375,-0.038898397237062454
1772807466031974700,0.856974609375,0.008127168752253056,0.06067772954702377,-0.035630963742733
1772807466041906700,0.86690673828125,0.00965369213372469,0.06743869185447693,-0.03521231561899185
1772807466051838700,0.876838623046875,0.010821755044162273,0.06962914764881134,-0.03056323528289795
1772807466061770800,0.886770751953125,0.014127803035080433,0.0708020031452179,-0.022116487845778465
1772807466071702500,0.89670263671875,0.019578494131565094,0.07267739623785019,-0.010645187459886074
1772807466081634600,0.906634521484375,0.019997943192720413,0.07138097286224365,0.004414988216012716
1772807466091566600,0.916566650390625,0.02346564456820488,0.06946882605552673,0.01919020526111126
1772807466101497600,0.92649755859375,0.020444288849830627,0.07921173423528671,0.01841522566974163
1772807466111429400,0.936429443359375,0.023678697645664215,0.08286638557910919,0.013731524348258972
1772807466121361400,0.946361328125,0.019175292924046516,0.0834866389632225,0.0005467469454742968
1772807466131293400,0.95629345703125,0.020065853372216225,0.08782386034727097,-0.018499648198485374
1772807466141225500,0.9662255859375,0.02088291198015213,0.07967139035463333,-0.03020610474050045
1772807466151157500,0.976157470703125,0.020132964476943016,0.08181550353765488,-0.03256699815392494
1772807466161089500,0.986089599609375,0.024834776297211647,0.08322671055793762,-0.0287014190107584
1772807466171021600,0.996021484375,0.028483573347330093,0.07733234018087387,-0.006376939360052347
1772807466180953600,1.00595361328125,0.021879199892282486,0.08683396130800247,-0.006114085204899311
1772807466190884600,1.015884521484375,0.02256469801068306,0.09264924377202988,-0.015062039718031883
1772807466200816600,1.025816650390625,0.02286590076982975,0.08973520994186401,-0.018147578462958336
1772807466210748700,1.035748779296875,0.024459004402160645,0.08506935089826584,-0.024294687435030937
1772807466220680400,1.045680419921875,0.028842566534876823,0.08721692860126495,-0.029505427926778793
1772807466230612500,1.055612548828125,0.039373770356178284,0.09238212555646896,-0.027904069051146507
1772807466240544500,1.06554443359375,0.03472815454006195,0.09032190591096878,-0.028057733550667763
1772807466250476500,1.0754765625,0.03905472531914711,0.09185615181922913,-0.02570296637713909
1772807466260408600,1.08540869140625,0.048463672399520874,0.09767436236143112,-0.023478694260120392
1772807466270339600,1.095339599609375,0.049188584089279175,0.0978354811668396,-0.019589945673942566
1772807466280271600,1.105271728515625,0.04861227795481682,0.10137961804866791,-0.028127508237957954
1772807466290203600,1.11520361328125,0.04965224117040634,0.09303167462348938,-0.03515026345849037
1772807466300135700,1.1251357421875,0.042806319892406464,0.09249957650899887,-0.03765922784805298
1772807466310067700,1.135067626953125,0.04193732887506485,0.09250303357839584,-0.037516217678785324
1772807466319999500,1.14499951171875,0.039019037038087845,0.0975278913974762,-0.029500899836421013
1772807466329931500,1.154931640625,0.040167126804590225,0.09753667563199997,-0.02123285084962845
1772807466339863600,1.164863525390625,0.04096980392932892,0.10590699315071106,-0.02160675823688507
1772807466349795600,1.174795654296875,0.038239795714616776,0.10274635255336761,-0.0299653559923172
1772807466359726600,1.1847265625,0.03539207950234413,0.09589963406324387,-0.04236450046300888
1772807466369658400,1.194658447265625,0.03358699008822441,0.08724142611026764,-0.05427788570523262
1772807466379590400,1.20459033203125,0.03594415262341499,0.0835534855723381,-0.05512050911784172
1772807466389522400,1.2145224609375,0.03317499905824661,0.08081841468811035,-0.04591795802116394
1772807466399454700,1.224454833984375,0.03429485484957695,0.07759279757738113,-0.032952889800071716
1772807466409386800,1.23438671875,0.04018683359026909,0.08112095296382904,-0.015171762555837631
1772807466419318800,1.24431884765625,0.03729118034243584,0.08743423968553543,-0.009445966221392155
1772807466429250600,1.25425048828125,0.03942543640732765,0.0886414498090744,-0.019169965758919716
1772807466439181600,1.264181640625,0.03952237591147423,0.09456592053174973,-0.037582796066999435
1772807466449113600,1.274113525390625,0.0371745340526104,0.09018315374851227,-0.054362840950489044
1772807466459045600,1.284045654296875,0.03388233482837677,0.07879601418972015,-0.06090036779642105
1772807466468977700,1.293977783203125,0.026103772222995758,0.06679021567106247,-0.060442306101322174
1772807466478909400,1.303909423828125,0.02574903890490532,0.062068432569503784,-0.057373810559511185
1772807466488841500,1.313841552734375,0.025659291073679924,0.06664107739925385,-0.06022578850388527
1772807466498773500,1.3237734375,0.029379727318882942,0.06365408003330231,-0.06601576507091522
1772807466508705500,1.33370556640625,0.02672162465751171,0.06341678649187088,-0.07161000370979309
1772807466518637600,1.343637451171875,0.018606973811984062,0.05897650122642517,-0.0790034756064415
1772807466528568600,1.353568603515625,0.017352625727653503,0.05511092394590378,-0.0766492411494255
1772807466538500600,1.36350048828125,0.013494237326085567,0.05959382280707359,-0.06695932894945145
1772807466548432600,1.3734326171875,0.013114203698933125,0.06469723582267761,-0.05464566871523857
1772807466558364700,1.38336474609375,0.011817511171102524,0.07320284098386765,-0.04002651199698448
1772807466568296700,1.393296630859375,0.013995178043842316,0.06669966876506805,-0.025674469769001007
1772807466578228500,1.403228515625,0.013338441960513592,0.05806995928287506,-0.010355968028306961
1772807466588160500,1.413160400390625,0.0144108971580863,0.03561605140566826,-0.002668221015483141
1772807466598092500,1.423092529296875,0.01637338101863861,0.027091005817055702,0.006798783782869577
1772807466608023600,1.4330234375,0.013617008924484253,0.026390062645077705,0.010408165864646435
1772807466617955600,1.44295556640625,0.015431953594088554,0.027174895629286766,0.016335031017661095
1772807466627887400,1.452887451171875,0.01926157809793949,0.03182291239500046,0.025377795100212097
1772807466637819600,1.462819580078125,0.019810989499092102,0.034861043095588684,0.025904301553964615
1772807466647751700,1.472751708984375,0.021579593420028687,0.030495857819914818,0.020258933305740356
1772807466657683700,1.48268359375,0.020987574011087418,0.02845321223139763,0.008563128300011158
1772807466667615700,1.49261572265625,0.017234647646546364,0.01341380923986435,-0.0026913906913250685
1772807466677547500,1.502547607421875,0.014148842543363571,-0.007320763543248177,-0.00959510263055563
1772807466687479600,1.5124794921875,0.011487811803817749,-0.013110209256410599,-0.00694978516548872
1772807466697410600,1.52241064453125,0.014029532670974731,-0.01438160240650177,0.002016279147937894
1772807466707342600,1.532342529296875,0.01722053252160549,-0.019830696284770966,0.014296913519501686
1772807466717274600,1.542274658203125,0.01486683078110218,-0.02592454105615616,0.024692030623555183
1772807466727206400,1.552206298828125,0.013774135150015354,-0.029048429802060127,0.030670294538140297
1772807466737138400,1.562138427734375,0.015717443078756332,-0.025597771629691124,0.02419828064739704
1772807466747070500,1.572070556640625,0.022528212517499924,-0.019757991656661034,0.013732323423027992
1772807466757002500,1.58200244140625,0.028494492173194885,-0.0070547135546803474,-0.0026996464002877474
1772807466766934500,1.5919345703125,0.03133128955960274,-0.0037233654875308275,-0.02593759074807167
1772807466776865500,1.601865478515625,0.03334756940603256,-0.004077033139765263,-0.04085502028465271
1772807466786797600,1.611797607421875,0.03807947412133217,-0.01588575541973114,-0.05715996026992798
1772807466796729600,1.6217294921875,0.0401732511818409,-0.011918711476027966,-0.0608215406537056
1772807466806661600,1.63166162109375,0.038176681846380234,-0.010096043348312378,-0.060866281390190125
1772807466816593700,1.64159375,0.03328258916735649,-0.015690013766288757,-0.06262609362602234
1772807466826525700,1.651525634765625,0.030600519850850105,-0.01381008792668581,-0.05499880388379097
1772807466836457500,1.66145751953125,0.028985045850276947,0.0030860709957778454,-0.048348624259233475
1772807466846389500,1.671389404296875,0.029141640290617943,0.02263047732412815,-0.038487471640110016
1772807466856321500,1.681321533203125,0.02660364657640457,0.03662805259227753,-0.03308338299393654
1772807466866252500,1.69125244140625,0.024534637108445168,0.03687998652458191,-0.028718730434775352
1772807466876184600,1.7011845703125,0.021880531683564186,0.04987248405814171,-0.03143435716629028
1772807466886116600,1.71111669921875,0.021319402381777763,0.05018514022231102,-0.034940674901008606
1772807466896048600,1.721048583984375,0.02069063112139702,0.05405418202280998,-0.034623757004737854
1772807466905980700,1.730980712890625,0.024092553183436394,0.056043561547994614,-0.02756131999194622
1772807466915912700,1.74091259765625,0.01859552226960659,0.054375357925891876,-0.017495902255177498
1772807466925844700,1.7508447265625,0.010384730063378811,0.046005040407180786,0.0004966795677319169
1772807466935776500,1.760776611328125,0.00424161646515131,0.038428083062171936,0.0076001291163265705
1772807466945708500,1.77070849609375,0.0023150858469307423,0.031090274453163147,0.013995178043842316
1772807466955639600,1.7806396484375,0.0002181128947995603,0.026258768513798714,0.016995228826999664
1772807466965571600,1.790571533203125,-0.0013760552974417806,0.020794494077563286,0.02039901539683342
1772807466975503600,1.800503662109375,0.0020216056145727634,0.02269226312637329,0.02707902155816555
1772807466985435400,1.810435302734375,0.002304965863004327,0.019483420997858047,0.033226128667593
1772807466995367400,1.820367431640625,0.007693073246628046,0.02153538540005684,0.037032585591077805
1772807467005299700,1.8302998046875,0.009862484410405159,0.031495075672864914,0.03617904335260391
1772807467015231700,1.840231689453125,0.01050324086099863,0.04217328503727913,0.03608423471450806
1772807467025163800,1.850163818359375,0.009767675772309303,0.04424469172954559,0.04098151996731758
1772807467035094800,1.8600947265625,0.0046847667545080185,0.05279077589511871,0.03832315281033516
1772807467045026800,1.87002685546875,0.000666589243337512,0.049800314009189606,0.03382960334420204
1772807467054958800,1.879958740234375,-0.0020932445768266916,0.052070390433073044,0.02738049067556858
1772807467064890600,1.889890625,-0.005307946354150772,0.04616136848926544,0.031630098819732666
1772807467074822700,1.89982275390625,-0.010685933753848076,0.045708365738391876,0.03347034379839897
1772807467084754700,1.909754638671875,-0.011187939904630184,0.043236155062913895,0.031263645738363266
1772807467094686700,1.919686767578125,-0.011225489899516106,0.0376104936003685,0.02460547722876072
1772807467104618800,1.92961865234375,-0.00826938170939684,0.03544427827000618,0.010891796089708805
1772807467114550800,1.93955078125,-0.007081877905875444,0.034682612866163254,-0.0029856697656214237
1772807467124481800,1.949481689453125,-0.0035329493694007397,0.033134251832962036,-0.00993092730641365
1772807467134413800,1.959413818359375,-0.0019028285751119256,0.03626852482557297,-0.010609767399728298
1772807467144345900,1.969345947265625,0.001284975209273398,0.026329874992370605,-0.004962800536304712
1772807467154278000,1.97927783203125,0.0003605920064728707,0.022653646767139435,0.004478371702134609
1772807467164210000,1.9892099609375,0.000666322885081172,0.01774437539279461,0.008606270886957645
1772807467174141700,1.9991416015625,0.0007723167072981596,0.01429611537605524,0.01613582670688629
1772807467184073700,2.00907373046875,0.0008625978953205049,0.0022746059112250805,0.01972789876163006
1772807467194005800,2.019005859375,0.0012780509423464537,-0.0041524008847773075,0.019394204020500183
1772807467203936800,2.028936767578125,0.0001597896625753492,-0.012565859593451023,0.015681758522987366
1772807467213868800,2.038868896484375,0.007167099043726921,-0.011175955645740032,0.016022110357880592
1772807467223800600,2.048800537109375,0.007742342073470354,-0.011186075396835804,0.013851100578904152
1772807467233732600,2.058732666015625,0.006849383935332298,-0.002805906580761075,0.013778396882116795
1772807467243664600,2.06866455078125,0.0122441491112113,0.006225671619176865,0.01395709440112114
1772807467253596700,2.0785966796875,0.014818361029028893,0.011951734311878681,0.014189322479069233
1772807467263528700,2.08852880859375,0.008419317193329334,0.012228969484567642,0.009252887219190598
1772807467273460700,2.098460693359375,0.009623066522181034,0.0026466494891792536,0.001823732745833695
1772807467283392800,2.108392822265625,0.00501047121360898,-0.00472444761544466,-0.008023837581276894
1772807467293323800,2.11832373046875,0.00589517317712307,-0.012028433382511139,-0.017477793619036674
1772807467303255800,2.128255859375,0.00321816373616457,-0.017651697620749474,-0.028492361307144165
1772807467313187800,2.138187744140625,0.0036730316933244467,-0.01569640450179577,-0.03654230013489723
1772807467323119600,2.14811962890625,0.007545268163084984,-0.014584535732865334,-0.03449619188904762
1772807467333051600,2.1580517578125,0.009255816228687763,-0.008408664725720882,-0.03190786391496658
1772807467342983700,2.167983642578125,0.009874468669295311,-0.0021044297609478235,-0.027273699641227722
1772807467352915700,2.177915771484375,0.014969095587730408,0.003712979145348072,-0.020371850579977036
1772807467362847700,2.18784765625,0.019364111125469208,0.0013558153295889497,-0.019654128700494766
1772807467372779800,2.19777978515625,0.01949886605143547,-0.0006876281695440412,-0.014313159510493279
1772807467382710800,2.207710693359375,0.01853453554213047,-0.0008977515972219408,-0.01636805385351181
1772807467392642800,2.217642822265625,0.0141139542683959,-0.0034820830915123224,-0.023356987163424492
1772807467402574800,2.227574951171875,0.009221461601555347,-0.007989749312400818,-0.025723472237586975
1772807467412507000,2.2375068359375,0.00782649777829647,-0.013744041323661804,-0.02328082174062729
1772807467422438700,2.247438720703125,0.007471498567610979,-0.0165395624935627,-0.01830310747027397
1772807467432370700,2.25737060546875,0.006156163290143013,-0.017773671075701714,-0.010068080388009548
1772807467442302700,2.267302734375,0.005332713946700096,-0.013199158944189548,-0.005720470100641251
1772807467452234800,2.27723486328125,0.00016218650853261352,-0.014255634509027004,0.0019406455103307962
1772807467462165800,2.287165771484375,-0.00355878216214478,-0.013032977469265461,0.01390116848051548
1772807467472097500,2.29709765625,-0.005461877211928368,-0.01341620646417141,0.024718396365642548
1772807467482029600,2.307029541015625,-0.005800098646432161,-0.003937750123441219,0.024237429723143578
1772807467491961600,2.316961669921875,-0.005313272587954998,0.005019525997340679,0.02316231094300747
1772807467501893600,2.3268935546875,0.0013763216556981206,0.0060150157660245895,0.011485947296023369
1772807467511826000,2.336825927734375,-0.0009563411585986614,0.006703709252178669,0.005885852500796318
1772807467521758000,2.346758056640625,-0.003698864486068487,0.0035230957437306643,-0.0011254518758505583
1772807467531689700,2.356689697265625,-0.006870422977954149,-0.004063451196998358,-0.0020474381744861603
1772807467541621800,2.366621826171875,-0.005136438645422459,-0.00836632028222084,0.0046847667545080185
1772807467551552800,2.376552734375,-0.005785451270639896,-0.00022983079543337226,0.008534099906682968
1772807467561484800,2.38648486328125,-0.009957026690244675,-0.0021646174136549234,0.009000951424241066
1772807467571416800,2.396416748046875,-0.009826797991991043,-0.003940945956856012,0.0035127094015479088
1772807467581348600,2.4063486328125,-0.01185319758951664,-0.008958341553807259,-0.009700031951069832
1772807467591280600,2.41628076171875,-0.01555365975946188,-0.029154423624277115,-0.0244307741522789
1772807467601212700,2.426212646484375,-0.01751587726175785,-0.037336986511945724,-0.03521737456321716
1772807467611144700,2.436144775390625,-0.0169100072234869,-0.04734700918197632,-0.03716840595006943
1772807467621076700,2.44607666015625,-0.012524314224720001,-0.046718236058950424,-0.022421952337026596
1772807467631008500,2.456008544921875,-0.00666269613429904,-0.047681502997875214,-0.004262122791260481
1772807467640939800,2.465939697265625,-0.0010250506456941366,-0.04704900085926056,0.013346698135137558
1772807467650871800,2.475871826171875,0.004293282050639391,-0.048881255090236664,0.022241123020648956
1772807467660803800,2.485803955078125,0.007154315710067749,-0.049855440855026245,0.008931443095207214
1772807467670736000,2.49573583984375,0.005944708362221718,-0.057745322585105896,-0.01133707631379366
1772807467680667600,2.505667724609375,0.00475534051656723,-0.06880836188793182,-0.037345241755247116
1772807467690599700,2.515599609375,-0.004202468320727348,-0.07823807746171951,-0.05957571044564247
1772807467700531700,2.52553173828125,-0.0029622339643538,-0.08021813631057739,-0.07270562648773193
1772807467710463700,2.535463623046875,-0.0049763829447329044,-0.08483952283859253,-0.07174316048622131
1772807467720395800,2.545395751953125,-0.0032746228389441967,-0.08086821436882019,-0.05650775134563446
1772807467730326500,2.555326416015625,-0.004773450084030628,-0.07948364317417145,-0.03940226882696152
1772807467740258800,2.5652587890625,0.0014274542918428779,-0.07222093641757965,-0.016207465901970863
1772807467750190800,2.57519091796875,0.00036245622322894633,-0.06261438131332397,0.003876497270539403
1772807467760123000,2.585122802734375,0.004864796530455351,-0.05758420005440712,0.020193951204419136
1772807467770055000,2.595054931640625,-0.0009622001089155674,-0.05079526826739311,0.03135019913315773
1772807467779986700,2.604986572265625,-0.00532685499638319,-0.04982854425907135,0.034152645617723465
1772807467789918700,2.614918701171875,-0.008466188795864582,-0.052917543798685074,0.031670309603214264
1772807467799850800,2.624850830078125,-0.011344799771904945,-0.049546513706445694,0.014627145603299141
1772807467809782800,2.63478271484375,-0.014346715062856674,-0.049732934683561325,-0.0012253203894942999
1772807467819713800,2.6447138671875,-0.012175173498690128,-0.056178849190473557,-0.009348227642476559
1772807467829645600,2.6546455078125,-0.012448946014046669,-0.05318758636713028,-0.01315388549119234
1772807467839577600,2.66457763671875,-0.012024172581732273,-0.05162804201245308,-0.011108310893177986
1772807467849509600,2.674509521484375,-0.010318949818611145,-0.041197504848241806,-0.0055028898641467094
1772807467859441700,2.684441650390625,-0.005191832315176725,-0.03370017185807228,0.0002133192028850317
1772807467869373700,2.694373779296875,-0.006030728109180927,-0.02237854339182377,0.003010969841852784
1772807467879305700,2.7043056640625,-0.009312009438872337,-0.018136393278837204,0.0014945659786462784
1772807467889237800,2.71423779296875,-0.014816762879490852,-0.012871856801211834,-0.005024852231144905
1772807467899168800,2.724168701171875,-0.016711868345737457,-0.005545233841985464,-0.0017952368361875415
1772807467909100800,2.734100830078125,-0.01846769079566002,-0.007925833575427532,-0.005421929527074099
1772807467919032800,2.74403271484375,-0.018258633092045784,-0.004797152243554592,0.0036581179592758417
1772807467928964900,2.75396484375,-0.012712066993117332,0.005600095260888338,0.021445371210575104
1772807467938896600,2.763896728515625,-0.01194214727729559,-0.004793157335370779,0.02466966025531292
1772807467948828700,2.77382861328125,-0.011064635589718819,0.007896805182099342,0.04074636474251747
1772807467958760700,2.7837607421875,-0.014662032946944237,-0.005280249286442995,0.03887762501835823
1772807467968692700,2.793692626953125,-0.014163755811750889,0.0021196098532527685,0.041845452040433884
1772807467978624800,2.803624755859375,-0.01721547171473503,-0.00782729685306549,0.04482978954911232
1772807467988555800,2.8135556640625,-0.02225577086210251,-0.010470484383404255,0.04903465509414673
1772807467998487800,2.82348779296875,-0.023366043344140053,-0.019652530550956726,0.05158942565321922
1772807468008419800,2.833419921875,-0.02586302161216736,-0.01992310769855976,0.05398360639810562
1772807468018351900,2.843351806640625,-0.024106401950120926,-0.02111194282770157,0.05223497375845909
1772807468028284000,2.853283935546875,-0.028388231992721558,-0.031190410256385803,0.04976782202720642
1772807468038215700,2.863215576171875,-0.032396022230386734,-0.032574720680713654,0.048947300761938095
1772807468048147700,2.873147705078125,-0.035766519606113434,-0.029641248285770416,0.034347053617239
1772807468058079700,2.883079833984375,-0.046242862939834595,-0.03555746003985405,0.01569507271051407
1772807468068011800,2.89301171875,-0.05107596889138222,-0.025066470727324486,-0.0041433461010456085
1772807468077943800,2.90294384765625,-0.05742254480719566,-0.017122793942689896,-0.01104412879794836
1772807468087874600,2.91287451171875,-0.060018062591552734,-0.007985754869878292,0.004599545616656542
1772807468097806600,2.922806640625,-0.05536951497197151,0.00923131499439478,0.027001524344086647
1772807468107738600,2.932738525390625,-0.05681135132908821,0.019225092604756355,0.041181523352861404
1772807468117670700,2.942670654296875,-0.05408986657857895,0.013160277158021927,0.06544958055019379
1772807468127602700,2.952602783203125,-0.059070244431495667,0.007502124644815922,0.08709761500358582
1772807468137535000,2.962534912109375,-0.054256048053503036,0.003114833263680339,0.09387776255607605
1772807468147466800,2.972466796875,-0.052022188901901245,0.003404052462428808,0.09565648436546326
1772807468157398800,2.982398681640625,-0.04854197055101395,0.008501875214278698,0.08990645408630371
1772807468167329800,2.992329833984375,-0.048703089356422424,0.01230673398822546,0.08680147677659988
1772807468177261800,3.00226171875,-0.04433870315551758,0.012397813610732555,0.08646964281797409
1772807468187193600,3.012193603515625,-0.04148033261299133,0.014125406742095947,0.08497720956802368
1772807468197125600,3.022125732421875,-0.041675273329019547,0.017919344827532768,0.09018182754516602
1772807468207057700,3.0320576171875,-0.04216955602169037,0.01344709936529398,0.10140492022037506
1772807468216989700,3.04198974609375,-0.04386359453201294,0.011601528152823448,0.108377605676651
1772807468226921700,3.051921630859375,-0.048223190009593964,0.008874984458088875,0.10505557805299759
1772807468236853800,3.061853759765625,-0.04998699948191643,0.021813685074448586,0.09855533391237259
1772807468246785500,3.07178564453125,-0.05067036673426628,0.014611166901886463,0.07663299143314362
1772807468256716800,3.081716796875,-0.048519864678382874,0.018787004053592682,0.0631941482424736
1772807468266648800,3.09164892578125,-0.04144837334752083,0.014639396220445633,0.04908871650695801
1772807468276580900,3.101580810546875,-0.029504628852009773,0.023152990266680717,0.04463910683989525
1772807468286513000,3.111512939453125,-0.021698903292417526,0.03212811052799225,0.045034851878881454
1772807468296444700,3.121444580078125,-0.018851451575756073,0.03545146808028221,0.05479906499385834
1772807468306376700,3.131376708984375,-0.022977488115429878,0.04351818189024925,0.0655348002910614
1772807468316308700,3.141308837890625,-0.02137053571641445,0.05049726366996765,0.07472909986972809
1772807468326240800,3.15124072265625,-0.02009275183081627,0.05922390893101692,0.07616161555051804
1772807468336172800,3.1611728515625,-0.014708371832966805,0.0680413693189621,0.07258232682943344
1772807468346104600,3.1711044921875,-0.007795072626322508,0.07361403107643127,0.06372091919183731
1772807468356035600,3.18103564453125,-0.010250506922602654,0.07185155153274536,0.054422762244939804
1772807468365968000,3.1909677734375,-0.029160281643271446,0.0600055456161499,0.04345320165157318
1772807468375900000,3.20089990234375,-0.03904620185494423,0.043418578803539276,0.0366930328309536
1772807468385832000,3.21083203125,-0.048468466848134995,0.03543096035718918,0.05085599049925804
1772807468395763700,3.220763671875,-0.05330822989344597,0.020685037598013878,0.06408364325761795
1772807468405695700,3.23069580078125,-0.05319424718618393,0.021647239103913307,0.06929678469896317
1772807468415627800,3.240627685546875,-0.05240168794989586,0.025852102786302567,0.06696252524852753
1772807468425559800,3.250559814453125,-0.04863837733864784,0.017621072009205818,0.050579022616147995
1772807468435491800,3.260491943359375,-0.044790107756853104,0.02394581213593483,0.04807405173778534
1772807468445422600,3.270422607421875,-0.044618334621191025,0.006762298755347729,0.046783216297626495
1772807468455354600,3.280354736328125,-0.04532353952527046,0.01264149323105812,0.05958689749240875
1772807468465286700,3.29028662109375,-0.040765006095170975,0.003311640815809369,0.07519595324993134
1772807468475218700,3.30021875,-0.043535225093364716,-0.002660498023033142,0.08456255495548248
1772807468485150700,3.310150634765625,-0.04667828977108002,-0.010351973585784435,0.08585844933986664
1772807468495082800,3.320082763671875,-0.05336149036884308,-0.02780020609498024,0.07955367863178253
1772807468505014800,3.330014892578125,-0.05537350848317146,-0.037703435868024826,0.06703203171491623
1772807468514946800,3.33994677734375,-0.062492139637470245,-0.03251107037067413,0.06185511127114296
1772807468524878800,3.34987890625,-0.05179422348737717,-0.03737959638237953,0.06522826850414276
1772807468534809900,3.359809814453125,-0.04319700598716736,-0.026395920664072037,0.06462187319993973
1772807468544741600,3.36974169921875,-0.028841501101851463,-0.02209491655230522,0.0746244341135025
1772807468554673700,3.379673583984375,-0.017590444535017014,-0.01948821358382702,0.0904151201248169
1772807468564605700,3.389605712890625,-0.016354205086827278,-0.023967383429408073,0.10259135812520981
1772807468574537700,3.399537841796875,-0.019919378682971,-0.03721101954579353,0.10116256773471832
1772807468584469800,3.4094697265625,-0.03411881998181343,-0.05819086730480194,0.10071462392807007
1772807468594401800,3.41940185546875,-0.04861360788345337,-0.09272221475839615,0.09592892229557037
1772807468604333600,3.42933349609375,-0.0635366290807724,-0.0972788855433464,0.09326043725013733
1772807468614265600,3.439265625,-0.07141399383544922,-0.10678023844957352,0.0948796421289444
1772807468624196900,3.44919677734375,-0.0701998621225357,-0.10962343215942383,0.08872507512569427
1772807468634129000,3.45912890625,-0.06435688585042953,-0.09465993195772171,0.0681534856557846
1772807468644061000,3.46906103515625,-0.061952583491802216,-0.09493689984083176,0.05854427069425583
1772807468653992700,3.47899267578125,-0.05589202791452408,-0.07778853923082352,0.06664001196622849
1772807468663924700,3.4889248046875,-0.042204443365335464,-0.06256697326898575,0.07199829071760178
1772807468673856800,3.498856689453125,-0.026824956759810448,-0.05330237001180649,0.07576639950275421
1772807468683788800,3.508788818359375,-0.019218435510993004,-0.04765859991312027,0.07257566601037979
1772807468693720800,3.518720947265625,-0.018278606235980988,-0.03875724971294403,0.07282307744026184
1772807468703652600,3.528652587890625,-0.02148531749844551,-0.04477599263191223,0.08183228224515915
1772807468713584600,3.538584716796875,-0.029149629175662994,-0.05814719200134277,0.09406790882349014
1772807468723515600,3.548515625,-0.03930586203932762,-0.056166864931583405,0.08435962349176407
1772807468733447700,3.55844775390625,-0.05131751671433449,-0.050209373235702515,0.07163716852664948
1772807468743379700,3.568379638671875,-0.05780763924121857,-0.040047552436590195,0.05373566597700119
1772807468753311700,3.578311767578125,-0.05927131325006485,-0.046111300587654114,0.03965526819229126
1772807468763243800,3.588243896484375,-0.05994589254260063,-0.03816523030400276,0.03525732457637787
1772807468773175800,3.59817578125,-0.05603690445423126,-0.04002145305275917,0.03218616545200348
1772807468783107800,3.60810791015625,-0.046292129904031754,-0.0400233156979084,0.018377143889665604
1772807468793040000,3.618039794921875,-0.030718231573700905,-0.02792244404554367,0.008553273975849152
1772807468802972000,3.627971923828125,-0.016923323273658752,-0.011509915813803673,0.007801996544003487
1772807468812902700,3.637902587890625,-0.02095135487616062,-0.015786154195666313,0.02376977726817131
1772807468822834700,3.647834716796875,-0.02370905689895153,-0.02062911167740822,0.05321555212140083
1772807468832766700,3.6577666015625,-0.03502882272005081,-0.03182051330804825,0.07724098861217499
1772807468842698800,3.66769873046875,-0.04235757514834404,-0.03557344153523445,0.08932242542505264
1772807468852630800,3.677630859375,-0.04806100204586983,-0.0444585457444191,0.08032599836587906
1772807468862562600,3.6875625,-0.04866314306855202,-0.043540019541978836,0.05652106553316116
1772807468872494600,3.69749462890625,-0.0479680597782135,-0.04409182816743851,0.03967337682843208
1772807468882426600,3.707426513671875,-0.041253164410591125,-0.04146754741668701,0.02539563737809658
1772807468892358700,3.717358642578125,-0.031069768592715263,-0.04002704471349716,0.01625353842973709
1772807468902289700,3.72728955078125,-0.01805942691862583,-0.03548422455787659,0.0183478482067585
1772807468912221700,3.7372216796875,-0.011846273206174374,-0.03001995012164116,0.02430161088705063
1772807468922153700,3.74715380859375,-0.007153783459216356,-0.03154833987355232,0.044617533683776855
1772807468932085800,3.757085693359375,-0.007910653948783875,-0.027653198689222336,0.03874313458800316
1772807468942017800,3.767017822265625,-0.011536813341081142,-0.035468246787786484,0.0163643267005682
1772807468951949800,3.77694970703125,-0.01570119895040989,-0.045934468507766724,0.008591623976826668
1772807468961881600,3.786881591796875,-0.014283598400652409,-0.041304029524326324,-0.014736868441104889
1772807468971813600,3.796813720703125,-0.009031577967107296,-0.044970136135816574,-0.04327849671244621
1772807468981745700,3.80674560546875,-0.004554538056254387,-0.05065492168068886,-0.05206959322094917
1772807468991677700,3.816677734375,0.0024346618447452784,-0.05499400943517685,-0.04609186202287674
1772807469001609000,3.82660888671875,0.006339122075587511,-0.057205766439437866,-0.023965520784258842
1772807469011541200,3.836541259765625,0.011141334660351276,-0.049917493015527725,-0.00484402384608984
1772807469021473300,3.846473388671875,0.008473379537463188,-0.0420590378344059,0.007131678983569145
1772807469031405300,3.8564052734375,0.005253884010016918,-0.03760037198662758,0.004237888380885124
1772807469041337300,3.86633740234375,-0.002414954360574484,-0.025598570704460144,-0.010584200732409954
1772807469051269400,3.876269287109375,-0.0025960493367165327,-0.006988401059061289,-0.027597805485129356
1772807469061201400,3.886201416015625,-0.009783388115465641,-0.003990747034549713,-0.03953622281551361
1772807469071133200,3.89613330078125,-0.008681905455887318,-0.0016085492679849267,-0.05480492487549782
1772807469081065200,3.906065185546875,-0.004844556096941233,0.009340238757431507,-0.06474703550338745
1772807469090996200,3.915996337890625,-0.007140201050788164,0.017047692090272903,-0.06245538964867592
1772807469100928300,3.92592822265625,-0.0032120386604219675,0.02075081877410412,-0.0362837053835392
1772807469110860300,3.9358603515625,-0.0025188177824020386,0.03111211210489273,-0.012546684592962265
1772807469120792000,3.9457919921875,-0.009951966814696789,0.03250547870993614,0.008677377365529537
1772807469130724000,3.95572412109375,-0.01624901033937931,0.03153981640934944,0.021146830171346664
1772807469140656000,3.96565625,-0.023026222363114357,0.04037485271692276,0.029153890907764435
1772807469150588200,3.975588134765625,-0.029144570231437683,0.04809322580695152,0.026035329326987267
1772807469160518100,3.98551806640625,-0.03206818923354149,0.04471420869231224,0.01703251339495182
1772807469170450200,3.9954501953125,-0.027752269059419632,0.046711310744285583,0.009736782871186733
1772807469180382200,4.00538232421875,-0.023735955357551575,0.05253910645842552,0.005093561951071024
1772807469190314200,4.015314208984375,-0.014661766588687897,0.06150490418076515,0.007465639617294073
1772807469200246300,4.025246337890625,-0.011385812424123287,0.06284847110509872,0.016936639323830605
1772807469210178000,4.035177978515625,-0.01079965103417635,0.06367591768503189,0.027345869690179825
1772807469220110000,4.045110107421875,-0.009449427947402,0.06464796513319016,0.034509774297475815
1772807469230042000,4.0550419921875,-0.010744256898760796,0.05885852128267288,0.040465932339429855
1772807469239973400,4.064973388671875,-0.011420433409512043,0.052074652165174484,0.03689170628786087
1772807469249905400,4.074905517578125,-0.00959936436265707,0.05192471668124199,0.027897678315639496
1772807469259837200,4.084837158203125,-0.010550378821790218,0.057429470121860504,0.020372383296489716
1772807469269769200,4.094769287109375,-0.0056978329084813595,0.05110073462128639,0.011599398218095303
1772807469279701200,4.104701171875,-0.003643736941739917,0.04555603489279747,0.007454453967511654
1772807469289633300,4.11463330078125,-0.0014045510906726122,0.04312749579548836,0.001957956003025174
1772807469299565300,4.1245654296875,-0.0012029499048367143,0.04384575039148331,-0.009007076732814312
1772807469309497300,4.134497314453125,0.00046685212873853743,0.047377634793519974,-0.01443779468536377
1772807469319429000,4.14442919921875,0.001478320686146617,0.0457211509346962,-0.021150292828679085
1772807469329361200,4.154361083984375,0.0010151970200240612,0.04507533088326454,-0.023857662454247475
1772807469339292200,4.164292236328125,0.0019859191961586475,0.04706497862935066,-0.031062578782439232
1772807469349224400,4.174224365234375,-0.001130778226070106,0.0442098043859005,-0.03677372634410858
1772807469359156200,4.18415625,0.0016013587592169642,0.046613309532403946,-0.04165583476424217
1772807469369088300,4.194088134765625,0.0023166837636381388,0.04784289002418518,-0.047932371497154236
1772807469379020300,4.204020263671875,0.006016613449901342,0.051538556814193726,-0.049370743334293365
1772807469388952300,4.213952392578125,0.009338374249637127,0.04797471687197685,-0.052811816334724426
1772807469398884400,4.22388427734375,0.011553325690329075,0.047091878950595856,-0.05655728653073311
1772807469408816400,4.23381640625,0.013248161412775517,0.04476480931043625,-0.05446776747703552
1772807469418748200,4.243748046875,0.010128268040716648,0.026012426242232323,-0.0437389574944973
1772807469428679200,4.25367919921875,0.011165834963321686,0.022115422412753105,-0.033553432673215866
1772807469438611200,4.263611083984375,0.008271778002381325,0.01792493835091591,-0.03148176148533821
1772807469448543200,4.273543212890625,0.010420416481792927,0.019335081800818443,-0.03498221933841705
1772807469458475300,4.283475341796875,0.01011175662279129,0.016140887513756752,-0.041478998959064484
1772807469468407000,4.293406982421875,0.007060306146740913,0.015180017799139023,-0.048164065927267075
1772807469478339000,4.303339111328125,0.004252269398421049,0.015169365331530571,-0.05452635884284973
1772807469488271400,4.313271240234375,0.00726457079872489,0.019695406779646873,-0.054783619940280914
1772807469498203400,4.323203369140625,0.004624579101800919,0.023329557850956917,-0.04518718644976616
1772807469508135400,4.333135498046875,0.009236907586455345,0.026328809559345245,-0.030855650082230568
1772807469518067200,4.343067138671875,0.01119326613843441,0.031435687094926834,-0.022792929783463478
1772807469527998200,4.352998291015625,0.015202122740447521,0.02760978974401951,-0.02250823751091957
1772807469537931300,4.36293115234375,0.014345383271574974,0.021649900823831558,-0.020970795303583145
1772807469547863300,4.37286328125,0.016624249517917633,0.019278889521956444,-0.025889120995998383
1772807469557795300,4.38279541015625,0.01477521751075983,0.01835370622575283,-0.019841615110635757
1772807469567727400,4.392727294921875,0.013513145968317986,0.01792041026055813,-0.021289575845003128
1772807469577659100,4.4026591796875,0.01085690874606371,0.01871749572455883,-0.01991511881351471
1772807469587591200,4.412591064453125,0.007385744713246822,0.024714134633541107,-0.02522333152592182
1772807469597523200,4.422523193359375,0.011062238365411758,0.02979091927409172,-0.03092116490006447
1772807469607455200,4.432455322265625,0.009553557261824608,0.02696210891008377,-0.035405926406383514
1772807469617387300,4.44238720703125,0.0041529336012899876,0.022395320236682892,-0.040045153349637985
1772807469627318000,4.452318115234375,0.001374457380734384,0.015016766265034676,-0.037099964916706085
1772807469637250300,4.462250244140625,-0.0008772452711127698,0.018740931525826454,-0.031184017658233643
1772807469647182300,4.472182373046875,0.005972671322524548,0.02014841139316559,-0.03196858614683151
1772807469657114400,4.4821142578125,0.0073173013515770435,0.02052471600472927,-0.028185831382870674
1772807469667046400,4.49204638671875,0.0072901370003819466,0.014356834813952446,-0.022907713428139687
1772807469676978400,4.501978515625,0.0020844561513513327,0.009487511590123177,-0.013851633295416832
1772807469686910200,4.51191015625,0.0020210728980600834,0.0030328077264130116,-0.002810966456308961
1772807469696842200,4.52184228515625,-0.001672198879532516,0.0014210627414286137,-0.0006511429091915488
1772807469706774300,4.531774169921875,0.0032139027025550604,0.006829143967479467,-0.0013488910626620054
1772807469716705300,4.541705322265625,0.001353684812784195,0.005151086021214724,-0.007370830979198217
1772807469726637000,4.551636962890625,-0.00015899071877356619,0.010900584980845451,-0.021827001124620438
1772807469736569000,4.561569091796875,0.007441671099513769,0.012250008061528206,-0.034325484186410904
1772807469746501000,4.571501220703125,0.00848296657204628,0.011693141423165798,-0.04096048325300217
1772807469756433200,4.58143310546875,0.011593006551265717,0.009216934442520142,-0.03472016379237175
1772807469766365200,4.591365234375,0.016536099836230278,0.013228453695774078,-0.024461135268211365
1772807469776297200,4.601297119140625,0.014246313832700253,0.008133826777338982,-0.01594061776995659
1772807469786229200,4.611229248046875,0.012150672264397144,0.014968030154705048,-0.012225506827235222
1772807469796161300,4.621161376953125,0.007099987473338842,0.01065024733543396,-0.014049505814909935
1772807469806093300,4.63109326171875,0.008670720271766186,0.0011179950088262558,-0.01624688133597374
1772807469816024300,4.6410244140625,0.0015433018561452627,-0.0005166532355360687,-0.01512941811233759
1772807469825956400,4.650956298828125,-0.0009243832319043577,0.001133174984715879,-0.012264389544725418
1772807469835888000,4.66088818359375,0.0006191849242895842,0.01071229949593544,-0.010878213681280613
1772807469845820200,4.670820068359375,0.0016753945965319872,0.020169982686638832,-0.012108860537409782
1772807469855752200,4.680752197265625,0.004295146092772484,0.029956568032503128,-0.02268560416996479
1772807469865684200,4.690684326171875,0.010095776990056038,0.036978255957365036,-0.02828143909573555
1772807469875616300,4.7006162109375,0.010372479446232319,0.04541488736867905,-0.024983113631606102
1772807469885548300,4.71054833984375,0.008521316573023796,0.044618334621191025,-0.011519769206643105
1772807469895480000,4.72047998046875,0.008620652370154858,0.052798233926296234,0.004159591160714626
1772807469905412000,4.730412109375,0.009460879489779472,0.060992781072854996,0.01224627997726202
1772807469915343400,4.74034326171875,0.005528722424060106,0.06901448965072632,0.018252240493893623
1772807469925275400,4.750275390625,0.003322825999930501,0.0655590370297432,0.020263459533452988
1772807469935207200,4.760207275390625,-0.0034961977507919073,0.06617102771997452,0.011430553160607815
1772807469945139200,4.77013916015625,-0.0054791877046227455,0.06822273135185242,0.005885586142539978
1772807469955071200,4.7800712890625,-0.009381784126162529,0.07049094140529633,-0.001311873085796833
1772807469965003300,4.790003173828125,-0.009092298336327076,0.07017190009355545,-0.002942526713013649
1772807469974935300,4.799935302734375,-0.009393768385052681,0.06898359209299088,-0.002122006844729185
1772807469984867300,4.809867431640625,-0.00762915750965476,0.07318180054426193,-0.0012128035305067897
1772807469994799000,4.819799072265625,-0.00654551712796092,0.07352215051651001,-0.004375840071588755
1772807470004731100,4.829731201171875,-0.004412325099110603,0.0773477852344513,0.0006865629111416638
1772807470014662100,4.839662109375,-0.0017976337112486362,0.08407919108867645,0.0059846555814146996
1772807470024594200,4.84959423828125,0.001204547705128789,0.08353457599878311,0.00891173630952835
1772807470034526200,4.859526123046875,0.005227252375334501,0.07710277289152145,0.009894176386296749
1772807470044458200,4.869458251953125,0.005016063805669546,0.07505853474140167,0.01432221382856369
1772807470054390000,4.87939013671875,0.004348942078649998,0.07084913551807404,0.020981181412935257
1772807470064322000,4.889322021484375,-0.00011930961773032323,0.06729115545749664,0.030471622943878174
1772807470074254000,4.899254150390625,-0.0006370281334966421,0.057742390781641006,0.029396504163742065
1772807470084186000,4.90918603515625,-0.004038417246192694,0.05073268711566925,0.028362931683659554
1772807470094118100,4.9191181640625,-0.00555162550881505,0.04556029289960861,0.020417124032974243
1772807470104050200,4.92905029296875,-0.006699181627482176,0.04117806255817413,0.012078233994543552
1772807470113981000,4.93898095703125,-0.001216265605762601,0.040553018450737,0.008462194353342056
1772807470123913000,4.948912841796875,-0.0028783443849533796,0.04368915781378746,0.008171110413968563
1772807470133845000,4.958844970703125,-0.004403803031891584,0.041978344321250916,0.013026585802435875
1772807470143777000,4.968777099609375,-0.0033566481433808804,0.038240328431129456,0.013707556761801243
1772807470153709000,4.978708984375,-0.00842730700969696,0.023541012778878212,0.025902703404426575
1772807470163641000,4.98864111328125,-0.008443285711109638,0.023736221715807915,0.021264275535941124
1772807470173573000,4.998572998046875,-0.010187922976911068,0.013755759224295616,0.020356670022010803
1772807470183505200,5.008505126953125,-0.011839082464575768,-0.002177666872739792,0.024101074784994125
1772807470193437200,5.018437255859375,-0.009476859122514725,0.0023409186396747828,0.021338311955332756
1772807470203369200,5.028369140625,-0.006647250149399042,0.007646468002349138,0.013605291023850441
1772807470213301200,5.03830126953125,-0.005550294183194637,0.011027883738279343,0.008729043416678905
1772807470223232000,5.04823193359375,0.0013646037550643086,0.012436163611710072,0.01067741122096777
1772807470233164000,5.0581640625,0.00281948852352798,0.016918262466788292,0.007274424657225609
1772807470243096000,5.068095947265625,0.00443922309204936,0.01449665054678917,0.0019563580863177776
1772807470253028000,5.078028076171875,0.006706904619932175,0.006392651703208685,0.0043473439291119576
1772807470262959900,5.0879599609375,0.004454136826097965,0.00458596320822835,0.007791344076395035
1772807470272892000,5.097891845703125,0.0010820423485711217,0.0014205301413312554,0.012202337384223938
1772807470282824000,5.107823974609375,0.001475657569244504,-0.0010580739472061396,0.0067226174287498
1772807470292756000,5.117755859375,-0.0009558085002936423,-0.007707720622420311,-0.0016769925132393837
1772807470302688000,5.12768798828125,-0.0046821036376059055,-0.014127270318567753,-0.00392683083191514
1772807470312620300,5.137620361328125,-0.006334328558295965,-0.018034927546977997,-0.006616623606532812
1772807470322551000,5.147551025390625,-0.004268780816346407,-0.01076849177479744,-0.007222759071737528
1772807470332483000,5.157483154296875,-0.005567871034145355,-0.00945102609694004,-0.007321828510612249
1772807470342415000,5.1674150390625,-0.0021142836194485426,-0.006999319884926081,-0.005314870737493038
1772807470352347100,5.17734716796875,-0.0007896272582001984,-0.00782703049480915,0.0019318570848554373
1772807470362279200,5.187279052734375,-0.000472977408207953,-0.00018881811411119998,0.005560946650803089
1772807470372211000,5.1972109375,0.0005619269795715809,0.0016953683225437999,0.007056045345962048
1772807470382143000,5.20714306640625,0.0016706009628251195,-0.0030274814926087856,0.013191968202590942
1772807470392075000,5.217074951171875,-0.0008503473363816738,-0.002837598090991378,0.013057478703558445
1772807470402007000,5.227007080078125,-0.0032019184436649084,-0.009348760358989239,0.011513111181557178
1772807470411939000,5.23693896484375,-0.0068389978259801865,-0.009660083800554276,0.008407332934439182
1772807470421870000,5.2468701171875,-0.006386792752891779,-0.0067881313152611256,0.011334946379065514
1772807470431802000,5.256802001953125,-0.009525061585009098,-0.0036128442734479904,0.015852998942136765
1772807470441734100,5.266734130859375,-0.00660650385543704,0.0017363809747621417,0.018999790772795677
1772807470451666200,5.276666259765625,-0.005950567312538624,0.0037675739731639624,0.010269149206578732
1772807470461598200,5.28659814453125,-0.00478410255163908,0.006829143967479467,0.007131945341825485
1772807470471530000,5.296530029296875,-0.0025185514241456985,0.006661098450422287,0.006111688446253538
1772807470481462000,5.3064619140625,-0.0028338697738945484,0.006217948626726866,0.011284345760941505
1772807470491394000,5.31639404296875,-0.002025600289925933,0.01534859649837017,0.015358982607722282
1772807470501326000,5.326326171875,0.0011379687348380685,0.017671670764684677,0.012745622545480728
1772807470511258000,5.336258056640625,-0.001856223214417696,0.013170130550861359,0.01085797417908907
1772807470521190100,5.346190185546875,-0.003626959165558219,0.00845580268651247,0.002528937766328454
1772807470531121000,5.356120849609375,-0.0048861014656722546,0.0010751180816441774,-0.0020823257509618998
1772807470541053200,5.36605322265625,-0.007001183927059174,-0.00686243362724781,0.004722050856798887
1772807470550985200,5.375985107421875,-0.006677876226603985,-0.005073588341474533,0.013966947793960571
1772807470560917200,5.385917236328125,-0.006144977640360594,-0.006887200754135847,0.026011893525719643
1772807470570849300,5.395849365234375,-0.00686030276119709,-0.004958007019013166,0.02881806530058384
1772807470580781000,5.405781005859375,-0.0060179452411830425,-0.006462426856160164,0.029201561585068703
1772807470590713000,5.415713134765625,-0.004171042703092098,-0.002567820018157363,0.023846477270126343
1772807470600645000,5.42564501953125,-0.003135872073471546,-0.0027446537278592587,0.022848857566714287
1772807470610577200,5.4355771484375,-0.003126284806057811,0.004048271104693413,0.020496485754847527
1772807470620509200,5.44550927734375,-0.004786765668541193,0.006845122668892145,0.019706593826413155
1772807470630440000,5.45543994140625,-0.0051987566985189915,0.009323992766439915,0.02004827745258808
1772807470640372000,5.4653720703125,-0.008778044953942299,0.015272696502506733,0.021953502669930458
1772807470650304000,5.475303955078125,-0.0073444657027721405,0.017536649480462074,0.01601225510239601
1772807470660236000,5.485236083984375,-0.0079721724614501,0.017770741134881973,0.008159126155078411
1772807470670168000,5.49516796875,-0.004306863993406296,0.022577481344342232,0.0024311996530741453
1772807470680099800,5.505099853515625,-0.001933987601660192,0.024519991129636765,-0.003041330026462674
1772807470690032000,5.5150322265625,-0.0019923108629882336,0.020928718149662018,-0.0051593417301774025
1772807470699964200,5.524964111328125,-0.002067678142338991,0.023095466196537018,-0.003826429834589362
1772807470709896200,5.534896240234375,0.002383529208600521,0.03142157196998596,-0.0021670141723006964
1772807470719828200,5.544828125,0.0023041670210659504,0.04163239896297455,0.003090598387643695
1772807470729759000,5.554759033203125,0.004339887294918299,0.04653447866439819,0.005619802512228489
1772807470739691000,5.56469091796875,0.0052080778405070305,0.04018976539373398,0.008946357294917107
1772807470749623000,5.574623046875,0.0026881948579102755,0.039021167904138565,0.010779676958918571
1772807470759555000,5.58455517578125,0.0030330740846693516,0.04014715179800987,0.005693838465958834
1772807470769487000,5.594487060546875,0.0007773766992613673,0.03416489437222481,0.0001424791116733104
1772807470779419100,5.604419189453125,-0.0012072109384462237,0.025234250351786613,-0.004172108136117458
1772807470789351000,5.614350830078125,-0.0020724718924611807,0.015044995583593845,-0.007809720002114773
1772807470799283000,5.624282958984375,-0.006494651082903147,0.010669155977666378,-0.00854688324034214
1772807470809215000,5.634215087890625,-0.00595536082983017,0.014660169370472431,-0.0062459115870296955
1772807470819147000,5.64414697265625,-0.0057071540504693985,0.012264123186469078,-0.00011957593233091757
1772807470829079000,5.6540791015625,-0.002469815546646714,0.01865064911544323,0.0005864280392415822
1772807470839010000,5.664010009765625,-0.0005896238726563752,0.016459399834275246,0.0010149306617677212
1772807470848942000,5.673942138671875,-0.002091913018375635,0.010097108781337738,0.003156911116093397
1772807470858874000,5.6838740234375,-0.0008980178972706199,0.010803112760186195,0.0018221348291262984
1772807470868806100,5.69380615234375,0.002371811307966709,0.01212670374661684,0.006421946454793215
1772807470878738200,5.70373828125,0.002817091764882207,0.009275790303945541,0.011534683406352997
1772807470888670000,5.713669921875,-0.000026897927455138415,0.010688330978155136,0.01113494299352169
1772807470898602000,5.72360205078125,0.004794222768396139,0.010936803184449673,0.007450725883245468
1772807470908534000,5.733533935546875,0.005489840172231197,0.010163421742618084,0.0006886934279464185
1772807470918466000,5.743466064453125,0.0031462584156543016,0.007934888824820518,-0.005281314719468355
1772807470928398000,5.753398193359375,0.003370496677234769,0.003192331176251173,-0.010967429727315903
1772807470938329000,5.7633291015625,0.003482881933450699,-0.005622199270874262,-0.011411911807954311
1772807470948261000,5.77326123046875,-0.0004468784318305552,-0.009653426706790924,-0.006706106010824442
1772807470958193200,5.783193115234375,0.002522546099498868,-0.004621649626642466,-0.0031899344176054
1772807470968125200,5.793125244140625,0.0034493261482566595,-0.0006916229031048715,-0.003373426152393222
1772807470978057200,5.80305712890625,0.0054818508215248585,0.0026296053547412157,-0.003561178920790553
1772807470987989200,5.8129892578125,0.006094910204410553,0.002046106616035104,-0.0002372876479057595
1772807470997921000,5.822921142578125,0.007984955795109272,0.0036045885644853115,0.005507417023181915
1772807471007853000,5.83285302734375,0.004375307355076075,0.00140987744089216,0.0070427292957901955
1772807471017785000,5.84278515625,0.0043686493299901485,-0.003615241264924407,0.003379817819222808
1772807471027716900,5.852716796875,0.0013177321525290608,-0.008476574905216694,-0.0062762717716395855
1772807471037649000,5.86264892578125,0.002086054068058729,-0.008670453913509846,-0.00965848658233881
1772807471047580000,5.872579833984375,0.0010162622202187777,-0.00905900914222002,-0.01341434195637703
1772807471057512000,5.882511962890625,-0.0013946974650025368,-0.010246778838336468,-0.01594221405684948
1772807471067444000,5.89244384765625,-0.0014692660188302398,-0.013964018784463406,-0.018940135836601257
1772807471077376000,5.9023759765625,0.0024341291282325983,-0.012439092621207237,-0.020261595025658607
1772807471087308000,5.91230810546875,0.003855724586173892,-0.010962103493511677,-0.02153804898262024
1772807471097240000,5.922239990234375,0.0054307179525494576,-0.008097341284155846,-0.014277206733822823
1772807471107172000,5.932172119140625,0.010734403505921364,-0.007494668010622263,-0.005065065808594227
1772807471117104000,5.942104248046875,0.00845766719430685,-0.0014314490836113691,-0.003506850451231003
1772807471127036200,5.9520361328125,0.009572998620569706,0.0021851237397640944,-0.0023840616922825575
1772807471136968000,5.961968017578125,0.01064944826066494,0.0004516721237450838,-0.003890878288075328
1772807471146900000,5.97189990234375,0.009183111600577831,0.004133225884288549,-0.00839747954159975
1772807471156831000,5.9818310546875,0.005655755288898945,0.0046328348107635975,-0.003817108692601323
1772807471166763000,5.991762939453125,0.0018391790799796581,0.002445314545184374,-0.0015448997728526592
1772807471176694800,6.00169482421875,0.002101234160363674,-0.000636495475191623,-0.002626942005008459
1772807471186626800,6.011626708984375,-0.0020040287636220455,-0.0012831110507249832,-0.0035108451265841722
1772807471196558800,6.021558837890625,-0.004073038697242737,-0.004215783905237913,-0.005533782299607992
1772807471206491000,6.031490966796875,-0.002779274946078658,-0.00046845004544593394,0.0007275756215676665
1772807471216423000,6.0414228515625,-0.00207673292607069,-0.003165699541568756,-0.0012916331179440022
1772807471226355200,6.051355224609375,-0.0008444883860647678,-0.0046842340379953384,-0.005233111325651407
1772807471236287000,6.061286865234375,-0.0014796522445976734,-0.002498843939974904,-0.004768389742821455
1772807471246219000,6.071218994140625,-0.0024546354543417692,0.003418699838221073,0.0014088122406974435
1772807471256150000,6.08114990234375,-0.0012857741676270962,0.0026943201664835215,0.0009177253232337534
1772807471266082000,6.09108203125,-0.0011432950850576162,0.004226170480251312,0.0021547635551542044
1772807471276014000,6.10101416015625,0.00042876892257481813,0.0015371765475720167,0.006518353242427111
1772807471285945900,6.11094580078125,-0.0030455910600721836,0.00199284334667027,0.013590376824140549
1772807471295878000,6.1208779296875,-0.006952980998903513,0.0005757753970101476,0.01655713841319084
1772807471305810000,6.130809814453125,-0.00430047232657671,0.0020780644845217466,0.007728226948529482
1772807471315742000,6.140741943359375,-0.0018439727136865258,0.010267018340528011,-0.002679938916116953
1772807471325674000,6.150674072265625,-0.00023968449386302382,0.013167200610041618,-0.011011105962097645
1772807471335606000,6.16060595703125,-0.0006727144937030971,0.008381234481930733,-0.0032197616528719664
1772807471345537800,6.170537841796875,-0.0005105279851704836,0.006872020661830902,0.006981743033975363
1772807471355469800,6.1804697265625,0.001407480682246387,0.014415424317121506,0.00899748969823122
1772807471365401900,6.19040185546875,0.0037555897142738104,0.017111076042056084,0.000004261057711119065
1772807471375333000,6.2003330078125,0.0017816547770053148,0.014370949938893318,-0.005023787263780832
1772807471385265000,6.210264892578125,-0.002058357233181596,0.012223110534250736,0.003061836352571845
1772807471395197000,6.220197021484375,-0.002709500025957823,0.010998855344951153,0.008859005756676197
1772807471405129000,6.23012890625,-0.005145759787410498,0.01275547593832016,0.002169144805520773
1772807471415061000,6.24006103515625,-0.004366785287857056,0.007174023427069187,-0.0017174725653603673
1772807471424993000,6.249992919921875,-0.004735899157822132,0.011114436201751232,-0.003975034225732088
1772807471434925000,6.259925048828125,-0.005616073962301016,0.005845638457685709,-0.0013156015193089843
1772807471444856800,6.26985693359375,-0.0075665730983018875,0.006859770510345697,0.001282045734114945
1772807471454788900,6.279788818359375,-0.0012064119800925255,0.006984139792621136,-0.004542553797364235
1772807471464721000,6.289720947265625,0.0011057445080950856,0.012661999091506004,-0.0020245350897312164
1772807471474652200,6.299652099609375,0.004335093777626753,0.018375545740127563,-0.0005725796218030155
1772807471484584200,6.309584228515625,0.002088450826704502,0.02268746867775917,-0.00042876892257481813
1772807471494516000,6.319515869140625,0.0014479606179520488,0.020429641008377075,-0.0001459412305848673
1772807471504448000,6.329447998046875,0.003067162586376071,0.02219718135893345,-0.0009060074225999415
1772807471514380000,6.339380126953125,0.0020695424173027277,0.024893365800380707,-0.0009321063989773393
1772807471524312000,6.34931201171875,0.000764593540225178,0.02328162081539631,-0.006554571911692619
1772807471534244000,6.359244140625,-0.000737695605494082,0.018009094521403313,-0.00720571493729949
1772807471544176000,6.369176025390625,-0.004737763665616512,0.017362212762236595,-0.008432366885244846
1772807471554108000,6.37910791015625,-0.008979912847280502,0.016393620520830154,-0.0014839133946225047
1772807471564040000,6.3890400390625,-0.008763664402067661,0.015500662848353386,0.005275189410895109
1772807471573972000,6.398971923828125,-0.006973220966756344,0.017014669254422188,0.01477388571947813
1772807471583903000,6.408903076171875,-0.005876531358808279,0.021988656371831894,0.01804238371551037
1772807471593834800,6.418834716796875,-0.005109274294227362,0.024387365207076073,0.017004283145070076
1772807471603767000,6.42876708984375,-0.007269097957760096,0.02479429543018341,0.013733388856053352
1772807471613699000,6.438698974609375,-0.008860869333148003,0.02075481228530407,0.01278423797339201
1772807471623631000,6.448631103515625,-0.007983091287314892,0.025355957448482513,0.007181213703006506
1772807471633563100,6.458563232421875,-0.007767109200358391,0.025604695081710815,0.004757204558700323
1772807471643495200,6.4684951171875,-0.008534099906682968,0.02622814103960991,0.0017281252657994628
1772807471653427000,6.478427001953125,-0.005401156842708588,0.022417956963181496,0.002347842790186405
1772807471663359000,6.48835888671875,-0.00498091010376811,0.019887421280145645,0.007987619377672672
1772807471673291000,6.498291015625,-0.0007744472241029143,0.017347298562526703,0.010270214639604092
1772807471683223000,6.50822314453125,0.0000929443194763735,0.016644224524497986,0.009925601072609425
1772807471693154000,6.518154052734375,0.001294029993005097,0.012436961755156517,0.007400392089039087
1772807471703085800,6.5280859375,-0.0017707358347252011,0.011778628453612328,0.005055745132267475
1772807471713017900,6.538017822265625,0.003442401997745037,0.01101510040462017,-0.004789428785443306
1772807471722950000,6.547949951171875,0.004548945464193821,0.00932292826473713,-0.003925233148038387
1772807471732882000,6.5578818359375,0.003793406533077359,0.006089583970606327,-0.0025246767327189445
1772807471742814000,6.56781396484375,0.0031814121175557375,0.0015907060587778687,-0.00259418529458344
1772807471752746000,6.57774609375,0.005826197564601898,-0.003567037871107459,-0.0004194478678982705
1772807471762678000,6.587677978515625,0.001216265605762601,-0.006833671126514673,0.0033774208277463913
1772807471772610000,6.597610107421875,-0.0008077367674559355,-0.009494967758655548,0.000004793690095539205
1772807471782542000,6.6075419921875,-0.004603273700922728,-0.013679592870175838,-0.0026762105990201235
1772807471792474000,6.61747412109375,-0.0027864654548466206,-0.0142369931563735,-0.004618986509740353
1772807471802404900,6.62740478515625,-0.001579787116497755,-0.007631021551787853,-0.008651012554764748
1772807471812337000,6.6373369140625,-0.004160123877227306,-0.0029944581910967827,-0.01444258913397789
1772807471822269000,6.64726904296875,-0.0020157466642558575,-0.0016857809387147427,-0.01173308864235878
1772807471832201000,6.657200927734375,0.003123888047412038,-0.0012594088912010193,-0.010658237151801586
1772807471842133000,6.667133056640625,-0.002511094557121396,0.0036165728233754635,-0.001395496423356235
1772807471852065000,6.67706494140625,-0.0017052220646291971,-0.002915096003562212,0.009833189658820629
1772807471861996800,6.686996826171875,-0.005507417023181915,-0.002811232814565301,0.010831342078745365
1772807471871928800,6.6969287109375,-0.005249356850981712,-0.005118329077959061,0.009856359101831913
1772807471881860900,6.70686083984375,-0.004064516630023718,-0.003867708845064044,0.009048622101545334
1772807471891793000,6.71679296875,-0.0068267472088336945,0.000949150591623038,0.007044061087071896
1772807471901725000,6.726724853515625,-0.005685849115252495,0.005607285536825657,0.008101069368422031
1772807471911657200,6.7366572265625,-0.0027089675422757864,0.007738879881799221,0.0057409764267504215
1772807471921588000,6.746587890625,-0.003079146845266223,0.006730074528604746,0.0009411611245013773
1772807471931520000,6.75652001953125,-0.0025393241085112095,0.005073588341474533,0.0007123955874703825
1772807471941452000,6.7664521484375,-0.0037015276029706,0.006485862657427788,0.0005720470217056572
1772807471951384000,6.776384033203125,-0.003025883575901389,0.007480020634829998,0.007968977093696594
1772807471961315800,6.78631591796875,-0.005736981518566608,0.01064891554415226,0.013118731789290905
1772807471971247900,6.796247802734375,-0.009660083800554276,0.004479170776903629,0.0065199509263038635
1772807471981180000,6.806179931640625,-0.009846505708992481,0.002538258908316493,-0.00004420847471919842
1772807471991112000,6.81611181640625,-0.013895309530198574,-0.0005568669876083732,0.00031318774563260376
1772807472001044000,6.8260439453125,-0.012752280570566654,-0.0008932242053560913,0.004006459377706051
1772807472010975500,6.8359755859375,-0.01263776421546936,-0.00027270769351162016,0.002666090615093708
1772807472020907500,6.845907470703125,-0.006404103245586157,-0.000010652644050423987,-0.004209924954921007
1772807472030838300,6.85583837890625,-0.00809148233383894,-0.0030509172938764095,-0.004894091282039881
1772807472040770300,6.865770263671875,-0.004970257636159658,-0.004305799026042223,-0.009018794633448124
1772807472050702300,6.875702392578125,-0.0059811933897435665,-0.005608084611594677,-0.009363674558699131
1772807472060634400,6.88563427734375,-0.00267754215747118,-0.004372910596430302,-0.0029497172217816114
1772807472070566400,6.89556640625,-0.004652542527765036,0.0013555489713326097,0.002975283656269312
1772807472080498200,6.905498291015625,-0.005197159014642239,0.0020703414920717478,0.005428054835647345
1772807472090430200,6.91543017578125,-0.00697881355881691,-0.001169394003227353,0.0038093857001513243
1772807472100362200,6.9253623046875,-0.012242019176483154,-0.002180596347898245,0.0049063414335250854
1772807472110294300,6.935294189453125,-0.014700116589665413,-0.0023587618488818407,0.005774265620857477
1772807472120226300,6.945226318359375,-0.012897688895463943,0.005388906225562096,0.010163155384361744
1772807472130158300,6.955158447265625,-0.007433681283146143,0.0119117870926857,0.013941382057964802
1772807472140090000,6.965090087890625,-0.0005462143453769386,0.0156540609896183,0.012397547252476215
1772807472150021400,6.975021484375,0.004472779110074043,0.01612144522368908,0.01053040474653244
1772807472159953400,6.984953369140625,0.00038695731200277805,0.0041004689410328865,0.007130081299692392
1772807472169885400,6.994885498046875,0.0018333201296627522,0.011266502551734447,0.00811891257762909
1772807472179817500,7.0048173828125,-0.00011052118497900665,0.0067934575490653515,0.011932559311389923
1772807472189749200,7.014749267578125,-0.001076715998351574,0.004596083424985409,0.005555620416998863
1772807472199681300,7.024681396484375,-0.004760666750371456,-0.002198705682530999,0.007995075546205044
1772807472209613300,7.03461328125,-0.008320247754454613,-0.006134857889264822,0.004689826630055904
1772807472219545300,7.04454541015625,-0.010704043321311474,-0.006449377164244652,0.0035329493694007397
1772807472229477400,7.054477294921875,-0.01079618837684393,-0.009958624839782715,0.0013435647124424577
1772807472239409200,7.0644091796875,-0.006354568526148796,-0.005188636481761932,0.001683384063653648
1772807472249341200,7.074341064453125,-0.005050418432801962,0.00037710359902121127,-0.0052259210497140884
1772807472259272400,7.0842724609375,-0.004303934518247843,0.002775546396151185,-0.009608685038983822
1772807472269204500,7.09420458984375,0.0012809804175049067,0.005790777504444122,-0.008595352061092854
1772807472279136500,7.104136474609375,-0.0006301039247773588,0.010756507515907288,-0.007275489624589682
1772807472289068300,7.114068359375,-0.0017563547007739544,0.004067978356033564,-0.0062493737787008286
1772807472299000300,7.124000244140625,-0.005477323196828365,0.008855809457600117,-0.0005579322460107505
1772807472308932400,7.133932373046875,-0.003834685543552041,0.0037742317654192448,0.002175003755837679
1772807472318864400,7.143864501953125,-0.005279450677335262,0.009635317139327526,-0.002375007141381502
1772807472328796400,7.15379638671875,-0.006073072552680969,0.005027515348047018,-0.008038219064474106
1772807472338728400,7.163728515625,-0.012762666679918766,-0.003490072675049305,-0.011318434961140156
1772807472348660200,7.17366015625,-0.01691639982163906,-0.013660418801009655,-0.0065132929012179375
1772807472358592300,7.18359228515625,-0.016716130077838898,-0.016399214044213295,0.007684018462896347
1772807472368524300,7.193524169921875,-0.016623452305793762,-0.01398958545178175,0.015535017475485802
1772807472378455300,7.203455322265625,-0.010843326337635517,-0.002141980454325676,0.019224826246500015
1772807472388387300,7.21338720703125,-0.0029284118209034204,0.0068235513754189014,0.018019480630755424
1772807472398319400,7.2233193359375,-0.0031904669012874365,0.013405021280050278,0.013481986708939075
1772807472408251400,7.23325146484375,-0.0012149340473115444,0.021315675228834152,0.008287224918603897
1772807472418183400,7.243183349609375,-0.0034226945135742426,0.018800320103764534,0.011779161170125008
1772807472428115500,7.253115478515625,-0.006678142584860325,0.018038921058177948,0.011393535882234573
1772807472438047500,7.263047607421875,-0.0070525831542909145,0.0130540169775486,0.01882988028228283
1772807472447979300,7.272979248046875,-0.009413208812475204,0.00860254280269146,0.01997610554099083
1772807472457911300,7.282911376953125,-0.011795672588050365,0.0008535431115888059,0.022475481033325195
1772807472467843300,7.29284326171875,-0.013406619429588318,-0.0030511836521327496,0.021402493119239807
1772807472477775400,7.302775390625,-0.014978417195379734,-0.005945773329585791,0.017357151955366135
1772807472487707400,7.312707275390625,-0.014026869088411331,-0.005604356061667204,0.007062170654535294
1772807472497638100,7.32263818359375,-0.00777509855106473,-0.0057526943273842335,0.003463441040366888
1772807472507570200,7.332570068359375,-0.00951068103313446,0.0006026733317412436,-0.0018008295446634293
1772807472517502200,7.342502197265625,-0.0032804817892611027,-0.00020746025256812572,-0.0010295780375599861
1772807472527434200,7.352434326171875,-0.00339153571985662,0.00012250541476532817,0.005275722127407789
1772807472537366300,7.3623662109375,-0.0015960324089974165,-0.003692472819238901,0.003973968792706728
1772807472547298300,7.37229833984375,-0.0018101505702361465,-0.010333864018321037,0.0029963224660605192
1772807472557230300,7.382230224609375,-0.002907373011112213,-0.015204252675175667,-0.0004628573951777071
1772807472567162400,7.392162353515625,-0.0040914141573011875,-0.01690441556274891,0.0016788567882031202
1772807472577094400,7.402094482421875,-0.002098038326948881,-0.01745329238474369,0.0011209244839847088
1772807472587026400,7.4120263671875,-0.004341484978795052,-0.017783258110284805,0.0016615461790934205
1772807472596958500,7.42195849609375,-0.0017547567840665579,-0.013574398122727871,0.0007901599165052176
1772807472606889200,7.43188916015625,-0.003318032482638955,-0.013924870640039444,0.003379285102710128
1772807472616821200,7.4418212890625,-0.0020873856265097857,-0.007558317389339209,0.005604089703410864
1772807472626753300,7.451753173828125,-0.001050084363669157,-0.005274123977869749,0.004608067683875561
1772807472636685300,7.461685302734375,0.0011267834343016148,0.0009395632077939808,-0.003674363251775503
1772807472646617300,7.471617431640625,0.001916144392453134,0.00013369068619795144,-0.006426740437746048
1772807472656549000,7.481549072265625,-0.000636495475191623,-0.0011403656098991632,-0.006705573294311762
1772807472666481200,7.491481201171875,0.00039468047907575965,-0.0007235808880068362,-0.00007217166421469301
1772807472676413200,7.5014130859375,0.0013057478936389089,0.0021044297609478235,-0.0011475561186671257
1772807472686345200,7.51134521484375,-0.0021968416403979063,-0.0001478054327890277,0.0015968313673511147
1772807472696277500,7.521277587890625,-0.0025190841406583786,0.0018844527658075094,0.0038125813007354736
1772807472706209500,7.53120947265625,-0.005858421791344881,0.0007366303470917046,0.009602293372154236
1772807472716141300,7.541141357421875,-0.005026184022426605,0.0012399677652865648,0.014246047474443913
1772807472726072300,7.551072265625,-0.003221892286092043,0.0017204020405188203,0.013037238270044327
1772807472736004400,7.56100439453125,-0.0060323262587189674,0.0052171326242387295,0.010686732828617096
1772807472745936400,7.570936279296875,-0.005646167788654566,0.0027542412281036377,0.007025685161352158
1772807472755868400,7.580868408203125,-0.006075469311326742,0.007349259220063686,0.003210174385458231
1772807472765800200,7.59080029296875,-0.004320446401834488,0.007171626668423414,-0.0020868529099971056
1772807472775732200,7.600732177734375,0.00047643951256759465,0.0071095749735832214,-0.000358461489668116
1772807472785664300,7.610664306640625,-0.0006351639167405665,0.006690925918519497,0.003869839245453477
1772807472795596300,7.62059619140625,-0.0017379788914695382,0.009884854778647423,0.005863481666892767
1772807472805528300,7.6305283203125,-0.0003475425182841718,0.0073196981102228165,0.011631888337433338
1772807472815460000,7.640460205078125,-0.00433136522769928,0.010901116766035557,0.01666979119181633
1772807472825392000,7.65039208984375,-0.0034732946660369635,0.010900584980845451,0.019243469461798668
1772807472835324200,7.66032421875,-0.005053614266216755,0.013025786727666855,0.02033749595284462
1772807472845255400,7.67025537109375,-0.0035718316212296486,0.013892645947635174,0.013942181132733822
1772807472855187500,7.6801875,-0.006594519596546888,0.015488944947719574,0.008364723064005375
1772807472865119200,7.690119140625,-0.00558092026039958,0.014652179554104805,0.0039049931801855564
1772807472875051300,7.70005126953125,-0.0046818372793495655,0.01762213744223118,0.0005243764026090503
1772807472884983300,7.7099833984375,-0.0035031221341341734,0.01967996172606945,-0.00857378076761961
1772807472894915300,7.719915283203125,-0.0017989652696996927,0.022819828242063522,-0.005976133514195681
1772807472904847400,7.729847412109375,0.0017251957906410098,0.023928502574563026,-0.00407543545588851
1772807472914779400,7.739779296875,0.0004900216590613127,0.029649239033460617,-0.002897519152611494
1772807472924711200,7.749711181640625,0.0010000169277191162,0.032763272523880005,-0.0007238471880555153
1772807472934643200,7.759643310546875,-0.0008594020619057119,0.03231213241815567,-0.00384427304379642
1772807472944575200,7.7695751953125,0.0019944412633776665,0.02942100539803505,-0.00977433379739523
1772807472954507300,7.77950732421875,-0.0006106628570705652,0.023568175733089447,-0.0007488809060305357
1772807472964438500,7.7894384765625,0.0005400890368036926,0.018335064873099327,0.004936435259878635
1772807472974370300,7.799370361328125,-0.00041758365114219487,0.015799736604094505,0.011892612092196941
1772807472984302300,7.80930224609375,-0.003555053612217307,0.015558186918497086,0.016887104138731956
1772807472994234400,7.819234375,-0.0016221314435824752,0.012564527802169323,0.01690601371228695
1772807473004166400,7.82916650390625,0.00018801917030941695,0.010784736834466457,0.012487296015024185
1772807473014099000,7.839098876953125,0.0005693838465958834,0.007767908275127411,0.0033127060160040855
1772807473024031000,7.849031005859375,0.0021662150975316763,0.011426026001572609,-0.009660882875323296
1772807473033963000,7.858962890625,0.004761199466884136,0.018512165173888206,-0.014611433260142803
1772807473043895000,7.86889501953125,0.007369765546172857,0.02291996218264103,-0.010398312471807003
1772807473053827000,7.8788271484375,0.011124024167656898,0.06013764068484306,0.039268042892217636
1772807473063758800,7.8887587890625,0.010202836245298386,0.04487719386816025,0.06880329549312592
1772807473073691000,7.89869091796875,0.007211307529360056,0.03887815773487091,0.06570044904947281
1772807473083622000,7.908621826171875,0.00523604080080986,0.019872507080435753,0.04220125079154968
1772807473093554000,7.918553955078125,0.004536162130534649,0.013976535759866238,0.011758388951420784
1772807473103486000,7.92848583984375,0.005505286622792482,0.00962919183075428,0.001936650718562305
1772807473113418000,7.93841796875,0.001071123406291008,0.010743457823991776,0.00881106872111559
1772807473123350000,7.94835009765625,-0.000975782226305455,0.0081527354195714,0.015355254523456097
1772807473133282000,7.958281982421875,0.0008327704854309559,0.012233496643602848,0.025240374729037285
1772807473143214000,7.968214111328125,-0.0016612798208370805,0.0073418025858700275,0.01810496859252453
1772807473153146000,7.97814599609375,-0.0041489386931061745,-0.0020905814599245787,0.0060179452411830425
1772807473163078000,7.988077880859375,-0.002073803450912237,-0.007732488214969635,-0.00999297946691513
1772807473173010000,7.998010009765625,-0.001645567244850099,-0.013857225887477398,-0.02106240764260292
1772807473182942000,8.00794189453125,-0.00015872440417297184,-0.02520575374364853,-0.03700542077422142
1772807473192874000,8.0178740234375,-0.0013693973887711763,-0.029445506632328033,-0.05855678766965866
1772807473202805000,8.027804931640626,-0.008058193139731884,-0.0448811873793602,-0.07913076877593994
1772807473212736800,8.03773681640625,-0.002113218419253826,-0.011419634334743023,-0.05871684104204178
1772807473222668800,8.047668701171874,-0.00042211104300804436,-0.006698116194456816,-0.0144108971580863
1772807473232600800,8.057600830078124,0.003967577591538429,-0.00321896281093359,0.02888278104364872
