time,seconds_elapsed,z,y,x
1772807465237425200,0.062425048828125,0.012872474268078804,0.012360251508653164,0.003683957736939192
1772807465247357200,0.072357177734375,0.011445553041994572,0.014976275153458118,-0.005347620230168104
1772807465257289200,0.082289306640625,0.008563085459172726,0.007235280703753233,-0.007946422323584557
1772807465267221200,0.09222119140625,0.006404060870409012,0.012330438941717148,-0.004590573720633984
1772807465277152000,0.102152099609375,0.005355423782020807,0.015120262280106544,0.004963964689522982
1772807465287084000,0.112083984375,0.0015409779734909534,0.014482168480753899,0.018090419471263885
1772807465297016000,0.12201611328125,0.0009959506569430232,0.015605218708515167,0.035646598786115646
1772807465306948000,0.131947998046875,-0.01245221309363842,0.025161439552903175,0.05390576273202896
1772807465316880100,0.141880126953125,-0.00479294965043664,0.02270958572626114,0.06770341843366623
1772807465326812000,0.15181201171875,0.010125279426574707,0.056501369923353195,0.08900604397058487
1772807465336744200,0.161744140625,0.018347928300499916,0.07268890738487244,0.1266871988773346
1772807465346676200,0.17167626953125,0.02246277965605259,0.08249440044164658,0.16630332171916962
1772807465356607200,0.181607177734375,0.014492863789200783,0.04667883738875389,0.14779026806354523
1772807465366539000,0.1915390625,0.011036080308258533,0.02802019566297531,0.07567985355854034
1772807465376471000,0.201470947265625,0.008337512612342834,0.008279837667942047,-0.013863078318536282
1772807465386403000,0.211403076171875,0.0014255447313189507,-0.019362442195415497,-0.07316714525222778
1772807465396335000,0.221335205078125,0.002591067925095558,-0.016707781702280045,-0.06782910227775574
1772807465406267100,0.23126708984375,0.0024155655410140753,-0.0033517624251544476,-0.02514023333787918
1772807465416199200,0.24119921875,0.006127489265054464,0.0105750672519207,0.017719261348247528
1772807465426131000,0.251130859375,0.008427395485341549,0.016302460804581642,0.02658119611442089
1772807465436062200,0.261062255859375,0.007415791042149067,0.0003867950290441513,0.004924901761114597
1772807465445994200,0.270994140625,0.004371797665953636,-0.01364460214972496,-0.023271314799785614
1772807465455926300,0.28092626953125,0.00482638506218791,-0.02075263485312462,-0.037538930773735046
1772807465465858300,0.2908583984375,0.0074325548484921455,-0.014914185740053654,-0.02986689656972885
1772807465475790000,0.3007900390625,0.011298143304884434,-0.0030749794095754623,-0.01274055428802967
1772807465485722000,0.31072216796875,0.015215919353067875,0.00605433713644743,-0.0019102775258943439
1772807465495654100,0.320654052734375,0.014733613468706608,0.004150282591581345,-0.011803120374679565
1772807465505586200,0.330586181640625,0.01423480361700058,0.002239997498691082,-0.02092418074607849
1772807465515518200,0.340518310546875,0.012741424143314362,-0.006541247479617596,-0.022752614691853523
1772807465525449000,0.350448974609375,0.010553104802966118,0.0009102770127356052,-0.014047274366021156
1772807465535381000,0.360381103515625,0.011420504190027714,0.007446398492902517,0.00047085751430131495
1772807465545313000,0.37031298828125,0.01124793104827404,0.011049654334783554,0.002426949329674244
1772807465555245000,0.3802451171875,0.009931802749633789,0.01129965391010046,0.0006726350402459502
1772807465565177000,0.390177001953125,0.009074796922504902,0.01334735844284296,-0.007046803832054138
1772807465575109000,0.400109130859375,0.0020118248648941517,0.009108707308769226,-0.016200441867113113
1772807465585041200,0.410041259765625,0.002474416047334671,0.0070796445943415165,-0.021249262616038322
1772807465594973200,0.41997314453125,0.0033343443647027016,0.010862205177545547,-0.0187897440046072
1772807465604904200,0.429904296875,0.002951914444565773,0.014387698844075203,-0.012544898316264153
1772807465614836200,0.439836181640625,0.0028475248254835606,0.011927930638194084,-0.0048729535192251205
1772807465624768000,0.44976806640625,0.0024278108030557632,0.014963934198021889,0.0010355358244851232
1772807465634700000,0.459699951171875,0.0011363254161551595,0.01359444297850132,-0.002882865257561207
1772807465644632000,0.469632080078125,0.00016320636495947838,0.015593677759170532,-0.001826921827159822
1772807465654564000,0.479564208984375,0.0011194116668775678,0.01312351319938898,-0.007901325821876526
1772807465664496000,0.48949609375,0.0009407136240042746,0.010268605314195156,-0.016245806589722633
1772807465674428200,0.49942822265625,0.0054418593645095825,0.00608243141323328,-0.026135900989174843
1772807465684359200,0.509359130859375,0.004294036887586117,0.0024693207815289497,-0.02875698357820511
1772807465694291200,0.519291259765625,0.005641593132168055,0.003264607395976782,-0.023408202454447746
1772807465704223200,0.52922314453125,0.004668474197387695,-0.0003716731444001198,-0.015287691727280617
1772807465714155300,0.5391552734375,0.005261298269033432,-0.002610159805044532,-0.010844474658370018
1772807465724087000,0.549087158203125,0.005362498573958874,-0.010903242975473404,-0.013390456326305866
1772807465734019000,0.55901904296875,0.00455915043130517,-0.015280431136488914,-0.017164863646030426
1772807465743951000,0.568951171875,0.004511746112257242,-0.024243034422397614,-0.024760199710726738
1772807465753883100,0.578883056640625,0.0037601981312036514,-0.03030378744006157,-0.02883341535925865
1772807465763815200,0.588815185546875,0.0029047904536128044,-0.03661813959479332,-0.03147314116358757
1772807465773746000,0.598745849609375,0.008591712452471256,-0.043801356106996536,-0.03418868035078049
1772807465783678000,0.608677978515625,0.009326478466391563,-0.046311117708683014,-0.03083416074514389
1772807465793610000,0.61860986328125,0.016592515632510185,-0.05346694961190224,-0.02097620628774166
1772807465803542000,0.6285419921875,0.017148584127426147,-0.06050701439380646,-0.013714030385017395
1772807465813474300,0.638474365234375,0.0173999834805727,-0.06293095648288727,-0.011167160235345364
1772807465823406300,0.64840625,0.01744685508310795,-0.07273085415363312,-0.01905011758208275
1772807465833338000,0.658338134765625,0.01753619872033596,-0.07709955424070358,-0.032778531312942505
1772807465843270100,0.668270263671875,0.02049417234957218,-0.07935018837451935,-0.049158837646245956
1772807465853201200,0.678201171875,0.02274187095463276,-0.0739254578948021,-0.06274184584617615
1772807465863133200,0.68813330078125,0.025355763733386993,-0.06887903064489365,-0.07377452403306961
1772807465873065000,0.69806494140625,0.028572076931595802,-0.06553857773542404,-0.08160741627216339
1772807465882997000,0.7079970703125,0.03287893906235695,-0.059113435447216034,-0.08467111736536026
1772807465892929000,0.717928955078125,0.038170114159584045,-0.05613801255822182,-0.08138042688369751
1772807465902861000,0.727861083984375,0.03752829134464264,-0.06075300648808479,-0.07600589841604233
1772807465912793000,0.73779296875,0.04156244546175003,-0.0546405203640461,-0.06860391050577164
1772807465922725000,0.74772509765625,0.04169560596346855,-0.04045172780752182,-0.062118049710989
1772807465932656000,0.75765625,0.04235205426812172,-0.03146877512335777,-0.05484619364142418
1772807465942588200,0.767588134765625,0.04288708418607712,-0.016023773699998856,-0.0506272129714489
1772807465952520200,0.777520263671875,0.03894641995429993,-0.0056645553559064865,-0.047374431043863297
1772807465962452200,0.7874521484375,0.033213965594768524,0.002186177298426628,-0.045625533908605576
1772807465972384300,0.79738427734375,0.027818402275443077,0.009959644638001919,-0.052933692932128906
1772807465982316000,0.80731591796875,0.019453944638371468,0.018884696066379547,-0.05456168204545975
1772807465992248000,0.817248046875,0.01578078605234623,0.02915329858660698,-0.05631537735462189
1772807466002180000,0.82718017578125,0.007716468535363674,0.04002858325839043,-0.049988240003585815
1772807466012111600,0.837111572265625,0.007355069275945425,0.043093547224998474,-0.040939878672361374
1772807466022042600,0.847042724609375,0.007722319103777409,0.0538250207901001,-0.03894304111599922
1772807466031974700,0.856974609375,0.009120212867856026,0.05467776581645012,-0.03567560762166977
1772807466041906700,0.86690673828125,0.01064673624932766,0.061438728123903275,-0.03525695949792862
1772807466051838700,0.876838623046875,0.011815870180726051,0.06362798810005188,-0.030608592554926872
1772807466061770800,0.886770751953125,0.01512191817164421,0.06480084359645844,-0.02216184511780739
1772807466071702500,0.89670263671875,0.020573943853378296,0.06667474657297134,-0.010691432282328606
1772807466081634600,0.906634521484375,0.020993392914533615,0.06537832319736481,0.004368742927908897
1772807466091566600,0.916566650390625,0.024459224194288254,0.06346826255321503,0.01914520375430584
1772807466101497600,0.92649755859375,0.021437868475914,0.073211170732975,0.01837022416293621
1772807466111429400,0.936429443359375,0.024672411382198334,0.07686567306518555,0.013686434365808964
1772807466121361400,0.946361328125,0.020169006660580635,0.07748592644929886,0.0005016570794396102
1772807466131293400,0.95629345703125,0.021059835329651833,0.08182284981012344,-0.018544916063547134
1772807466141225500,0.9662255859375,0.021876893937587738,0.07367037981748581,-0.03025137260556221
1772807466151157500,0.976157470703125,0.02112533710896969,0.07581629604101181,-0.03261119872331619
1772807466161089500,0.986089599609375,0.02582714892923832,0.07722750306129456,-0.02874561958014965
1772807466171021600,0.996021484375,0.029479023069143295,0.07132969051599503,-0.006423184648156166
1772807466180953600,1.00595361328125,0.022874649614095688,0.08083131164312363,-0.00616033049300313
1772807466190884600,1.015884521484375,0.023559214547276497,0.086647629737854,-0.015107663348317146
1772807466200816600,1.025816650390625,0.023860417306423187,0.08373360335826874,-0.0181932020932436
1772807466210748700,1.035748779296875,0.02545204758644104,0.07906939089298248,-0.024339333176612854
1772807466220680400,1.045680419921875,0.02983560971915722,0.081216961145401,-0.02955007366836071
1772807466230612500,1.055612548828125,0.04036775231361389,0.08638111501932144,-0.027949336916208267
1772807466240544500,1.06554443359375,0.03572213649749756,0.08432089537382126,-0.028103001415729523
1772807466250476500,1.0754765625,0.04004790261387825,0.08585603535175323,-0.025747699663043022
1772807466260408600,1.08540869140625,0.049456849694252014,0.09167424589395523,-0.023523427546024323
1772807466270339600,1.095339599609375,0.050182029604911804,0.09183506667613983,-0.019634857773780823
1772807466280271600,1.105271728515625,0.04960572347044945,0.09537920355796814,-0.02817242033779621
1772807466290203600,1.11520361328125,0.050645552575588226,0.08703140914440155,-0.035195086151361465
1772807466300135700,1.1251357421875,0.04379963129758835,0.08649931102991104,-0.03770405054092407
1772807466310067700,1.135067626953125,0.042930908501148224,0.08650247007608414,-0.037561219185590744
1772807466319999500,1.14499951171875,0.04001261666417122,0.09152732789516449,-0.029545901343226433
1772807466329931500,1.154931640625,0.04116151109337807,0.09153521060943604,-0.02127838507294655
1772807466339863600,1.164863525390625,0.04196418821811676,0.09990553557872772,-0.02165229246020317
1772807466349795600,1.174795654296875,0.03923484683036804,0.09674414992332458,-0.030011335387825966
1772807466359726600,1.1847265625,0.0363871306180954,0.08989743143320084,-0.0424104779958725
1772807466369658400,1.194658447265625,0.03457922860980034,0.08124236762523651,-0.05432199686765671
1772807466379590400,1.20459033203125,0.03693639114499092,0.07755442708730698,-0.05516462028026581
1772807466389522400,1.2145224609375,0.03416804224252701,0.0748184472322464,-0.04596260190010071
1772807466399454700,1.224454833984375,0.035287898033857346,0.07159283757209778,-0.032997533679008484
1772807466409386800,1.23438671875,0.04118094965815544,0.07511979341506958,-0.01521711889654398
1772807466419318800,1.24431884765625,0.03828529641032219,0.08143308013677597,-0.009491322562098503
1772807466429250600,1.25425048828125,0.04041794314980507,0.0826420858502388,-0.01921425387263298
1772807466439181600,1.264181640625,0.040514882653951645,0.08856655657291412,-0.03762708604335785
1772807466449113600,1.274113525390625,0.038167309015989304,0.08418349176645279,-0.054407309740781784
1772807466459045600,1.284045654296875,0.034875109791755676,0.07279635220766068,-0.06094483658671379
1772807466468977700,1.293977783203125,0.027099356055259705,0.060787416994571686,-0.06048864126205444
1772807466478909400,1.303909423828125,0.026744622737169266,0.056065633893013,-0.057420145720243454
1772807466488841500,1.313841552734375,0.026653941720724106,0.06063931807875633,-0.060271501541137695
1772807466498773500,1.3237734375,0.030374377965927124,0.057652320712804794,-0.06606147438287735
1772807466508705500,1.33370556640625,0.027715740725398064,0.05741562321782112,-0.07165536284446716
1772807466518637600,1.343637451171875,0.019601089879870415,0.05297533795237541,-0.07904883474111557
1772807466528568600,1.353568603515625,0.018347276374697685,0.049109164625406265,-0.07669495046138763
1772807466538500600,1.36350048828125,0.014488887041807175,0.05359206348657608,-0.06700503826141357
1772807466548432600,1.3734326171875,0.014107917435467243,0.05869652330875397,-0.054690759629011154
1772807466558364700,1.38336474609375,0.012811224907636642,0.067202128469944,-0.040071602910757065
1772807466568296700,1.393296630859375,0.014988221228122711,0.0606997050344944,-0.025719115510582924
1772807466578228500,1.403228515625,0.014331486076116562,0.05206999555230141,-0.010400612838566303
1772807466588160500,1.413160400390625,0.015404879115521908,0.029615037143230438,-0.0027134886477142572
1772807466598092500,1.423092529296875,0.01736736297607422,0.02108999341726303,0.0067535159178078175
1772807466608023600,1.4330234375,0.01461165864020586,0.020388303324580193,0.010362453758716583
1772807466617955600,1.44295556640625,0.016426604241132736,0.021173136308789253,0.01628931798040867
1772807466627887400,1.452887451171875,0.020257694646716118,0.02581952139735222,0.025331106036901474
1772807466637819600,1.462819580078125,0.02080710604786873,0.028857652097940445,0.02585761249065399
1772807466647751700,1.472751708984375,0.022573575377464294,0.024494845420122147,0.020213665440678596
1772807466657683700,1.48268359375,0.021981555968523026,0.02245219796895981,0.008517860434949398
1772807466667615700,1.49261572265625,0.01822769083082676,0.007413845509290695,-0.0027360357344150543
1772807466677547500,1.502547607421875,0.015141885727643967,-0.01332072727382183,-0.009639747440814972
1772807466687479600,1.5124794921875,0.012481659650802612,-0.01911107264459133,-0.006994964089244604
1772807466697410600,1.52241064453125,0.015023380517959595,-0.020382465794682503,0.0019711002241820097
1772807466707342600,1.532342529296875,0.01821504905819893,-0.02583230659365654,0.014251289889216423
1772807466717274600,1.542274658203125,0.015861347317695618,-0.03192615136504173,0.02464640699326992
1772807466727206400,1.552206298828125,0.014769984409213066,-0.03505152463912964,0.03062378242611885
1772807466737138400,1.562138427734375,0.01671329326927662,-0.031600866466760635,0.024151768535375595
1772807466747070500,1.572070556640625,0.02352379634976387,-0.025760792195796967,0.013685989193618298
1772807466757002500,1.58200244140625,0.029490076005458832,-0.013057513162493706,-0.0027459803968667984
1772807466766934500,1.5919345703125,0.0323251374065876,-0.009724228642880917,-0.025982769206166267
1772807466776865500,1.601865478515625,0.034341417253017426,-0.010077896527945995,-0.040900200605392456
1772807466786797600,1.611797607421875,0.03907398879528046,-0.021887365728616714,-0.05720558390021324
1772807466796729600,1.6217294921875,0.041167765855789185,-0.017920322716236115,-0.06086716428399086
1772807466806661600,1.63166162109375,0.03917253017425537,-0.01609913818538189,-0.06091279163956642
1772807466816593700,1.64159375,0.03427843749523163,-0.02169310860335827,-0.06267260760068893
1772807466826525700,1.651525634765625,0.03159583732485771,-0.01981259137392044,-0.05504496023058891
1772807466836457500,1.66145751953125,0.029980363324284554,-0.002916431985795498,-0.04839478060603142
1772807466846389500,1.671389404296875,0.03013749048113823,0.01662738248705864,-0.03853398188948631
1772807466856321500,1.681321533203125,0.027599496766924858,0.030624957755208015,-0.033129893243312836
1772807466866252500,1.69125244140625,0.02552928775548935,0.030878227204084396,-0.02876444347202778
1772807466876184600,1.7011845703125,0.022875182330608368,0.043870724737644196,-0.03148007020354271
1772807466886116600,1.71111669921875,0.022313250228762627,0.04418427497148514,-0.03498585522174835
1772807466896048600,1.721048583984375,0.02168447896838188,0.0480533167719841,-0.0346689373254776
1772807466905980700,1.730980712890625,0.025086535140872,0.05004254728555679,-0.02760658785700798
1772807466915912700,1.74091259765625,0.019589504227042198,0.048374343663454056,-0.017541170120239258
1772807466925844700,1.7508447265625,0.011377908289432526,0.040004927664995193,0.0004519456415437162
1772807466935776500,1.760776611328125,0.005234794225543737,0.03242797031998634,0.0075553953647613525
1772807466945708500,1.77070849609375,0.0033094685059040785,0.02508881315588951,0.013949643820524216
1772807466955639600,1.7806396484375,0.0012124956119805574,0.020257307216525078,0.016949694603681564
1772807466965571600,1.790571533203125,-0.00038167263846844435,0.01479303278028965,0.02035348117351532
1772807466975503600,1.800503662109375,0.0030159882735460997,0.016690801829099655,0.02703348733484745
1772807466985435400,1.810435302734375,0.0033010817132890224,0.013480030000209808,0.03317943960428238
1772807466995367400,1.820367431640625,0.008689189329743385,0.0155319944024086,0.03698589652776718
1772807467005299700,1.8302998046875,0.010858068242669106,0.02549227699637413,0.03613270819187164
1772807467015231700,1.840231689453125,0.011498824693262577,0.036170486360788345,0.03603789955377579
1772807467025163800,1.850163818359375,0.010761790908873081,0.038243528455495834,0.04093616455793381
1772807467035094800,1.8600947265625,0.005678881891071796,0.046789612621068954,0.038277797400951385
1772807467045026800,1.87002685546875,0.0016601692186668515,0.0437997505068779,0.03378460183739662
1772807467054958800,1.879958740234375,-0.0010996646014973521,0.04606982693076134,0.02733548916876316
1772807467064890600,1.889890625,-0.004313429817557335,0.04015975818037987,0.0315844751894474
1772807467074822700,1.89982275390625,-0.009691417217254639,0.0397067554295063,0.03342472016811371
1772807467084754700,1.909754638671875,-0.010192222893238068,0.03723320737481117,0.031217223033308983
1772807467094686700,1.919686767578125,-0.010229772888123989,0.03160754591226578,0.024559054523706436
1772807467104618800,1.92961865234375,-0.007274598348885775,0.02944236993789673,0.01084599457681179
1772807467114550800,1.93955078125,-0.00608709454536438,0.028680704534053802,-0.003031470812857151
1772807467124481800,1.949481689453125,-0.0025393692776560783,0.02713368833065033,-0.009975927881896496
1772807467134413800,1.959413818359375,-0.0009092485997825861,0.03026796132326126,-0.010654767975211143
1772807467144345900,1.969345947265625,0.0022796252742409706,0.020328115671873093,-0.005008512642234564
1772807467154278000,1.97927783203125,0.001355241984128952,0.016651887446641922,0.004432659596204758
1772807467164210000,1.9892099609375,0.001661239773966372,0.01174231804907322,0.008560380898416042
1772807467174141700,1.9991416015625,0.0017672335961833596,0.00829405803233385,0.01608993671834469
1772807467184073700,2.00907373046875,0.001858447678387165,-0.0037284893915057182,0.019681386649608612
1772807467194005800,2.019005859375,0.002273900667205453,-0.010155496187508106,0.019347691908478737
1772807467203936800,2.028936767578125,0.0011552398791536689,-0.018568512052297592,0.01563551276922226
1772807467213868800,2.038868896484375,0.008162548765540123,-0.017178606241941452,0.015975864604115486
1772807467223800600,2.048800537109375,0.00873605627566576,-0.017186788842082024,0.013806010596454144
1772807467233732600,2.058732666015625,0.007843097671866417,-0.008806620724499226,0.013733306899666786
1772807467243664600,2.06866455078125,0.013239465653896332,0.00022316863760352135,0.013910938054323196
1772807467253596700,2.0785966796875,0.0158136785030365,0.005949231330305338,0.01414316613227129
1772807467263528700,2.08852880859375,0.009413030929863453,0.006228255573660135,0.00920779723674059
1772807467273460700,2.098460693359375,0.010616780258715153,-0.0033540644217282534,0.0017786428797990084
1772807467283392800,2.108392822265625,0.00600485410541296,-0.010725908912718296,-0.008069371804594994
1772807467293323800,2.11832373046875,0.006889555603265762,-0.018029894679784775,-0.017523327842354774
1772807467303255800,2.128255859375,0.004213080741465092,-0.023653754964470863,-0.028538251295685768
1772807467313187800,2.138187744140625,0.004667948465794325,-0.02169846184551716,-0.036588188260793686
1772807467323119600,2.14811962890625,0.008540051057934761,-0.020586444064974785,-0.03454199433326721
1772807467333051600,2.1580517578125,0.010250600054860115,-0.014410573057830334,-0.03195366635918617
1772807467342983700,2.167983642578125,0.010868583805859089,-0.008105592802166939,-0.027319056913256645
1772807467352915700,2.177915771484375,0.01596321165561676,-0.0022881836630403996,-0.02041720785200596
1772807467362847700,2.18784765625,0.02036035992205143,-0.004647723864763975,-0.019700907170772552
1772807467372779800,2.19777978515625,0.020495114848017693,-0.006691167131066322,-0.01435993704944849
1772807467382710800,2.207710693359375,0.019529318436980247,-0.006899659987539053,-0.01641385443508625
1772807467392642800,2.217642822265625,0.015108738094568253,-0.00948399119079113,-0.023402787744998932
1772807467402574800,2.227574951171875,0.01021677814424038,-0.013992251828312874,-0.025769628584384918
1772807467412507000,2.2375068359375,0.008821815252304077,-0.01974654383957386,-0.023326978087425232
1772807467422438700,2.247438720703125,0.008467481471598148,-0.022542806342244148,-0.01834970712661743
1772807467432370700,2.25737060546875,0.007152146194130182,-0.023776914924383163,-0.010114680975675583
1772807467442302700,2.267302734375,0.006328164134174585,-0.019201811403036118,-0.0057667153887450695
1772807467452234800,2.27723486328125,0.0011576367542147636,-0.020258285105228424,0.0018944002222269773
1772807467462165800,2.287165771484375,-0.002562932437285781,-0.019036073237657547,0.013854657299816608
1772807467472097500,2.29709765625,-0.004466027487069368,-0.01941930130124092,0.0246718842536211
1772807467482029600,2.307029541015625,-0.004805315285921097,-0.00993965845555067,0.024191629141569138
1772807467491961600,2.316961669921875,-0.0043184892274439335,-0.0009823823347687721,0.02311651036143303
1772807467501893600,2.3268935546875,0.0023713719565421343,0.0000128098763525486,0.011439968831837177
1772807467511826000,2.336825927734375,0.00003870914224535227,0.000701503362506628,0.005839873570948839
1772807467521758000,2.346758056640625,-0.0027019516564905643,-0.002481180476024747,-0.001172673306427896
1772807467531689700,2.356689697265625,-0.005873510148376226,-0.010067727416753769,-0.00209465972147882
1772807467541621800,2.366621826171875,-0.004142056219279766,-0.014367781579494476,0.0046392325311899185
1772807467551552800,2.376552734375,-0.004791068844497204,-0.006231292150914669,0.008488565683364868
1772807467561484800,2.38648486328125,-0.008960379287600517,-0.008168598636984825,0.008953907527029514
1772807467571416800,2.396416748046875,-0.008830150589346886,-0.00994492694735527,0.0034656652715057135
1772807467581348600,2.4063486328125,-0.010857081972062588,-0.014961732551455498,-0.009746721014380455
1772807467591280600,2.41628076171875,-0.014557544142007828,-0.035157814621925354,-0.024477463215589523
1772807467601212700,2.426212646484375,-0.016520027071237564,-0.043340083211660385,-0.03526388481259346
1772807467611144700,2.436144775390625,-0.015914157032966614,-0.05335010588169098,-0.037214916199445724
1772807467621076700,2.44607666015625,-0.011528996750712395,-0.05272074043750763,-0.02246810868382454
1772807467631008500,2.456008544921875,-0.005667379125952721,-0.05368400737643242,-0.004308279138058424
1772807467640939800,2.465939697265625,-0.00003053422551602125,-0.05305061116814613,0.013301074504852295
1772807467650871800,2.475871826171875,0.005287798587232828,-0.05488286539912224,0.022195499390363693
1772807467660803800,2.485803955078125,0.008149232715368271,-0.055857498198747635,0.008885553106665611
1772807467670736000,2.49573583984375,0.00693962536752224,-0.06374737620353699,-0.011382966302335262
1772807467680667600,2.505667724609375,0.005750390700995922,-0.07481056451797485,-0.03739121928811073
1772807467690599700,2.515599609375,-0.0032074181362986565,-0.08424028009176254,-0.05962168797850609
1772807467700531700,2.52553173828125,-0.0019654538482427597,-0.08622226864099503,-0.07275275886058807
1772807467710463700,2.535463623046875,-0.003979602828621864,-0.09084365516901016,-0.07179029285907745
1772807467720395800,2.545395751953125,-0.0022791726514697075,-0.08687086403369904,-0.05655399709939957
1772807467730326500,2.555326416015625,-0.003777999896556139,-0.08548629283905029,-0.039448514580726624
1772807467740258800,2.5652587890625,0.002423437312245369,-0.07822418212890625,-0.016254065558314323
1772807467750190800,2.57519091796875,0.0013584390981122851,-0.06861762702465057,0.003829896915704012
1772807467760123000,2.585122802734375,0.00586064625531435,-0.06358729302883148,0.02014743909239769
1772807467770055000,2.595054931640625,0.000033649615943431854,-0.05679836496710777,0.03130368888378143
1772807467779986700,2.604986572265625,-0.004331005271524191,-0.05583164095878601,0.03410613536834717
1772807467789918700,2.614918701171875,-0.007470339071005583,-0.058920640498399734,0.03162379935383797
1772807467799850800,2.624850830078125,-0.010349082760512829,-0.055549461394548416,0.014580722898244858
1772807467809782800,2.63478271484375,-0.013350998051464558,-0.05573588237166405,-0.0012717432109639049
1772807467819713800,2.6447138671875,-0.01117812842130661,-0.06218327209353447,-0.00939553789794445
1772807467829645600,2.6546455078125,-0.011451900005340576,-0.05919200927019119,-0.013201195746660233
1772807467839577600,2.66457763671875,-0.011028856039047241,-0.057630546391010284,-0.01115446723997593
1772807467849509600,2.674509521484375,-0.009323632344603539,-0.04720000922679901,-0.0055490462109446526
1772807467859441700,2.684441650390625,-0.004197048954665661,-0.03970208019018173,0.00016751809744164348
1772807467869373700,2.694373779296875,-0.005035944748669863,-0.02838045172393322,0.002965168794617057
1772807467879305700,2.7043056640625,-0.008316027000546455,-0.024139637127518654,0.0014479656238108873
1772807467889237800,2.71423779296875,-0.01382078044116497,-0.01887509971857071,-0.0050714523531496525
1772807467899168800,2.724168701171875,-0.01571469008922577,-0.011549803428351879,-0.0018426355673000216
1772807467909100800,2.734100830078125,-0.01747051253914833,-0.01393040269613266,-0.005469328258186579
1772807467919032800,2.74403271484375,-0.017262252047657967,-0.010800838470458984,0.0036112512461841106
1772807467928964900,2.75396484375,-0.01171568501740694,-0.00040359143167734146,0.021398505195975304
1772807467938896600,2.763896728515625,-0.010946963913738728,-0.010795511305332184,0.02462359331548214
1772807467948828700,2.77382861328125,-0.010069452226161957,0.0018944512121379375,0.04070029780268669
1772807467958760700,2.7837607421875,-0.013666050508618355,-0.011283492669463158,0.03883102536201477
1772807467968692700,2.793692626953125,-0.013167772442102432,-0.003883633529767394,0.041798852384090424
1772807467978624800,2.803624755859375,-0.016219621524214745,-0.013830391690135002,0.04478327929973602
1772807467988555800,2.8135556640625,-0.021259920671582222,-0.01647358015179634,0.04898814484477043
1772807467998487800,2.82348779296875,-0.022369129583239555,-0.02565680630505085,0.05154220387339592
1772807468008419800,2.833419921875,-0.02486610785126686,-0.025927383452653885,0.05393638461828232
1772807468018351900,2.843351806640625,-0.023110952228307724,-0.027114594355225563,0.052188728004693985
1772807468028284000,2.853283935546875,-0.027392782270908356,-0.03719305992126465,0.049721576273441315
1772807468038215700,2.863215576171875,-0.03139990568161011,-0.03857811167836189,0.04890061169862747
1772807468048147700,2.873147705078125,-0.03477040305733681,-0.035644639283418655,0.034300364553928375
1772807468058079700,2.883079833984375,-0.04524834826588631,-0.041559070348739624,0.015649449080228806
1772807468068011800,2.89301171875,-0.05008145421743393,-0.03106808103621006,-0.004188969265669584
1772807468077943800,2.90294384765625,-0.05642576515674591,-0.02312692254781723,-0.0110912611708045
1772807468087874600,2.91287451171875,-0.05902128294110298,-0.013989884406328201,0.004552412778139114
1772807468097806600,2.922806640625,-0.05437353253364563,0.0032280716113746166,0.026954924687743187
1772807468107738600,2.932738525390625,-0.05581536889076233,0.013221848756074905,0.041134923696517944
1772807468117670700,2.942670654296875,-0.053095217794179916,0.007158517837524414,0.06540387123823166
1772807468127602700,2.952602783203125,-0.058075595647096634,0.001500365324318409,0.08705190569162369
1772807468137535000,2.962534912109375,-0.053260330110788345,-0.002888113958761096,0.09383133798837662
1772807468147466800,2.972466796875,-0.051026470959186554,-0.0025988947600126266,0.09561005979776382
1772807468157398800,2.982398681640625,-0.047547053545713425,0.002499817870557308,0.08986056596040726
1772807468167329800,2.992329833984375,-0.0477081723511219,0.00630467664450407,0.08675558865070343
1772807468177261800,3.00226171875,-0.04334205389022827,0.00639383215457201,0.08642259985208511
1772807468187193600,3.012193603515625,-0.040483683347702026,0.008121425285935402,0.0849301666021347
1772807468197125600,3.022125732421875,-0.04067889228463173,0.011915657669305801,0.09013496339321136
1772807468207057700,3.0320576171875,-0.04117317497730255,0.0074434126727283,0.10135805606842041
1772807468216989700,3.04198974609375,-0.04286721348762512,0.005597841460257769,0.10833074152469635
1772807468226921700,3.051921630859375,-0.047226808965206146,0.0028712977655231953,0.10500871390104294
1772807468236853800,3.061853759765625,-0.048991549760103226,0.01581103354692459,0.09850908815860748
1772807468246785500,3.07178564453125,-0.04967491701245308,0.008608515374362469,0.07658674567937851
1772807468256716800,3.081716796875,-0.04752414673566818,0.01278405636548996,0.06314772367477417
1772807468266648800,3.09164892578125,-0.04045265540480614,0.00863644853234291,0.049042291939258575
1772807468276580900,3.101580810546875,-0.028507981449365616,0.017149008810520172,0.04459206387400627
1772807468286513000,3.111512939453125,-0.02070225588977337,0.026124129071831703,0.04498780891299248
1772807468296444700,3.121444580078125,-0.017855070531368256,0.029447780922055244,0.05475219711661339
1772807468306376700,3.131376708984375,-0.02198110707104206,0.037514496594667435,0.06548793613910675
1772807468316308700,3.141308837890625,-0.02037508599460125,0.044494614005088806,0.07468285411596298
1772807468326240800,3.15124072265625,-0.019097302109003067,0.05322125554084778,0.07611536979675293
1772807468336172800,3.1611728515625,-0.013712256215512753,0.06203797832131386,0.07253563404083252
1772807468346104600,3.1711044921875,-0.006798957008868456,0.06761063635349274,0.06367422640323639
1772807468356035600,3.18103564453125,-0.009255189448595047,0.06584905087947845,0.05437660589814186
1772807468365968000,3.1909677734375,-0.02816496416926384,0.0540030412375927,0.04340704530477524
1772807468375900000,3.20089990234375,-0.038049422204494476,0.03741445019841194,0.03664590045809746
1772807468385832000,3.21083203125,-0.04747168719768524,0.029426831752061844,0.0508088581264019
1772807468395763700,3.220763671875,-0.05231238156557083,0.014681942760944366,0.06403712928295135
1772807468405695700,3.23069580078125,-0.05219839885830879,0.015644144266843796,0.06925027072429657
1772807468415627800,3.240627685546875,-0.0514063723385334,0.01984960027039051,0.06691636890172958
1772807468425559800,3.250559814453125,-0.047643061727285385,0.011618569493293762,0.05053286626935005
1772807468435491800,3.260491943359375,-0.04379452392458916,0.017943013459444046,0.04802771657705307
1772807468445422600,3.270422607421875,-0.04362275078892708,0.0007594991475343704,0.046736881136894226
1772807468455354600,3.280354736328125,-0.04432583227753639,0.006636336911469698,0.05953914299607277
1772807468465286700,3.29028662109375,-0.039767298847436905,-0.0026935155037790537,0.07514820247888565
1772807468475218700,3.30021875,-0.04253897815942764,-0.008664037100970745,0.084515780210495
1772807468485150700,3.310150634765625,-0.045682042837142944,-0.01635551266372204,0.08581167459487915
1772807468495082800,3.320082763671875,-0.052364710718393326,-0.033804334700107574,0.07950654625892639
1772807468505014800,3.330014892578125,-0.05437672883272171,-0.04370756447315216,0.06698489934206009
1772807468514946800,3.33994677734375,-0.06149589270353317,-0.03851461037993431,0.06180833280086517
1772807468524878800,3.34987890625,-0.050797976553440094,-0.04338313639163971,0.06518149375915527
1772807468534809900,3.359809814453125,-0.042200226336717606,-0.03240004926919937,0.06457474082708359
1772807468544741600,3.36974169921875,-0.02784472145140171,-0.028099045157432556,0.07457730174064636
1772807468554673700,3.379673583984375,-0.016594327986240387,-0.025491604581475258,0.09036842733621597
1772807468564605700,3.389605712890625,-0.015358089469373226,-0.029970774427056313,0.10254466533660889
1772807468574537700,3.399537841796875,-0.018924327567219734,-0.04321322590112686,0.1011165902018547
1772807468584469800,3.4094697265625,-0.033123768866062164,-0.06419306993484497,0.10066864639520645
1772807468594401800,3.41940185546875,-0.04761815816164017,-0.098724864423275,0.09588267654180527
1772807468604333600,3.42933349609375,-0.0625411793589592,-0.10328153520822525,0.09321419149637222
1772807468614265600,3.439265625,-0.07041841000318527,-0.1127830371260643,0.09483330696821213
1772807468624196900,3.44919677734375,-0.06920427829027176,-0.11562623083591461,0.088678739964962
1772807468634129000,3.45912890625,-0.06335997581481934,-0.10066420584917068,0.0681062638759613
1772807468644061000,3.46906103515625,-0.06095566973090172,-0.10094117373228073,0.058497048914432526
1772807468653992700,3.47899267578125,-0.05489697679877281,-0.08379074186086655,0.06659403443336487
1772807468663924700,3.4889248046875,-0.0412093922495842,-0.06856917589902878,0.07195231318473816
1772807468673856800,3.498856689453125,-0.02582963928580284,-0.05930487439036369,0.07572024315595627
1772807468683788800,3.508788818359375,-0.018223118036985397,-0.053661104291677475,0.07252950966358185
1772807468693720800,3.518720947265625,-0.017281031236052513,-0.0447622612118721,0.07277541607618332
1772807468703652600,3.528652587890625,-0.020487742498517036,-0.0507810041308403,0.08178462088108063
1772807468713584600,3.538584716796875,-0.02815231867134571,-0.06415191292762756,0.09402041882276535
1772807468723515600,3.548515625,-0.03830854967236519,-0.062171582132577896,0.08431213349103928
1772807468733447700,3.55844775390625,-0.050319939851760864,-0.056214384734630585,0.07158950716257095
1772807468743379700,3.568379638671875,-0.05681006237864494,-0.046052563935518265,0.05368800088763237
1772807468753311700,3.578311767578125,-0.05827334150671959,-0.0521167516708374,0.03960733860731125
1772807468763243800,3.588243896484375,-0.05894792079925537,-0.04417067766189575,0.03520939499139786
1772807468773175800,3.59817578125,-0.05503959208726883,-0.04602617025375366,0.032138679176568985
1772807468783107800,3.60810791015625,-0.04529481753706932,-0.04602803289890289,0.01832965575158596
1772807468793040000,3.618039794921875,-0.029722249135375023,-0.03392568603157997,0.008506673388183117
1772807468802972000,3.627971923828125,-0.01592734083533287,-0.017513159662485123,0.007755396421998739
1772807468812902700,3.637902587890625,-0.019952986389398575,-0.021792041137814522,0.02372158132493496
1772807468822834700,3.647834716796875,-0.022710688412189484,-0.026634998619556427,0.05316735431551933
1772807468832766700,3.6577666015625,-0.034031908959150314,-0.03782479092478752,0.07719376683235168
1772807468842698800,3.66769873046875,-0.04136066138744354,-0.041577719151973724,0.08927520364522934
1772807468852630800,3.677630859375,-0.047065019607543945,-0.0504617877304554,0.0802793949842453
1772807468862562600,3.6875625,-0.047667160630226135,-0.04954326152801514,0.0564744658768177
1772807468872494600,3.69749462890625,-0.04697048291563988,-0.05009683966636658,0.03962571173906326
1772807468882426600,3.707426513671875,-0.0402555875480175,-0.04747255891561508,0.02534797228872776
1772807468892358700,3.717358642578125,-0.030074451118707657,-0.04602954909205437,0.016207382082939148
1772807468902289700,3.72728955078125,-0.017064109444618225,-0.04148672893643379,0.018301691859960556
1772807468912221700,3.7372216796875,-0.010849492624402046,-0.036024078726768494,0.02425447851419449
1772807468922153700,3.74715380859375,-0.006157003343105316,-0.03755246847867966,0.044570401310920715
1772807468932085800,3.757085693359375,-0.0069142719730734825,-0.03365688398480415,0.03869626671075821
1772807468942017800,3.767017822265625,-0.01054043136537075,-0.0414719320833683,0.0163174606859684
1772807468951949800,3.77694970703125,-0.014704020693898201,-0.05193903669714928,0.008544225245714188
1772807468961881600,3.786881591796875,-0.01328642014414072,-0.04730859771370888,-0.014784267172217369
1772807468971813600,3.796813720703125,-0.008033473044633865,-0.0509757325053215,-0.04332651570439339
1772807468981745700,3.80674560546875,-0.0035564331337809563,-0.05666051805019379,-0.05211761221289635
1772807468991677700,3.816677734375,0.003432369790971279,-0.06099916622042656,-0.04613961651921272
1772807469001609000,3.82660888671875,0.0073368302546441555,-0.06321091949939728,-0.024013273417949677
1772807469011541200,3.836541259765625,0.012137982062995434,-0.05592147260904312,-0.004891067743301392
1772807469021473300,3.846473388671875,0.009470026940107346,-0.048063017427921295,0.0070846350863575935
1772807469031405300,3.8564052734375,0.006252121180295944,-0.04360611364245415,0.004189780447632074
1772807469041337300,3.86633740234375,-0.001416717073880136,-0.03160431236028671,-0.010632308200001717
1772807469051269400,3.876269287109375,-0.0016001996118575335,-0.012991496361792088,-0.027644317597150803
1772807469061201400,3.886201416015625,-0.008787538856267929,-0.009993841871619225,-0.03958273306488991
1772807469071133200,3.89613330078125,-0.007684329524636269,-0.007613559253513813,-0.05485258996486664
1772807469081065200,3.906065185546875,-0.0038469803985208273,0.003335228655487299,-0.06479469686746597
1772807469090996200,3.915996337890625,-0.006141963880509138,0.011041950434446335,-0.06250349432229996
1772807469100928300,3.92592822265625,-0.002213801257312298,0.01474507711827755,-0.03633181378245354
1772807469110860300,3.9358603515625,-0.001521904836408794,0.025107836350798607,-0.012593906372785568
1772807469120792000,3.9457919921875,-0.008955053985118866,0.026501202955842018,0.008630155585706234
1772807469130724000,3.95572412109375,-0.015251699835062027,0.02553509920835495,0.02109934203326702
1772807469140656000,3.96565625,-0.022028911858797073,0.03437013551592827,0.02910640276968479
1772807469150588200,3.975588134765625,-0.0281472597271204,0.04208850860595703,0.025987841188907623
1772807469160518100,3.98551806640625,-0.031070878729224205,0.03870949149131775,0.016985025256872177
1772807469170450200,3.9954501953125,-0.026753636077046394,0.040705133229494095,0.00968840904533863
1772807469180382200,4.00538232421875,-0.022737322375178337,0.04653292894363403,0.005045188590884209
1772807469190314200,4.015314208984375,-0.013664588332176208,0.0555003359913826,0.007418240886181593
1772807469200246300,4.025246337890625,-0.010388634167611599,0.05684390291571617,0.016889240592718124
1772807469210178000,4.035177978515625,-0.009803003631532192,0.057671934366226196,0.0272988248616457
1772807469220110000,4.045110107421875,-0.008452780544757843,0.05864398181438446,0.03446273133158684
1772807469230042000,4.0550419921875,-0.009746548719704151,0.05285336449742317,0.04041817784309387
1772807469239973400,4.064973388671875,-0.010422725230455399,0.046069495379924774,0.03684395179152489
1772807469249905400,4.074905517578125,-0.008603380993008614,0.04592147469520569,0.027851078659296036
1772807469259837200,4.084837158203125,-0.009554395452141762,0.051426228135824203,0.020325783640146255
1772807469269769200,4.094769287109375,-0.004700124729424715,0.04509557783603668,0.011551644653081894
1772807469279701200,4.104701171875,-0.002646028995513916,0.03955087810754776,0.007406700402498245
1772807469289633300,4.11463330078125,-0.0004069753922522068,0.03712248429656029,0.0019102912629023194
1772807469299565300,4.1245654296875,-0.00020537420641630888,0.03784073889255524,-0.009054741822183132
1772807469309497300,4.134497314453125,0.0014634995022788644,0.04137365520000458,-0.014484838582575321
1772807469319429000,4.14442919921875,0.0024749680887907743,0.0397171676158905,-0.02119733765721321
1772807469329361200,4.154361083984375,0.0020131696946918964,0.03906988352537155,-0.023905593901872635
1772807469339292200,4.164292236328125,0.0029838918708264828,0.04105953127145767,-0.031110510230064392
1772807469349224400,4.174224365234375,-0.0001326733035966754,0.03820420801639557,-0.036821745336055756
1772807469359156200,4.18415625,0.0025994637981057167,0.04060771316289902,-0.041703853756189346
1772807469369088300,4.194088134765625,0.0033143917098641396,0.04183773323893547,-0.04798012599349022
1772807469379020300,4.204020263671875,0.007014321628957987,0.045533400028944016,-0.04941849783062935
1772807469388952300,4.213952392578125,0.010335154831409454,0.04197058826684952,-0.052858948707580566
1772807469398884400,4.22388427734375,0.012550106272101402,0.04108775034546852,-0.05660441890358925
1772807469408816400,4.23381640625,0.014245737344026566,0.03875979781150818,-0.05451543256640434
1772807469418748200,4.243748046875,0.011125843971967697,0.020007416605949402,-0.04378662258386612
1772807469428679200,4.25367919921875,0.012163807637989521,0.016109973192214966,-0.03360136225819588
1772807469438611200,4.263611083984375,0.00926975067704916,0.01191948913037777,-0.03152969107031822
1772807469448543200,4.273543212890625,0.011418918147683144,0.01332904864102602,-0.03503050282597542
1772807469458475300,4.283475341796875,0.011110258288681507,0.010134854353964329,-0.04152728244662285
1772807469468407000,4.293406982421875,0.008057085797190666,0.009175889194011688,-0.048211198300123215
1772807469478339000,4.303339111328125,0.005249049514532089,0.009165236726403236,-0.05457349121570587
1772807469488271400,4.313271240234375,0.00826188176870346,0.013690689578652382,-0.05483110621571541
1772807469498203400,4.323203369140625,0.005621889606118202,0.017324840649962425,-0.04523467272520065
1772807469508135400,4.333135498046875,0.01023461576551199,0.020323652774095535,-0.030903402715921402
1772807469518067200,4.343067138671875,0.012190974317491055,0.025430530309677124,-0.022840682417154312
1772807469527998200,4.352998291015625,0.016199300065636635,0.021605219691991806,-0.02255563624203205
1772807469537931300,4.36293115234375,0.015342561528086662,0.015645330771803856,-0.021018194034695625
1772807469547863300,4.37286328125,0.017621560022234917,0.013274172320961952,-0.025936609134078026
1772807469557795300,4.38279541015625,0.01577252894639969,0.012348989024758339,-0.0198891032487154
1772807469567727400,4.392727294921875,0.014510324224829674,0.011915840208530426,-0.021336974576115608
1772807469577659100,4.4026591796875,0.011854087002575397,0.012712925672531128,-0.01996251754462719
1772807469587591200,4.412591064453125,0.008383320644497871,0.018709124997258186,-0.025270996615290642
1772807469597523200,4.422523193359375,0.012059814296662807,0.0237859096378088,-0.03096882998943329
1772807469607455200,4.432455322265625,0.01055047009140253,0.020957833155989647,-0.03545314818620682
1772807469617387300,4.44238720703125,0.00514984643086791,0.016391044482588768,-0.04009237512946129
1772807469627318000,4.452318115234375,0.0023711048997938633,0.00901278480887413,-0.03714700788259506
1772807469637250300,4.462250244140625,0.00011940213153138757,0.012736950069665909,-0.03123106248676777
1772807469647182300,4.472182373046875,0.006969981826841831,0.014143694192171097,-0.032016072422266006
1772807469657114400,4.4821142578125,0.008314612321555614,0.01451999880373478,-0.028233319520950317
1772807469667046400,4.49204638671875,0.008288241922855377,0.008351239375770092,-0.02295573242008686
1772807469676978400,4.501978515625,0.0030825610738247633,0.0034819161519408226,-0.013899652287364006
1772807469686910200,4.51191015625,0.0030183836352080107,-0.00297190947458148,-0.002858453895896673
1772807469696842200,4.52184228515625,-0.0006748881423845887,-0.004583654459565878,-0.0006986303487792611
1772807469706774300,4.531774169921875,0.004211742896586657,0.0008238404989242554,-0.0013967329869046807
1772807469716705300,4.541705322265625,0.002351525239646435,-0.0008542174473404884,-0.0074186730198562145
1772807469726637000,4.551636962890625,0.0008392465533688664,0.004894843325018883,-0.021875109523534775
1772807469736569000,4.561569091796875,0.008439908735454082,0.006244266405701637,-0.03437359258532524
1772807469746501000,4.571501220703125,0.009481468237936497,0.005687108263373375,-0.04100876674056053
1772807469756433200,4.58143310546875,0.012591508217155933,0.0032109012827277184,-0.034768447279930115
1772807469766365200,4.591365234375,0.017533013597130775,0.007224177476018667,-0.024508357048034668
1772807469776297200,4.601297119140625,0.015243226662278175,0.0021295505575835705,-0.015987839549779892
1772807469786229200,4.611229248046875,0.013148777186870575,0.008962434716522694,-0.012273525819182396
1772807469796161300,4.621161376953125,0.008098091930150986,0.004644651897251606,-0.014097524806857109
1772807469806093300,4.63109326171875,0.009669485501945019,-0.004888329189270735,-0.01629534363746643
1772807469816024300,4.6410244140625,0.0025420673191547394,-0.0065229772590100765,-0.01517788041383028
1772807469825956400,4.650956298828125,0.00007319246651604772,-0.004871835000813007,-0.012312054634094238
1772807469835888000,4.66088818359375,0.0016167606227099895,0.004707289393991232,-0.010925878770649433
1772807469845820200,4.670820068359375,0.002673631999641657,0.014164241030812263,-0.012156968005001545
1772807469855752200,4.680752197265625,0.00529338326305151,0.02395082637667656,-0.022733712568879128
1772807469865684200,4.690684326171875,0.011094014160335064,0.030972514301538467,-0.028329547494649887
1772807469875616300,4.7006162109375,0.011370716616511345,0.03940914571285248,-0.02503122203052044
1772807469885548300,4.71054833984375,0.009518892504274845,0.038613323122262955,-0.011567434296011925
1772807469895480000,4.72047998046875,0.009618228301405907,0.046793222427368164,0.004111926537007093
1772807469905412000,4.730412109375,0.010458719916641712,0.054987479001283646,0.012198437936604023
1772807469915343400,4.74034326171875,0.006526562850922346,0.06300918757915497,0.018204398453235626
1772807469925275400,4.750275390625,0.0043214596807956696,0.059552859514951706,0.02021508663892746
1772807469935207200,4.760207275390625,-0.0024975640699267387,0.06016485020518303,0.011382179334759712
1772807469945139200,4.77013916015625,-0.004481479525566101,0.06221757456660271,0.005837832577526569
1772807469955071200,4.7800712890625,-0.008384075947105885,0.06448578834533691,-0.001359626417979598
1772807469965003300,4.790003173828125,-0.008092346601188183,0.06416426599025726,-0.002991784829646349
1772807469974935300,4.799935302734375,-0.008393816649913788,0.06297595798969269,-0.002171264961361885
1772807469984867300,4.809867431640625,-0.0066313170827925205,0.06717649847269058,-0.001260645454749465
1772807469994799000,4.819799072265625,-0.0055476767010986805,0.06751684844493866,-0.004423682112246752
1772807470004731100,4.829731201171875,-0.0034136916510760784,0.0713416039943695,0.0006381895509548485
1772807470014662100,4.839662109375,-0.0007990001467987895,0.07807300984859467,0.005936282221227884
1772807470024594200,4.84959423828125,0.002202387899160385,0.07752927392721176,0.008863894268870354
1772807470034526200,4.859526123046875,0.006225092802196741,0.0710974708199501,0.009846334345638752
1772807470044458200,4.869458251953125,0.006014168728142977,0.06905294209718704,0.014274194836616516
1772807470054390000,4.87939013671875,0.005347047001123428,0.0648435428738594,0.020933162420988083
1772807470064322000,4.889322021484375,0.0008803785312920809,0.061283815652132034,0.030422542244195938
1772807470074254000,4.899254150390625,0.00036266003735363483,0.0517350509762764,0.02934742346405983
1772807470084186000,4.90918603515625,-0.003041371703147888,0.04472826421260834,0.028315622359514236
1772807470094118100,4.9191181640625,-0.004554579965770245,0.0395558699965477,0.020369814708828926
1772807470104050200,4.92905029296875,-0.005701341200619936,0.03517276048660278,0.012030391953885555
1772807470113981000,4.93898095703125,-0.0002184252953156829,0.03454771637916565,0.00841435231268406
1772807470123913000,4.948912841796875,-0.0018803715938702226,0.03768371045589447,0.008123179897665977
1772807470133845000,4.958844970703125,-0.003405830357223749,0.03597289323806763,0.01297865528613329
1772807470143777000,4.968777099609375,-0.0023580146953463554,0.03223415091633797,0.01365918293595314
1772807470153709000,4.978708984375,-0.0074286735616624355,0.017534833401441574,0.025854330509901047
1772807470163641000,4.98864111328125,-0.00744438823312521,0.017729751765727997,0.02121572569012642
1772807470173573000,4.998572998046875,-0.00918902549892664,0.007749289274215698,0.0203081201761961
1772807470183505200,5.008505126953125,-0.010839921422302723,-0.00818442739546299,0.024052347987890244
1772807470193437200,5.018437255859375,-0.00847769808024168,-0.0036658423487097025,0.021289585158228874
1772807470203369200,5.028369140625,-0.005648880731314421,0.0016405810602009296,0.01355709508061409
1772807470213301200,5.03830126953125,-0.004551924765110016,0.005021996796131134,0.008680847473442554
1772807470223232000,5.04823193359375,0.0023632373195141554,0.006429984699934721,0.010629037395119667
1772807470233164000,5.0581640625,0.0038181222043931484,0.010912083089351654,0.0072260512970387936
1772807470243096000,5.068095947265625,0.005439174361526966,0.00848902016878128,0.0019070998532697558
1772807470253028000,5.078028076171875,0.0077068558894097805,0.00038502132520079613,0.004298085812479258
1772807470262959900,5.0879599609375,0.005451977252960205,-0.0014193402603268623,0.007743502035737038
1772807470272892000,5.097891845703125,0.0020798826590180397,-0.004584773443639278,0.01215449534356594
1772807470282824000,5.107823974609375,0.0024733655154705048,-0.007063230499625206,0.006674863863736391
1772807470292756000,5.117755859375,0.00004189956234768033,-0.013712877407670021,-0.0017247458454221487
1772807470302688000,5.12768798828125,-0.003684660419821739,-0.02013213373720646,-0.0039744069799780846
1772807470312620300,5.137620361328125,-0.005336885340511799,-0.02403979003429413,-0.0066641997545957565
1772807470322551000,5.147551025390625,-0.003271867986768484,-0.016772767528891563,-0.007269980385899544
1772807470332483000,5.157483154296875,-0.004570958204567432,-0.015455301851034164,-0.007369049824774265
1772807470342415000,5.1674150390625,-0.0011144638992846012,-0.013006805442273617,-0.00536404037848115
1772807470352347100,5.17734716796875,0.00021019246196374297,-0.0138345155864954,0.001882687327452004
1772807470362279200,5.187279052734375,0.0005263156490400434,-0.006195724010467529,0.0055121309123933315
1772807470372211000,5.1972109375,0.0015612200368195772,-0.004311537370085716,0.00700722960755229
1772807470382143000,5.20714306640625,0.002670025685802102,-0.009034533053636551,0.013143063522875309
1772807470392075000,5.217074951171875,0.00014907738659530878,-0.0088446494191885,0.013008574023842812
1772807470402007000,5.227007080078125,-0.002204607706516981,-0.01535347755998373,0.01146562397480011
1772807470411939000,5.23693896484375,-0.005841687321662903,-0.015664801001548767,0.008359845727682114
1772807470421870000,5.2468701171875,-0.005388159304857254,-0.012794310227036476,0.011286572553217411
1772807470431802000,5.256802001953125,-0.008526427671313286,-0.009619023650884628,0.015804626047611237
1772807470441734100,5.266734130859375,-0.005608134437352419,-0.004269505850970745,0.018951594829559326
1772807470451666200,5.276666259765625,-0.004952197894454002,-0.0022383129689842463,0.01022095326334238
1772807470461598200,5.28659814453125,-0.0037842828314751387,0.0008216584101319313,0.007082775700837374
1772807470471530000,5.296530029296875,-0.0015187317039817572,0.0006536128930747509,0.006062518805265427
1772807470481462000,5.3064619140625,-0.0018344450509175658,0.0002108975313603878,0.011235441081225872
1772807470491394000,5.31639404296875,-0.0010261755669489503,0.009341545403003693,0.015310077928006649
1772807470501326000,5.326326171875,0.002137525472790003,0.01166447438299656,0.012696629390120506
1772807470511258000,5.336258056640625,-0.0008566665928810835,0.007162934634834528,0.010808981023728848
1772807470521190100,5.346190185546875,-0.0026288542430847883,0.0024502072483301163,0.00248091877438128
1772807470531121000,5.356120849609375,-0.003887996543198824,-0.00493047758936882,-0.002130344742909074
1772807470541053200,5.36605322265625,-0.006002418231219053,-0.012868758291006088,0.0046735890209674835
1772807470550985200,5.375985107421875,-0.0056791105307638645,-0.011079913005232811,0.01391848549246788
1772807470560917200,5.385917236328125,-0.005144895054399967,-0.012894975021481514,0.025962546467781067
1772807470570849300,5.395849365234375,-0.005860219709575176,-0.010965781286358833,0.028768718242645264
1772807470580781000,5.405781005859375,-0.005019047763198614,-0.012468896806240082,0.029153011739253998
1772807470590713000,5.415713134765625,-0.00317214522510767,-0.008574290201067924,0.023797927424311638
1772807470600645000,5.42564501953125,-0.0021377671509981155,-0.008750248700380325,0.022800838574767113
1772807470610577200,5.4355771484375,-0.00212817988358438,-0.001957324333488941,0.020448466762900352
1772807470620509200,5.44550927734375,-0.003786814399063587,0.0008374922908842564,0.019657336175441742
1772807470630440000,5.45543994140625,-0.004198805429041386,0.003316362388432026,0.01999901980161667
1772807470640372000,5.4653720703125,-0.007779279258102179,0.00926637277007103,0.021905040368437767
1772807470650304000,5.475303955078125,-0.00634570000693202,0.011530324816703796,0.01596379280090332
1772807470660236000,5.485236083984375,-0.006973011419177055,0.011763980612158775,0.008110398426651955
1772807470670168000,5.49516796875,-0.003307702951133251,0.016570720821619034,0.0023824721574783325
1772807470680099800,5.505099853515625,-0.0009350901236757636,0.018513521179556847,-0.0030898803379386663
1772807470690032000,5.5150322265625,-0.0009934133850038052,0.0149222481995821,-0.005207892041653395
1772807470699964200,5.524964111328125,-0.0010695732198655605,0.01708986982703209,-0.003874448826536536
1772807470709896200,5.534896240234375,0.0033816341310739517,0.025415975600481033,-0.0022150331642478704
1772807470719828200,5.544828125,0.003303328063338995,0.0356256365776062,0.003041870892047882
1772807470729759000,5.554759033203125,0.005339048337191343,0.040527716279029846,0.00557107524946332
1772807470739691000,5.56469091796875,0.006206711288541555,0.03418358787894249,0.008897983469069004
1772807470749623000,5.574623046875,0.003686828538775444,0.033014990389347076,0.010731303133070469
1772807470759555000,5.58455517578125,0.004032235126942396,0.034140389412641525,0.0056451112031936646
1772807470769487000,5.594487060546875,0.0017765378579497337,0.02815813384950161,0.00009375170338898897
1772807470779419100,5.604419189453125,-0.00020804977975785732,0.019227489829063416,-0.0042208353988826275
1772807470789351000,5.614350830078125,-0.0010733107337728143,0.009038234129548073,-0.00785844773054123
1772807470799283000,5.624282958984375,-0.005496546160429716,0.004663560539484024,-0.008594902232289314
1772807470809215000,5.634215087890625,-0.004957255907356739,0.008654573932290077,-0.00629393057897687
1772807470819147000,5.64414697265625,-0.004709049127995968,0.006258527748286724,-0.00016759501886554062
1772807470829079000,5.6540791015625,-0.0014717106241732836,0.012645053677260876,0.0005384089308790863
1772807470839010000,5.664010009765625,0.0004107218119315803,0.01045133639127016,0.0009654072346165776
1772807470848942000,5.673942138671875,-0.0010915673337876797,0.004089045338332653,0.0031073875725269318
1772807470858874000,5.6838740234375,0.00010180182289332151,0.004795627202838659,0.001772965071722865
1772807470868806100,5.69380615234375,0.0033716310281306505,0.006119218189269304,0.006372776813805103
1772807470878738200,5.70373828125,0.0038165166042745113,0.0032687392085790634,0.011485778726637363
1772807470888670000,5.713669921875,0.0009725267882458866,0.004681279882788658,0.011086038313806057
1772807470898602000,5.72360205078125,0.005794699769467115,0.004928595386445522,0.007401113864034414
1772807470908534000,5.733533935546875,0.006490317173302174,0.0041552139446139336,0.0006390815251506865
1772807470918466000,5.743466064453125,0.004144098609685898,0.0019295853562653065,-0.005329156760126352
1772807470928398000,5.753398193359375,0.004368336871266365,-0.002812972292304039,-0.0110152717679739
1772807470938329000,5.7633291015625,0.004484931472688913,-0.011632128618657589,-0.01146258320659399
1772807470948261000,5.77326123046875,0.0005551711074076593,-0.015663355588912964,-0.006756777875125408
1772807470958193200,5.783193115234375,0.0035219709388911724,-0.010628700256347656,-0.00323883886449039
1772807470968125200,5.793125244140625,0.004448750987648964,-0.00669867405667901,-0.0034223305992782116
1772807470978057200,5.80305712890625,0.0064816707745194435,-0.0033778802026063204,-0.0036103485617786646
1772807470987989200,5.8129892578125,0.007094729691743851,-0.003961378708481789,-0.00028645736165344715
1772807470997921000,5.822921142578125,0.008984249085187912,-0.0024023172445595264,0.005458601284772158
1772807471007853000,5.83285302734375,0.005374600179493427,-0.004597028251737356,0.006993913557380438
1772807471017785000,5.84278515625,0.005367546807974577,-0.009621711447834969,0.0033312675077468157
1772807471027716900,5.852716796875,0.0023166295140981674,-0.014483044855296612,-0.006324822083115578
1772807471037649000,5.86264892578125,0.0030863997526466846,-0.01467851735651493,-0.009708009660243988
1772807471047580000,5.872579833984375,0.002016607904806733,-0.015067072585225105,-0.013463865034282207
1772807471057512000,5.882511962890625,-0.0003944832133129239,-0.016254696995019913,-0.01599164865911007
1772807471067444000,5.89244384765625,-0.0004690517671406269,-0.01997193694114685,-0.018989570438861847
1772807471077376000,5.9023759765625,0.0034339488483965397,-0.018446577712893486,-0.020310765132308006
1772807471087308000,5.91230810546875,0.004855544306337833,-0.0169695895165205,-0.021587219089269638
1772807471097240000,5.922239990234375,0.006429219618439674,-0.014103374443948269,-0.014325491152703762
1772807471107172000,5.932172119140625,0.01173290517181158,-0.013500701636075974,-0.005113350693136454
1772807471117104000,5.942104248046875,0.009458931162953377,-0.007440519519150257,-0.003556992392987013
1772807471127036200,5.9520361328125,0.010574262589216232,-0.0038239469286054373,-0.0024342036340385675
1772807471136968000,5.961968017578125,0.011648477986454964,-0.005554943345487118,-0.003939517308026552
1772807471146900000,5.97189990234375,0.010182141326367855,-0.0018733898177742958,-0.008446118794381618
1772807471156831000,5.9818310546875,0.0066559696570038795,-0.001375084277242422,-0.0038665437605232
1772807471166763000,5.991762939453125,0.002839393448084593,-0.0035626045428216457,-0.0015943347243592143
1772807471176694800,6.00169482421875,0.0031010538805276155,-0.006643981207162142,-0.0026761116459965706
1772807471186626800,6.011626708984375,-0.0010042090434581041,-0.007290596608072519,-0.0035600147675722837
1772807471196558800,6.021558837890625,-0.003073614090681076,-0.010222835466265678,-0.005582686513662338
1772807471206491000,6.031490966796875,-0.0017798502231016755,-0.006475501228123903,0.0006786711746826768
1772807471216423000,6.0414228515625,-0.001076255924999714,-0.009173907339572906,-0.0013412450207397342
1772807471226355200,6.051355224609375,0.00015598861500620842,-0.010692441835999489,-0.005282723344862461
1772807471236287000,6.061286865234375,-0.00047983252443373203,-0.008506329730153084,-0.0048175593838095665
1772807471246219000,6.071218994140625,-0.0014548157341778278,-0.002588785719126463,0.0013596424832940102
1772807471256150000,6.08114990234375,-0.00028714060317724943,-0.003311858745291829,0.0008693519630469382
1772807471266082000,6.09108203125,-0.0001446615206077695,-0.0017800084315240383,0.002106390194967389
1772807471276014000,6.10101416015625,0.0014292459236457944,-0.00447103101760149,0.006468741223216057
1772807471285945900,6.11094580078125,-0.0020451140590012074,-0.004015364684164524,0.013540765270590782
1772807471295878000,6.1208779296875,-0.005951324012130499,-0.005433725658804178,0.016506731510162354
1772807471305810000,6.130809814453125,-0.0032988153398036957,-0.003931436687707901,0.007677820045500994
1772807471315742000,6.140741943359375,-0.000843101879581809,0.004258378874510527,-0.002729815896600485
1772807471325674000,6.150674072265625,0.0007611863547936082,0.007158561144024134,-0.011060982942581177
1772807471335606000,6.16060595703125,0.0003256548079662025,0.002375347539782524,-0.0032679580617696047
1772807471345537800,6.170537841796875,0.000487841316498816,0.0008661337196826935,0.0069335466250777245
1772807471355469800,6.1804697265625,0.0024075633846223354,0.008407649584114552,0.008948142640292645
1772807471365401900,6.19040185546875,0.004755672533065081,0.01110330130904913,-0.00004508558413363062
1772807471375333000,6.2003330078125,0.0027822633273899555,0.008362598717212677,-0.005073487292975187
1772807471385265000,6.210264892578125,-0.001057748799212277,0.006214758846908808,0.0030121360905468464
1772807471395197000,6.220197021484375,-0.0017103388672694564,0.0049920943565666676,0.00881027802824974
1772807471405129000,6.23012890625,-0.004146598745137453,0.006748714949935675,0.00212041730992496
1772807471415061000,6.24006103515625,-0.00336578325368464,0.0011652405373752117,-0.001767437788657844
1772807471424993000,6.249992919921875,-0.0037348971236497164,0.005105653312057257,-0.0040249996818602085
1772807471434925000,6.259925048828125,-0.004615072160959244,-0.00016314443200826645,-0.001365566742606461
1772807471444856800,6.26985693359375,-0.006565570831298828,0.000850987620651722,0.0012320805108174682
1772807471454788900,6.279788818359375,-0.00020685535855591297,0.000976943876594305,-0.0045915464870631695
1772807471464721000,6.289720947265625,0.00210530124604702,0.006654803175479174,-0.0020735280122607946
1772807471474652200,6.299652099609375,0.0053353081457316875,0.012367626652121544,-0.0006220146315172315
1772807471484584200,6.309584228515625,0.003088665194809437,0.01667954958975315,-0.00047820390318520367
1772807471494516000,6.319515869140625,0.002448306418955326,0.01442157756537199,-0.00019546465773601085
1772807471504448000,6.329447998046875,0.00406750850379467,0.01618911698460579,-0.000955530849751085
1772807471514380000,6.339380126953125,0.0030702820513397455,0.018884871155023575,-0.0009818950202316046
1772807471524312000,6.34931201171875,0.001765333116054535,0.017273124307394028,-0.006604360416531563
1772807471534244000,6.359244140625,0.0002626500790938735,0.012001031078398228,-0.007255238480865955
1772807471544176000,6.369176025390625,-0.003737417981028557,0.01135414931923151,-0.008481889963150024
1772807471554108000,6.37910791015625,-0.007979435846209526,0.010385412722826004,-0.0015335252974182367
1772807471564040000,6.3890400390625,-0.007763187400996685,0.009492455050349236,0.005225577391684055
1772807471573972000,6.398971923828125,-0.0059722186997532845,0.011005885899066925,0.01472392026335001
1772807471583903000,6.408903076171875,-0.004875529557466507,0.01597987301647663,0.017992418259382248
1772807471593834800,6.418834716796875,-0.004110245034098625,0.018380749970674515,0.016955643892288208
1772807471603767000,6.42876708984375,-0.006270068697631359,0.018787680193781853,0.013684749603271484
1772807471613699000,6.438698974609375,-0.007860786281526089,0.014747037552297115,0.012734890915453434
1772807471623631000,6.448631103515625,-0.006983008235692978,0.019348181784152985,0.0071318671107292175
1772807471633563100,6.458563232421875,-0.0067658452317118645,0.01959562487900257,0.004707062616944313
1772807471643495200,6.4684951171875,-0.007532835938036442,0.020219070836901665,0.0016779833240434527
1772807471653427000,6.478427001953125,-0.004400285892188549,0.016409317031502724,0.0022979658097028732
1772807471663359000,6.48835888671875,-0.003980039153248072,0.013878781348466873,0.00793774239718914
1772807471673291000,6.498291015625,0.00022720987908542156,0.011337798088788986,0.010219807736575603
1772807471683223000,6.50822314453125,0.001094601466320455,0.01063472405076027,0.009875194169580936
1772807471693154000,6.518154052734375,0.0022949008271098137,0.006428322289139032,0.007350515108555555
1772807471703085800,6.5280859375,-0.0007698650006204844,0.005769988987594843,0.005005868151783943
1772807471713017900,6.538017822265625,0.004443665966391563,0.005006029736250639,-0.004839570727199316
1772807471722950000,6.547949951171875,0.005550209432840347,0.0033138575963675976,-0.003975375089794397
1772807471732882000,6.5578818359375,0.004794015083462,0.00008123228326439857,-0.002574376994743943
1772807471742814000,6.56781396484375,0.004182020667940378,-0.0044176457449793816,-0.0026438855566084385
1772807471752746000,6.57774609375,0.006827592849731445,-0.009576251730322838,-0.00046967813977971673
1772807471762678000,6.587677978515625,0.0022176606580615044,-0.012842885218560696,0.0033271906431764364
1772807471772610000,6.597610107421875,0.00019365840125828981,-0.015504181385040283,-0.000045436565415002406
1772807471782542000,6.6075419921875,-0.0036018784157931805,-0.019688807427883148,-0.0027264407835900784
1772807471792474000,6.61747412109375,-0.0017857258208096027,-0.020245488733053207,-0.004668775014579296
1772807471802404900,6.62740478515625,-0.0005790474824607372,-0.01363951712846756,-0.008700801059603691
1772807471812337000,6.6373369140625,-0.00315964687615633,-0.009002665989100933,-0.014492200687527657
1772807471822269000,6.64726904296875,-0.0010152696631848812,-0.007693988736718893,-0.011782700195908546
1772807471832201000,6.657200927734375,0.004125676117837429,-0.007269052788615227,-0.010708732530474663
1772807471842133000,6.667133056640625,-0.0015093066031113267,-0.002393071074038744,-0.001445991569198668
1772807471852065000,6.67706494140625,-0.0007034341106191278,-0.008924739435315132,0.009782694280147552
1772807471861996800,6.686996826171875,-0.004505629185587168,-0.008820876479148865,0.010780846700072289
1772807471871928800,6.6969287109375,-0.004248485900461674,-0.011126969009637833,0.009806482121348381
1772807471881860900,6.70686083984375,-0.0030636456795036793,-0.009876348078250885,0.008998745121061802
1772807471891793000,6.71679296875,-0.0058266641572117805,-0.005058624316006899,0.006994714494794607
1772807471901725000,6.726724853515625,-0.004685766063630581,-0.0004004891961812973,0.008051722310483456
1772807471911657200,6.7366572265625,-0.0017082279082387686,0.0017303843051195145,0.005691187921911478
1772807471921588000,6.746587890625,-0.002078407211229205,0.0007215789519250393,0.000891372503247112
1772807471931520000,6.75652001953125,-0.0015376670053228736,-0.0009359125979244709,0.0006619887426495552
1772807471941452000,6.7664521484375,-0.002699870616197586,0.0004763617180287838,0.00052164017688483
1772807471951384000,6.776384033203125,-0.002024619374424219,0.0014709499664604664,0.007918835617601871
1772807471961315800,6.78631591796875,-0.004735717549920082,0.004639844875782728,0.013068590313196182
1772807471971247900,6.796247802734375,-0.008659212850034237,-0.0015294686891138554,0.006470073945820332
1772807471981180000,6.806179931640625,-0.008845634758472443,-0.0034703805577009916,-0.0000940853642532602
1772807471991112000,6.81611181640625,-0.012893129140138626,-0.006566939409822226,0.00026242778403684497
1772807472001044000,6.8260439453125,-0.011750100180506706,-0.006903296336531639,0.0039556995034217834
1772807472010975500,6.8359755859375,-0.011637418530881405,-0.006280770990997553,0.0026165670715272427
1772807472020907500,6.845907470703125,-0.005403757560998201,-0.006018715910613537,-0.0042594484984874725
1772807472030838300,6.85583837890625,-0.007089694496244192,-0.009060561656951904,-0.00494458619505167
1772807472040770300,6.865770263671875,-0.003968469798564911,-0.010315442457795143,-0.0090692900121212
1772807472050702300,6.875702392578125,-0.004980453755706549,-0.011616580188274384,-0.009413463063538074
1772807472060634400,6.88563427734375,-0.0016768025234341621,-0.010381406173110008,-0.002999505726620555
1772807472070566400,6.89556640625,-0.0036514094099402428,-0.004653377924114466,0.0029252299573272467
1772807472080498200,6.905498291015625,-0.004196025896817446,-0.003938585519790649,0.005378001369535923
1772807472090430200,6.91543017578125,-0.005978994071483612,-0.007176879793405533,0.0037602160591632128
1772807472100362200,6.9253623046875,-0.011242199689149857,-0.008188081905245781,0.004857171792536974
1772807472110294300,6.935294189453125,-0.013698852621018887,-0.008367832750082016,0.005724123679101467
1772807472120226300,6.945226318359375,-0.011896424926817417,-0.000620164442807436,0.010113013908267021
1772807472130158300,6.955158447265625,-0.006431893445551395,0.005902143195271492,0.013890886679291725
1772807472140090000,6.965090087890625,0.0004555736086331308,0.009644417092204094,0.012347051873803139
1772807472150021400,6.975021484375,0.005474959500133991,0.010111372917890549,0.010479644872248173
1772807472159953400,6.984953369140625,0.0013891374692320824,-0.001909603364765644,0.007079321425408125
1772807472169885400,6.994885498046875,0.002834584331139922,0.005257431883364916,0.008068771101534367
1772807472179817500,7.0048173828125,0.0008907429873943329,0.0007843868806958199,0.0118824178352952
1772807472189749200,7.014749267578125,-0.00007597636431455612,-0.0014124121516942978,0.00550583191215992
1772807472199681300,7.024681396484375,-0.0037599271163344383,-0.008207201026380062,0.0079452870413661
1772807472209613300,7.03461328125,-0.007318721618503332,-0.012144215404987335,0.004639508202672005
1772807472219545300,7.04454541015625,-0.009702516719698906,-0.012458734214305878,0.0034826307091861963
1772807472229477400,7.054477294921875,-0.009795580059289932,-0.015966976061463356,0.0012938645668327808
1772807472239409200,7.0644091796875,-0.005353960208594799,-0.011196987703442574,0.001633683918043971
1772807472249341200,7.074341064453125,-0.004049678798764944,-0.005631391890347004,-0.005275709554553032
1772807472259272400,7.0842724609375,-0.003303194884210825,-0.0032329491805285215,-0.009658473543822765
1772807472269204500,7.09420458984375,0.0022817200515419245,-0.00021771807223558426,-0.008645140565931797
1772807472279136500,7.104136474609375,0.00037063570925965905,0.004748011939227581,-0.007325278129428625
1772807472289068300,7.114068359375,-0.0007533911848440766,-0.0019429484382271767,-0.006300663109868765
1772807472299000300,7.124000244140625,-0.004474359564483166,0.0028448826633393764,-0.0006092213443480432
1772807472308932400,7.133932373046875,-0.002831200836226344,-0.0022372626699507236,0.0021233619190752506
1772807472318864400,7.143864501953125,-0.004275965970009565,0.0036238227039575577,-0.0024266489781439304
1772807472328796400,7.15379638671875,-0.005070369690656662,-0.0009831273928284645,-0.008089331910014153
1772807472338728400,7.163728515625,-0.011759963817894459,-0.009500715881586075,-0.011369547806680202
1772807472348660200,7.17366015625,-0.015913957729935646,-0.019670777022838593,-0.0065642292611300945
1772807472358592300,7.18359228515625,-0.015713687986135483,-0.022409571334719658,0.00763308210298419
1772807472368524300,7.193524169921875,-0.015620879828929901,-0.02000008523464203,0.015483993105590343
1772807472378455300,7.203455322265625,-0.009840753860771656,-0.00815248116850853,0.019173800945281982
1772807472388387300,7.21338720703125,-0.0019261008128523827,0.0008133361116051674,0.01796863228082657
1772807472398319400,7.2233193359375,-0.0021881558932363987,0.007394806016236544,0.01343113835901022
1772807472408251400,7.23325146484375,-0.00021366984583437443,0.015306605026125908,0.008237083442509174
1772807472418183400,7.243183349609375,-0.0024214303120970726,0.01279124990105629,0.011729019694030285
1772807472428115500,7.253115478515625,-0.0056768786162137985,0.012029850855469704,0.01134339440613985
1772807472438047500,7.263047607421875,-0.006051318719983101,0.007044946309179068,0.018779737874865532
1772807472447979300,7.272979248046875,-0.00841142050921917,0.002592898905277252,0.019925611093640327
1772807472457911300,7.282911376953125,-0.01079388428479433,-0.005156100727617741,0.022424986585974693
1772807472467843300,7.29284326171875,-0.01240574847906828,-0.009059823118150234,0.02135261707007885
1772807472477775400,7.302775390625,-0.013977546244859695,-0.011954412795603275,0.017307275906205177
1772807472487707400,7.312707275390625,-0.013024820014834404,-0.011614285409450531,0.007011498790234327
1772807472497638100,7.32263818359375,-0.006773049011826515,-0.01176262367516756,0.0034127694088965654
1772807472507570200,7.332570068359375,-0.008509285748004913,-0.00540654081851244,-0.001851059845648706
1772807472517502200,7.342502197265625,-0.0022790865041315556,-0.0062166741117835045,-0.0010798083385452628
1772807472527434200,7.352434326171875,-0.002390402602031827,-0.005886421538889408,0.005225668661296368
1772807472537366300,7.3623662109375,-0.0005948992911726236,-0.009701399132609367,0.003923915326595306
1772807472547298300,7.37229833984375,-0.0008086244342848659,-0.016343221068382263,0.002946003805845976
1772807472557230300,7.382230224609375,-0.0019058468751609325,-0.021213609725236893,-0.000513175968080759
1772807472567162400,7.392162353515625,-0.0030904121231287718,-0.022913198918104172,0.0016288915649056435
1772807472577094400,7.402094482421875,-0.0010970362927764654,-0.023462075740098953,0.001070959260687232
1772807472587026400,7.4120263671875,-0.003339435439556837,-0.023793186992406845,0.001610874547623098
1772807472596958500,7.42195849609375,-0.0007527072448283434,-0.019584327936172485,0.000739488226827234
1772807472606889200,7.43188916015625,-0.0023172928486019373,-0.019933365285396576,0.0033294965978711843
1772807472616821200,7.4418212890625,-0.0010866459924727678,-0.013566812500357628,0.00555430119857192
1772807472626753300,7.451753173828125,-0.000049344729632139206,-0.011282619088888168,0.004558279179036617
1772807472636685300,7.461685302734375,0.0021275230683386326,-0.005068932194262743,-0.0037241517566144466
1772807472646617300,7.471617431640625,0.0029179323464632034,-0.005875953007489443,-0.006477235350757837
1772807472656549000,7.481549072265625,0.0003652924788184464,-0.007150009274482727,-0.006756068207323551
1772807472666481200,7.491481201171875,0.0013951575383543968,-0.006731788627803326,-0.00012178354518255219
1772807472676413200,7.5014130859375,0.0023062247782945633,-0.003903778037056327,-0.0011971680214628577
1772807472686345200,7.51134521484375,-0.0011942695127800107,-0.006158305797725916,0.0015458067646250129
1772807472696277500,7.521277587890625,-0.001516512013040483,-0.004126047715544701,0.0037615566980093718
1772807472706209500,7.53120947265625,-0.004857419990003109,-0.005272152367979288,0.009552327916026115
1772807472716141300,7.541141357421875,-0.004025181755423546,-0.004768814891576767,0.014196082018315792
1772807472726072300,7.551072265625,-0.002219320274889469,-0.004290098324418068,0.012986213900148869
1772807472736004400,7.56100439453125,-0.005029754247516394,-0.0007933676242828369,0.010635708458721638
1772807472745936400,7.570936279296875,-0.004645165987312794,-0.0032545416615903378,0.006975719705224037
1772807472755868400,7.580868408203125,-0.00507446750998497,0.001340476330369711,0.003160209162160754
1772807472765800200,7.59080029296875,-0.003318789415061474,0.0011621257290244102,-0.0021372598130255938
1772807472775732200,7.600732177734375,0.0014780965866521,0.0011000740341842175,-0.00040886830538511276
1772807472785664300,7.610664306640625,0.0003664931864477694,0.0006814249791204929,0.0038194323424249887
1772807472795596300,7.62059619140625,-0.0007363217882812023,0.003875353839248419,0.005813074763864279
1772807472805528300,7.6305283203125,0.000653590599540621,0.001310771331191063,0.01158183440566063
1772807472815460000,7.640460205078125,-0.003330232109874487,0.004892189987003803,0.016619738191366196
1772807472825392000,7.65039208984375,-0.002471768530085683,0.004891227465122938,0.019193150103092194
1772807472835324200,7.66032421875,-0.004052088130265474,0.007016429211944342,0.020287176594138145
1772807472845255400,7.67025537109375,-0.002569259610027075,0.007882146164774895,0.013891156762838364
1772807472855187500,7.6801875,-0.005591947585344315,0.00947844423353672,0.008313698694109917
1772807472865119200,7.690119140625,-0.004579001571983099,0.008642393164336681,0.0038544097915291786
1772807472875051300,7.70005126953125,-0.0036799185909330845,0.011612351052463055,0.00047379304305650294
1772807472884983300,7.7099833984375,-0.0025014649145305157,0.013670461252331734,-0.008624187670648098
1772807472894915300,7.719915283203125,-0.0007973081665113568,0.016810327768325806,-0.006026540417224169
1772807472904847400,7.729847412109375,0.0027290708385407925,0.017916584387421608,-0.004127341788262129
1772807472914779400,7.739779296875,0.0014938968233764172,0.0236373208463192,-0.0029494252521544695
1772807472924711200,7.749711181640625,0.0020016739144921303,0.026753772050142288,-0.0007742540328763425
1772807472934643200,7.759643310546875,0.000142255041282624,0.026302631944417953,-0.0038946799468249083
1772807472944575200,7.7695751953125,0.0029967522714287043,0.023410789668560028,-0.009825182147324085
1772807472954507300,7.77950732421875,0.00039164815098047256,0.017557960003614426,-0.0007997290231287479
1772807472964438500,7.7894384765625,0.0015424001030623913,0.012324849143624306,0.0048855869099497795
1772807472974370300,7.799370361328125,0.0005847273860126734,0.009789520874619484,0.011841763742268085
1772807472984302300,7.80930224609375,-0.0025531346909701824,0.009548400528728962,0.01683652028441429
1772807472994234400,7.819234375,-0.0006202126387506723,0.006554741412401199,0.016855429857969284
1772807473004166400,7.82916650390625,0.001188758760690689,0.004776241257786751,0.012437507510185242
1772807473014099000,7.839098876953125,0.0015701234806329012,0.0017594126984477043,0.003262917511165142
1772807473024031000,7.849031005859375,0.0031666920986026525,0.0054178182035684586,-0.009710494428873062
1772807473033963000,7.858962890625,0.0057616764679551125,0.012503957375884056,-0.01466104481369257
1772807473043895000,7.86889501953125,0.008371422998607159,0.016910461708903313,-0.010448719374835491
1772807473053827000,7.8788271484375,0.012125681154429913,0.05412814021110535,0.03921763598918915
1772807473063758800,7.8887587890625,0.011205799877643585,0.03886626660823822,0.06875200569629669
1772807473073691000,7.89869091796875,0.008214270696043968,0.03286723047494888,0.06564915925264359
1772807473083622000,7.908621826171875,0.006238351576030254,0.013862291350960732,0.042150404304265976
1772807473093554000,7.918553955078125,0.005538472905755043,0.007966320961713791,0.011707540601491928
1772807473103486000,7.92848583984375,0.006506551057100296,0.0036201211623847485,0.001886508776806295
1772807473113418000,7.93841796875,0.002072387607768178,0.004734387155622244,0.008760927245020866
1772807473123350000,7.94835009765625,0.000027572328690439463,0.00214138301089406,0.015303701162338257
1772807473133282000,7.958281982421875,0.0018361250404268503,0.0062221442349255085,0.02518882043659687
1772807473143214000,7.968214111328125,-0.0006588383112102747,0.0013314448297023773,0.01805403269827366
1772807473153146000,7.97814599609375,-0.003146497067064047,-0.008100938983261585,0.0059670088812708855
1772807473163078000,7.988077880859375,-0.0010709703201428056,-0.013743272982537746,-0.010044180788099766
1772807473173010000,7.998010009765625,-0.0006427341140806675,-0.01986801065504551,-0.02111360803246498
1772807473182942000,8.00794189453125,0.0008443695260211825,-0.031216822564601898,-0.03705679625272751
1772807473192874000,8.0178740234375,-0.0003663034876808524,-0.0354565754532814,-0.05860816314816475
1772807473202805000,8.027804931640626,-0.007056012749671936,-0.05089125782251358,-0.07918152958154678
1772807473212736800,8.03773681640625,-0.0011110382620245218,-0.01742970570921898,-0.05876760184764862
1772807473222668800,8.047668701171874,0.000579546089284122,-0.01270761713385582,-0.014461304061114788
