time,seconds_elapsed,z,y,x
1772807491105005600,0.071005615234375,-0.06329078810624778,-0.04808920038640499,0.04290755996480584
1772807491114937600,0.0809375,-0.08472878599762916,-0.055828854727745056,-0.006644260320067406
1772807491124869600,0.09086962890625,-0.13516725292392073,-0.06082359427511692,-0.07039236373975873
1772807491134801400,0.100801513671875,-0.16210012190453707,-0.07278934187889098,-0.06727554689347744
1772807491144733400,0.1107333984375,-0.1677670616250485,-0.11371522650718688,-0.060171267846226686
1772807491154665500,0.12066552734375,-0.18892792307548223,-0.12234393864274025,-0.07221373394802212
1772807491164597500,0.130597412109375,-0.22059045092649757,-0.07210311318039894,-0.09222542536333203
1772807491174529500,0.140529541015625,-0.24665128631293773,-0.032599954831600185,-0.1204183774076402
1772807491184461600,0.150461669921875,-0.2579390615899116,0.01063245317339897,-0.13081161499768496
1772807491194393300,0.160393310546875,-0.23092940104603765,-0.0030839374899864196,-0.12170008778125047
1772807491204325400,0.170325439453125,-0.2347264552414417,-0.04609364265501499,-0.151996149584651
1772807491214257400,0.18025732421875,-0.24262685310244558,-0.07939911540746689,-0.19092896069958806
1772807491224189400,0.190189453125,-0.23474282185435294,-0.11207388904094695,-0.15027181001007556
1772807491234121500,0.20012158203125,-0.23810499176383018,-0.1562041226685047,-0.1212317396171391
1772807491244053500,0.210053466796875,-0.2700468480128795,-0.19506313789486884,-0.12766001909896732
1772807491253985300,0.2199853515625,-0.32955636401474475,-0.17797113331854342,-0.13607494235336778
1772807491263917600,0.22991748046875,-0.4243061932891607,-0.1257049395084381,-0.13496858854666352
1772807491273849600,0.239849609375,-0.4669534583499655,-0.07821604310274123,-0.1371206520140171
1772807491283781600,0.24978173828125,-0.48124447056353087,-0.0170925890982151,-0.15872677301391958
1772807491293713700,0.259713623046875,-0.472769451152347,0.037568975415825843,-0.17696940893009305
1772807491303645700,0.269645751953125,-0.42486265812814233,0.05722177039086818,-0.22096023408696053
1772807491313577500,0.279577392578125,-0.3609604601252824,0.04136369152367115,-0.23780396299064158
1772807491323509500,0.289509521484375,-0.31376324014253915,0.043777182406187054,-0.22289660897701977
1772807491333441500,0.299441650390625,-0.2657699013460427,0.014523615393042564,-0.18024901512265204
1772807491343373600,0.30937353515625,-0.22398118934333322,0.0213408941924572,-0.15301014893278478
1772807491353306600,0.319306640625,-0.162277889624238,0.0415706122726202,-0.08852116401791572
1772807491363238700,0.32923876953125,-0.16170038199722767,0.053987026253342625,-0.048930619646608824
1772807491373170700,0.339170654296875,-0.1977179997852072,0.052832010999321936,-0.023215602023154494
1772807491383102500,0.3491025390625,-0.2555278357297182,0.04753624267876148,0.008482435532659292
1772807491393034500,0.359034423828125,-0.25577048537917435,0.05123801980614662,0.01781944206804037
1772807491402966500,0.368966552734375,-0.21099252843260763,0.03620879297852516,-0.004954992058873176
1772807491412898600,0.378898681640625,-0.17159630105700344,-0.025561726757884023,-0.01991188430264592
1772807491422830600,0.38883056640625,-0.07266480218376964,-0.06979892789125441,-0.03151873546615243
1772807491432762600,0.3987626953125,0.01952653824687004,-0.10158113659918308,-0.037766251553595066
1772807491442694400,0.4086943359375,0.03216390150189399,-0.11624971342086791,-0.009977496396005153
1772807491452626400,0.41862646484375,-0.01442888631429523,-0.06053308689594268,0.03560995030254126
1772807491462558500,0.428558349609375,-0.021724925073981285,-0.0441541990250349,0.049494244878739116
1772807491472490500,0.438490478515625,0.035410336077213285,-0.09751286424696445,0.035327918490767475
1772807491482422500,0.448422607421875,0.02270633732676506,-0.139660984146595,0.0681549600765109
1772807491492354300,0.458354248046875,0.09150105661153793,-0.13537234704196452,0.03002396686375141
1772807491502286300,0.468286376953125,0.10520754693541676,-0.12904606662988663,-0.008992869272828101
1772807491512218400,0.47821826171875,0.10519410293195396,-0.20035189195275305,0.019367840553820133
1772807491522150400,0.488150390625,0.2193903544217348,-0.1562783569484949,0.01009805403575301
1772807491532082400,0.49808251953125,0.2877917270073667,-0.11454349402487277,-0.0029611878931522367
1772807491542014700,0.5080146484375,0.23685882762763646,-0.09987900885641575,0.017555092043429612
1772807491551946500,0.517946533203125,0.20829963608682153,-0.12592471973896027,-0.012527327009290457
1772807491561878500,0.52787841796875,0.15395897409021853,-0.17793430843949318,-0.004126724541187286
1772807491571810600,0.537810546875,0.04707742952797562,-0.07630348747968674,0.06418488740175962
1772807491581742600,0.54774267578125,0.09700783733427525,-0.02434182957410812,0.07845686612129212
1772807491591674600,0.557674560546875,0.07078972902689129,-0.10835457625687121,0.035147739618271584
1772807491601606700,0.567606689453125,0.11835231172330676,-0.10725509058237075,-0.09088774701878428
1772807491611538400,0.577538330078125,0.17851535973045973,-0.08349602933228015,-0.12227291923314332
1772807491621470500,0.587470458984375,0.23015786868426946,-0.11236498094201088,-0.1318853817090392
1772807491631402500,0.597402587890625,0.2726327363202348,-0.14517477913200855,-0.1909104021295905
1772807491641334500,0.60733447265625,0.10331716661155223,-0.16793898412585256,-0.09975888960808516
1772807491651266600,0.6172666015625,0.06950082172751426,-0.1044862103909254,-0.0022577157989144324
1772807491661198600,0.627198486328125,0.17781795205082743,-0.07224807460904122,-0.025521687008440493
1772807491671130400,0.63713037109375,0.2152011043046601,-0.022945406779646873,0.00023980010524392127
1772807491681062400,0.6470625,0.14767247769925743,0.019969021317362785,0.031827655284851784
1772807491690994400,0.656994384765625,-0.05075929637849331,-0.00547112488746643,-0.031020284424722194
1772807491700926500,0.666926513671875,-0.1789922930598259,0.0024281039297580718,-0.15448782026991248
1772807491710858500,0.6768583984375,-0.17403260655952615,0.0773328305274248,-0.16622326624915001
1772807491720790300,0.686790283203125,0.0869862278019078,0.05057926363646984,-0.2467652680814266
1772807491730722300,0.696722412109375,0.15855625701891257,0.17237959692180155,-0.23750804878398774
1772807491740655400,0.7066552734375,0.00826808039592579,0.21128011320233345,-0.23910730067417024
1772807491750587400,0.71658740234375,0.032528643161058426,0.19632161352336405,-0.2163390040270984
1772807491760519400,0.72651953125,0.029939211189746854,0.2089811886101961,-0.11449717066511511
1772807491770451500,0.736451416015625,0.07989418718172236,0.2068207957059145,-0.06421294445246457
1772807491780383500,0.746383544921875,0.14935235707759856,0.1830178953140974,-0.007724602902680635
1772807491790315300,0.756315185546875,0.15459144504116848,0.12801672358214855,-0.05684153890162706
1772807491800247600,0.76624755859375,0.1576917491440661,0.09539981761574745,-0.12554682633727787
1772807491810179600,0.7761796875,0.13420918501410634,0.012969956210255621,-0.24572101972550153
1772807491820111600,0.786111572265625,0.1336602824270725,-0.0000017535656690597534,-0.3968342489957809
1772807491830043600,0.796043701171875,0.0746580948928371,0.09809154091775417,-0.5148481956101953
1772807491839975700,0.8059755859375,0.04454522590292617,0.12038403674662113,-0.5247168248042464
1772807491849907500,0.815907470703125,0.05192660485850647,0.03623042028844356,-0.5454467474915087
1772807491859839500,0.825839599609375,0.08917758210003375,-0.041515082693099975,-0.5015585059262812
1772807491869771500,0.835771484375,0.10820433586491271,-0.03149228585064411,-0.46689957273826
1772807491879703600,0.84570361328125,0.18693830189453436,-0.004879588735103607,-0.38727322444617746
1772807491889635600,0.855635498046875,0.2204360640823841,0.01936170307397842,-0.28706849076673385
1772807491899567600,0.865567626953125,0.2931903346478939,0.05700432824790477,-0.2606305656962096
1772807491909499400,0.87549951171875,0.1870557725280523,-0.008303133442997932,-0.10030658661872148
1772807491919431400,0.885431396484375,0.12173486683368683,-0.11465396866202354,-0.049875207020342344
1772807491929363500,0.895363525390625,0.13122867136597632,-0.1617383759200573,0.04093406793475151
1772807491939295500,0.90529541015625,0.09217208774089812,-0.15153671537935734,0.15250088423639535
1772807491949227500,0.9152275390625,0.08067627747012301,-0.1768482667684555,0.2604189687721431
1772807491959159600,0.92515966796875,0.11620295166969298,-0.19715631078183649,0.264732009665668
1772807491969091300,0.93509130859375,0.0749672704398632,-0.14143734616935252,0.31684768908917904
1772807491979023400,0.9450234375,0.0868032359178178,-0.03493628882467747,0.34103169775307174
1772807491988955400,0.954955322265625,0.026926594503456726,-0.052205988055467605,0.42515930298715826
1772807491998887400,0.964887451171875,0.06924013409786857,-0.13371172035336493,0.3388894250273704
1772807492008819500,0.9748193359375,0.08330313710868358,-0.038898178192973136,0.39263533600121736
1772807492018751700,0.984751708984375,-0.0006605097353458404,-0.07792378215789794,0.43115284431353207
1772807492028683800,0.994683837890625,0.06299509309530257,-0.06915244668126105,0.4368102855533361
1772807492038615800,1.00461572265625,0.058168111330270764,-0.08436170625090599,0.3845090204298496
1772807492048547600,1.014547607421875,0.042772982932860026,-0.09847674084305763,0.30247794908359643
1772807492058479600,1.024479736328125,0.07962474999004043,-0.07336158880889415,0.20027020501866935
1772807492068411600,1.03441162109375,0.09525428079837002,-0.030459435671567916,0.17118790291920302
1772807492078343700,1.04434375,0.04977262342870235,-0.028818682727217673,0.15306085620671508
1772807492088275700,1.054275634765625,-0.017497662767767905,-0.02095394070148468,0.14946385462805628
1772807492098207500,1.06420751953125,-0.10008474229527636,-0.012469020950794218,0.13645400479882955
1772807492108139500,1.074139404296875,-0.1261216944826301,-0.006228080734610557,0.101082393296808
1772807492118072600,1.084072509765625,-0.13978431826531887,0.01253916357755661,0.0967781202316284
1772807492128004600,1.094004638671875,-0.1082639753639698,0.03053542351722717,0.08077215732634067
1772807492137936600,1.1039365234375,-0.08818273497694172,0.02288578554689884,0.009043722677230834
1772807492147868700,1.11386865234375,-0.09075930746668018,0.027728549402952194,-0.017174568293243646
1772807492157800700,1.12380078125,-0.0871457840114832,-0.001312251642346382,-0.015136778855323791
1772807492167732500,1.133732421875,-0.07829555634604767,-0.02217208431959152,-0.007182897241413593
1772807492177664500,1.14366455078125,-0.06409808590114116,-0.052148704910278315,0.03532251166328788
1772807492187596500,1.153596435546875,-0.05782324341535568,-0.06476560989916325,0.053770460893213745
1772807492197528600,1.163528564453125,-0.016713837180007247,-0.06054010115861892,0.08312105854004621
1772807492207460600,1.173460693359375,0.008003255447279662,-0.058444005662202834,0.10645955629050731
1772807492217392600,1.183392578125,0.04711246430873871,-0.022775310909748075,0.10425897750630975
1772807492227324400,1.193324462890625,0.06639351249509491,-0.0006944120049476623,0.09172112910300492
1772807492237256400,1.20325634765625,0.06803191821873188,-0.03022562691569328,0.07893997346311807
1772807492247188500,1.2131884765625,0.08204405869198962,-0.07033551898598671,0.07385843241512775
1772807492257120500,1.22312060546875,0.09358840254591777,-0.12965455391705036,0.11473375589996576
1772807492267052500,1.233052490234375,0.07363983949469402,-0.14990414574146269,0.07529182621911168
1772807492276984600,1.242984619140625,0.02926469119535759,-0.1657639781743288,0.041593116365373134
1772807492286916600,1.25291650390625,-0.02357782293166965,-0.19099603458642958,-0.007921440649032592
1772807492296848600,1.2628486328125,-0.07782556421412154,-0.20218553712069987,-0.023516484665870665
1772807492306780700,1.27278076171875,-0.06683364834487437,-0.1849830579072237,-0.038922435851395126
1772807492316712700,1.282712646484375,-0.003770750710368156,-0.17269231613278388,-0.046600277002900835
1772807492326644700,1.292644775390625,0.01684940972579643,-0.1345890877097845,-0.015771715757995842
1772807492336576800,1.30257666015625,0.030424948880076408,-0.11589432411193847,-0.029720161611586807
1772807492346508500,1.312508544921875,0.058741527304053305,-0.10421090058088302,-0.011797551430016755
1772807492356440600,1.322440673828125,0.016585224097967147,-0.0898638107985258,0.015391776529699563
1772807492366372600,1.33237255859375,-0.0340840467763599,-0.07333528532385826,0.005596504832804203
1772807492376304600,1.3423046875,-0.09978080004579387,-0.05511515350043773,0.038650048650801176
1772807492386236700,1.352236572265625,-0.16308920600712298,-0.07368658297955989,0.040200346832722424
1772807492396168400,1.36216845703125,-0.18759524969961494,-0.05905424651503562,0.06250950153544545
1772807492406100500,1.3721005859375,-0.1724619962419383,-0.06577917085587978,0.013930764066427945
1772807492416032500,1.382032470703125,-0.17372280995799227,-0.0808276869058609,-0.026772856113314626
1772807492425964500,1.391964599609375,-0.16329377040220425,-0.08137772200405598,-0.14726283745244145
1772807492435896600,1.401896484375,-0.1846779374808073,-0.03620879297852516,-0.20988222910314797
1772807492445828600,1.41182861328125,-0.2247235321432352,0.010352467188239097,-0.2348262623541057
1772807492455760400,1.421760498046875,-0.25122166296839715,0.06945172188878058,-0.2883417255729437
1772807492465692400,1.4316923828125,-0.21181027455627918,0.1202671323686838,-0.324567908077687
1772807492475624400,1.44162451171875,-0.23034955533146856,0.18097674487531185,-0.3014272709868848
1772807492485557500,1.4515576171875,-0.22495909446477888,0.19290975925326345,-0.24910043303072452
1772807492495489500,1.461489501953125,-0.16999942378699778,0.23663667277693748,-0.20273849482834339
1772807492505421600,1.471421630859375,-0.14159808968901633,0.2381774724781513,-0.13382365629523993
1772807492515353600,1.481353515625,-0.1878454616010189,0.21511866845190525,-0.07167319733053445
1772807492525285400,1.491285400390625,-0.1709796669960022,0.13183248247802257,-0.07340016725361347
1772807492535217400,1.501217529296875,-0.1982020204424858,0.0739262369543314,-0.07622866867780685
1772807492545149400,1.5111494140625,-0.24769173527657984,0.06996259402036667,-0.02997778963446617
1772807492555081700,1.521081787109375,-0.3047790656328201,0.029922844576835632,-0.025412965936958787
1772807492565013800,1.531013671875,-0.2991495353132486,0.01781739624142647,-0.04427957897037267
1772807492574945800,1.54094580078125,-0.2731272053062916,-0.014246552017331122,-0.09057108228504657
1772807492584877600,1.550877685546875,-0.23906945288181303,-0.016180734950304032,-0.08345102114677429
1772807492594809600,1.5608095703125,-0.18348843543529508,-0.027550270226597784,-0.13758563917726277
1772807492604741600,1.57074169921875,-0.11716565008885227,-0.03725625620484352,-0.192479843403399
1772807492614673700,1.580673583984375,-0.06556289775669574,0.008217793247103691,-0.1551739028379321
1772807492624605700,1.590605712890625,-0.04640343925654888,0.025816578301787376,-0.14644173032790422
1772807492634537700,1.600537841796875,-0.03469310945225879,0.017145196068286895,-0.10777648410797118
1772807492644469500,1.610469482421875,-0.0355915287298616,-0.03535071484446525,-0.07385550980567931
1772807492654401500,1.620401611328125,-0.040633030028408394,-0.08188216439485549,-0.06651026160940528
1772807492664333600,1.63033349609375,-0.03842938250428997,-0.11172551399469376,-0.02208674412369728
1772807492674265600,1.640265625,-0.027189053965080527,-0.15268471637070177,-0.0033887656554579732
1772807492684197600,1.65019775390625,-0.0027227029621601103,-0.15022563278079032,-0.0017211247041821478
1772807492694129700,1.660129638671875,0.04514673546003178,-0.14244623095095157,-0.006294277838617563
1772807492704061400,1.6700615234375,0.02705750000728294,-0.09225742793679237,-0.035712826155126096
1772807492713993500,1.679993408203125,0.026528525963425635,-0.07519640302062035,-0.021836568754911422
1772807492723925500,1.689925537109375,0.030723064176971092,-0.056197688040137285,0.01511982772052288
1772807492733857500,1.699857421875,0.039279889253247526,-0.0619832857042551,0.029897710135579108
1772807492743789600,1.70978955078125,0.0247872352540493,-0.04031447473168373,0.03214125127866864
1772807492753721600,1.7197216796875,0.061060325640439984,-0.003831540986895561,0.01730915445834398
1772807492763653600,1.729653564453125,0.06071660850299522,0.007353869894146919,0.012973463341593742
1772807492773585700,1.739585693359375,0.045920587643049654,-0.03190846543610096,0.01007744963914156
1772807492783517700,1.749517578125,0.06613687998605891,-0.061843584972620005,-0.013961013074219226
1772807492793449700,1.75944970703125,0.13649229098260401,-0.06465221265256405,-0.01857756695896387
1772807492803381800,1.7693818359375,0.1363771493034903,-0.11053484290540218,0.003494564117491245
1772807492813313500,1.7793134765625,0.13993746300041673,-0.06644844841957091,-0.003366553823649883
1772807492823246600,1.78924658203125,0.05258068485306575,0.023849077621102333,0.047207156854867934
1772807492833178600,1.7991787109375,-0.0025981906665023414,0.041053310400247574,0.060100686828047034
1772807492843110700,1.809110595703125,-0.011007707093423231,0.06409574781358242,0.08727423269674181
1772807492853042700,1.819042724609375,0.006964002926880494,-0.002437456279993057,0.1005301662415266
1772807492862974700,1.828974609375,0.14158758656131104,0.05225158076286315,0.1064412899814546
1772807492872906800,1.83890673828125,0.08197453711973503,-0.006545476120710373,0.1557977338247001
1772807492882838500,1.848838623046875,0.24367550363885238,-0.07444295430481433,0.13025251981019972
1772807492892770600,1.8587705078125,0.1663894348626025,-0.05486673169732093,0.1379496501840651
1772807492902702600,1.86870263671875,0.11750353114055469,-0.06645663172602653,0.16559285939112306
1772807492912634600,1.878634521484375,0.12681730293082072,-0.12767945445179937,0.21677023505121468
1772807492922566700,1.888566650390625,0.11767770039737224,-0.11081775150001048,0.10478665464222431
1772807492932498700,1.898498779296875,0.11232523345351218,-0.05148234995603561,0.12344123236015438
1772807492942430500,1.908430419921875,0.08069616948068141,-0.08352993160188198,0.12957505894005297
1772807492952362500,1.918362548828125,0.07143442013859748,-0.10927227562367915,0.11167685254737734
1772807492962294500,1.92829443359375,0.07015196084631607,-0.12466156793534755,0.10553206618204712
1772807492972226600,1.9382265625,0.0543541060000658,-0.12828677269518374,0.10325184629037976
1772807492982158600,1.94815869140625,0.03604395780563354,-0.1535994931280613,0.10726108193174004
1772807492992090600,1.958090576171875,0.02203004550039768,-0.16908873868286609,0.09280410203412175
1772807493002022400,1.9680224609375,0.05740353843225166,-0.15401508819162846,0.0970778338305652
1772807493011954400,1.977954345703125,0.06675649145543575,-0.13992284995317458,0.145310095949471
1772807493021886500,1.987886474609375,0.11420037967562675,-0.1301315237790346,0.15778963829427956
1772807493031818000,1.99781787109375,0.11753918697582558,-0.10987199508249759,0.14861425206139683
1772807493041750000,2.00775,0.10065350036025046,-0.12288052973747253,0.14025602743029594
1772807493051681800,2.017681884765625,0.08900397909879684,-0.1195008241713047,0.11864727608188987
1772807493061613800,2.02761376953125,0.021021178985107688,-0.07184592354893685,0.09259761967658996
1772807493071545900,2.0375458984375,0.003995207116007805,-0.04843582186698913,0.09006444793716073
1772807493081478000,2.047477783203125,0.017267945665121076,-0.02422200258672237,0.08014613438248634
1772807493091410000,2.057409912109375,-0.02142623438835144,0.017491233026981353,0.07247399231940507
1772807493101341700,2.067341796875,-0.0039449382334947585,0.028131869506835935,0.05911635196581483
1772807493111273700,2.077273681640625,0.07864447938157246,-0.01724047313630581,0.0900460354976356
1772807493121205800,2.087205810546875,-0.007678279542922974,-0.04900105453431606,0.14162322413027287
1772807493131137800,2.0971376953125,-0.003449263671040535,-0.025306875213980673,0.11059183378964661
1772807493141069800,2.10706982421875,-0.027270302507746962,-0.04438450064957142,0.10699512447193264
1772807493151003000,2.1170029296875,-0.1252694707006216,-0.04465338071882725,0.07522080680951476
1772807493160933600,2.12693359375,-0.10598784712553024,-0.03925765915513038,0.06038564124926924
1772807493170866700,2.13686669921875,-0.0517050527960062,-0.02757891179919243,0.06225757260099053
1772807493180798700,2.146798828125,-0.03344519175039604,-0.016886837393045424,0.06377995986267924
1772807493190730800,2.156730712890625,-0.02292668381286785,-0.01717033050954342,0.054469256812334055
1772807493200662800,2.166662841796875,-0.045547680943738664,-0.011297639083862304,0.07230565001517533
1772807493210594800,2.1765947265625,-0.08512273548496886,-0.011400514936447143,0.07274287238866091
1772807493220526800,2.18652685546875,-0.08530804719030857,-0.04284253190457821,0.051729456584900614
1772807493230458600,2.196458740234375,-0.08968436257839202,-0.04251753773391247,0.0380574895851314
1772807493240390700,2.206390625,-0.06007131460309028,-0.010432546687126159,0.0178115510225296
1772807493250323000,2.216322998046875,-0.058657356151938435,0.002499415600299835,-0.003453209193795919
1772807493260255000,2.2262548828125,-0.08488193073272704,-0.000014028525352478027,-0.004344897336512804
1772807493270187000,2.23618701171875,-0.05861819318532943,0.026630817294120788,-0.013800415685027836
1772807493280119000,2.246119140625,-0.005652326673269271,0.027681203129887578,-0.03104819534495473
1772807493290050800,2.25605078125,-0.021512761894334105,-0.010267711514234543,-0.03595350304320454
1772807493299982800,2.26598291015625,-0.03654140420006588,-0.06138824242055416,-0.05746551601886749
1772807493309915000,2.275914794921875,-0.05055473198341205,-0.05988251403272152,-0.056835255291312926
1772807493319847000,2.285846923828125,-0.03531330544352531,-0.031413959917426106,-0.03825491185337305
1772807493329779000,2.295779052734375,-0.06067454119324684,-0.024264088162779807,-0.03900470730736851
1772807493339711000,2.3057109375,-0.07439907863046974,-0.01519347747862339,-0.031097879705578087
1772807493349642800,2.315642822265625,-0.023919220247864723,-0.022319968357682227,-0.03227832166180014
1772807493359574800,2.32557470703125,-0.07226972018526867,-0.033625790748000144,-0.037004911792278286
1772807493369506800,2.3355068359375,-0.04516483737230301,-0.00856675281524658,-0.02912380315363407
1772807493379438800,2.34543896484375,-0.020656419059634206,-0.003162263423204422,-0.009948270301520824
1772807493389371000,2.355370849609375,-0.014982465076446532,-0.020778584134578705,0.002892506571114063
1772807493399302700,2.365302734375,0.03374269512593746,-0.030740006178617475,0.010560556980967521
1772807493409234700,2.375234619140625,0.06477905390262603,-0.04819382980465889,0.008955313741415739
1772807493419166700,2.385166748046875,0.03229541892707348,-0.05934416937232017,0.03643485681936145
1772807493429098800,2.3950986328125,0.018282109410036353,-0.04718552954494953,0.033956922398507595
1772807493439030800,2.40503076171875,0.03428511317325756,-0.0601619154959917,0.006027005204558372
1772807493448962800,2.414962890625,0.057529813426733016,-0.043323008897900576,-0.012172960613667964
1772807493458894800,2.424894775390625,0.08483105906201525,-0.04695698148608207,-0.021941052042692897
1772807493468827000,2.434826904296875,0.10261047964692115,-0.061247957167029375,-0.015083295102417469
1772807493478759700,2.444759765625,0.11540332572460174,-0.06866846255660057,-0.01071311719417572
1772807493488691700,2.454691650390625,0.056990902510751035,-0.03356850760281086,-0.012820172476023435
1772807493498623700,2.464623779296875,0.0792675979822874,-0.07819090866148472,-0.005078910699486732
1772807493508555800,2.4745556640625,0.11211950001465155,-0.1190782148450613,0.01188230710402131
1772807493518487800,2.48448779296875,0.09776013527261093,-0.08111644071936606,0.02924085366204381
1772807493528419800,2.494419921875,0.06674070936441422,-0.06532850447893142,0.03272738060355186
1772807493538351900,2.504351806640625,0.08749476184593513,-0.07664426374137401,0.026406068627536295
1772807493548284000,2.514283935546875,0.07658464250862598,-0.0806833099991083,0.03212693049237132
1772807493558216000,2.5242158203125,0.08158407649742438,-0.08021861509680747,0.03943170054778457
1772807493568148000,2.53414794921875,0.07748480621874332,-0.09973930812478064,0.038721214190870525
1772807493578080000,2.544080078125,0.08760640552686527,-0.08629939631521702,0.0029559271961450573
1772807493588011800,2.55401171875,0.05024320008251816,-0.05142272872328758,0.014764146150648593
1772807493597943800,2.56394384765625,0.035669900328852235,-0.03523030333518982,0.0019005729243159292
1772807493607875800,2.573875732421875,0.03172960173785686,-0.05168108739852905,0.0227491535551846
1772807493617808000,2.583807861328125,-0.0011322006340138612,-0.09602642508149146,0.0140209265679121
1772807493627740000,2.593739990234375,0.025280571728944778,-0.04654372451007366,0.01886164459735155
1772807493637672000,2.603671875,0.005225643960107117,-0.0477794037848711,0.021144787098467347
1772807493647603700,2.613603759765625,0.028763134881388396,-0.06828969237208365,0.02275163777321577
1772807493657535700,2.62353564453125,0.043855508339405054,-0.06977846962511539,0.042401802399754523
1772807493667467800,2.6334677734375,0.04949846439613029,-0.08786649950146674,0.02607975928261876
1772807493677399800,2.64339990234375,0.046966918358206745,-0.07002864499390125,0.004324731331318617
1772807493687331800,2.653331787109375,0.008829787665605545,-0.061086044603586194,0.005868161381036043
1772807493697263900,2.663263916015625,0.009895371070504188,-0.05132803617715835,0.00038490766435861584
1772807493707195600,2.673195556640625,0.030230303090810776,-0.01820142712295055,0.002675356689095497
1772807493717127700,2.683127685546875,0.020273538955580442,-0.031548399952054024,-0.0069677931860089295
1772807493727060000,2.69306005859375,0.02377365603102371,-0.004681435814499855,-0.002690261997282505
1772807493736992000,2.702991943359375,-0.04431141714705154,0.011807342171669006,0.03371332290098071
1772807493746924000,2.712924072265625,-0.02929974424242973,0.002647299638390541,-0.01469984874278307
1772807493756855800,2.722855712890625,0.008066968333255499,-0.0006704466074705124,-0.0037274960905313488
1772807493766787800,2.732787841796875,-0.03745148651599884,0.008797638961672783,0.003948006973415613
1772807493776720600,2.742720703125,-0.11235155520485714,-0.013241758888959884,-0.023507570707052946
1772807493786653000,2.75265283203125,-0.18487552414583042,-0.025582185024023055,-0.06289484759122133
1772807493796585000,2.7625849609375,-0.18698095372617243,0.010928221249580383,-0.10427388281449675
1772807493806517000,2.77251708984375,-0.1673404337108135,0.023659108006954192,-0.11298808127641677
1772807493816449000,2.782448974609375,-0.17581543485568835,0.0237982242166996,-0.08515110306292772
1772807493826380800,2.792380859375,-0.16964054561303926,0.01345978555381298,-0.06905877704843878
1772807493836312800,2.802312744140625,-0.17513095972286535,0.00301028773188591,-0.10933657303154468
1772807493846244900,2.812244873046875,-0.17484920190572736,0.002361468434333801,-0.08450272215679287
1772807493856177000,2.822177001953125,-0.17089549584388733,0.0073953709483146664,-0.14820654804334044
1772807493866109000,2.83210888671875,-0.15614976213276385,0.016652444115281103,-0.18282719504758715
1772807493876041000,2.842041015625,-0.13803312721643596,0.019188684594631192,-0.17049363704472778
1772807493885972700,2.85197265625,-0.13086800309373064,0.016643676286935805,-0.16835560210272668
1772807493895904800,2.86190478515625,-0.10858491441402583,0.021601590955257415,-0.1751848636008799
1772807493905836800,2.8718369140625,-0.11060443754289298,0.023906945288181304,-0.1637191744737327
1772807493915768800,2.881768798828125,-0.14174484121594577,0.014106266763806342,-0.1565935603775084
1772807493925700900,2.891700927734375,-0.12641864073574544,0.031000702941417692,-0.15577566812336444
1772807493935633000,2.9016328125,-0.14437164605557917,0.035224458116292955,-0.13618687829524279
1772807493945564700,2.911564697265625,-0.1806874430725351,0.0051566521108150475,-0.1116724686332047
1772807493955496700,2.92149658203125,-0.16817516750190406,-0.039270518636703486,-0.10855506726503372
1772807493965428700,2.9314287109375,-0.15194938783347606,-0.0313531696408987,-0.10667276064977049
1772807493975360800,2.94136083984375,-0.1497036547333002,-0.03848082956373691,-0.10408464385271071
1772807493985292800,2.951292724609375,-0.10567218703879043,-0.025239070674777028,-0.10148059883415698
1772807493995224800,2.961224853515625,-0.08764436291707679,-0.01676291875243187,-0.08648571266755462
1772807494005156900,2.971156982421875,-0.10319441701471804,-0.022782909694314003,-0.09839768425747751
1772807494015089000,2.9810888671875,-0.07491524799168109,-0.019954992792010306,-0.0816270205900073
1772807494025021000,2.99102099609375,-0.10280629447996616,-0.029242461097240446,-0.07194587679207325
1772807494034953500,3.000953369140625,-0.08614564879192038,-0.0008452186524868011,-0.08048983325362205
1772807494044885800,3.0108857421875,-0.08438041095137595,0.01973404351770878,-0.0665023705638945
1772807494054817800,3.02081787109375,-0.06255845524370669,0.005254267266392707,-0.0569902997225523
1772807494064749800,3.030749755859375,-0.06452829401195048,-0.029100422278046607,-0.038260026419907806
1772807494074682600,3.0406826171875,-0.07128770514428615,-0.05686345847249031,-0.029138416200876233
1772807494084614400,3.050614501953125,-0.07916589117348194,-0.05993862813413143,-0.020172581065446137
1772807494094546400,3.06054638671875,-0.08948679417967796,-0.0678349343419075,-0.01746171467155218
1772807494104478700,3.070478759765625,-0.072584174695611,-0.07989654353559017,-0.03273132612630725
1772807494114410800,3.08041064453125,-0.06298515622317791,-0.07081658050119877,-0.028903438401222226
1772807494124342800,3.0903427734375,-0.047859483283758164,-0.08021160083413123,-0.01969327311590314
1772807494134274800,3.10027490234375,-0.04304123281445354,-0.09508943649232388,-0.008988923750072717
1772807494144206600,3.11020654296875,-0.04010810197200626,-0.06682429599463939,-0.007577157256007194
1772807494154138600,3.120138671875,-0.04102821249160915,-0.06243862825632095,0.01646554324105382
1772807494164070700,3.130070556640625,-0.07088146243095397,-0.050153147178888316,-0.0029176410123705862
1772807494174002700,3.140002685546875,-0.0805044097682461,-0.05793956327140331,-0.0053441375069320195
1772807494183934700,3.149934814453125,-0.08967731178309768,-0.031761750441789624,-0.016941928581148385
1772807494193866800,3.15986669921875,-0.057654316589236254,-0.0527115994900465,-0.04449263719916344
1772807494203798500,3.169798583984375,-0.05617839881777763,-0.036565351331233974,-0.04806552724987268
1772807494213730600,3.17973046875,-0.03548047870397567,-0.04822831659615039,-0.06176978908404707
1772807494223662600,3.18966259765625,-0.007587715182639658,-0.03555412846207619,-0.07721767971515656
1772807494233594600,3.1995947265625,-0.04772800239119678,-0.045025136640667915,-0.0477739969573915
1772807494243526700,3.209526611328125,-0.020185878938436506,-0.006526186898350716,-0.03285495250597596
1772807494253458700,3.219458740234375,0.0062438993582502,-0.01011398225724697,0.005961831013858318
1772807494263390500,3.229390380859375,0.006596292992495,-0.008042436680197716,0.024148352828621863
1772807494273322500,3.239322509765625,-0.040365291603468356,-0.0206523274064064,0.015143939248472451
1772807494283254500,3.249254638671875,-0.02797054146528244,-0.04727554591596126,-0.010005845707654953
1772807494293186600,3.2591865234375,-0.03300502850115299,-0.04681143553555012,-0.02419233810082078
1772807494303118600,3.26911865234375,-0.03676112963166088,-0.04718552954494953,-0.03488601994216442
1772807494313050600,3.279050537109375,-0.04054594539999962,-0.03879296425282955,-0.013858137221634387
1772807494322982700,3.288982666015625,-0.036464813566207885,-0.05846095679700374,0.0035993396662175655
1772807494332915500,3.29891552734375,-0.03569788431432098,-0.061601008388400075,0.017486264590919016
1772807494342847500,3.308847412109375,-0.02535126234497875,-0.05425999797582626,0.00409326066300273
1772807494352779500,3.318779541015625,-0.02846274542901665,-0.05531798259615898,0.004975158064067364
1772807494362711600,3.328711669921875,-0.030544775867462157,-0.04642214395701885,-0.0037957390211522577
1772807494372643600,3.3386435546875,-0.03624970951080322,-0.07330079853236675,0.03384337902143597
1772807494382575600,3.34857568359375,-0.02374740734491497,-0.08259995727539061,0.04364259624108672
1772807494392507600,3.358507568359375,-0.0029302082329988478,-0.06725041245222091,0.017255524574965236
1772807494402439700,3.368439697265625,-0.032890498743392525,-0.05318973839581012,0.02081467836126685
1772807494412371700,3.378371826171875,-0.045872656848095356,-0.03607844459712505,0.016445961757749317
1772807494422303700,3.3883037109375,-0.0033633754858747125,-0.015206336960196494,-0.019597703786939383
1772807494432235800,3.39823583984375,-0.0029021877149119973,-0.009324877706170081,-0.0036697745539247986
1772807494442167600,3.40816748046875,-0.006879274652339518,-0.019952070182561874,0.030609219405800102
1772807494452099600,3.418099609375,0.011674655702710151,-0.04385433929562568,0.034392245075851674
1772807494462031600,3.428031494140625,-0.01583820512294769,-0.035848727494478226,0.01420110544040799
1772807494471963600,3.437963623046875,-0.010809599838592112,-0.03277998757362365,-0.0062197512976825235
1772807494481895700,3.447895751953125,-0.059230772125720976,-0.035088264515995976,-0.047832010754942894
1772807494491827700,3.45782763671875,-0.0853366887629032,-0.018267478096485136,-0.05406286796852946
1772807494501759500,3.467759521484375,-0.08856383411586284,-0.020316227319836615,-0.05645034762695431
1772807494511691500,3.47769140625,-0.06489248768184333,-0.05511339993476867,-0.030627339584380388
1772807494521623600,3.48762353515625,-0.00595974865462631,-0.06331248848140239,-0.03895326938107609
1772807494531555600,3.4975556640625,-0.001955846775509417,-0.0490559995919466,0.009225947376340627
1772807494541487600,3.507487548828125,-0.016643676286935805,0.017643208718299865,0.043095483752340076
1772807494551419600,3.517419677734375,-0.12679273474514483,0.015683306822180748,0.0584923748485744
1772807494561351400,3.527351318359375,-0.018608838880062102,-0.08250175759792328,0.011075082374364137
1772807494571283500,3.537283447265625,0.03840133458673954,-0.03518821775913238,0.03138341864868999
1772807494581215700,3.5472158203125,-0.004011537196300923,-0.08178630280494689,-0.041369390612095595
1772807494591147800,3.557147705078125,0.07024320106003433,-0.003590717968344688,-0.03253200416192412
1772807494601080600,3.56708056640625,-0.01907820995748043,-0.04458090000450611,-0.02380377717465162
1772807494611012600,3.5770126953125,-0.0001695478806272149,-0.04388590347766876,-0.033425738131254906
1772807494620944600,3.586944580078125,0.010491583397984503,0.025438392639160156,-0.014935264933854341
1772807494630876400,3.59687646484375,-0.030274105699919163,0.032059856605529784,-0.022809651570767163
1772807494640808700,3.60680859375,-0.03944821329116821,-0.02356909163594246,-0.01518017960563302
1772807494650740700,3.61674072265625,-0.000886135184764862,-0.03359890274107456,-0.029932050796598195
1772807494660672800,3.6266728515625,-0.07648173012342303,-0.019364041161537168,-0.02202887645661831
1772807494670604800,3.636604736328125,-0.10953589499592781,-0.017520459121465683,-0.018293927711993455
1772807494680536800,3.646536865234375,-0.038818646683357654,-0.03914075477719307,-0.06279562500044703
1772807494690468600,3.656468505859375,-0.009739267193339764,-0.018098551270365713,-0.044169834985584015
1772807494700400600,3.666400634765625,0.01853814826402813,-0.03437047163546085,-0.04683057862743735
1772807494710332700,3.676332763671875,0.02109192440006882,-0.08715513636171818,-0.020234394255280494
1772807494720264700,3.6862646484375,0.03128770318925381,-0.07661094599366187,-0.016276304279267788
1772807494730196700,3.69619677734375,-0.07447627205252647,-0.018475567889213562,0.036719518979638814
1772807494740128500,3.70612841796875,-0.09445636275317519,-0.07943594028651714,0.038991555564850566
1772807494750060500,3.716060546875,0.02349606293234974,-0.07091828731000423,-0.006779431007057428
1772807494759992600,3.72599267578125,-0.015146131205558777,-0.04895487730503082,-0.022945552910119293
1772807494769924600,3.735924560546875,-0.015893771235086025,-0.07051146007478237,-0.022229075203835963
1772807494779856600,3.745856689453125,0.04595978714227676,-0.06298924787640571,-0.050842444617301225
1772807494789788700,3.75578857421875,-0.06876194952633231,-0.07964403007924556,-0.046132513360679146
1772807494799720400,3.765720458984375,-0.012129413732886314,-0.0835726016998291,-0.043078971008956427
1772807494809652500,3.775652587890625,0.03437748589813709,-0.09443301841020584,-0.0678315733410418
1772807494819584500,3.78558447265625,-0.006592237871885299,-0.08719371480643749,-0.07476268777847289
1772807494829516500,3.7955166015625,-0.05102233122885227,-0.055710196784138674,-0.07241802434846759
1772807494839449600,3.80544970703125,-0.05653320360481739,-0.12701543758511544,-0.08093626184687018
1772807494849381600,3.815381591796875,-0.07605674617700278,-0.12695698539614678,-0.03298793123587966
1772807494859313700,3.825313720703125,-0.06158522629737854,-0.13564590328633785,-0.045047640733420845
1772807494869245400,3.835245361328125,-0.07042495083510875,-0.07859247519969939,-0.054890550964325664
1772807494879177500,3.845177490234375,-0.12031685326192527,-0.00756079064309597,-0.027256401846557855
1772807494889109500,3.855109619140625,-0.14136548650953917,0.04873275898694992,-0.03324731282442808
1772807494899041500,3.86504150390625,-0.12658698303997515,0.05047463421821594,0.0021855273455381394
1772807494908973600,3.8749736328125,-0.09827972043361514,0.013599486285448074,0.010926613814383744
1772807494918905900,3.88490576171875,-0.09861936418414115,-0.042431613016128536,0.04841682490557432
1772807494928837600,3.894837646484375,-0.05618077343795448,-0.07227788522541523,0.06812412654682994
1772807494938769700,3.904769775390625,-0.07546232394780963,-0.05390227057933807,0.05072407893463969
1772807494948701700,3.91470166015625,-0.06076685911919921,-0.036252632120251656,0.0550609390951693
1772807494958633700,3.9246337890625,-0.050806606118939814,-0.019705986467003823,0.03642828094810247
1772807494968565800,3.934565673828125,-0.062124118947051464,0.011251461854577064,0.01958952048048377
1772807494978497800,3.944497802734375,-0.023531682235002516,0.03808803085386753,0.02934825955927372
1772807494988429600,3.9544296875,-0.021626177407242358,0.05283318004310131,0.016809826634079216
1772807494998361600,3.964361572265625,-0.03142795191016048,0.038024902489781374,0.033442250874638556
1772807495008293600,3.974293701171875,-0.010870938104391097,-0.0010047931283712387,0.043916590876877305
1772807495018225700,3.9842255859375,-0.03047466977331787,-0.008604162216186522,0.0035458559133112427
1772807495028156400,3.994156494140625,-0.08282499820291996,0.00144610715508461,0.006024228725582361
1772807495038088200,4.004088134765625,-0.12591712095439433,0.00024900632500648496,0.01445756441950798
1772807495048020200,4.014020263671875,-0.0558574963003397,-0.006399345648288726,-0.03173559308722615
1772807495057952300,4.0239521484375,-0.01664952150583267,-0.01431552560031414,-0.03882145969495177
1772807495067884300,4.03388427734375,0.019656265573762356,-0.03229717249274253,-0.04928074825853109
1772807495077816300,4.04381640625,0.05227960128095001,-0.03250058611035347,-0.022536387587338686
1772807495087749000,4.0537490234375,0.04080255050957202,-0.056091889578104015,0.005060790520906448
1772807495097681200,4.06368115234375,0.02306987340953201,-0.07701543514132499,0.016640899807959793
1772807495107613200,4.07361328125,0.008507679571770132,-0.05712766236662865,-0.0022043781764805315
1772807495117545200,4.083545166015625,-0.0193365686327219,-0.05157762702405452,0.005927636483311653
1772807495127477200,4.093477294921875,-0.01629705480635166,-0.03753331958055496,0.0008973872311413288
1772807495137409300,4.1034091796875,-0.012722155461646616,-0.035037411111593246,-0.027143881382793188
1772807495147341000,4.113341064453125,0.04231584114935249,-0.020187632504105567,-0.03424056164547801
1772807495157273000,4.123273193359375,0.0502016259631142,-0.000796118813753128,-0.06250935540497303
1772807495167205000,4.133205078125,0.02755786901116371,-0.026346739655733108,-0.03760010120645165
1772807495177137200,4.14313720703125,0.023254618859291077,-0.05103694427609443,-0.02159852221533656
1772807495187069200,4.153069091796875,0.014949768383242188,-0.022816227442026136,-0.04196194967776537
1772807495197001200,4.163001220703125,0.015163666862249374,-0.009134908092021941,-0.012567366758733987
1772807495206933000,4.17293310546875,0.013414777368307113,-0.018787702578306198,0.0021735446467995643
1772807495216865000,4.182864990234375,0.02464114131424576,-0.003134206372499466,-0.009201981978863478
1772807495226797000,4.192797119140625,0.0374579527894035,0.009992401704192161,-0.0019232231475412845
1772807495236729000,4.20272900390625,0.0489074944993481,0.013143559211492538,-0.028926965407282113
1772807495246661000,4.2126611328125,0.047747255080938335,0.0030880291432142256,-0.011578209590911865
1772807495256593200,4.22259326171875,0.04254442574083805,0.00116027595102787,-0.02689575184062123
1772807495266525000,4.23252490234375,0.026584128608182073,0.031100071662664413,-0.024598580814152955
1772807495276457000,4.24245703125,-0.007528641939163207,0.013696516919136047,-0.025957740338146684
1772807495286389000,4.252388916015625,-0.0010568155765533446,-0.005711947906017303,-0.03900821443870663
1772807495296321300,4.2623212890625,0.05132862069904804,-0.008072247296571732,-0.043586336009204384
1772807495306253300,4.27225341796875,0.04679389987885952,-0.028815760117769238,-0.04933759301230311
1772807495316186000,4.28218603515625,0.06307517259418964,-0.0416360787242651,-0.04714461301267147
1772807495326118100,4.2921181640625,0.06915365225765854,-0.0431131655395031,-0.04079027554988861
1772807495336050000,4.3020498046875,0.0633341157913208,-0.05164776965081692,-0.025700989098101854
1772807495345982000,4.31198193359375,0.11595332429017871,-0.06606441753804683,0.002853781995922327
1772807495355914200,4.321914306640625,0.11513850077595561,-0.029828736552596092,0.014441928458958864
1772807495365846300,4.33184619140625,0.11963815028276294,-0.03231996884644031,0.07293897948265075
1772807495375778300,4.3417783203125,0.12212825006544589,0.0005570493608713149,0.08307181257084012
1772807495385710300,4.35171044921875,0.08445351272020489,-0.0566460163295269,0.09613134676069021
1772807495395642000,4.36164208984375,0.16107264202032237,-0.02272854915857315,0.036572950115799904
1772807495405575000,4.371574951171875,0.08181903603076934,0.006838321587443351,0.03868745805174112
1772807495415508000,4.381508056640625,0.07390344060063361,-0.0018844985723495483,0.030943273665755985
1772807495425440000,4.39143994140625,0.12660915833916514,-0.050585693377256394,0.009903408246487378
1772807495435372000,4.4013720703125,0.1608709089031443,-0.05917933419942856,-0.008220715856552124
1772807495445304000,4.411303955078125,0.191892070110701,-0.05675006122589111,0.013432605285942553
1772807495455236000,4.421236083984375,0.19422551802694796,-0.05673252556920051,0.016959902629256247
1772807495465168100,4.431168212890625,0.14480419225394725,-0.0672381374925375,0.033463585923612114
1772807495475100200,4.44110009765625,0.13650924211740492,-0.11497077952623366,0.07994155172109603
1772807495485032200,4.4510322265625,0.08623568342924118,-0.129595517206192,0.030968261976540085
1772807495494964200,4.460964111328125,0.10106734185814857,-0.1252250470370054,-0.013643325427174568
1772807495504896300,4.470896240234375,0.12566862608604132,-0.0938940892279148,-0.04682561019137502
1772807495514828300,4.480828369140625,0.07169796644560993,-0.07783785744011401,-0.07391440038606524
1772807495524760300,4.49076025390625,0.09001406945679337,-0.11961246785223484,-0.008865589631348848
1772807495534692000,4.500692138671875,0.1020686643877998,-0.1538262876212597,-0.028127047201246022
1772807495544624000,4.5106240234375,-0.03797178406305611,-0.11328560291826724,-0.02551788761615753
1772807495554556200,4.52055615234375,0.08053838510308414,-0.08539455642998219,0.05676452814266085
1772807495564488200,4.53048828125,0.01598433559536934,-0.0866354964017868,-0.017353870382905007
1772807495574420200,4.540420166015625,-0.0735678519707173,-0.040164252606034276,-0.0026610359027981756
1772807495584352000,4.55035205078125,-0.1050830072402954,0.0045329672545194625,0.013802023120224475
1772807495594284000,4.560283935546875,-0.13382394855618476,0.02649170108437538,-0.004985825588554144
1772807495604216000,4.570216064453125,-0.1235487113226205,0.009870236629247665,-0.00987505893483758
1772807495614148000,4.580148193359375,-0.16028934615552423,-0.053307227295637125,0.009775251822173595
1772807495624080100,4.590080078125,-0.02007956901974976,-0.07314999188482761,-0.015038286916911602
1772807495634013200,4.60001318359375,-0.03210435333438218,-0.048048868376016615,0.011008593009412287
1772807495643945200,4.6099453125,-0.011041033974289894,-0.05424480040669441,0.0019470424145460127
1772807495653877000,4.619876953125,-0.014229016360640525,-0.058734513041377064,0.04498305106461048
1772807495663809000,4.62980908203125,-0.08509593880958854,-0.009638765960931777,-0.015665186643600462
1772807495673741000,4.639740966796875,-0.1493956847626716,0.03377542835175991,-0.01806552578359842
1772807495683673000,4.649673095703125,-0.16690321133732794,0.03111585375368595,-0.025680092440545556
1772807495693605000,4.659605224609375,-0.16923424810077994,-0.007854220631718634,-0.048860184758901595
1772807495703537200,4.669537109375,-0.15465280157327652,-0.03937631709873676,-0.09941577525883913
1772807495713469000,4.679468994140625,-0.154579151815176,-0.04325871149003505,-0.07900719348043203
1772807495723401000,4.68940087890625,-0.12015081251263618,-0.02957213144302368,-0.03300283654406667
1772807495733333000,4.6993330078125,-0.12223463304936885,-0.008951368218660355,-0.039262773721665145
1772807495743265000,4.70926513671875,-0.13120645953416823,0.007825579059123993,-0.039594051502645014
1772807495753197300,4.719197265625,-0.1411760648846626,-0.013179215046763419,-0.03351604676321149
1772807495763129300,4.72912939453125,-0.13032032434940338,-0.024290391647815702,-0.03385463106781244
1772807495773061000,4.73906103515625,-0.13384323777854443,-0.029025603476166725,-0.036437925559282304
1772807495782993200,4.7489931640625,-0.11282441514730453,-0.04851356327831745,-0.022861089497059582
1772807495792925200,4.75892529296875,-0.07265146777816116,-0.042677112209796905,-0.016754443185031415
1772807495802857200,4.768857177734375,-0.036798648630455136,-0.015261282017827033,-0.046458092053234576
1772807495812789200,4.778789306640625,-0.006202909760735929,-0.013166940087080001,-0.041814357900619506
1772807495822721300,4.78872119140625,0.024517843728139994,-0.019405542215704917,-0.055684477820992465
1772807495832653000,4.798653076171875,0.02688987008910626,-0.02208674412369728,-0.06485621079206466
1772807495842585000,4.808585205078125,0.024820553001761433,-0.047483635708689687,-0.06482698469758033
1772807495852518100,4.81851806640625,0.04626611314509064,-0.06345511182248592,-0.05251753822267055
1772807495862450200,4.8284501953125,0.03737674077935517,-0.026949381723999976,-0.024363310753554104
1772807495872382200,4.83838232421875,-0.05028408008217811,-0.02957914570569992,-0.044006461117416615
1772807495882314200,4.848314208984375,-0.029170637970045207,-0.03955985697209835,-0.03873553497716784
1772807495892246300,4.858246337890625,-0.02408054828941822,-0.04515139336884021,0.003767097448557615
1772807495902178000,4.868177978515625,-0.037657786210440095,-0.043477322676777834,0.01092266829162836
1772807495912110000,4.878110107421875,-0.028224223965406418,-0.005379354950785636,-0.007074030039459466
1772807495922042000,4.8880419921875,-0.007450389071181416,0.0012894552886486053,-0.005524462509900331
1772807495931974100,4.89797412109375,0.053362172353267665,0.030343115815520284,-0.02591550863161683
1772807495941906200,4.90790625,0.1096188971042633,0.0027267946153879162,-0.04166442803591489
1772807495951838000,4.917837890625,0.13210311611294745,-0.03949906669557094,-0.04210077362656593
1772807495961770000,4.92777001953125,0.033325931018590924,-0.038275077858567236,-0.022685440669208762
1772807495971702000,4.937701904296875,0.031566556663252414,-0.036632571348547936,0.06523205836713314
1772807495981634000,4.947634033203125,0.1152734887998551,-0.10730828207433223,0.050408437114208934
1772807495991566000,4.957566162109375,0.11668160203211009,-0.09561842880249023,0.1100407757781446
1772807496001498000,4.967498046875,0.14655483531355856,-0.08184124786257743,0.10815496203154325
1772807496011430100,4.97743017578125,0.1795972732156515,-0.06386895332038402,0.07625248794481158
1772807496021362200,4.987362060546875,0.12082074766345322,-0.03977028485238552,-0.0002044365309178829
1772807496031294000,4.9972939453125,0.04085983365476131,-0.031489363241195674,-0.01730462441369891
1772807496041226000,5.00722607421875,0.006914893954992294,-0.017620412364602087,-0.060953650395572184
1772807496051158800,5.01715869140625,0.001575907547213137,-0.002381342178583145,-0.038483752173185344
1772807496061091000,5.027091064453125,0.08163900328874588,-0.03753624219000339,0.03560235151797533
1772807496071022800,5.03702294921875,0.0819868303457275,-0.12115735920667647,0.014897709402441978
1772807496080955000,5.046954833984375,0.15183124134652315,-0.05498889677226543,-0.004616553884744644
1772807496090887000,5.056886962890625,0.07273958445303141,-0.04391337600648403,0.04768646480441093
1772807496100819000,5.06681884765625,0.10650573351979255,-0.11812485964298247,-0.039197599530965084
1772807496110751000,5.0767509765625,0.07413374222517014,-0.08745441156923771,-0.006817863321304321
1772807496120683000,5.08668310546875,-0.031301147192716594,-0.10565642321407795,0.013021978658437728
1772807496130614800,5.09661474609375,-0.03400521851964295,-0.11632687031030654,0.025016806226223706
1772807496140546800,5.106546875,0.0471347126731649,-0.017857143729925154,0.07796499095112085
1772807496150478800,5.116478759765625,-0.12071253804862499,-0.011574117937684059,0.05643091227412223
1772807496160411000,5.126410888671875,-0.005901332998275757,0.06777472858726978,0.044212358953058715
1772807496170343000,5.136343017578125,-0.1301613343954086,0.0374707757383585,-0.012532003184407949
1772807496180274700,5.146274658203125,-0.06662552201952784,-0.014608955588936805,-0.06396276908367872
1772807496190206700,5.156206787109375,0.02273322533369064,-0.060436640784144395,-0.016904811441153286
1772807496200138800,5.166138671875,0.02974624590091407,-0.11700316213667392,-0.028858868607133624
1772807496210070800,5.17607080078125,-0.015561799334362149,-0.13811433922648428,-0.05618512081950903
1772807496220002800,5.1860029296875,-0.04086213520970195,-0.13669044390320778,-0.023075316769629716
1772807496229934800,5.195934814453125,-0.019422493350505828,-0.017442717710137366,0.03277560365945101
1772807496239868000,5.205867919921875,-0.10335457601249218,0.008169277930259703,0.047142128794640296
1772807496249799700,5.215799560546875,-0.08278590830154717,-0.02290975094437599,0.00519771477356553
1772807496259731700,5.225731689453125,-0.09828384861946106,-0.017860650861263275,-0.04125584723502397
1772807496269663700,5.235663818359375,-0.10447685804069042,-0.01718552807867527,-0.0719192810460925
1772807496279595800,5.245595703125,-0.09779986449480056,-0.03864566473662853,-0.11689473332613706
1772807496289527800,5.25552783203125,-0.09316694399714469,-0.041913726621866224,-0.1349089673139155
1772807496299459800,5.2654599609375,-0.07766304886247963,-0.058254620569944376,-0.1134703118354082
1772807496309391600,5.2753916015625,-0.09562599105443804,-0.07930851451456546,-0.057243836092203855
1772807496319324000,5.285323974609375,-0.07997077781558036,-0.041810266247391696,-0.05178951620906591
1772807496329256000,5.295255859375,-0.07636069755963981,-0.034844518887996674,-0.008527151457220316
1772807496339188000,5.30518798828125,-0.10450425750426948,-0.013570844712853431,0.02504661684259772
1772807496349120000,5.3151201171875,-0.12799568079411983,0.007288987964391708,0.021998189057409762
1772807496359052000,5.325052001953125,-0.09267707812096923,0.028124855244159697,0.013715660011023282
1772807496368983800,5.33498388671875,-0.084675009983778,0.04591185634732246,0.020215689554810522
1772807496378915800,5.344915771484375,-0.05055997441411018,0.04983750535845756,-0.0012209200970828532
1772807496388847900,5.354847900390625,-0.03863857740871608,0.05133271235227584,-0.03519771623983979
1772807496398780000,5.36477978515625,-0.0012859481573104857,-0.005896072301268577,-0.03763458799794316
1772807496408712000,5.3747119140625,0.009989479094743728,-0.05303425557315349,-0.023560908329486846
1772807496418644000,5.38464404296875,-0.06228789467401802,-0.0777121852338314,-0.049723231329023836
1772807496428577000,5.394576904296875,-0.10776946984529495,-0.11565233204960822,-0.04081380255594849
1772807496438508800,5.4045087890625,-0.1032487775504589,-0.11099252354502677,-0.03318915289640426
1772807496448440800,5.41444091796875,-0.10074768144972622,-0.13537351608574388,-0.03987666783630848
1772807496458372900,5.424372802734375,-0.07192892565727234,-0.10767419277727604,-0.059842474283277984
1772807496468305000,5.434304931640625,-0.04693886130750179,-0.048671384188532826,-0.05973448386415839
1772807496478237000,5.44423681640625,-0.040639980359002945,-0.0038631051689386364,-0.07305866033956408
1772807496488169000,5.4541689453125,-0.028350407628342508,0.0523585482686758,-0.09721943425834179
1772807496498100700,5.464100830078125,-0.05928505959622562,0.07792728928923606,-0.05266410708650946
1772807496508032800,5.47403271484375,-0.031102336684986947,0.05142448228895664,-0.0157234927020967
1772807496517964800,5.48396484375,-0.033688919112086296,0.012713351100683211,0.020111206267029044
1772807496527896800,5.493896728515625,-0.0161292239587754,-0.06888415113389491,0.0988188322789967
1772807496537828900,5.503828857421875,0.019708397619798777,-0.12507599395513533,0.11454320176392793
1772807496547760600,5.5137607421875,0.008244681254029274,-0.12975041550695895,0.1331295365512371
1772807496557692700,5.523692626953125,-0.003515972231701016,-0.08317512681484222,0.1387557058699429
1772807496567624700,5.533624755859375,0.019965514186024665,-0.01117839661836624,0.1542139717645943
1772807496577556700,5.543556640625,-0.02189969711899757,0.003965396499633789,0.11387290128692984
1772807496587488800,5.55348876953125,-0.05907587382495403,-0.04997779061198234,0.012595423809438943
1772807496597421000,5.563421142578125,0.02360124033987522,0.08064180894494057,-0.05068856922984123
1772807496607353900,5.573353759765625,-0.0635947394888848,0.02987842091321945,-0.08981061930656432
1772807496617285600,5.58328564453125,0.08825579107999801,-0.07189443886578083,-0.1599143753632903
1772807496627217700,5.5932177734375,-0.059631169620156285,-0.024969021561741828,-0.1392228849902749
1772807496637149700,5.603149658203125,0.020796631247922776,-0.1299661040842533,-0.16006050583571194
1772807496647081700,5.613081787109375,-0.06548815202005207,-0.20147008232772348,-0.14626900410950183
1772807496657014000,5.623013916015625,-0.1338695412635803,-0.16106559122502803,-0.13476283684149384
1772807496666946000,5.632946044921875,-0.13175824819803236,-0.13168109130859373,-0.11552315271198749
1772807496676877800,5.6428779296875,-0.12631401131749154,-0.031201778471469876,-0.13553499025776983
1772807496686809900,5.652809814453125,-0.13315700908005237,0.0655956309825182,-0.11065861541554331
1772807496696742000,5.662741943359375,-0.08475275139510631,0.06502689118385314,-0.13713979510590432
1772807496706674000,5.672673828125,-0.0259112708479166,0.1145855796009302,-0.1323423316963017
1772807496716606000,5.68260595703125,0.03462181604802608,0.14433832830786705,-0.1002500341258943
1772807496726538000,5.6925380859375,0.07545242360830307,0.052741410106420514,-0.05803367129564285
1772807496736469800,5.7024697265625,0.10725092586390673,-0.07497311565876007,-0.030320027200877665
1772807496746401800,5.71240185546875,0.03473170616328716,-0.24895664064586162,-0.04231894642189145
1772807496756333800,5.722333740234375,0.02027246124334633,-0.2124105785369873,-0.04431947258934378
1772807496766265900,5.732265869140625,-0.14607961901724337,-0.14155951124429703,0.010870499712973833
1772807496776198000,5.742197998046875,-0.08924246402978897,-0.1490285319507122,-0.03411138230785727
1772807496786130000,5.7521298828125,-0.017869418689608573,-0.0854939251512289,-0.05045739082247019
1772807496796063000,5.76206298828125,-0.052315366714075204,-0.031574703437089915,-0.06722016344442963
1772807496805994800,5.771994873046875,-0.05577149851731956,0.01799158376455307,-0.10259732790440321
1772807496815926800,5.7819267578125,0.01445405728816986,0.08053776404857635,-0.09679989367201924
1772807496825858800,5.79185888671875,0.01504442439675331,0.07993921363353729,-0.058392859996855256
1772807496835790800,5.801790771484375,0.005801452820375561,0.052748424369096755,0.011758680724352598
1772807496845723000,5.811722900390625,-0.07744973490536212,-0.005628945797681808,0.027181436914205548
1772807496855655000,5.821655029296875,-0.04495908566713333,-0.048369770893454546,0.02592968328744173
1772807496865586700,5.831586669921875,-0.05641812585778534,-0.08995791882276534,0.021615765611082315
1772807496875518700,5.841518798828125,-0.03503631513305008,-0.16344927149116992,0.05038651754334569
1772807496885450800,5.85145068359375,-0.011034677298739552,-0.12292787601053715,0.014073971929401158
1772807496895382800,5.8613828125,-0.04575337784998119,-0.03813186999559402,0.02134571649804711
1772807496905314800,5.871314697265625,-0.05623853150717914,-0.03864040403962135,-0.02135901437103748
1772807496915246800,5.881246826171875,0.026411621585488317,-0.004996493113040924,-0.06405205480232834
1772807496925179000,5.891178955078125,0.02653612474799156,0.020090017348527906,-0.04971519415304065
1772807496935111000,5.90111083984375,0.019253566524386406,0.028818098205327988,-0.030474633240699767
1772807496945043000,5.91104296875,0.04547704512663185,0.010214520022273063,0.029469401720911264
1772807496954975000,5.92097509765625,0.018711203275993467,-0.050716626280546184,0.0849741390608251
1772807496964907000,5.930906982421875,-0.019943229288980364,-0.13945289435386657,0.09982976288720964
1772807496974839800,5.94083984375,0.020751111605763435,-0.13161854746639728,0.06635740913525223
1772807496984771800,5.950771728515625,-0.034119784810021515,-0.08936521362662316,0.02575491124242544
1772807496994704000,5.960703857421875,-0.0471522848624736,-0.07908814976215361,-0.02586684718430042
1772807497004636000,5.970635986328125,-0.07322714877426624,-0.04599953463077545,-0.025090163723379372
1772807497014568000,5.98056787109375,-0.053325858930870884,-0.02468085227012634,-0.04804141572192311
1772807497024500000,5.9905,-0.03879815188460052,0.02108545812666416,-0.011595891378074884
1772807497034432500,6.0004326171875,-0.03269289381206036,0.03565583527088165,-0.05113689751923084
1772807497044364500,6.010364501953125,0.0041284781068563455,-0.00407119496166706,-0.08177914241179823
1772807497054296300,6.02029638671875,0.00899630333893001,-0.041788638937473296,-0.07927198189646005
1772807497064228400,6.030228271484375,-0.011043956583738326,-0.075059040376544,-0.07878478290140628
1772807497074160400,6.040160400390625,-0.03662212301976978,-0.08230594276487826,-0.056637833023071286
1772807497084092400,6.050092529296875,-0.0663186845600605,-0.12402911525070666,-0.020575608908385036
1772807497094024400,6.0600244140625,-0.061653615358471865,-0.10975041452944279,-0.06265957753062248
1772807497103956200,6.069956298828125,-0.06903488471619784,-0.06123743577301502,-0.05273468810468912
1772807497113888300,6.07988818359375,-0.0852104320347309,-0.01951777041852474,-0.03483940432146192
1772807497123820300,6.0898203125,-0.0566372485011816,0.046506899631023405,-0.06501257039755583
1772807497133752300,6.09975244140625,-0.05405943390242755,0.05692307970523834,-0.07044204810038208
1772807497143685400,6.109685302734375,-0.04459777807407081,-0.007578910821676253,-0.07266060093268752
1772807497153617400,6.119617431640625,-0.02441715983264148,-0.04717676171660423,-0.1270227441087365
1772807497163549400,6.129549560546875,-0.00890219531469047,-0.05662789615094661,-0.09084230044186115
1772807497173481200,6.139481201171875,-0.02322590422146022,-0.04106324727237224,-0.04303776221573353
1772807497183413200,6.149413330078125,-0.04072130196690559,-0.06507599102258682,-0.029523908387124535
1772807497193345300,6.15934521484375,-0.020348960545659062,-0.04255903878808021,-0.011280687949061393
1772807497203277300,6.16927734375,-0.02811959454715252,-0.029189269605278966,0.015136778855323791
1772807497213209300,6.179209228515625,-0.06609715076386928,-0.05310907437503338,0.018212240777909755
1772807497223141400,6.189141357421875,-0.08089899857640266,-0.05690963570177555,-0.0019280454531311988
1772807497233073200,6.1990732421875,-0.05105038827955723,-0.028003274691104887,-0.03332432358339429
1772807497243005200,6.209005126953125,-0.04770334287397563,0.0037228199154138563,-0.06386573844999074
1772807497252937200,6.218937255859375,-0.0749935739248991,0.0016980360895395277,-0.06812237298116088
1772807497262869200,6.228869140625,-0.08570603353194892,0.005507949766516685,-0.08849529892429708
1772807497272801300,6.23880126953125,-0.07709200750887393,-0.18525076893270015,-0.004744125787168741
1772807497282733600,6.248733642578125,-0.20170206445269284,-0.16047522411644458,0.07900880091562866
1772807497292665300,6.258665283203125,-0.18219189281873405,0.1365542503029108,0.034502135191112754
1772807497302598100,6.26859814453125,-0.010478687383793294,0.06699205377697945,0.034695611936599015
1772807497312530200,6.2785302734375,0.017981646892428396,0.009022095367312431,0.062178369884937995
1772807497322462200,6.288462158203125,0.0926052915263921,-0.02962123128175735,0.07503770532757044
1772807497332394200,6.298394287109375,0.13123108251877127,-0.08429623979926108,0.053133770424872634
1772807497342326500,6.308326416015625,0.07828969286084175,-0.11024550457000731,0.051408554067462676
1772807497352258600,6.318258544921875,0.028856165193393825,-0.0734422528296709,0.08134133551642299
1772807497362190300,6.3281904296875,-0.00537350973188877,-0.0377408248513937,0.03221358586251735
1772807497372122400,6.338122314453125,-0.0605237345457077,-0.05130348625779152,0.025580285327881574
1772807497382054400,6.348054443359375,-0.06311484701745211,-0.05167641122341156,0.022677403493225574
1772807497391986400,6.357986328125,-0.09983045700695366,-0.02552840901017189,-0.08445844462364911
1772807497401918500,6.36791845703125,-0.02486731475293636,-0.038494273567199706,-0.07430427648648619
1772807497411850500,6.3778505859375,0.009155366358160971,-0.06059037004113197,-0.02210179556235671
1772807497421782300,6.3877822265625,0.03267594267725944,-0.05270341618359089,0.017928017009049654
1772807497431714300,6.39771435546875,0.038543373405933376,-0.041674072647094725,-0.035529140151292084
1772807497441646300,6.407646240234375,0.0352261386167258,-0.039590836632251734,-0.032371845164149995
1772807497451578400,6.417578369140625,-0.007005494847893715,-0.014722352835536003,-0.10680135546550154
1772807497461510400,6.427510498046875,0.07142565231025219,-0.06363572908639907,0.047713206680864095
1772807497471443500,6.437443359375,0.049630036620236934,-0.033382629641890524,0.0039139585733413695
1772807497481375500,6.44737548828125,0.02176533014960587,-0.05504442635178566,-0.02507043610960245
1772807497491307300,6.457307373046875,-0.005424253538437188,-0.04400923759639263,-0.05842822357118129
1772807497501239300,6.4672392578125,-0.009242460119724273,0.004991232416033745,-0.048194268196076154
1772807497511171300,6.47717138671875,-0.010278817430138587,0.014672668474912642,-0.15295710357129572
1772807497521103400,6.487103271484375,-0.022293153415992854,-0.09545710076093673,-0.07055749117359518
1772807497531035400,6.497035400390625,-0.022248656687140465,-0.0900339066684246,0.0512277906730771
1772807497540967200,6.50696728515625,-0.03620177871584892,-0.015401567271351814,-0.03374284125640988
1772807497550899200,6.516899169921875,0.0019406126737594603,-0.03118599638044834,-0.011164660353958605
1772807497560831200,6.526831298828125,0.006153188867494464,-0.04141688301563263,0.0985541899934411
1772807497570763300,6.53676318359375,-0.005026961316540837,0.002280219891667366,0.03579904313385487
1772807497580695300,6.5466953125,0.052399537866190074,-0.01846738458275795,-0.07886851566210389
1772807497590627300,6.55662744140625,0.04232990620732307,-0.04455635008513927,-0.07933861739188432
1772807497600559400,6.566559326171875,0.0005213935256004333,-0.06984452059864997,-0.04437777864784002
1772807497610491400,6.576491455078125,0.006108838269114494,-0.036785716083645816,-0.05394406389445066
1772807497620423400,6.58642333984375,-0.009858546191453934,-0.028804654201865194,-0.04292626466527581
1772807497630356200,6.596356201171875,-0.0519271711140871,-0.033122517400979996,-0.06433657083213329
1772807497640288300,6.606288330078125,-0.07414893979430198,-0.016003040295839308,-0.06084565997645259
1772807497650220300,6.61622021484375,-0.03638071547932922,-0.008167524364590645,-0.05508475836217403
1772807497660152300,6.62615234375,-0.0216332282025367,-0.02175122855901718,-0.05224135162979364
1772807497670084400,6.63608447265625,0.002010170778632164,-0.0263514158308506,-0.060547699943184846
1772807497680016400,6.646016357421875,0.007637947532534599,-0.023338790011405944,-0.040047932749986644
1772807497689948400,6.655948486328125,0.034593758997321124,-0.0056564183264970775,-0.01092354507446289
1772807497699880400,6.66588037109375,0.0072235580453649155,0.014252981758117674,-0.059116498096287246
1772807497709812500,6.6758125,0.0066845923304557795,0.029855624559521673,-0.059084203261882066
1772807497719744500,6.68574462890625,0.02125442148540169,-0.0070697922557592385,-0.026446108376979825
1772807497729676300,6.69567626953125,-0.007371405550837516,-0.023332944792509077,0.001917231798171997
1772807497739608300,6.7056083984375,-0.05596092014219611,-0.05243921228945255,-0.0053108197592198845
1772807497749540400,6.715540283203125,-0.03057045829799026,-0.06179331609010696,-0.0008143851228058338
1772807497759472400,6.725472412109375,-0.020816468459554014,-0.06574000788927079,-0.013642887035757303
1772807497769404400,6.735404296875,-0.004916413614153862,-0.05683364785611629,-0.0329774098418653
1772807497779336400,6.74533642578125,-0.010325067724660039,-0.058684244158864016,-0.05468129212781787
1772807497789268200,6.755268310546875,0.02014898099415004,-0.0038742110848426817,-0.06929609293565153
1772807497799201300,6.765201171875,0.03927570626847446,0.024252982246875762,-0.04604731929525733
1772807497809133300,6.77513330078125,-0.00028700024783611294,-0.005554126995801926,-0.008137275356799364
1772807497819065300,6.7850654296875,-0.003962473890185356,-0.026208207967877387,-0.0018504501722753047
1772807497828997400,6.794997314453125,0.0039711686532944435,-0.036596330991387364,-0.01082066922187805
1772807497838929400,6.804929443359375,0.05893493098430335,-0.03606967676877975,0.025251784025877713
1772807497848861400,6.814861328125,0.01846044338531792,-0.05750643255114555,0.015413257709145546
1772807497858793200,6.824793212890625,-0.03729249656200409,-0.07852467066049576,0.003364800257980823
1772807497868725200,6.834725341796875,-0.05352404838409275,-0.09199790021777153,-0.04705415825024247
1772807497878657300,6.8446572265625,-0.013456936009600759,-0.03048106298148632,-0.06688494014069438
1772807497888589300,6.85458935546875,-0.003050619742274284,-0.030201076996326445,-0.01934270611256361
1772807497898521300,6.864521240234375,-0.04450374311506748,-0.023919220247864723,0.006880261033028363
1772807497908453000,6.874453125,-0.033250527694821355,-0.018390812215209006,0.000561579405516386
1772807497918385200,6.88438525390625,0.00874152486026287,0.0032727380603551864,-0.001689268261194229
1772807497928317200,6.894317138671875,0.04614624962508678,0.006938274830579757,-0.0032834055848419666
1772807497938249500,6.90424951171875,0.04030446479432285,-0.023514731100201604,0.01866714493855834
1772807497948181500,6.914181396484375,0.011515008161589502,-0.05994973405003547,-0.006775777745246887
1772807497958114300,6.9241142578125,0.02251103395037353,-0.05855798743069172,0.009078647860139608
1772807497968046300,6.93404638671875,0.01360182437300682,-0.05265782347619533,0.016082389142364262
1772807497977978000,6.94397802734375,-0.016428572231531144,-0.08027063754498959,0.022564736898988483
1772807497987910100,6.95391015625,-0.027334581649303434,-0.07793138094246387,0.011976122867316008
1772807497997842400,6.963842529296875,-0.039354762854054565,-0.05421674335598945,-0.011277911470085382
1772807498007774500,6.9737744140625,-0.0701302787374705,-0.0169967275083065,-0.016064122833311555
1772807498017706500,6.98370654296875,-0.06059968585874885,-0.025967969471216202,-0.025207506492733955
1772807498027638500,6.993638427734375,-0.018295023690536618,-0.0256499895632267,-0.02169452993571758
1772807498037569800,7.00356982421875,0.13395429693758487,-0.060088850259780884,0.02019493902772665
1772807498047501800,7.013501708984375,-0.01913147451467812,-0.03451777115166187,0.012891338016092777
1772807498057433900,7.023433837890625,0.018395999846979975,0.000443067592382431,-0.00263034850358963
1772807498067366000,7.033365966796875,0.024414346821047365,0.008674304842948913,0.009568477203696966
1772807498077298000,7.0432978515625,0.027151626297831535,-0.013677227696776388,0.013574497974663972
1772807498087229700,7.053229736328125,0.0035948096215724945,-0.05305120670795441,-0.0011861410446465015
1772807498097161700,7.06316162109375,-0.012638495766185222,-0.02353460484445095,-0.006349515157192945
1772807498107094800,7.0730947265625,-0.004660356493853032,-0.00861176100075245,0.000736643711477518
1772807498117026800,7.08302685546875,-0.009703647890686989,-0.06177578043341636,0.020323095452040432
1772807498126958800,7.092958740234375,-0.01806706015355885,-0.08176233740746974,0.00021904957816004753
1772807498136891000,7.102890869140625,-0.002630421568825841,-0.059658642148971555,-0.013957505942881107
1772807498146823000,7.112822998046875,-0.019661051346734165,-0.051827217870950695,-0.02577361594289541
1772807498156754700,7.122754638671875,-0.048024391521885985,-0.05077215586006641,-0.05383300473541021
1772807498166686700,7.132686767578125,-0.0757470226407051,-0.034842765322327614,-0.059970338446646926
1772807498176618800,7.14261865234375,-0.0811152716755867,-0.03859422681033611,-0.04766702945157885
1772807498186550800,7.15255078125,-0.09169625039007515,-0.0376841262280941,-0.0202080907702446
1772807498196482800,7.16248291015625,-0.06261515386700629,-0.008882979157567023,-0.015520955867320298
1772807498206414800,7.172414794921875,0.08062018163502216,-0.01552548591196537,0.0084298285625875
