time,seconds_elapsed,z,y,x
1772882827897545000,0.078544921875,-0.00023826048709452152,0.04039376229047775,0.01287765521556139
1772882827907477000,0.08847705078125,-0.0003622696967795491,0.039655327796936035,0.010775109753012657
1772882827917409800,0.098409912109375,0.005676448345184326,-0.04251810535788536,-0.00852748192846775
1772882827927342800,0.1083427734375,0.000719020958058536,-0.03832719475030899,-0.010441886261105537
1772882827937275000,0.11827490234375,0.0005352628650143743,0.022302065044641495,0.009102254174649715
1772882827947208000,0.1282080078125,0.00202295184135437,0.013629641383886337,0.0072419121861457825
1772882827957141000,0.13814111328125,0.001347840647213161,-0.025187263265252113,-0.004989187233150005
1772882827967073000,0.148072998046875,-0.0005334484158083797,-0.018105417490005493,-0.0038378695026040077
1772882827977006000,0.158006103515625,-0.000695368624292314,0.009308896958827972,0.0038983472622931004
1772882827986939000,0.16793896484375,-0.0015993230044841766,0.0038615139201283455,0.004262438975274563
1772882827996871000,0.177870849609375,0.0007091050501912832,-0.016330307349562645,-0.0032287666108459234
1772882828006804000,0.187803955078125,-0.0014679960440844297,-0.007173531223088503,-0.0010071921860799193
1772882828016737000,0.197737060546875,-0.0005137852858752012,0.007022981531918049,0.0029159104451537132
1772882828026669000,0.2076689453125,0.0018088810611516237,0.00022451533004641533,0.0013593982439488173
1772882828036602000,0.21760205078125,0.0029950530733913183,-0.012626301497220993,-0.003055057255551219
1772882828046534100,0.2275341796875,0.0030031376518309116,-0.0004843631759285927,0.0004888293915428221
1772882828056467000,0.237467041015625,-0.001155921141617,0.006405767519026995,0.0038721091113984585
1772882828066399700,0.247399658203125,-0.0007114100735634565,-0.00007743807509541512,-0.003105552401393652
1772882828076331500,0.25733154296875,0.00024413212668150663,-0.009470939636230469,-0.001154254307039082
1772882828086264600,0.2672646484375,-0.00017827458214014769,0.001506616361439228,-0.0020267926156520844
1772882828096197600,0.27719775390625,0.0014100347179919481,0.006320545915514231,0.0011234607081860304
1772882828106129700,0.287129638671875,-0.0002746988320723176,-0.006302206311374903,0.00009755499922903255
1772882828116062700,0.297062744140625,0.0012443681480363011,-0.006255068350583315,-0.0011045958381146193
1772882828125995500,0.30699560546875,0.000712488079443574,0.008077636361122131,0.0021368609741330147
1772882828135927600,0.316927490234375,0.0022725677117705345,0.004461329896003008,0.001915019704028964
1772882828145860600,0.326860595703125,-0.002203579293563962,-0.006603247951716185,-0.0016405475325882435
1772882828155792600,0.336792724609375,-0.00031326746102422476,-0.005096697714179754,-0.0007340075098909438
1772882828165725700,0.3467255859375,-0.0005409352015703917,0.006015372928231955,0.00206440850161016
1772882828175658800,0.35665869140625,-0.001145738991908729,0.00409097271040082,0.0012438884004950523
1772882828185590800,0.3665908203125,0.0015737861394882202,-0.0024961456656455994,-0.0020182360894978046
1772882828195523800,0.37652392578125,-0.0021735476329922676,-0.0015898719429969788,-0.0021993310656398535
1772882828205456600,0.38645654296875,0.0004992479807697237,0.0022353874519467354,0.003956708125770092
1772882828215388700,0.396388671875,0.002463861834257841,0.0006673187017440796,0.0032507041469216347
1772882828225321700,0.40632177734375,0.0002813540631905198,-0.0051627689972519875,0.00036795600317418575
1772882828235254800,0.4162548828125,-0.0002696539741009474,-0.004192046821117401,-0.0013489839620888233
1772882828245186800,0.426186767578125,0.00011561112478375435,0.002737442497164011,0.00007126106356736273
1772882828255120000,0.436119873046875,-0.0017427427228540182,0.0006396705284714699,0.00008297897147713229
1772882828265052700,0.446052734375,0.0020034490153193474,0.0006600222550332546,0.0012374967336654663
1772882828274984700,0.455984619140625,0.0009578918688930571,0.0013926578685641289,0.0012060714652761817
1772882828284917800,0.465917724609375,0.00035429291892796755,0.0014447672292590141,-0.0012895619729533792
1772882828294850800,0.475850830078125,-0.00036316271871328354,-0.0012309104204177856,0.00019009027164429426
1772882828304782600,0.485782470703125,0.00013566459529101849,0.0013855481520295143,-0.00021252318401820958
1772882828314715600,0.495715576171875,0.0008613760001026094,-0.0003444412723183632,-0.0018732703756541014
1772882828324647700,0.505647705078125,0.0006579799810424447,-0.0026284800842404366,-0.0008874055929481983
1772882828334580700,0.515580810546875,-0.0011489748721942306,-0.0010020877234637737,-0.0009236246114596725
1772882828344513500,0.525513427734375,0.00201436597853899,0.003383234143257141,-0.0005410521407611668
1772882828354445600,0.535445556640625,0.0025888097006827593,-0.001027759164571762,0.00040357105899602175
1772882828364378600,0.545378662109375,0.0021247819531708956,-0.001381749752908945,-0.0003692971367854625
1772882828374311700,0.555311767578125,0.00019612075993791223,0.0036337818019092083,0.0023266207426786423
1772882828384243700,0.56524365234375,0.0006504645571112633,0.0021718735806643963,0.00029841336072422564
1772882828394176800,0.5751767578125,0.0007066572434268892,-0.0030830756295472383,0.0009687310084700584
1772882828404109800,0.58510986328125,0.0009174770093522966,-0.008933030068874359,-0.0032060586381703615
1772882828414041900,0.595041748046875,-0.001449806964956224,-0.0015049413777887821,-0.004176780581474304
1772882828423974700,0.604974609375,-0.0025936109013855457,0.005729032214730978,0.0012254068860784173
1772882828433907700,0.61490771484375,0.00009538291487842798,0.006721059326082468,0.005338659510016441
1772882828443839700,0.62483984375,0.0005502832354977727,-0.004068346694111824,-0.0017773103900253773
1772882828453772800,0.634772705078125,0.0011662724427878857,-0.009868178516626358,-0.0020582738798111677
1772882828463704800,0.644704833984375,-0.0011010700836777687,0.0070378901436924934,0.0023356943856924772
1772882828473638000,0.654637939453125,0.0022585075348615646,0.0038498202338814735,0.00009704122930997983
1772882828483570700,0.66457080078125,0.0023781093768775463,-0.0104674082249403,-0.001053336076438427
1772882828493502700,0.674502685546875,-0.0012331370962783694,-0.002685119165107608,-0.0022978312335908413
1772882828503435500,0.684435546875,-0.001576088136062026,0.009805850684642792,0.002539782552048564
1772882828513368600,0.69436865234375,-0.0007212134078145027,0.0015607033856213093,0.002691316418349743
1772882828523300600,0.704300537109375,0.002242695540189743,-0.004481669515371323,-0.00006915888661751524
1772882828533233700,0.714233642578125,-0.0002811821177601814,0.001259839627891779,0.00027705205138772726
1772882828543166700,0.724166748046875,0.0008138327393680811,-0.0032620462588965893,0.0006174994632601738
1772882828553098800,0.7340986328125,0.0014758945908397436,-0.002415693597868085,-0.0003881101729348302
1772882828563031600,0.744031494140625,0.0013444586656987667,0.0023046303540468216,0.0016516806790605187
1772882828572964600,0.753964599609375,-0.0010979262879118323,0.0009528095833957195,-0.00036646268563345075
1772882828582896600,0.763896728515625,-0.0013825049391016364,-0.008527109399437904,-0.00012746069114655256
1772882828592829700,0.77382958984375,0.00019914639415219426,-0.0016130106523633003,-0.0013807442737743258
1772882828602761700,0.78376171875,-0.0023899893276393414,0.008133040741086006,0.001671908306889236
1772882828612694800,0.79369482421875,0.0008215167908929288,-0.0010868222452700138,-0.0008530346094630659
1772882828622627800,0.8036279296875,-0.0004027942195534706,-0.003513739677146077,-0.003219583770260215
1772882828632559900,0.813559814453125,0.0009767231531441212,-0.0001363186165690422,0.00019219204841647297
1772882828642492700,0.82349267578125,0.00006178527837619185,0.0031772167421877384,-0.0020603181328624487
1772882828652425700,0.83342578125,-0.0009504822082817554,-0.0013480260968208313,0.0014939364045858383
1772882828662357800,0.843357666015625,-0.0018020602874457836,-0.0038192798383533955,-0.004701485391706228
1772882828672290800,0.853290771484375,-0.00030749442521482706,-0.0018298984505236149,0.0034792127553373575
1772882828682223900,0.863223876953125,-0.0000016872072592377663,0.0017383294180035591,0.0005787692498415709
1772882828692155600,0.87315576171875,-0.0001937011256814003,0.0058249495923519135,0.0006583976792171597
1772882828702088700,0.883088623046875,-0.0004321720916777849,-0.00012090522795915604,0.0005040913238190114
1772882828712021800,0.893021728515625,-0.00047478266060352325,-0.004277034197002649,-0.0017803682712838054
1772882828721953500,0.90295361328125,-0.0005909540923312306,-0.0027902391739189625,-0.0021966765634715557
1772882828731886600,0.912886474609375,-0.0010671273339539766,0.007393156178295612,0.00376560864970088
1772882828741818600,0.922818603515625,0.0002592283417470753,0.0011058608070015907,0.001212902832776308
1772882828751751700,0.932751708984375,0.000850450131110847,-0.006173357367515564,-0.0013418676098808646
1772882828761684700,0.942684814453125,-0.0011635926784947515,0.0011897743679583073,0.0004154413763899356
1772882828771616800,0.95261669921875,-0.00021124642807990313,0.004970664624124765,0.0006412774091586471
1772882828781549600,0.962549560546875,0.002790330909192562,-0.0016569350846111774,0.0011050021275877953
1772882828791482600,0.972482666015625,0.00041372596751898527,0.0026592500507831573,0.00017183052841573954
1772882828801414700,0.98241455078125,0.00022405397612601519,0.0030874283984303474,0.002209202153608203
1772882828811347700,0.99234765625,-0.0001866054954007268,-0.001207983586937189,-0.001139989122748375
1772882828821280800,1.00228076171875,-0.002432944718748331,-0.004578250460326672,-0.0015582306077703834
1772882828831212800,1.012212890625,0.001256865100003779,0.00017922045662999153,0.0012162505881860852
1772882828841145900,1.022145751953125,-0.00032201665453612804,0.000016711652278900146,0.0007476030732505023
1772882828851078700,1.03207861328125,-0.0002554376842454076,-0.0012221909128129482,-0.003918787464499474
1772882828861010700,1.0420107421875,-0.0002765007084235549,-0.004696765448898077,0.0015326881548389792
1772882828870943700,1.05194384765625,-0.00004480569623410702,0.003615492954850197,0.0022498774342238903
1772882828880875800,1.061875732421875,0.000272638164460659,0.0008418923243880272,0.0010007059900090098
1772882828890808800,1.071808837890625,0.0007842314662411809,-0.003756055375561118,-0.002458473900333047
1772882828900742000,1.081741943359375,0.00020709354430437088,-0.0002451860345900059,0.0012614469742402434
1772882828910673700,1.091673583984375,-0.0013295504031702876,0.00017452798783779144,0.0008443959522992373
1772882828920606700,1.101606689453125,0.00020668312208727002,-0.010670693591237068,-0.004332865588366985
1772882828930539500,1.11153955078125,-0.0019701847340911627,-0.004471121355891228,-0.0015133770648390055
1772882828940471600,1.121471435546875,0.0004057877231389284,0.010195842944085598,0.00398231903091073
1772882828950404600,1.131404541015625,-0.00010074547026306391,0.0031451238319277763,0.0006959784659557045
1772882828960337700,1.141337646484375,-0.0007257553515955806,-0.003722716588526964,-0.0035042515955865383
1772882828970269700,1.151269775390625,-0.0006322783883661032,-0.006242866162210703,-0.004196407273411751
1772882828980202800,1.16120263671875,-0.0012476397678256035,0.009266399778425694,0.004702831152826548
1772882828990135600,1.171135498046875,-0.00016000471077859402,-0.0005833017639815807,-0.002025113208219409
1772882829000067600,1.181067626953125,0.0009537292644381523,-0.009927269071340561,-0.0019193856278434396
1772882829010000600,1.191000732421875,-0.0013569964794442058,0.00034299446269869804,0.0007369815721176565
1772882829019933700,1.20093359375,-0.002502553164958954,0.007188335061073303,0.0014684833586215973
1772882829029865700,1.21086572265625,0.002290870528668165,-0.0007910286076366901,0.002580353058874607
1772882829039798800,1.220798828125,0.00033519224962219596,-0.003897823393344879,-0.0022624023258686066
1772882829049730800,1.230730712890625,0.001296327100135386,-0.0048895846121013165,0.0024463327135890722
1772882829059664100,1.2406640625,-0.0013750719372183084,0.0025178431533277035,-0.001412174548022449
1772882829069597200,1.25059716796875,-0.0035332979168742895,-0.0012047230266034603,-0.0003884553734678775
1772882829079529000,1.260529052734375,0.001147800823673606,0.003644895739853382,-0.0009618413168936968
1772882829089462000,1.2704619140625,-0.0023196348920464516,0.001342593226581812,0.00031567702535539865
1772882829099395000,1.28039501953125,-0.0006343955174088478,-0.0013440949842333794,-0.0007362907053902745
1772882829109327000,1.2903271484375,0.0004401899641379714,-0.0013781832531094551,0.0013116801856085658
1772882829119260200,1.30026025390625,0.0013681406853720546,-0.004054659977555275,-0.000418950425228104
1772882829129193000,1.31019287109375,-0.001009795698337257,0.0027481182478368282,0.0013909338740631938
1772882829139125000,1.320125,-0.0020015216432511806,0.0033685872331261635,0.003692439990118146
1772882829149058000,1.33005810546875,-0.0020997924730181694,-0.006645697634667158,-0.0031454924028366804
1772882829158990000,1.339989990234375,-0.0008999271085485816,-0.005137976724654436,0.0009097128640860319
1772882829168923100,1.349923095703125,-0.0015984742203727365,0.0063543617725372314,0.0021097331773489714
1772882829178856200,1.359856201171875,-0.0010788538493216038,0.0024840706028044224,-0.00044266681652516127
1772882829188788200,1.369788330078125,-0.0002604643814265728,-0.0049791717901825905,-0.0006730302702635527
1772882829198721300,1.37972119140625,0.0002487351302988827,0.0018371394835412502,0.00037183985114097595
1772882829208654000,1.389654052734375,-0.0006053406978026032,0.005969300400465727,0.002576670842245221
1772882829218586000,1.399586181640625,-0.00008575967513024807,-0.0025383534375578165,-0.002488687401637435
1772882829228519200,1.409519287109375,-0.00021146086510270834,-0.005487537942826748,-0.0033632696140557528
1772882829238452200,1.4194521484375,-0.001226558000780642,0.0007730210199952126,0.0012473936658352613
1772882829248384300,1.42938427734375,0.002620111685246229,0.0025474848225712776,0.00005775952013209462
1772882829258317300,1.4393173828125,0.0012222857913002372,-0.001263925340026617,0.00175262033008039
1772882829268250000,1.44925,-0.00029172119684517384,0.002787542063742876,0.0011331690475344658
1772882829278182100,1.45918212890625,-0.0005268871318548918,0.0016600391827523708,0.0008691826951690018
1772882829288115000,1.469114990234375,0.001828945241868496,0.0012975833378732204,0.0010742461308836937
1772882829298047000,1.479046875,-0.0005318964831531048,-0.001297561451792717,-0.00008528361649950966
1772882829307980000,1.48897998046875,-0.0018435034435242414,0.005219459533691406,0.001449496136046946
1772882829317913000,1.4989130859375,0.0028109168633818626,0.003558527212589979,0.002273367717862129
1772882829327845000,1.50884521484375,0.0017512449994683266,-0.004505791235715151,0.001252045389264822
1772882829337778200,1.518778076171875,-0.0009570852853357792,-0.004207653924822807,0.00031015908461995423
1772882829347711000,1.5287109375,0.00047276593977585435,0.00577813433483243,0.0021924814209342003
1772882829357643000,1.53864306640625,-0.00001623632851988077,0.006036275066435337,0.003547416068613529
1772882829367576000,1.548576171875,0.0025513172149658203,-0.004762310069054365,-0.0011125830933451653
1772882829377509000,1.558509033203125,0.002853582613170147,-0.004625980276614428,0.0015070164809003472
1772882829387441200,1.568441162109375,0.0003169216215610504,0.003575757145881653,0.0013525531394407153
1772882829397374200,1.578374267578125,-0.001481779501773417,0.0030011828057467937,0.002580663887783885
1772882829407307300,1.588307373046875,-0.0007675198139622808,-0.00371371116489172,-0.0026439253706485033
1772882829417239300,1.5982392578125,-0.0008989976486191154,-0.0014757239259779453,-0.00010511354776099324
1772882829427172000,1.608172119140625,-0.000040394486859440804,0.005902297329157591,0.0021050437353551388
1772882829437104000,1.618104248046875,0.0005594235844910145,0.004790262784808874,-0.00019642122788354754
1772882829447037200,1.628037109375,-0.00004378240555524826,-0.0019326210021972656,0.000035007469705305994
1772882829456970200,1.63797021484375,-0.0009211839642375708,0.000014013145118951797,0.0010768661741167307
1772882829466902000,1.647902099609375,0.001112938392907381,0.0016252254135906696,0.0006867131451144814
1772882829476835000,1.6578349609375,-0.0012289060978218913,0.0004839561879634857,-0.00338552868925035
1772882829486768000,1.66776806640625,-0.0038113733753561974,-0.00045161228626966476,-0.0015125274658203125
1772882829496700200,1.6777001953125,0.0019897962920367718,-0.002667115768417716,0.00032957526855170727
1772882829506633000,1.687633056640625,0.000059537182096391916,-0.00011048140004277229,-0.0013333024689927697
1772882829516566000,1.69756591796875,0.0004985235282219946,0.005770007614046335,-0.0026478348299860954
1772882829526498000,1.707498046875,0.0006045172922313213,0.006169481668621302,0.001779670361429453
1772882829536431000,1.71743115234375,-0.0013763508759438992,-0.002440299838781357,-0.0009175234008580446
1772882829546364200,1.7273642578125,-0.000908966176211834,-0.006225184537470341,-0.00317668286152184
1772882829556296200,1.737296142578125,0.00002669752575457096,0.00428096204996109,0.0006173272849991918
1772882829566229000,1.74722900390625,0.00034760840935632586,0.0001410781405866146,0.0027406655717641115
1772882829576161000,1.7571611328125,-0.0006205650279298425,-0.004344484303146601,-0.0010859400499612093
1772882829586094000,1.767093994140625,-0.0005971292266622186,0.00004680221900343895,-0.00267611350864172
1772882829596027100,1.777027099609375,0.0011820481158792973,0.002227026503533125,-0.0009366326266899705
1772882829605959200,1.786959228515625,-0.0015229246346279979,0.0020912052132189274,0.0006231808220036328
1772882829615892200,1.796892333984375,-0.0009554065763950348,-0.0002367151901125908,-0.0000618550693616271
1772882829625825300,1.8068251953125,0.00042118143755942583,-0.0016796155832707882,0.0007490774733014405
1772882829635757300,1.81675732421875,0.0016966820694506168,-0.001724225003272295,0.00043635396286845207
1772882829645690000,1.826690185546875,-0.0026722336187958717,-0.0015710932202637196,-0.0008992212824523449
1772882829655623200,1.836623046875,0.0011073201894760132,0.0006716600619256496,-0.0006769770407117903
1772882829665555200,1.84655517578125,-0.0011057666270062327,0.003930037375539541,0.0012879031710326672
1772882829675488300,1.85648828125,0.0006699367659166455,-0.001310716848820448,-0.000016189580492209643
1772882829685420000,1.866419921875,0.0010355887934565544,-0.0013341526500880718,0.0008240377064794302
1772882829695353000,1.87635302734375,0.0005343890516087413,0.0009988052770495415,0.0017947060987353325
1772882829705286100,1.8862861328125,-0.0014131807256489992,0.00046484172344207764,-0.0007155895000323653
1772882829715218200,1.89621826171875,0.0013693926157429814,-0.004968228749930859,-0.0025852492544800043
1772882829725151000,1.90615087890625,0.0012330387253314257,-0.004544519819319248,-0.0023839143104851246
1772882829735084000,1.916083984375,0.0006823998992331326,-0.0014627338387072086,0.00414795009419322
1772882829745016000,1.92601611328125,-0.0019245684379711747,-0.00018388405442237854,-0.0013006108347326517
1772882829754949000,1.93594921875,0.0012624531518667936,0.0020557851530611515,0.002272691810503602
1772882829764882200,1.945882080078125,-0.00014156533870846033,0.0005622841417789459,0.0009738680091686547
1772882829774814200,1.955814208984375,0.0011954057263210416,0.003567364066839218,0.001129125477746129
1772882829784747000,1.9657470703125,-0.000858956715092063,0.0003372160717844963,-0.0009436127147637308
1772882829794680000,1.97568017578125,0.0012980620376765728,-0.003246309468522668,-0.0007023390498943627
1772882829804612000,1.985612060546875,-0.0006862592417746782,0.003023304045200348,-0.0002136490074917674
1772882829814545200,1.995545166015625,-0.0012169681722298265,0.0029105236753821373,-0.00018089942750521004
1772882829824477200,2.005477294921875,0.000013944925740361214,-0.004458176903426647,-0.004235295578837395
1772882829834410200,2.01541015625,-0.000055769109167158604,-0.002445254707708955,0.000019124854588881135
1772882829844343300,2.02534326171875,0.0015117675065994263,-0.0010588131844997406,0.00009955231507774442
1772882829854275300,2.035275390625,-0.0014774039154872298,0.0023320745676755905,0.0002808109566103667
1772882829864208100,2.0452080078125,-0.0003508868394419551,-0.0048408834263682365,-0.0024023237638175488
1772882829874141200,2.05514111328125,-0.0010920376516878605,-0.004761591553688049,-0.0021583018824458122
1772882829884073000,2.065072998046875,0.0006294297054409981,-0.0008494080975651741,0.0001365441275993362
1772882829894006000,2.075006103515625,-0.0004443296929821372,-0.0005592284724116325,-0.001086783711798489
1772882829903939300,2.084939208984375,-0.0021705906838178635,-0.003474324708804488,0.0005606477498076856
1772882829913871000,2.09487109375,-0.0010629297466948628,-0.0035656129475682974,-0.0011355681344866753
1772882829923804200,2.10480419921875,-0.002996650990098715,-0.002201541792601347,-0.0024724749382585287
1772882829933736200,2.114736083984375,-0.0011831322917714715,-0.0020282496698200703,-0.0007851519621908665
1772882829943669000,2.1246689453125,-0.0038268519565463066,-0.005043746903538704,0.003658332396298647
1772882829953602000,2.13460205078125,-0.0014774649171158671,-0.0012439517304301262,0.0018621624913066626
1772882829963534000,2.1445341796875,0.0020083466079086065,-0.0009041321463882923,0.0018656245665624738
1772882829973467100,2.154467041015625,-0.0006410775240510702,-0.002954322611913085,0.0013830537209287286
1772882829983400200,2.164400146484375,-0.0007776976563036442,-0.0007012882269918919,0.0012783915735781193
1772882829993332200,2.174332275390625,-0.0018261970253661275,-0.0035062828101217747,-0.0006813897634856403
1772882830003265000,2.18426513671875,-0.003188404254615307,-0.0013754875399172306,0.0010637796949595213
1772882830013198000,2.194197998046875,-0.00013284513261169195,-0.0023774246219545603,0.0001808588858693838
1772882830023130000,2.204130126953125,-0.0011850601295009255,-0.0034373628441244364,-0.00023965424043126404
1772882830033063200,2.214063232421875,-0.0009516431018710136,-0.0004947553388774395,-0.0006298105581663549
1772882830042996200,2.223996337890625,0.0006643629749305546,-0.004643428139388561,-0.000769892823882401
1772882830052928300,2.23392822265625,0.00227687181904912,-0.0009015207178890705,-0.002343632047995925
1772882830062861600,2.243861572265625,-0.0015836465172469616,-0.0028291165363043547,-0.0011872875038534403
1772882830072793300,2.25379345703125,0.0019976384937763214,-0.0027010184712707996,-0.00192617520224303
1772882830082726100,2.26372607421875,0.00018003099830821157,-0.004694128409028053,0.0009039660217240453
1772882830092659200,2.2736591796875,0.0007766780909150839,-0.00341986701823771,-0.0019174416083842516
1772882830102591200,2.28359130859375,0.00006002141162753105,-0.0021745730191469193,-0.0024463452864438295
1772882830112524300,2.293524169921875,0.0011568145127967,-0.01010032556951046,-0.003321724245324731
1772882830122457300,2.303457275390625,-0.0014344410737976432,-0.00602355832234025,-0.0024761706590652466
1772882830132389400,2.313389404296875,0.0009374223882332444,-0.003566921688616276,0.0004107799322810024
1772882830142322200,2.323322265625,-0.00011319469194859266,0.0011370196007192135,-0.0015399856492877007
1772882830152255200,2.333255126953125,0.0014640816953033209,0.0027843699790537357,-0.0024969426449388266
1772882830162187300,2.343187255859375,-0.0005143806338310242,-0.004992859438061714,-0.002974447328597307
1772882830172120300,2.353120361328125,-0.0006621722131967545,-0.004035751800984144,-0.0045112259685993195
1772882830182053400,2.363053466796875,0.00008164864266291261,0.0014572842046618462,0.001187672489322722
1772882830191985400,2.3729853515625,0.003669598139822483,0.0037970091216266155,-0.001386865391395986
1772882830201918500,2.38291845703125,0.0005774018354713917,-0.0020797885954380035,-0.0003330525942146778
1772882830211850500,2.3928505859375,0.002538456115871668,-0.005395896732807159,0.0009391510975547135
1772882830221783300,2.402783203125,0.00040659576188772917,0.004537160973995924,0.0027873849030584097
1772882830231716400,2.41271630859375,0.0032600080594420433,0.008459541946649551,0.0017542956629768014
1772882830241648400,2.4226484375,0.00145385239738971,0.0006668665446341038,0.000004865207301918417
1772882830251581400,2.43258154296875,0.002259224420413375,-0.0073096477426588535,0.0008801817311905324
1772882830261514500,2.442514404296875,0.0024786689318716526,-0.002544719958677888,0.00004022076609544456
1772882830271446300,2.4524462890625,0.0012787622399628162,0.003454074263572693,0.003514955984428525
1772882830281379300,2.46237939453125,0.0018899575807154179,0.004795508459210396,0.0006680366350337863
1772882830291312400,2.4723125,0.00202212855219841,0.0015352340415120125,0.00017545261653140187
1772882830301244200,2.482244140625,0.004401130601763725,0.0028857234865427017,0.00033124754554592073
1772882830311177200,2.49217724609375,0.004331778734922409,0.0047580949030816555,0.0058289021253585815
1772882830321109200,2.502109130859375,0.0008211995009332895,0.0003066207282245159,0.0016882193740457296
1772882830331042300,2.512042236328125,0.0017062739934772253,-0.006357172038406134,-0.0019829042721539736
1772882830340975400,2.521975341796875,0.00022955110762268305,-0.0007453588768839836,-0.0010068558622151613
1772882830350907400,2.531907470703125,-0.000755504472181201,0.008053620345890522,0.002298495266586542
1772882830360840400,2.54184033203125,-0.0006668212590739131,0.003220515325665474,0.00032083189580589533
1772882830370773200,2.551773193359375,0.0035925740376114845,-0.0005284040234982967,0.00032655513496138155
1772882830380705300,2.561705322265625,0.0024740463122725487,0.0028306408785283566,-0.00002524843512219377
1772882830390638300,2.571638427734375,0.00015842024004086852,0.000387006439268589,0.00047066621482372284
1772882830400571400,2.5815712890625,0.00040636054472997785,0.0036994456313550472,-0.0006819498958066106
1772882830410503400,2.59150341796875,0.0008309899130836129,0.00040251994505524635,0.004420252051204443
1772882830420436500,2.6014365234375,0.0007747971685603261,0.004225487355142832,0.002381868427619338
1772882830430369300,2.611369384765625,0.0002588024944998324,0.002370514441281557,0.0023795238230377436
1772882830440301300,2.62130126953125,0.0010335160186514258,0.002124172169715166,-0.00027804443379864097
1772882830450234400,2.631234375,-0.0010568449506536126,0.0014078067615628242,0.0026151256170123816
1772882830460166400,2.64116650390625,-0.0003612271975725889,0.006862493231892586,0.001744005479849875
1772882830470099500,2.651099365234375,-0.0008354210294783115,0.0073182652704417706,0.00308880559168756
1772882830480032500,2.661032470703125,-0.0011286350199952722,0.002372508402913809,0.004565528593957424
1772882830489964300,2.67096435546875,-0.0016357674030587077,-0.0005570421926677227,0.0030646799132227898
1772882830499897300,2.6808974609375,0.00012325047282502055,-0.0016087247058749199,0.002437239047139883
1772882830509830100,2.690830078125,0.0008191115339286625,0.0009700395166873932,0.0012985238572582603
1772882830519762200,2.70076220703125,0.0002630435046739876,0.002837980631738901,0.0008982507861219347
1772882830529695200,2.7106953125,0.0015255289617925882,0.006601063534617424,0.0007261338760145009
1772882830539628300,2.720628173828125,-0.0016201968537643552,0.005654576234519482,-0.0013636485673487186
1772882830549560300,2.730560302734375,-0.0002624404150992632,0.0014163348823785782,0.00017483079864177853
1772882830559493400,2.740493408203125,-0.0006976010045036674,-0.001443633809685707,-0.00029574977816082537
1772882830569425400,2.75042529296875,0.000017832033336162567,-0.0005862177349627018,-0.0005814585601910949
1772882830579358500,2.7603583984375,-0.001120403059758246,-0.004198262933641672,-0.0006618860643357038
1772882830589291300,2.770291259765625,0.00149719777982682,-0.0033926216419786215,-0.0013093334855511785
1772882830599223300,2.780223388671875,0.0013171681202948093,-0.007751150988042355,-0.0034214865881949663
1772882830609156400,2.79015625,-0.0014929070603102446,0.0010071378201246262,0.002491158666089177
1772882830619089400,2.80008935546875,0.0025806641206145287,0.001301683485507965,-0.0013062427751719952
1772882830629021400,2.810021484375,-0.0010125315748155117,-0.0007561170496046543,0.0007020995253697038
1772882830638954500,2.81995458984375,0.00013928551925346255,0.0014298059977591038,0.0016509838169440627
1772882830648887300,2.82988720703125,-0.001925519434735179,0.002378956414759159,0.0016709575429558754
1772882830658819300,2.8398193359375,-0.0033913233783096075,0.0036929603666067123,0.003514397656545043
1772882830668752400,2.84975244140625,-0.003076908877119422,-0.004132239148020744,-0.0005447592120617628
1772882830678684200,2.85968408203125,-0.002413515467196703,-0.004197219852358103,-0.0011093493085354567
1772882830688617200,2.8696171875,-0.0026123132556676865,-0.0019177631475031376,-0.00047283462481573224
1772882830698550300,2.87955029296875,-0.0023459969088435173,-0.0010857917368412018,0.0008520879782736301
1772882830708482300,2.889482421875,-0.0010794294066727161,0.0011080154217779636,0.0034714494831860065
1772882830718415400,2.899415283203125,-0.0000858039129525423,0.004563200753182173,0.001955844461917877
1772882830728348200,2.90934814453125,0.0031698299571871758,-0.0034784001763910055,0.002107145730406046
1772882830738280200,2.9192802734375,-0.0026273392140865326,-0.001037080306559801,-0.0010444390354678035
1772882830748213200,2.929213134765625,-0.001790276844985783,0.0008599944412708282,0.0009687036508694291
1772882830758146300,2.939146240234375,0.0012912667589262128,-0.003386149415746331,-0.0007881837082095444
1772882830768078300,2.949078369140625,-0.0011975571978837252,-0.0029681625310331583,0.0012869572965428233
1772882830778011400,2.959011474609375,-0.003965913318097591,0.0038258275017142296,-0.00023796880850568414
1772882830787944200,2.968944091796875,-0.0011881616665050387,0.003499952144920826,0.0024287905544042587
1772882830797876500,2.97887646484375,-0.0015916306292638183,0.0016011185944080353,-0.00010227775055682287
1772882830807809300,2.988809326171875,0.000044350046664476395,0.0015126299113035202,-0.001546457759104669
1772882830817741300,2.9987412109375,-0.0003607167163863778,0.0006223353557288647,-0.00031341417343355715
1772882830827674400,3.00867431640625,-0.0020388509146869183,-0.0054397378116846085,-0.0029786473605781794
1772882830837607400,3.018607421875,-0.0022383215837180614,-0.0016055847518146038,-0.0019120513461530209
1772882830847539500,3.02853955078125,-0.001133207930251956,0.00046341633424162865,0.00014876405475661159
1772882830857472500,3.038472412109375,-0.0004644880536943674,0.0016884701326489449,0.0006030993536114693
1772882830867405300,3.0484052734375,-0.0010020335903391242,0.002730307634919882,-0.0001485067914472893
1772882830877337300,3.05833740234375,0.0002557775005698204,0.0022115237079560757,-0.0012763554695993662
1772882830887270400,3.0682705078125,0.0007108713616617024,0.0005891174077987671,-0.00041684714960865676
1772882830897203500,3.078203369140625,-0.00021724030375480652,0.001457840669900179,-0.002129526110365987
1772882830907135200,3.08813525390625,-0.0012523323530331254,-0.001346539705991745,-0.0006555751897394657
1772882830917068300,3.098068359375,-0.002205743920058012,-0.0003550448454916477,-0.00043666333658620715
1772882830927000300,3.108000244140625,0.00010669633047655225,0.0020600040443241596,0.000686141662299633
1772882830936933400,3.117933349609375,-0.0015396698145195842,0.001425106544047594,-0.002000188920646906
1772882830946866200,3.1278662109375,0.0023272158578038216,0.0009765834547579288,0.0024334443733096123
1772882830956798200,3.137798095703125,0.001111749093979597,0.0032067145220935345,0.002569531789049506
1772882830966731300,3.147731201171875,0.00006515649147331715,0.0015075458213686943,0.000004048964910907671
1772882830976664300,3.157664306640625,0.0024566752836108208,-0.004440357908606529,-0.00005054583743913099
1772882830986596400,3.167596435546875,0.0007699253619648516,-0.0005968473851680756,0.0012810769258067012
1772882830996529400,3.177529296875,0.0010293172672390938,-0.0006802044808864594,0.0006025035982020199
1772882831006462200,3.187462158203125,0.0013729053316637874,-0.004337592050433159,0.0008951599593274295
1772882831016394500,3.19739453125,0.00012894277460873127,-0.005449461750686169,-0.0008300358313135803
1772882831026327300,3.207327392578125,0.0011254389537498355,0.002032817341387272,0.00020386470714583993
1772882831036260400,3.21726025390625,-0.00044795661233365536,0.004233920015394688,0.002718687755987048
1772882831046192400,3.2271923828125,0.00038557557854801416,0.005862773861736059,0.00047505530528724194
1772882831056124700,3.237124755859375,0.001212220755405724,-0.004014624282717705,0.0009890453657135367
1772882831066056700,3.247056640625,0.0006686243577860296,0.000011591706424951553,0.0005451062461361289
1772882831075989800,3.25698974609375,-0.0015452613588422537,-0.0004246337339282036,0.00479817483574152
1772882831085922800,3.2669228515625,-0.0022783647291362286,-0.0023931055329740047,0.0034841904416680336
1772882831095854800,3.276854736328125,-0.002399805001914501,0.0006514200940728188,-0.0015654293820261955
1772882831105787600,3.28678759765625,0.0014929716708138585,0.0010467288084328175,-0.0004222382267471403
1772882831115720700,3.296720703125,-0.0007739110151305795,0.003542110789567232,0.0004107985587324947
1772882831125652700,3.30665283203125,-0.0023488798178732395,0.004089529160410166,0.0035318320151418447
1772882831135585800,3.316585693359375,0.0022570574656128883,0.00005244370549917221,0.0031328904442489147
1772882831145518800,3.326518798828125,-0.00037226814310997725,0.0031314287334680557,0.0006877115811221302
1772882831155451000,3.336450927734375,0.0014727698871865869,0.0024150386452674866,0.0025774906389415264
1772882831165384000,3.346384033203125,-0.002457108348608017,-0.0030354917980730534,-0.0005193200195208192
1772882831175316700,3.356316650390625,-0.001973744947463274,-0.0020927325822412968,-0.0004990799934603274
1772882831185248500,3.36624853515625,-0.0029142973944544792,0.00024798931553959846,0.002648961264640093
1772882831195181600,3.376181640625,-0.0017363809747621417,-0.0016950531862676144,-0.0002983593149110675
1772882831205113600,3.386113525390625,-0.0008479126263409853,0.00036165956407785416,-0.00011307979002594948
1772882831215046700,3.396046630859375,-0.0015957282157614827,0.0023718136362731457,-0.0002648799563758075
1772882831224979700,3.405979736328125,0.0016564461402595043,0.0025359918363392353,0.0017050127498805523
1772882831234911700,3.415911865234375,0.0009246094850823283,0.00181214464828372,0.0010959478095173836
1772882831244844800,3.4258447265625,0.00017976848175749183,-0.0008589150384068489,-0.0009482509340159595
1772882831254777600,3.435777587890625,-0.0013257164973765612,-0.0009278906509280205,0.00041688542114570737
1772882831264709600,3.445709716796875,-0.00009196193423122168,-0.0007214648649096489,-0.0017258896259590983
1772882831274642700,3.455642578125,-0.0014027698198333383,-0.005506899207830429,0.0023072015028446913
1772882831284575700,3.46557568359375,0.002499572467058897,-0.0014352556318044662,0.0005876705981791019
1772882831294507800,3.4755078125,0.0004310953663662076,-0.002983617363497615,-0.0005316559690982103
1772882831304440800,3.48544091796875,0.003111653495579958,-0.0018682992085814476,0.00040028808871284127
1772882831314372900,3.495372802734375,0.0026469319127500057,0.0012947372160851955,0.0036677203606814146
1772882831324305700,3.5053056640625,0.00441454304382205,-0.0009207809343934059,0.0022957806941121817
1772882831334238700,3.51523876953125,0.002671504160389304,-0.0026201438158750534,-0.0006273048929870129
1772882831344170800,3.525170654296875,0.0029493598267436028,0.0015108827501535416,-0.0005435900529846549
1772882831354103800,3.535103759765625,0.000764236319810152,-0.0007972791790962219,0.001474020886234939
1772882831364036900,3.545036865234375,0.00344177708029747,-0.0010371129028499126,0.0021020059939473867
1772882831373968600,3.55496875,0.0016313601518049836,-0.00031726062297821045,0.0023656589910387993
1772882831383901700,3.564901611328125,0.004800672642886639,0.0015224157832562923,0.0020873164758086205
1772882831393834800,3.574834716796875,0.0019976955372840166,0.000560482032597065,0.0011181922163814306
1772882831403766500,3.5847666015625,0.002235815394669771,-0.0013699275441467762,-0.001432350487448275
1772882831413699600,3.594699462890625,-0.0003506465582177043,-0.0015606097877025604,0.00081162917194888
1772882831423631600,3.604631591796875,-0.0000491592800244689,0.0016478043980896473,-0.0004757115966640413
1772882831433564700,3.614564697265625,-0.0009442477021366358,-0.0012582368217408657,-0.001775067881681025
1772882831443497700,3.624497802734375,0.00047437380999326706,-0.0065721371211111546,-0.0010059949709102511
1772882831453429800,3.6344296875,-0.0008737182943150401,0.0006330450996756554,0.0000012125528883188963
1772882831463362800,3.64436279296875,-0.002931580413132906,-0.0005363938398659229,-0.0014429413713514805
1772882831473295600,3.654295654296875,-0.0036250674165785313,-0.002095674630254507,0.0012135617434978485
1772882831483227600,3.6642275390625,-0.005569344386458397,-0.0026924069970846176,-0.0011292415438219905
1772882831493160700,3.67416064453125,-0.005661755800247192,-0.0016503119841217995,-0.00362675404176116
1772882831503093800,3.68409375,-0.005901001393795013,-0.007581718266010284,-0.0009946899954229593
1772882831513025800,3.69402587890625,-0.0045228153467178345,-0.008048303425312042,0.000190416700206697
1772882831522958800,3.703958740234375,-0.0055747805163264275,-0.00018522609025239944,-0.000015867111869738437
1772882831532891600,3.7138916015625,-0.007145511917769909,-0.005482785869389772,-0.0007572911563329399
1772882831542823700,3.72382373046875,-0.00777176208794117,-0.001775621436536312,-0.0029959469102323055
1772882831552756700,3.7337568359375,-0.0064156800508499146,-0.0010352623648941517,0.0012557897716760635
1772882831562688800,3.743688720703125,-0.007528787944465876,-0.0028695890214294195,-0.0019597786013036966
1772882831572621800,3.753621826171875,-0.009558117017149925,-0.004229665733873844,-0.0015813434729352593
1772882831582555000,3.763554931640625,-0.009058712050318718,-0.0007666889578104019,-0.0008738422766327858
1772882831592486700,3.773486572265625,-0.010109861381351948,-0.001799995545297861,-0.0027412506751716137
1772882831602419700,3.783419677734375,-0.008081283420324326,-0.0015804334543645382,-0.003472512122243643
1772882831612352500,3.7933525390625,-0.008977171033620834,-0.0020265127532184124,-0.0018498481949791312
1772882831622284500,3.803284423828125,-0.010141724720597267,-0.001524302177131176,0.0009987934026867151
1772882831632217600,3.813217529296875,-0.011069303378462791,-0.0029328481759876013,-0.0021506608463823795
1772882831642150700,3.823150634765625,-0.008441328071057796,-0.002805580385029316,-0.002975999843329191
1772882831652082700,3.833082763671875,-0.006696691736578941,-0.0020668194629251957,-0.0022806483320891857
1772882831662015700,3.843015625,-0.008098514750599861,-0.004480203613638878,-0.004223202355206013
1772882831671948500,3.852948486328125,-0.007060148287564516,-0.0009837392717599869,-0.0013302104780450463
1772882831681880800,3.862880859375,-0.005151978228241205,0.000321428757160902,0.0007458975305780768
1772882831691813600,3.872813720703125,-0.004121334757655859,0.0006125122308731079,0.00016426315414719284
1772882831701745700,3.88274560546875,-0.006076565943658352,0.003017106559127569,0.003084877971559763
1772882831711678700,3.8926787109375,-0.003133506514132023,-0.0010681827552616596,0.0007950919680297375
1772882831721611800,3.90261181640625,-0.005451444536447525,-0.001459247898310423,-0.0003477541031315923
1772882831731543800,3.912543701171875,-0.0018628351390361786,-0.0015878784470260143,-0.0006052817916497588
1772882831741476900,3.922476806640625,-0.0027216419111937284,-0.0011417753994464874,-0.0013599669327959418
1772882831751409700,3.93240966796875,-0.000513082486577332,-0.0004634680226445198,-0.0013703532749786973
1772882831761341700,3.942341796875,0.0007776422426104546,0.0024847318418323994,0.0007332476670853794
1772882831771274800,3.952274658203125,0.0014463620027527213,0.00045939767733216286,-0.0011983431177213788
1772882831781207800,3.962207763671875,0.0014424928231164813,0.0007880954071879387,0.0009728920995257795
1772882831791139600,3.9721396484375,0.00030186091316863894,0.0013593435287475586,0.0015081875026226044
1772882831801072600,3.98207275390625,0.0029115863144397736,-0.0019959155470132828,-0.00044034517486579716
1772882831811006000,3.992005859375,0.0024559195153415203,-0.00018416717648506165,0.0013128137215971947
1772882831820937700,4.001937744140625,0.0023386303801089525,0.0014090174809098244,0.0015715043991804123
1772882831830870500,4.01187060546875,0.002517861081287265,0.0022495114244520664,-0.002073297742754221
1772882831840802600,4.021802490234375,0.001810275367461145,0.002545781433582306,0.002197264228016138
1772882831850735600,4.031735595703125,0.0004054579185321927,0.004334893077611923,-0.00038253975799307227
1772882831860668700,4.041668701171875,0.0034039888996630907,-0.002381135942414403,-0.0013269763439893723
1772882831870600700,4.0516005859375,0.004308931063860655,0.0020279930904507637,0.0024083731696009636
1772882831880533800,4.06153369140625,0.005526653490960598,0.003197168465703726,-0.0002961867139674723
1772882831890466800,4.071466796875,0.005733581259846687,0.0012469352222979069,-0.00025996772455982864
1772882831900398800,4.08139892578125,0.006959247402846813,0.00013121915981173515,0.0026201936416327953
1772882831910331600,4.09133154296875,0.008722526021301746,0.007655448280274868,0.003750705625861883
1772882831920264700,4.1012646484375,0.008424878120422363,0.010410547256469727,0.005739766638725996
1772882831930196700,4.11119677734375,0.011082712560892105,0.006253086030483246,0.0037618365604430437
1772882831940129800,4.1211298828125,0.010923126712441444,0.004234120715409517,0.003317725146189332
1772882831950061800,4.131061767578125,0.0125527149066329,0.003840505611151457,0.0038458299823105335
1772882831959995000,4.140994873046875,0.01320912130177021,0.003136610146611929,0.0038584498688578606
1772882831969927700,4.150927734375,0.009668182581663132,0.005666346754878759,0.004014511592686176
1772882831979859700,4.160859619140625,0.011062363162636757,-0.00048729265108704567,0.00235008611343801
1772882831989792800,4.170792724609375,0.011760910972952843,0.0026291385293006897,0.0004845418152399361
1772882831999725800,4.180725830078125,0.008326498791575432,0.0058745089918375015,0.006250535137951374
1772882832009657600,4.19065771484375,0.008657529950141907,0.009406925179064274,0.0013907989487051964
1772882832019590700,4.200590576171875,0.006993632297962904,0.0015057125128805637,0.003176035126671195
1772882832029523700,4.210523681640625,0.008618427440524101,0.00352785037830472,0.0002372368617216125
1772882832039455700,4.220455810546875,0.009215320460498333,0.00417088670656085,0.0034671539906412363
1772882832049388500,4.230388427734375,0.007097309455275536,0.0034632845781743526,0.0006740305689163506
1772882832059322600,4.240322509765625,0.006197050213813782,0.003279122058302164,0.001013843808323145
1772882832069254700,4.250254638671875,0.00495521817356348,0.004090054426342249,0.0018801700789481401
1772882832079187700,4.260187744140625,0.00687129981815815,0.0025528096593916416,0.0017092609778046608
1772882832089119700,4.27011962890625,0.006246788427233696,0.002740029711276293,0.0011108487378805876
1772882832099052500,4.280052490234375,0.007240867707878351,0.003286094404757023,0.003493884112685919
1772882832108985600,4.289985595703125,0.005682652350515127,0.005127670243382454,0.0027868147008121014
1772882832118917600,4.299917724609375,0.004157601855695248,0.003358171321451664,0.0024941463489085436
1772882832128850700,4.3098505859375,0.0035149811301380396,-0.002207036130130291,0.00045336614130064845
1772882832138783700,4.31978369140625,0.005607723258435726,0.001974694896489382,-0.0005131273064762354
1772882832148715500,4.329715576171875,0.006953152362257242,0.0036114738322794437,0.00016038613102864474
1772882832158649600,4.339649658203125,0.005355491302907467,0.001364042516797781,0.0028333154041320086
1772882832168581400,4.349581298828125,0.0018667499534785748,0.002784040290862322,0.0025033496785908937
1772882832178514400,4.359514404296875,0.0023975507356226444,0.0008721877820789814,0.002207971177995205
1772882832188446500,4.369446533203125,0.0016510667046532035,0.000734768807888031,0.0022575058974325657
1772882832198379500,4.379379638671875,0.004685204476118088,-0.0023153910879045725,0.003641403978690505
1772882832208312600,4.3893125,0.0006385312881320715,0.001712640281766653,0.0006056666607037187
1772882832218244600,4.39924462890625,0.000021759537048637867,0.005992201156914234,-0.0005132184596732259
1772882832228177700,4.409177734375,0.000846007838845253,0.0018640346825122833,-0.001783812534995377
1772882832238110500,4.4191103515625,0.002253488637506962,0.002756992354989052,0.0016990695148706436
1772882832248042500,4.42904248046875,0.00011204066686332226,0.00029436778277158737,0.001482820836827159
1772882832257975600,4.4389755859375,0.002511565573513508,0.0004683965817093849,0.0002570384822320193
1772882832267908600,4.44890869140625,0.0023746793158352375,-0.0007033939473330975,0.0004328071081545204
1772882832277840600,4.458840576171875,-0.0007134292973205447,0.001156617421656847,0.0018431099597364664
1772882832287773700,4.468773681640625,0.0003720751265063882,0.00042504724115133286,0.0007794434204697609
1772882832297706500,4.47870654296875,-4.867324605584145e-7,-0.0007486995309591293,0.0009931712411344051
1772882832307638500,4.488638427734375,-0.001802115235477686,-0.00003417301923036575,-0.00015971125685609877
1772882832317571600,4.498571533203125,-0.0007756701670587063,0.0021504410542547703,0.0025392405223101377
1772882832327503600,4.508503662109375,-0.002235615160316229,0.0020196805708110332,-0.00031114061130210757
1772882832337436700,4.518436767578125,-0.0013415126595646143,-0.003116609062999487,0.0010095293400809169
1772882832347369700,4.52836962890625,0.0012968810042366385,-0.0021157930605113506,-0.0014134146040305495
1772882832357301500,4.538301513671875,-0.00223373482003808,0.0017721336334943771,0.0016859236638993025
1772882832367234800,4.54823486328125,0.0013538096100091934,0.0021969079971313477,-0.0012382271233946085
1772882832377167600,4.558167724609375,0.0008639443549327552,0.0008907080627977848,-0.0006815279484726489
1772882832387099400,4.568099365234375,-0.0007083859527483582,0.0015303995460271835,-0.0009592956630513072
1772882832397032400,4.578032470703125,0.00021200248738750815,-0.0003492599353194237,-0.0011061367113143206
1772882832406965500,4.587965576171875,-0.0002961286809295416,0.0025671683251857758,-0.00044434121809899807
1772882832416897500,4.5978974609375,0.0008901999681256711,-0.0005188225768506527,0.001465168665163219
1772882832426830600,4.60783056640625,0.00039165624184533954,-0.0011057830415666103,0.0014933981001377106
1772882832436763600,4.617763671875,0.0012071790406480432,-0.0029249656945466995,-0.0009938378352671862
1772882832446695700,4.62769580078125,0.000855641788803041,-0.002314036712050438,-0.00019302527653053403
1772882832456628500,4.63762841796875,0.00010596192441880703,-0.0012024333700537682,0.0010401317849755287
1772882832466560500,4.647560546875,0.0025518089532852173,0.0034056343138217926,0.0011517181992530823
1772882832476493600,4.65749365234375,0.0006873611127957702,-0.0007493938319385052,-0.0026748953387141228
1772882832486426600,4.667426513671875,0.0007930885767564178,-0.003004558850079775,-0.002699662698432803
1772882832496358700,4.677358642578125,0.0020300329197198153,-0.0019140527583658695,0.0022160049993544817
1772882832506291700,4.687291748046875,0.000723219767678529,0.0011112983338534832,0.0025515633169561625
1772882832516224500,4.697224609375,-0.0012070394586771727,-0.001444537192583084,-0.00033392535988241434
1772882832526156500,4.707156494140625,0.0013778246939182281,0.0002985014580190182,0.0006514441920444369
1772882832536089600,4.717089599609375,0.0023627085611224174,-0.0026433300226926804,-0.00023917746148072183
1772882832546022700,4.727022705078125,-0.0007342812605202198,-0.0008608764037489891,0.0026069425512105227
1772882832555954700,4.73695458984375,0.0009207959519699216,-0.0018104915507137775,0.0002924181171692908
1772882832565887700,4.7468876953125,-0.0005482037086039782,0.00237067136913538,0.001473796321079135
1772882832575820800,4.75682080078125,0.0007081192452460527,0.0036084274761378765,0.0013956493930891156
1772882832585752600,4.766752685546875,0.002258877968415618,-0.00046194810420274734,0.00034077127929776907
1772882832595685400,4.776685302734375,0.0016864851349964738,0.0015413989312946796,-0.0016243235440924764
1772882832605618400,4.786618408203125,0.0013549216091632843,0.00016720779240131378,0.0011070144828408957
1772882832615550500,4.796550537109375,-0.002557042520493269,0.0006762980483472347,-0.0010345748160034418
1772882832625483500,4.8064833984375,-0.0010209311731159687,-0.0017546354793012142,-0.001472132164053619
1772882832635415600,4.81641552734375,-0.0019525981042534113,0.0015059495344758034,0.0002780588110908866
1772882832645348600,4.8263486328125,-0.002003198256716132,-0.0009934273548424244,0.0008418500074185431
1772882832655281700,4.83628173828125,-0.003198691178113222,-0.001215148251503706,0.0014872162137180567
1772882832665213700,4.846213623046875,-0.00020982557907700539,-0.00002657948061823845,-0.0018491919618099928
1772882832675146500,4.856146484375,-0.002226137090474367,-0.001636887900531292,-0.0012090634554624557
1772882832685079600,4.86607958984375,-0.0008431576425209641,-0.00015324074774980545,0.00033423840068280697
1772882832695011600,4.876011474609375,-0.0034247934818267822,-0.002150166779756546,-0.001621407805941999
1772882832704944600,4.885944580078125,-0.0030450266785919666,-0.0030756150372326374,-0.0035271658562123775
1772882832714877700,4.895877685546875,-0.003176493803039193,-0.0024266785476356745,0.0014351957943290472
1772882832724809700,4.905809814453125,-0.002756246831268072,-0.0018066945485770702,-0.00008333862933795899
1772882832734742500,4.915742431640625,-0.002558403881266713,-0.0008370662108063698,-0.0015108786756172776
1772882832744675600,4.925675537109375,-0.0012249592691659927,-0.00042640697211027145,0.0008843684336170554
1772882832754607600,4.935607666015625,-0.001509887631982565,0.0006283619441092014,0.0015735322376713157
1772882832764540700,4.945540771484375,0.0004613843047991395,-0.0034689113963395357,-0.0010520783253014088
1772882832774473700,4.9554736328125,-0.002149614505469799,0.00019360799342393875,0.003352843690663576
1772882832784405500,4.965405517578125,0.0006022298475727439,-0.00207141088321805,-0.0000876940757734701
1772882832794338800,4.9753388671875,-0.002597799990326166,-0.0003738878294825554,-0.0022861722391098738
1772882832804270600,4.9852705078125,-0.002003116300329566,-0.0016356934793293476,0.0003743256675079465
1772882832814203400,4.995203369140625,-0.002104331972077489,-0.002927351277321577,-0.001504587009549141
1772882832824136400,5.005136474609375,-0.002708336804062128,-0.0015355832874774933,-0.0002957782126031816
1772882832834068500,5.015068359375,-0.0024765932466834784,-0.00270229484885931,0.0029778890311717987
1772882832844001500,5.02500146484375,0.00042145856423303485,-0.005481570027768612,0.0025041126646101475
1772882832853934600,5.0349345703125,-0.0011962928110733628,0.0004452439025044441,-0.00017759637557901442
1772882832863866600,5.04486669921875,-0.0010498190531507134,0.0008503105491399765,0.0019159145886078477
1772882832873799700,5.054799560546875,-0.0033454957883805037,-0.0013925065286457539,0.0003774548531509936
1772882832883732500,5.064732421875,0.0004471117281354964,-0.006214958615601063,0.0008080879924818873
1772882832893664500,5.07466455078125,-0.0026018619537353516,-0.0024421934504061937,-0.0010824986966326833
1772882832903597600,5.08459765625,-0.0026471358723938465,-0.002523952629417181,-0.00041590954060666263
1772882832913530600,5.094530517578125,-0.001463262247852981,-0.003937978763133287,-0.005272220354527235
1772882832923462700,5.104462646484375,-0.0026238677091896534,-0.0047060344368219376,0.000053569187002722174
1772882832933395700,5.114395751953125,-0.002478417009115219,-0.0030586805660277605,-0.0040231915190815926
1772882832943327700,5.12432763671875,-0.003629168961197138,-0.0007214904762804508,0.0014615890104323626
1772882832953260500,5.134260498046875,-0.0016645397990942001,-0.0062542688101530075,-0.001476708217523992
1772882832963193600,5.144193603515625,-0.0012885015457868576,-0.0037759309634566307,-0.0005344818346202374
1772882832973125600,5.154125732421875,-0.0032573621720075607,-0.0004880516789853573,0.00006463329918915406
1772882832983058700,5.16405859375,-0.0020128667820245028,-0.0030694534070789814,-0.000934851064812392
1772882832992991700,5.17399169921875,-0.0010652876226231456,-0.006281496491283178,-0.0021390337496995926
1772882833002923500,5.183923583984375,-0.0034307073801755905,-0.004280130844563246,-0.0013190465979278088
1772882833012856600,5.193856689453125,-0.0023657919373363256,-0.0046347142197191715,-0.0009985658107325435
1772882833022789400,5.203789306640625,-0.00546810869127512,-0.00857619196176529,-0.002917373552918434
1772882833032721400,5.213721435546875,-0.005127908196300268,-0.00797993317246437,-0.00453086057677865
1772882833042654500,5.223654541015625,-0.004610456060618162,-0.0032839816994965076,-0.003263994585722685
1772882833052587500,5.23358740234375,-0.0050135040655732155,-0.00506518455222249,-0.0006328506860882044
1772882833062518300,5.243518310546875,-0.005100589711219072,-0.008282283321022987,-0.0026917404029518366
1772882833072451300,5.253451416015625,-0.00599536020308733,-0.002622660482302308,-0.0002826932759489864
1772882833082384400,5.26338427734375,-0.004874435253441334,-0.001732898410409689,0.0005186519119888544
1772882833092316400,5.27331640625,-0.0066148885525763035,-0.003063878510147333,-0.0005856846109963953
1772882833102249500,5.28324951171875,-0.0047011408023536205,-0.003979207016527653,-0.0005465361755341291
1772882833112181500,5.293181396484375,-0.0029075019992887974,-0.0050596510991454124,0.0008714774739928544
1772882833122114300,5.3031142578125,-0.004648143891245127,-0.002387968124821782,-0.0008720940677449107
1772882833132047400,5.31304736328125,0.0009947525104507804,-0.0015836297534406185,-0.0009638048359192908
1772882833141979400,5.3229794921875,0.001689571188762784,-0.001752207987010479,-0.00021945129265077412
1772882833151912400,5.332912353515625,-0.002370671834796667,0.00040433369576931,0.0018395088845863938
1772882833161845500,5.342845458984375,0.0015825243899598718,0.00009008031338453293,-0.001307814964093268
1772882833171777500,5.352777587890625,-0.003556530922651291,0.004007220733910799,0.0023531075567007065
1772882833181710600,5.362710693359375,-0.0010523605160415173,-0.002761735813692212,0.00010113869939232245
1772882833191643400,5.372643310546875,-0.0010123192332684994,-0.0028586166445165873,0.000002424611011520028
1772882833201575400,5.382575439453125,-0.0018538781441748142,-0.0017779059708118439,-0.0032887097913771868
1772882833211508500,5.392508544921875,-0.002852171426638961,-0.002982674865052104,-0.0015561390900984406
1772882833221441500,5.402441650390625,-0.004745945334434509,-0.004304135218262672,-0.00038994086207821965
1772882833231373600,5.41237353515625,-0.0037407884374260902,-0.0009745038114488125,-0.002672180999070406
1772882833241306600,5.422306640625,-0.005420976784080267,-0.0020743892528116703,-0.002128629945218563
1772882833251239400,5.432239501953125,-0.004243841860443354,-0.002300634514540434,-0.002459197770804167
1772882833261171500,5.44217138671875,-0.005495793651789427,-0.0024492391385138035,0.0005264722858555615
1772882833271104500,5.4521044921875,-0.005612741224467754,-0.0008723633363842964,-0.001256779651157558
1772882833281036300,5.462036376953125,-0.003781285136938095,-0.0016281683929264545,-0.00043279770761728287
1772882833290969300,5.47196923828125,-0.0006124289939180017,-0.0015490315854549408,-0.001443182583898306
1772882833300902400,5.48190234375,-0.0036055557429790497,-0.000982843805104494,-0.0004343771724961698
1772882833310834400,5.49183447265625,-0.003926913719624281,0.0028120167553424835,0.0021523211617022753
1772882833320767500,5.501767578125,-0.0022286158055067062,0.004789147526025772,0.0013898579636588693
1772882833330700300,5.5117001953125,-0.0024248273111879826,5.397014319896698e-7,-0.0005504929577000439
1772882833340632300,5.52163232421875,-0.0027614508289843798,-0.0019036205485463142,-0.0000881681771716103
1772882833350565400,5.5315654296875,-0.003123814007267356,-0.0019488357938826084,-0.0015564714558422565
1772882833360498400,5.54149853515625,-0.001725121634081006,-0.003026616992428899,0.000436638219980523
1772882833370430500,5.551430419921875,-0.003323754295706749,0.00018597720190882683,-0.002375965239480138
1772882833380363500,5.561363525390625,-0.0023809950798749924,-0.0024398998357355595,0.0014984016306698322
1772882833390296600,5.571296630859375,-0.00028127816040068865,-0.002280497457832098,0.0008819859358482063
1772882833400228600,5.581228515625,-0.0015369585016742349,-0.00027274060994386673,-0.0020693291444331408
1772882833410161400,5.591161376953125,-0.00034127989783883095,-0.0016199126839637756,-0.0011956584639847279
1772882833420094500,5.601094482421875,-0.0008198500145226717,-0.00031762663275003433,-0.0009293423499912024
1772882833430026500,5.611026611328125,0.00009786372538655996,0.000792196486145258,-0.00022530206479132175
1772882833439959600,5.62095947265625,-0.0001862955978140235,0.002718727570027113,-0.002590188989415765
1772882833449892600,5.630892578125,0.00026532489573583007,0.0014565484598279,-0.00011910610919585451
1772882833459824600,5.64082470703125,0.0006677285418845713,-0.0014785216189920902,0.002500112634152174
1772882833469757400,5.65075732421875,-0.0016106818802654743,-0.0024417212698608637,-0.0012647471157833934
1772882833479689500,5.660689453125,-0.0017899125814437866,0.0017093475908041,-0.0009323846315965056
1772882833489622300,5.670622314453125,-0.0038391794078052044,-0.00004303315654397011,0.0015084163751453161
1772882833499555300,5.680555419921875,-0.0018114483682438731,-0.0013136272318661213,0.002468752209097147
1772882833509487400,5.6904873046875,-0.0018751799361780286,-0.0009268126450479031,0.0006681149243377149
1772882833519420400,5.70042041015625,0.0004787880461663008,0.0009674937464296818,0.00003508156805764884
1772882833529353500,5.710353515625,-0.0009726985590532422,-0.0019833091646432877,-0.0009333431371487677
1772882833539285500,5.720285400390625,0.00038151885382831097,0.00017038919031620026,-0.0008497198577970266
1772882833549218300,5.73021826171875,0.0013402567710727453,0.0005203285254538059,0.0014162099687382579
1772882833559151400,5.7401513671875,-0.000421690521761775,-0.00023174798116087914,-0.0003758310922421515
1772882833569083400,5.75008349609375,0.00006391375791281462,0.0006073317490518093,0.00039268843829631805
1772882833579016400,5.760016357421875,-0.0005289058899506927,0.0005846950225532055,0.0015048244968056679
1772882833588949500,5.769949462890625,0.0015925347106531262,0.0011082887649536133,0.002481353934854269
1772882833598881500,5.779881591796875,0.0023611229844391346,0.0010337205603718758,0.0019492541905492544
1772882833608814600,5.789814697265625,-0.003679471556097269,0.0008734841831028461,0.0016044803196564317
1772882833618747400,5.799747314453125,-0.00024079810827970505,-0.0006674211472272873,0.0022084855008870363
1772882833628679400,5.809679443359375,-0.00033938116393983364,-0.0034468593075871468,0.0009044968755915761
1772882833638612500,5.819612548828125,-0.00043259188532829285,-0.00010192906484007835,0.0011116907699033618
1772882833648544500,5.82954443359375,-0.001324750715866685,-0.0002918122336268425,0.0025457588490098715
1772882833658477600,5.8394775390625,0.0024627968668937683,-0.0023656159173697233,0.0020613300148397684
1772882833668410600,5.84941064453125,0.0003589423722587526,0.0013712821528315544,0.0000516405634698458
1772882833678342700,5.8593427734375,0.0018244798993691802,-0.0013153147883713245,0.0040269410237669945
1772882833688275500,5.869275390625,0.00011941761476919055,0.0020336387678980827,-0.001444678520783782
1772882833698208500,5.87920849609375,0.002203341107815504,0.0007116459310054779,0.001489326125010848
1772882833708140300,5.889140380859375,0.0011394721223041415,0.00019390368834137917,-0.00015667562547605485
1772882833718073300,5.8990732421875,0.001486482098698616,-0.00013739382848143578,0.0002129711356246844
1772882833728006400,5.90900634765625,0.0036001692060381174,0.0012273946776986122,-0.0010311345104128122
1772882833737938400,5.9189384765625,0.0016989384312182665,0.0010942365042865276,0.0008876729407347739
1772882833747871500,5.92887158203125,0.0022877927403897047,0.003660832531750202,-0.000133664405439049
1772882833757804300,5.93880419921875,0.002345317043364048,0.0006916746497154236,0.0010051032295450568
1772882833767736300,5.948736328125,0.0001206219894811511,0.0046797520481050014,0.0009462739690206945
1772882833777669400,5.95866943359375,0.0019723179284483194,0.0009161722846329212,0.0011249720118939877
1772882833787602400,5.9686025390625,-0.0012229753192514181,0.00037819333374500275,0.002486836165189743
1772882833797534500,5.978534423828125,0.0022982563823461533,0.0017776843160390854,-0.0018045814940705895
1772882833807467500,5.988467529296875,-0.0004043967928737402,-0.0004324857145547867,0.0005295986775308847
1772882833817400600,5.998400634765625,-0.00019453978165984154,0.0008607450872659683,0.000014543376892106608
1772882833827332600,6.00833251953125,-0.0004985742270946503,-0.0022129109129309654,0.0005009106826037169
1772882833837265400,6.018265380859375,0.0008780136704444885,-0.0012728148140013218,-0.000026395180611871183
1772882833847197400,6.028197509765625,0.00013834371929988265,0.0015734587796032429,0.0011377263581380248
1772882833857130500,6.038130615234375,-0.0012845831224694848,0.00009274110198020935,-0.00043913134140893817
1772882833867063600,6.0480634765625,-0.001093749306164682,0.0007255375385284424,-0.0003547875676304102
1772882833876995600,6.05799560546875,0.0012916441773995757,-0.0012353481724858284,0.00008436768257524818
1772882833886928600,6.0679287109375,0.0020464526023715734,-0.0000776541419327259,0.0009299501543864608
1772882833896861400,6.077861328125,-0.0003943345509469509,0.002492561936378479,-0.001693529775366187
1772882833906793500,6.08779345703125,0.0015198355540633202,-0.0009561437182128429,-0.00047423699288628995
1772882833916726300,6.097726318359375,-0.0013902006903663278,-0.0018962393514811993,0.0019050310365855694
1772882833926659300,6.107659423828125,-0.00010082556400448084,-0.0033295147586613894,-0.0012278130743652582
1772882833936591400,6.11759130859375,0.0005135657265782356,0.0014042542316019535,-0.00010662227577995509
1772882833946524400,6.1275244140625,-0.0005725002847611904,-0.0009550484828650951,0.0012953805271536112
1772882833956457500,6.13745751953125,-0.00033068517223000526,0.00041727861389517784,-0.0007912061410024762
1772882833966389500,6.147389404296875,-0.0011934610083699226,-0.0002605351619422436,-0.003264308674260974
1772882833976322300,6.157322265625,0.0010638342937454581,-0.0001436225138604641,0.0011192545061931014
1772882833986255400,6.16725537109375,0.00146801071241498,-0.002049338072538376,-0.0009380466653965414
1772882833996187400,6.1771875,0.00024721765657886863,-0.0010075094178318977,0.0004878097679466009
1772882834006120400,6.187120361328125,0.00018013251246884465,0.001616339199244976,0.0010806199861690402
1772882834016053500,6.197053466796875,-0.002392214722931385,0.002188386395573616,0.00003160084452247247
1772882834025985500,6.206985595703125,-0.000060888356529176235,-0.0020894515328109264,0.0012584833893924952
1772882834035918600,6.216918701171875,0.0010688245529308915,-0.0012114071287214756,0.0002901580010075122
1772882834045850600,6.2268505859375,-0.0005739228799939156,0.0026001003570854664,0.00045353552559390664
1772882834055783400,6.236783447265625,-0.002475686138495803,-0.0003136643208563328,-0.0005387582932598889
1772882834065716700,6.246716796875,0.0012492842506617308,0.0005405116826295853,-0.00022499027545563877
1772882834075648800,6.256648681640625,-0.0025174906477332115,0.0011051017791032791,0.0003606388345360756
1772882834085581800,6.266581787109375,-0.002064612228423357,0.00012321025133132935,-0.0011967081809416413
1772882834095515000,6.276514892578125,-0.0022571587469428778,-0.00044058123603463173,0.0035658227279782295
1772882834105447000,6.286447021484375,-0.00041284761391580105,-0.0009945137426257133,-0.0010792057728394866
1772882834115379700,6.296379638671875,0.0004305755137465894,-0.00005122227594256401,-0.0004168776795268059
1772882834125312800,6.306312744140625,-0.0020421198569238186,-0.0010948991402983665,-0.00006216102337930351
1772882834135244500,6.31624462890625,0.0002601830055937171,-0.002346052322536707,0.0004635470104403794
1772882834145177600,6.326177490234375,-0.002530392725020647,-0.0005274089053273201,0.0004261927679181099
1772882834155110700,6.336110595703125,0.0004688593908213079,0.0009687552228569984,0.000008076494850683957
1772882834165042700,6.346042724609375,-0.0015064409235492349,-0.001348425168544054,-0.0009724823758006096
1772882834174975700,6.355975830078125,-0.0005951073253527284,-0.00019287969917058945,-0.000029457029086188413
1772882834184908500,6.365908447265625,-0.0014406355330720544,0.0008573224768042564,-0.0009030472720041871
1772882834194840600,6.375840576171875,0.00212400546297431,0.0021747886203229427,-0.0009477884159423411
1772882834204773600,6.385773681640625,-0.0013424702920019627,-0.0021781418472528458,-0.0013674419606104493
1772882834214706700,6.395706787109375,0.000706832273863256,-0.0015309937298297882,0.002971646375954151
1772882834224638700,6.405638671875,0.001105346716940403,-0.0005801371298730373,0.00010332058445783332
1772882834234571800,6.41557177734375,-0.00007203686982393265,0.0012902007438242435,-0.00191242597065866
1772882834244504600,6.425504638671875,0.001304200617596507,-0.002059584017843008,0.0008565281750634313
1772882834254436600,6.4354365234375,-0.00011020433157682419,-0.002091541886329651,-0.00004228870966471732
1772882834264369700,6.44536962890625,-0.0007563898107036948,-0.0008377176709473133,0.0009159563924185932
1772882834274301700,6.4553017578125,-0.0010996712371706963,-0.00033011939376592636,-0.0008348057162947953
1772882834284234800,6.46523486328125,-0.0013195975916460156,-0.001469277311116457,-0.001110528944991529
1772882834294167800,6.475167724609375,-0.0016895107692107558,-0.0009779240936040878,-0.001533172675408423
1772882834304099800,6.485099853515625,0.00016479927580803633,0.0005758879706263542,0.0025590090081095695
1772882834314033000,6.495032958984375,-0.0021223234944045544,-0.0021498571150004864,0.001191209419630468
1772882834323965700,6.504965576171875,0.00012728548608720303,-0.0018273191526532173,0.0006967891240492463
1772882834333897700,6.514897705078125,0.00024899200070649385,-0.0018163998611271381,-0.002252129139378667
1772882834343830800,6.524830810546875,0.00015123741468414664,0.00034428294748067856,0.0010856358567252755
1772882834353763800,6.534763916015625,0.0016055896412581205,-0.0029135621152818203,-0.0001213087307405658
1772882834363695600,6.544695556640625,-0.001576339127495885,0.0006387499161064625,0.0001909634011099115
1772882834373628700,6.554628662109375,-0.000023449771106243134,0.0017548808827996254,-0.001026633894070983
1772882834383561700,6.564561767578125,0.0013343001483008265,-0.0016165897250175476,0.0004514270694926381
1772882834393493800,6.57449365234375,0.0016618689987808466,-0.002028314396739006,-0.0015760373789817095
1772882834403426600,6.584426513671875,0.000433592707850039,-0.0005102059803903103,-0.000014710193681821693
1772882834413359600,6.594359619140625,0.0021550599485635757,0.00041151419281959534,0.001308081904426217
1772882834423291600,6.604291748046875,0.0018933964893221855,-0.0011257645674049854,0.00038075659540481865
1772882834433224700,6.614224609375,0.002027885988354683,-0.00003280350938439369,0.0017275171121582389
1772882834443157800,6.62415771484375,0.001596766640432179,0.019253937527537346,0.003949177451431751
1772882834453089800,6.63408984375,0.0011131365317851305,-0.004623698070645332,-0.0024405450094491243
1772882834463022600,6.644022705078125,0.0022637988440692425,0.0017330567352473736,0.004622399341315031
1772882834472954600,6.65395458984375,-0.0022308179177343845,0.008083097636699677,-0.0001111030433094129
1772882834482887700,6.6638876953125,-0.0009318104712292552,-0.005313610192388296,0.0014445417327806354
1772882834492820700,6.67382080078125,-0.0029944288544356823,0.0006287014111876488,-0.002343538450077176
1772882834502752800,6.683752685546875,-0.0016556686023250222,0.0012353509664535522,0.0032343172933906317
1772882834512685800,6.693685791015625,-0.0002963910810649395,-0.002544739982113242,-0.0012243471574038267
1772882834522619000,6.703618896484375,0.00038874312303960323,0.000064837746322155,-0.0009795882506296039
1772882834532551000,6.713551025390625,0.0023562866263091564,0.0023764614015817642,0.0011187164345756173
1772882834542483700,6.723483642578125,0.0013689767802134156,0.0024630664847791195,-0.001796556869521737
1772882834552416800,6.733416748046875,0.0005700284964405,0.0002635619603097439,0.0014514344511553645
1772882834562348500,6.7433486328125,-0.0002702755155041814,0.0036976938135921955,0.0007520669023506343
1772882834572281600,6.753281494140625,0.0012117736041545868,0.00004357052966952324,0.0003318200760986656
1772882834582214700,6.763214599609375,0.002387946005910635,0.00038735195994377136,-0.0016561363590881228
1772882834592146700,6.773146728515625,0.0005684744101017714,0.0035173650830984116,0.0028294259682297707
1772882834602079700,6.783079833984375,0.0013976594200357795,0.002288638148456812,-0.0008606178453192115
1772882834612012500,6.793012451171875,0.001937482156790793,0.0001237550750374794,0.0020811096765100956
1772882834621944600,6.802944580078125,0.0007983994437381625,0.001598625909537077,0.0011252108961343765
1772882834631877600,6.812877685546875,0.0009230353753082454,0.0013333754613995552,0.00026474345941096544
1772882834641810700,6.822810791015625,0.0011734564322978258,0.0015748320147395134,-0.000056402339396299794
1772882834651742700,6.83274267578125,-0.0008300397312268615,0.00019265152513980865,0.0002069842885248363
1772882834661675800,6.84267578125,0.00004372699186205864,0.0028379997238516808,-0.0021482794545590878
1772882834671608600,6.852608642578125,0.00009858811972662807,0.002790861763060093,0.001049378071911633
1772882834681540600,6.86254052734375,-0.0023464225232601166,0.000873723067343235,-0.0004181630501989275
1772882834691473700,6.8724736328125,-0.00010563875548541546,-0.002077325712889433,0.0011962450807914138
1772882834701406700,6.88240673828125,0.0006498035509139299,0.00040460098534822464,-0.0014768008841201663
1772882834711338800,6.8923388671875,0.0013704549055546522,0.00036784959957003593,-0.0011827879352495074
1772882834721271800,6.902271728515625,-0.001140191568993032,-0.0013093533925712109,0.0034804735332727432
1772882834731203800,6.912203857421875,-0.0000725302379578352,-0.0025948614347726107,0.0021552846301347017
1772882834741137000,6.922136962890625,0.0002461738185957074,-0.004229252226650715,0.00010501418728381395
1772882834751069700,6.932069580078125,-0.0017565232701599598,-0.0008702073246240616,0.0008283287170343101
1772882834761001700,6.942001708984375,-0.0006365508306771517,-0.0011664973571896553,-0.00017598705017007887
1772882834770934800,6.951934814453125,-0.0007121845846995711,-0.00044824276119470596,0.0015550676034763455
1772882834780867800,6.961867919921875,-0.0010435000294819474,0.00108420941978693,-0.002121523953974247
1772882834790799600,6.971799560546875,0.00015252555022016168,-0.002612258307635784,-0.0012208428233861923
1772882834800732700,6.981732666015625,0.0010432411218062043,-0.002135741990059614,0.0005786711699329317
1772882834810665700,6.991665771484375,0.001333791995421052,-0.00004675844684243202,-0.0002048308087978512
1772882834820597800,7.00159765625,-0.0019488988909870386,0.0018655615858733654,-0.00015824605361558497
1772882834830530600,7.011530517578125,0.0007680580019950867,-0.00017228862270712852,0.0015666834078729153
1772882834840463600,7.021463623046875,0.0008413344621658325,0.0002415953204035759,-0.001553165609948337
1772882834850395600,7.031395751953125,0.001279957126826048,-0.0020106397569179535,-0.0008069478790275753
1772882834860328700,7.04132861328125,0.0002926274319179356,-0.0001301085576415062,0.0011716005392372608
1772882834870261800,7.05126171875,0.00014588725753128529,-0.0019991151057183743,-0.0002486632438376546
1772882834880193800,7.06119384765625,-0.0012747099390253425,-0.0008863597176969051,-0.0005525806336663663
1772882834890126600,7.071126708984375,-0.002153553068637848,0.0013730661012232304,0.00042426688014529645
1772882834900059600,7.0810595703125,-0.0006559018511325121,0.002997265662997961,0.0031606617849320173
1772882834909991700,7.09099169921875,-0.0004455121234059334,-0.0002808189019560814,-0.0011360821081325412
1772882834919924700,7.1009248046875,-0.00041848409455269575,-0.0008039418607950211,-0.0006845183670520782
1772882834929857800,7.11085791015625,0.0011301439953967929,-0.0009791776537895203,0.0006867432966828346
1772882834939789800,7.120789794921875,2.3387838155031204e-7,0.0012822146527469158,0.000014076253137318417
1772882834949723000,7.130722900390625,0.0014471292961388826,-0.00038758711889386177,0.0013555105542764068
1772882834959655000,7.140655029296875,0.0010971605079248548,0.0006156447343528271,0.0012488806387409568
1772882834969587700,7.150587646484375,0.00027317850617691875,0.0013224477879703045,0.0015293114120140672
1772882834979520800,7.160520751953125,-0.002282756846398115,-0.0002047116868197918,0.0029458182398229837
1772882834989452500,7.17045263671875,-0.0008475793292745948,0.00040994584560394287,-0.0016816903371363878
1772882834999385600,7.180385498046875,0.0005077852983959019,0.0006666462868452072,0.00013509757991414517
1772882835009319000,7.19031884765625,0.000013502547517418861,0.002283451147377491,0.0004906295798718929
1772882835019250700,7.200250732421875,-0.000650139874778688,0.0007446268573403358,-0.0005414968472905457
1772882835029183700,7.210183837890625,0.002380537334829569,-0.0021414407528936863,-0.0007636044756509364
1772882835039116500,7.220116455078125,-0.001573329558596015,0.00016092276200652122,-0.0008525992161594331
1772882835049048600,7.230048583984375,-0.0005046031437814236,-0.000832968857139349,0.0008211975218728185
1772882835058981600,7.239981689453125,-0.0012870574137195945,-0.0009726807475090027,-0.0010279074776917696
1772882835068914400,7.24991455078125,-0.0014321996131911874,-0.0019481964409351349,-0.003185866866260767
1772882835078846500,7.259846435546875,-0.0010544625110924244,0.001491826493293047,0.0005509407492354512
1772882835088779500,7.269779541015625,0.0015165532240644097,0.0002971324138343334,-0.0023313984274864197
1772882835098712300,7.27971240234375,0.0003585435333661735,0.000619902741163969,0.002408647444099188
1772882835108644600,7.28964453125,-0.00030271930154412985,0.00042735645547509193,0.0008150117937475443
1772882835118577400,7.299577392578125,-0.002086907159537077,0.00006259186193346977,0.00040933897253125906
1772882835128510500,7.309510498046875,0.00016319745918735862,-0.0017677987925708294,-0.0010388880036771297
1772882835138442500,7.3194423828125,-0.0006426713662222028,-0.001800644677132368,0.002177017042413354
1772882835148375600,7.32937548828125,-0.0011832930613309145,0.0012707789428532124,0.0012627538526430726
1772882835158308600,7.33930859375,0.0014200498117133975,0.001157374121248722,0.0007609610329382122
1772882835168240600,7.34924072265625,0.00046344235306605697,0.000636726152151823,0.0012914626859128475
1772882835178173400,7.35917333984375,0.0002944936859421432,-0.0024203751236200333,0.00035927456337958574
1772882835188105500,7.36910546875,0.000009535462595522404,-0.000015007797628641129,-0.0003030535881407559
1772882835198038500,7.37903857421875,-0.0007194033823907375,0.0014917664229869843,0.0004370405222289264
1772882835207971600,7.3889716796875,-0.000200353330001235,-0.002474213019013405,0.0013731415383517742
1772882835217903400,7.3989033203125,-0.000705663813278079,-0.00018210895359516144,0.00007078304042806849
1772882835227836400,7.40883642578125,-0.0007152511971071362,-0.0017557707615196705,0.0007221922278404236
1772882835237769500,7.41876953125,-0.0005108026089146733,-0.00009330781176686287,0.00016447003872599453
1772882835247701500,7.428701416015625,-0.0014461048413068056,-0.003139964072033763,0.0015834022779017687
1772882835257634300,7.43863427734375,-0.001962512731552124,0.004090314731001854,0.0013483216753229499
1772882835267567400,7.4485673828125,0.0011129056802019477,0.0010441909544169903,0.00011048441228922457
1772882835277499400,7.45849951171875,0.0005766788963228464,-0.002291036769747734,0.00200643390417099
1772882835287432400,7.468432373046875,0.0023447517305612564,-0.0005703684873878956,0.0023795426823198795
1772882835297365500,7.478365478515625,0.00004621513653546572,-0.0007934379391372204,-0.0000924965861486271
1772882835307297500,7.488297607421875,0.0010297205299139023,-0.0013305973261594772,-0.002978564240038395
1772882835317230300,7.498230224609375,-0.0017653534887358546,0.0007370756939053535,-0.0013640440301969647
1772882835327163400,7.508163330078125,0.0012136584846302867,0.0003005834296345711,-0.00007560668746009469
1772882835337095400,7.518095458984375,-0.0009003996383398771,0.00048612290993332863,-0.0005602415767498314
1772882835347028500,7.528028564453125,-0.00021090719383209944,-0.0019349567592144012,0.0013841323088854551
1772882835356961500,7.53796142578125,0.0025858778972178698,-0.0024066155310720205,-0.001502373954281211
1772882835366893600,7.5478935546875,-0.003187855239957571,-0.0016974159516394138,-0.0009825248271226883
1772882835376826600,7.55782666015625,0.0021416237577795982,-0.0005373256281018257,0.0015530403470620513
1772882835386758700,7.567758544921875,-0.0004405772779136896,-0.0012225569225847721,0.0003255894407629967
1772882835396691500,7.57769140625,0.0017109534237533808,-0.0030516309197992086,-0.0007768700597807765
1772882835406624500,7.58762451171875,-0.000478164991363883,0.0026805568486452103,0.0010508574778214097
1772882835416556300,7.597556396484375,-0.0007097321795299649,0.0006551174446940422,-0.0002232471015304327
1772882835426489300,7.6074892578125,-0.001265800092369318,0.0008271574042737484,-0.000002737366230576299
1772882835436422400,7.61742236328125,-0.000002976739779114723,-0.00029106205329298973,0.001289038686081767
1772882835446354400,7.6273544921875,0.00037679000524803996,-0.0013241022825241089,0.0008030117605812848
1772882835456287500,7.63728759765625,-0.00009906373452395201,-0.0011376836337149143,-0.0020569770131260157
1772882835466220300,7.64722021484375,-0.00047323782928287983,0.0006098826415836811,-0.00013310946815181524
1772882835476152300,7.65715234375,-0.00012707954738289118,0.00010781781747937202,0.002878827042877674
1772882835486085400,7.66708544921875,0.00001433433499187231,-0.0011934023350477219,0.0011339238844811916
1772882835496018400,7.677018310546875,-0.0005708327516913414,-0.0007567945867776871,-0.001398857799358666
1772882835505950500,7.686950439453125,-0.0018073385581374168,0.0011883783154189587,-0.000860632979311049
1772882835515883500,7.696883544921875,-0.00019858870655298233,-0.0019137104973196983,0.0006893057143315673
1772882835525816300,7.70681640625,0.00010581064270809293,0.0009891348890960217,-0.0025464349891990423
1772882835535748600,7.71674853515625,-0.0006685802945867181,0.0005785496905446053,-0.00203765369951725
1772882835545681400,7.726681396484375,0.0005910948384553194,-0.00043558189645409584,0.0009070035885088146
1772882835555614500,7.736614501953125,-0.0005590618820860982,-0.001596319954842329,0.0008900463581085205
1772882835565546500,7.74654638671875,0.0021882550790905952,-0.0005172071978449821,0.0009363853605464101
1772882835575479600,7.7564794921875,0.0014414701145142317,-0.0013305358588695526,0.0024175946600735188
1772882835585412600,7.76641259765625,-0.0004238078836351633,-0.0022037867456674576,0.00020024670811835676
1772882835595344600,7.7763447265625,0.0006522545590996742,0.0014249715022742748,0.0005271955160424113
1772882835605277400,7.78627734375,0.00034439313458278775,-0.0007742666639387608,0.0004632796044461429
1772882835615209500,7.79620947265625,0.0009735727799125016,0.0014595338143408298,-0.0011641986202448606
1772882835625142500,7.806142578125,0.0009618548792786896,0.003707773983478546,0.0025674228090792894
1772882835635075600,7.81607568359375,-0.0009425842436030507,0.00046226754784584045,-0.0004796451248694211
1772882835645007400,7.82600732421875,0.0008630389347672462,0.0007765209302306175,-0.00007857306627556682
1772882835654940400,7.8359404296875,-0.0005044675199314952,0.0005780775099992752,0.0014485529391095042
1772882835664873500,7.84587353515625,-0.0003068610094487667,-0.00036414898931980133,0.0011691873660311103
1772882835674805500,7.855805419921875,0.0005093917134217918,-0.0010023005306720734,-0.0011817925842478871
1772882835684738300,7.86573828125,-0.0002022049156948924,-0.0000041476450860500336,-0.0000022785716282669455
1772882835694671400,7.87567138671875,0.0003894863766618073,-0.0011159926652908325,-0.0007120342343114316
1772882835704603400,7.885603271484375,0.0018022933509200811,-0.0009053368121385574,0.0010539079084992409
1772882835714536400,7.895536376953125,0.0012803454883396626,0.0005197357386350632,-0.0022337823174893856
1772882835724469500,7.905469482421875,-0.0013412702828645706,0.001362093724310398,-0.0008731734124012291
1772882835734401500,7.915401611328125,-0.0026949108578264713,-0.00011804886162281036,0.0018316732021048665
1772882835744334300,7.925334228515625,-0.001430175849236548,-0.002756975358352065,0.0008526952005922794
1772882835754267400,7.935267333984375,0.0005705018993467093,0.002235986292362213,-0.00152942119166255
1772882835764199400,7.945199462890625,-0.001497975317761302,0.0014346404932439327,-0.0003709461307153106
1772882835774132500,7.955132568359375,0.000028674257919192314,0.00015678908675909042,0.0015999230090528727
1772882835784065500,7.9650654296875,-0.00001260475255548954,-0.000503940973430872,0.00029843623633496463
1772882835793997600,7.97499755859375,-0.002145767444744706,0.002776728942990303,-0.0010777113493531942
1772882835803930600,7.9849306640625,0.0017485730350017548,-0.0005125412717461586,0.000838965701404959
1772882835813862700,7.994862548828125,-0.0022083213552832603,0.0015221466310322285,0.00017012207536026835
1772882835823795500,8.00479541015625,-0.002301531843841076,-0.00042169447988271713,0.0006316479411907494
1772882835833727200,8.014727294921874,0.002359856851398945,-0.001372150145471096,0.00007849665416870266
1772882835843660300,8.024660400390625,0.0024136528372764587,0.0006499881856143475,-0.00027091009542346
1772882835853593300,8.03459326171875,0.000005855574272572994,-0.0015917322598397732,-0.0008565144380554557
1772882835863525400,8.044525390625,0.00041758030420169234,-0.0009954501874744892,-0.0008676996803842485
1772882835873458400,8.05445849609375,0.0003754986682906747,-0.0012899711728096008,-0.00017523206770420074
1772882835883390500,8.064390380859376,0.0003459375584498048,-0.0002582622691988945,-0.0013057439355179667
1772882835893323500,8.074323486328124,-0.0025059841573238373,0.0036373664624989033,-0.0026377656031399965
1772882835903256300,8.08425634765625,-0.00037758564576506615,-0.0007653716020286083,-0.0009139015455730259
1772882835913188400,8.094188232421875,-0.00014374149031937122,0.0018453700467944145,0.000013670251064468175
1772882835923121400,8.104121337890625,0.0010205925209447742,0.00018968293443322182,0.0010539009235799313
1772882835933054500,8.114054443359375,-0.0008599398424848914,-0.000039264094084501266,-0.0018468804191797972
1772882835942986500,8.123986572265625,0.0016591441817581654,0.0018862010911107063,-0.00009665091783972457
1772882835952919600,8.13391943359375,0.00032177387038245797,0.00015805009752511978,0.0003780983097385615
1772882835962852400,8.143852294921874,0.0021950413938611746,-0.0007538162171840668,0.0012750509195029736
1772882835972784600,8.15378466796875,0.000055216019973158836,0.000983704812824726,0.001233895542100072
1772882835982717400,8.163717529296875,0.0018296801717951894,-0.0006722491234540939,0.0023652061354368925
1772882835992650500,8.173650390625,-0.0009973535779863596,0.00059848977252841,0.0007780914311297238
1772882836002582500,8.18358251953125,0.000215450010728091,0.000577184371650219,0.0005549185443669558
1772882836012515600,8.193515625,0.0008449854794889688,0.0012311311438679695,-0.002678642049431801
1772882836022448600,8.20344873046875,-0.0020594578236341476,-0.002027246169745922,-0.0022011371329426765
1772882836032380700,8.213380615234374,-0.0008873416809365153,-0.0017478163354098797,0.0006030786316841841
1772882836042313500,8.2233134765625,0.00017579214181751013,-0.0012277006171643734,0.0006867019110359251
1772882836052246500,8.23324658203125,-0.0006386832101270556,0.000012028496712446213,-0.00015229330165311694
1772882836062178300,8.24317822265625,-0.0009244403336197138,-0.000774935819208622,0.0020743757486343384
1772882836072111400,8.253111328125,-0.000026728492230176926,-0.0009237783960998058,0.001137057552114129
1772882836082044400,8.26304443359375,-0.0006981113692745566,0.00013589300215244293,0.0012574325082823634
1772882836091976400,8.2729765625,-0.002820233814418316,0.0008765184320509434,-0.00036794907646253705
1772882836101909500,8.282909423828125,-0.00047239125706255436,-0.0002931416966021061,-0.0009642308577895164
1772882836111841500,8.292841552734375,-0.00043518003076314926,-0.00000642240047454834,0.000017627076886128634
1772882836121774300,8.3027744140625,0.0013605895219370723,0.000022872351109981537,0.0009681092924438417
1772882836131707400,8.312707275390625,0.0010936054168269038,-0.00031929416581988335,0.0024533323012292385
1772882836141639400,8.322639404296876,0.002525054384022951,-0.00015737395733594894,0.0008035039063543081
1772882836151572500,8.332572509765624,0.00019418960437178612,0.00047696102410554886,-0.0008349585114046931
1772882836161505500,8.342505615234375,-0.002212509047240019,0.0006532622501254082,-0.0003939390298910439
1772882836171438300,8.352438232421875,-0.0007040008204057813,-0.0017265481874346733,0.0011316370218992233
1772882836181371400,8.362371337890625,-0.0023018973879516125,-0.0008130837231874466,-0.00007504128734581172
1772882836191303400,8.372303466796875,0.0017653143731877208,0.000054510775953531265,-0.0009108275990001857
1772882836201236500,8.382236572265626,0.0008806122932583094,0.0016327002085745335,-0.0005196092533878982
1772882836211169500,8.39216943359375,-0.0008409770671278238,0.0012854328379034996,0.0009458453278057277
1772882836221101600,8.4021015625,-0.0005275229923427105,-0.000125776045024395,0.0006584902293980122
1772882836231034600,8.41203466796875,-0.00005308212712407112,0.0007087723352015018,0.001436552032828331
1772882836240967400,8.421967529296875,0.0004265531897544861,0.00034924549981951714,-0.00040901859756559134
1772882836250899500,8.4318994140625,0.0033258292824029922,-0.0019724220037460327,0.00043831433868035674
1772882836260832500,8.44183251953125,-0.00028142251539975405,-0.00008930079638957977,0.0003813226940110326
1772882836270765600,8.451765625,-0.0024169094394892454,0.00045751454308629036,0.0007849416579119861
1772882836280697300,8.461697265625,-0.0005785294342786074,-0.0005893739871680737,0.00047122128307819366
1772882836290630700,8.471630615234375,-0.0022572132293134928,0.0023652277886867523,-0.003222727682441473
1772882836300562400,8.4815625,0.00021712965099141002,-0.00016078073531389236,0.00123593641910702
1772882836310495500,8.49149560546875,-0.0005093662766739726,0.0014877901412546635,0.00022555841132998466
1772882836320428300,8.50142822265625,-0.0016811571549624205,0.0009386464953422546,-0.00020134629448875785
1772882836330360300,8.5113603515625,-0.0014368541305884719,0.0012515820562839508,-0.0007429317338392138
1772882836340293400,8.52129345703125,-0.0003380338894203305,0.0008742120116949081,0.0023569876793771982
1772882836350226400,8.531226318359375,0.0011530888732522726,-0.0013991161249578,-0.0007810866227373481
1772882836360158500,8.541158447265625,-0.0009478789288550615,0.0018683159723877907,-0.002664207946509123
1772882836370091500,8.551091552734375,0.0013616655487567186,0.001101211179047823,0.0023134583607316017
1772882836380024300,8.5610244140625,0.0017155997920781374,0.0010612639598548412,-0.002603003289550543
1772882836389956400,8.570956298828126,-0.0028991932049393654,0.0009462847374379635,0.0012978010345250368
1772882836399889400,8.580889404296874,-0.0004163280827924609,-0.0006593354046344757,0.0024762495886534452
1772882836409822500,8.590822509765625,0.0006263336981646717,0.0009062550961971283,-0.0003228723944630474
1772882836419754500,8.60075439453125,0.00019516795873641968,0.0012031975202262402,-0.0008334004087373614
1772882836429687600,8.6106875,0.0009884556056931615,-0.0005802959203720093,0.0002770511491689831
1772882836439620600,8.62062060546875,-0.00006881938315927982,0.0005297097377479076,-0.0008430744055658579
1772882836449552600,8.630552734375,0.0008047552546486259,-0.0005485238507390022,0.0006234057946130633
1772882836459485400,8.6404853515625,0.0004675990785472095,0.0003670705482363701,-0.001085011987015605
1772882836469418500,8.65041845703125,-0.0010948408162221313,-0.0011801635846495628,0.0015769611345604062
1772882836479350500,8.6603505859375,-0.0028184386901557446,-0.0009868182241916656,0.0001686815230641514
1772882836489283600,8.67028369140625,-0.001931825652718544,0.002820944879204035,-0.0004828327801078558
1772882836499216600,8.680216552734375,0.0004274686216376722,-0.0034611858427524567,-0.00022157667262945324
1772882836509148400,8.6901484375,-0.00015524879563599825,-0.0026009310968220234,0.001738325459882617
1772882836519081500,8.70008154296875,-0.000972839305177331,-0.0019196942448616028,-0.0014867625432088971
1772882836529014300,8.71001416015625,-0.001902656746096909,0.0008924896828830242,0.0024199369363486767
1772882836538946300,8.7199462890625,-0.0003119506873190403,0.0026618940755724907,-0.0016003709752112627
1772882836548879400,8.72987939453125,0.0003169858828186989,-0.002210412174463272,-0.00013524675159715116
1772882836558812400,8.7398125,-0.000441216048784554,-0.0009736400097608566,-0.00034563647932372987
1772882836568744400,8.749744384765625,-0.0000695117050781846,0.0008293651044368744,0.0014160443097352982
1772882836578677500,8.759677490234376,0.0002543287118896842,-0.00010939920321106911,-0.0021139755845069885
1772882836588609500,8.769609619140626,0.0007232389179989696,0.0001215888187289238,0.0005610722000710666
1772882836598542300,8.779542236328124,-0.0007689301855862141,-0.0010824264027178288,0.0009022231679409742
1772882836608475400,8.789475341796875,0.0017421019729226828,-0.0020903265103697777,-0.0005988654447719455
1772882836618407400,8.799407470703125,0.0009583336068317294,-0.00036912551149725914,0.002264298964291811
1772882836628340500,8.809340576171875,0.0027032019570469856,-0.0008430536836385727,0.0011396324262022972
1772882836638273500,8.8192734375,-0.0026329741813242435,-0.0021514645777642727,-0.0007570708403363824
1772882836648205600,8.82920556640625,0.003143919399008155,-0.00005361763760447502,0.00014846943668089807
1772882836658138600,8.839138671875,-0.0010103454114869237,0.00012561306357383728,0.000009985073120333254
1772882836668071400,8.849071533203125,0.00011085579171776772,-0.0010238797403872013,-0.003712229896336794
1772882836678003500,8.85900341796875,0.0009175272425636649,-0.0018044523894786835,-0.0001593065244378522
1772882836687936500,8.8689365234375,0.0015062459278851748,0.0004764096811413765,-0.0014834289904683828
1772882836697869600,8.87886962890625,0.00042553513776510954,-0.0017265575006604195,-0.0001952580059878528
1772882836707801600,8.888801513671876,0.0017689804080873728,0.001432256307452917,0.0005402161623351276
1772882836717734700,8.898734619140624,-0.000351428403519094,-0.00048761675134301186,-0.00007417508459184319
1772882836727667500,8.90866748046875,-0.001208713511005044,0.0017803390510380268,-0.0012611767742782831
1772882836737599500,8.918599609375,-0.0030122059397399426,0.0010487688705325127,0.00012180273188278079
1772882836747532300,8.9285322265625,-0.001660410431213677,0.0004730154760181904,-0.001234634080901742
1772882836757465300,8.93846533203125,-0.0009155242005363107,-0.0021778950467705727,-0.0012828372418880463
1772882836767397400,8.9483974609375,-0.0008603108581155539,-0.001665459480136633,-0.0014596303226426244
1772882836777330400,8.958330322265626,0.0010827314108610153,0.0005753240548074245,0.000004309258656576276
1772882836787263500,8.968263427734374,-0.0020622676238417625,0.0007017618045210838,0.0006839687703177333
1772882836797195500,8.978195556640625,-0.002202083356678486,-0.002374988282099366,0.0009007500484585762
1772882836807128300,8.98812841796875,-0.0007759071886539459,-0.00016723573207855225,0.0029697162099182606
1772882836817061400,8.998061279296875,-0.0012885655742138624,-0.00044740037992596626,-0.0007613725028932095
1772882836826993400,9.007993408203125,0.003841605968773365,-0.0030636752489954233,-0.0005064366851001978
1772882836836926500,9.017926513671876,-0.00021838315296918154,0.0015052435919642448,0.0014858741778880358
1772882836846859500,9.027859619140624,0.0011182117741554976,-0.0016237753443419933,0.0011445247801020741
1772882836856791600,9.03779150390625,-0.00037182681262493134,0.0013970481231808662,0.00239408016204834
1772882836866724600,9.047724609375,0.001493433490395546,0.00010506529361009598,-0.00034584966488182545
1772882836876657400,9.057657470703125,-0.0023074299097061157,0.000820389948785305,0.0008144895546138287
1772882836886589400,9.06758935546875,0.002038955222815275,-0.0005021225661039352,-0.0012418876867741346
1772882836896522500,9.0775224609375,-0.0009970484534278512,0.0006520911119878292,0.001256157411262393
1772882836906454500,9.08745458984375,-0.00013610185123980045,0.0006819157861173153,-0.0005283987266011536
1772882836916387600,9.0973876953125,-0.0005603433819487691,-0.0018997527658939362,-0.0013427934609353542
1772882836926320600,9.107320556640625,-0.00025299598928540945,-0.0008768499828875065,-0.0009569932008162141
1772882836936252400,9.11725244140625,-0.00016111694276332855,0.0015599424950778484,-0.00022515651653520763
1772882836946185500,9.127185546875,-0.0009332416811957955,-0.001336884219199419,-0.0007144170813262463
1772882836956118300,9.1371181640625,0.0024353908374905586,-0.001002657227218151,0.0016997384373098612
1772882836966050300,9.14705029296875,-0.0004943215753883123,0.0013981075026094913,-0.0011991939973086119
1772882836975983400,9.1569833984375,-0.0009547820081934333,0.0006361771374940872,-0.001464178552851081
1772882836985916400,9.16691650390625,-0.002012361539527774,0.00000399397686123848,-0.0021994891576468945
1772882836995848400,9.176848388671875,-0.002233670325949788,-0.0006434204988181591,-0.0004362101899459958
1772882837005781500,9.186781494140625,0.00020561309065669775,-0.0006380118429660797,0.00017264956841245294
1772882837015714300,9.19671435546875,0.0018341360846534371,0.0001643984578549862,-0.0011618604185059667
1772882837025646300,9.206646240234376,0.0009750260505825281,0.0007045199163258076,0.002466629259288311
1772882837035579400,9.216579345703124,0.0008120406419038773,-0.0015162904746830463,0.0012634132290259004
1772882837045512400,9.226512451171875,0.0016008521197363734,0.0026197698898613453,-0.001767625566571951
1772882837055444500,9.236444580078125,0.0011960515985265374,-0.0007991967722773552,0.00005371024599298835
1772882837065378300,9.24637841796875,-0.0005580894649028778,-0.0012098499573767185,0.0002196277491748333
1772882837075311000,9.25631103515625,-0.0015423937002196908,-0.0010058516636490822,-0.00017718327580951154
1772882837085243000,9.266242919921876,-0.0012457461562007666,-0.0022612616885453463,0.0007286458858288825
1772882837095176000,9.276176025390624,0.00009435636457055807,0.0007521049119532108,0.0006841711583547294
1772882837105109000,9.28610888671875,-0.00020160875283181667,-0.00025765644386410713,0.0000024924520403146744
1772882837115041000,9.296041015625,0.0012199865886941552,-0.0011812406592071056,-0.0005333356093615294
1772882837124974000,9.30597412109375,0.002646572422236204,0.0017277649603784084,0.0016888892278075218
1772882837134907000,9.315906982421875,0.00017515907529741526,-0.000035247765481472015,-0.00020568369654938579
1772882837144839200,9.325839111328126,0.00005746970418840647,-0.0006910511292517185,-0.0004387066001072526
1772882837154772000,9.33577197265625,0.0024849409237504005,0.0007822094485163689,0.0010561257367953658
1772882837164705000,9.345705078125,-0.0008744578808546066,0.00015197647735476494,-0.0019183249678462744
1772882837174637000,9.355636962890625,0.0009830970084294677,-0.0003545568324625492,-0.00028687246958725154
1772882837184570000,9.365570068359375,-0.0010372544638812542,-0.00117584690451622,-0.0012306158896535635
1772882837194503200,9.375503173828125,0.0013654495123773813,-0.001970267854630947,0.00041175546357408166
1772882837204435200,9.385435302734376,0.000980169977992773,0.00011369679123163223,-0.0005653226980939507
1772882837214368000,9.395367919921876,-0.0011655387934297323,0.0007467302493751049,-0.0018529610242694616
1772882837224301000,9.405301025390624,-0.00013978476636111736,0.0029160408303141594,0.0006092895055189729
1772882837234233000,9.415233154296875,-0.00045430404134094715,-0.002484849886968732,-0.0010202988050878048
1772882837244166100,9.425166259765625,0.0011900755343958735,0.0005660620518028736,0.0003887148341163993
1772882837254099200,9.43509912109375,0.0008369403658434749,-0.0008736429736018181,-0.0015511317178606987
1772882837264031200,9.44503125,-0.0019290760392323136,0.0015224730595946312,-0.0007274217205122113
1772882837273964300,9.45496435546875,-0.0012574269203469157,0.001861493568867445,-0.00022594848996959627
1772882837283896000,9.46489599609375,0.0027663735672831535,0.0008413572795689106,-0.0005402533570304513
1772882837293829000,9.4748291015625,-0.0007905443198978901,0.00026158709079027176,0.0004954499891027808
1772882837303762200,9.48476220703125,0.0013794309925287962,-0.0013268962502479553,0.00037299259565770626
1772882837313694000,9.49469384765625,-0.0019133014138787985,0.0006153471767902374,-0.00011543116124812514
1772882837323627000,9.504626953125,0.0005982086295261979,0.0014338898472487926,-0.0011193897807970643
1772882837333560000,9.51456005859375,0.0013468231773003936,-0.00027772411704063416,-0.0005745070520788431
1772882837343492000,9.5244921875,-0.0012951891403645277,0.0015573836863040924,-0.002285958267748356
1772882837353425200,9.534425048828124,-0.00009330466855317354,0.0023171831853687763,0.00021421746350824833
1772882837363358000,9.54435791015625,-0.004449483938515186,0.00022976798936724663,-0.000933036906644702
1772882837373290000,9.5542900390625,0.0012590020196512341,0.0003821011632680893,0.0017535599181428552
1772882837383223000,9.56422314453125,-0.0031738001853227615,0.0008577988483011723,0.0011727947276085615
1772882837393156000,9.574156005859376,0.0016055084997788072,-0.0009073442779481411,-0.0009904911275953054
1772882837403088100,9.584088134765626,-0.0009298886870965362,0.0008720341138541698,0.0011274206917732954
1772882837413021200,9.594021240234374,0.00011087465099990368,0.0007026572711765766,0.0006278116488829255
1772882837422954000,9.6039541015625,-0.0005430002929642797,-0.0004820488393306732,-0.0010841499315574765
1772882837432886000,9.613885986328125,-0.0012268999125808477,-0.0037420245353132486,0.0012876613764092326
1772882837442819000,9.623819091796875,-0.0017941738478839397,0.0010411087423563004,0.0016604879638180137
1772882837452752100,9.633752197265625,-0.00002290529664605856,-0.00004066759720444679,-0.0009989447426050901
1772882837462684200,9.64368408203125,0.0016682762652635574,0.002882060594856739,-0.00036441514384932816
1772882837472617200,9.6536171875,0.0026555100921541452,-0.0008511585183441639,0.00007607167935930192
1772882837482550300,9.66355029296875,0.0014288173988461494,-0.0012477305717766285,0.001192323979921639
1772882837492482300,9.673482421875,0.00032813288271427155,0.000989857129752636,0.00030389343737624586
1772882837502415000,9.6834150390625,-0.0015042158775031567,0.0020823711529374123,-0.001196711789816618
1772882837512348200,9.69334814453125,0.000660401419736445,-0.00040528783574700356,0.0011628489010035992
1772882837522280000,9.703280029296875,-0.0008075959049165249,-0.0008205319754779339,-0.00032964066485874355
1772882837532213000,9.713212890625,-0.0006512682884931564,0.0007808269001543522,0.0005939435795880854
1772882837542146300,9.723146240234374,-0.00017459574155509472,0.0016505415551364422,0.003346719779074192
1772882837552078000,9.733078125,-0.00028724747244268656,0.001771715935319662,0.0021570855751633644
1772882837562011000,9.743010986328125,0.0010921559296548367,-0.0022109004203230143,-0.00019291396893095225
1772882837571944000,9.75294384765625,0.0025406491477042437,0.0002879435196518898,-0.002636896912008524
1772882837581876000,9.7628759765625,0.00010609207674860954,0.0011141388677060604,0.00015832760254852474
1772882837591809000,9.77280908203125,0.00030902487924322486,0.000016650184988975525,0.0030246879905462265
1772882837601742000,9.7827421875,-0.0007199943065643311,-0.00043477676808834076,0.00003779350663535297
1772882837611674000,9.792674072265624,-0.002136529888957739,0.00007122382521629333,0.0001690873468760401
1772882837621607200,9.802607177734375,-0.0011574510717764497,-0.0008918493986129761,-0.0004172476183157414
1772882837631540000,9.8125400390625,-0.001416842802427709,0.0002738162875175476,-0.0005583951715379953
1772882837641472000,9.822471923828125,-0.0004417381715029478,0.0004353313706815243,-0.0008625821792520583
1772882837651405000,9.832405029296876,-0.0008814261527732015,0.001726431306451559,0.0021513174287974834
1772882837661338000,9.842338134765624,-0.0014878252986818552,-0.00026819435879588127,-0.0025182098615914583
1772882837671270100,9.852270263671874,-0.0008113823132589459,-0.000074049923568964,0.0008757225004956126
1772882837681203200,9.862203125,-0.010878361761569977,0.27190396189689636,0.13847039639949799
1772882837691135200,9.87213525390625,-0.017557302489876747,0.3967723846435547,0.09379639476537704
1772882837701068300,9.882068359375,-0.0002059257822111249,0.013671791180968285,0.04588392376899719
1772882837711001000,9.8920009765625,-0.003075482090935111,-0.006419362034648657,-0.003515584859997034
1772882837720934100,9.90193408203125,0.00009549339301884174,-0.012381014414131641,0.0012555905850604177
1772882837730866200,9.9118662109375,0.0013077643234282732,0.05565289780497551,0.015465152449905872
1772882837740799200,9.92179931640625,0.00032383541110903025,-0.02224784344434738,-0.013675494119524956
1772882837750731000,9.93173095703125,0.005109269637614489,-0.11879569292068481,-0.04764491319656372
1772882837760664000,9.9416640625,0.0039737410843372345,-0.08876784145832062,-0.03800971806049347
1772882837770596900,9.951596923828125,0.004281069617718458,-0.15439799427986145,-0.0686858668923378
1772882837780529000,9.96152880859375,0.009131904691457748,-0.31335240602493286,-0.09668494760990143
1772882837790462000,9.9714619140625,0.0019568155985325575,-0.07995057106018066,-0.028894178569316864
1772882837800395000,9.98139501953125,-0.006932069547474384,0.18493372201919556,0.06135561317205429
