time,seconds_elapsed,z,y,x
1772882827883889000,0.064888916015625,0.002472745021805167,-0.07784579694271088,-0.023505326360464096
1772882827893822000,0.074822021484375,-0.0004828310920856893,0.00936074461787939,0.0019044264918193221
1772882827903754000,0.08475390625,0.0005275722360238433,0.06328602880239487,0.01661199890077114
1772882827913687000,0.09468701171875,0.00016431703988928348,-0.00472551304847002,-0.0031787490006536245
1772882827923620000,0.1046201171875,0.000330231967382133,-0.04400154575705528,-0.01209847442805767
1772882827933552000,0.11455224609375,0.0008455536444671452,0.00794687308371067,0.0022365227341651917
1772882827943485000,0.12448486328125,-0.0001776328426785767,0.031310517340898514,0.00962812639772892
1772882827953418000,0.13441796875,-0.0005824333056807518,-0.007418235298246145,-0.0012295814231038094
1772882827963350000,0.14435009765625,-0.0007398261222988367,-0.020500481128692627,-0.009096559137105942
1772882827973283000,0.154282958984375,0.0004628573951777071,0.008904811926186085,0.0037465349305421114
1772882827983216000,0.164216064453125,-0.000978711643256247,0.01931644044816494,0.005958823021501303
1772882827993148000,0.17414794921875,0.000333161442540586,-0.006150570698082447,-0.0023845944087952375
1772882828003081000,0.1840810546875,-0.0028847360517829657,-0.009915747679769993,-0.0028991170693188906
1772882828013014000,0.194013916015625,0.0002258360618725419,0.010815896093845367,0.0018548916559666395
1772882828022945800,0.20394580078125,0.0005331648280844092,0.013558153063058853,0.0036911412607878447
1772882828032878800,0.21387890625,-0.00022796659322921187,-0.002659166231751442,-0.003197657410055399
1772882828042811000,0.223810791015625,-0.002225870033726096,-0.0019651465117931366,-0.0034194989129900932
1772882828052743700,0.23374365234375,-0.00407543545588851,0.015251390635967255,0.003228283952921629
1772882828062676700,0.2436767578125,0.00001651159800530877,0.009644105099141598,-0.0005049353349022567
1772882828072608800,0.25360888671875,-0.001877262257039547,-0.0024434502702206373,-0.005021922755986452
1772882828082541800,0.263541748046875,-0.0035659726709127426,0.004179564770311117,-0.0016138756182044744
1772882828092474600,0.273474609375,-0.0033398703671991825,0.011001517996191978,0.0013371731620281935
1772882828102406700,0.28340673828125,-0.0002790992730297148,0.0041465419344604015,-0.001023186487145722
1772882828112339700,0.293339599609375,-0.0003382214636076242,-0.004254666157066822,-0.005387841258198023
1772882828122272800,0.303272705078125,-0.0018463695887476206,0.008506136015057564,-0.0015089471125975251
1772882828132204800,0.313204833984375,-0.001743571599945426,0.01677897945046425,0.005864014383405447
1772882828142137900,0.323137939453125,-0.0015126754296943545,0.003026416292414069,-0.0015579492319375277
1772882828152070000,0.33306982421875,0.00108257494866848,-0.00036618465674109757,-0.002320412313565612
1772882828162002700,0.343002685546875,-0.003229881636798382,0.008288023993372917,0.002561428351327777
1772882828171935700,0.352935791015625,-0.001088966615498066,0.01082761399447918,0.0021401161793619394
1772882828181867500,0.362867431640625,-0.00023568976030219346,0.004999818746000528,-0.0006591323763132095
1772882828191800600,0.372800537109375,-0.0016466324450448155,-0.0015574166318401694,-0.003686081152409315
1772882828201734000,0.38273388671875,-0.001916410750709474,0.007511712145060301,-0.000291616132017225
1772882828211665700,0.392665771484375,-0.0011563445441424847,0.010515225119888783,0.0019217369845137
1772882828221598700,0.4025986328125,-0.001005343277938664,0.004379302263259888,-0.00026551715563982725
1772882828231531500,0.412531494140625,-0.0004474110610317439,-0.00042796999332495034,-0.0035108451265841722
1772882828241463600,0.422463623046875,0.0006580671179108322,0.007467503659427166,0.00013502225920092314
1772882828251396600,0.432396728515625,-0.0021105550695210695,0.0073202308267354965,0.000847950461320579
1772882828261329700,0.44232958984375,-0.0023284016642719507,0.005327387247234583,0.001743305241689086
1772882828271261700,0.45226171875,-0.002581934677436948,0.00666402792558074,-0.0009693906176835299
1772882828281194800,0.46219482421875,0.0003203782835043967,0.004971322603523731,0.000014647385796706658
1772882828291127800,0.4721279296875,0.0014594122767448425,0.0032530513126403093,0.0011853729374706745
1772882828301059800,0.482059814453125,0.0005075985100120306,0.00267780851572752,0.0005153216770850122
1772882828310992600,0.49199267578125,-0.0006229133578017354,0.0037710361648350954,0.0005054679932072759
1772882828320924700,0.501924560546875,-0.00038242992013692856,0.0006585997180081904,-0.001472728094086051
1772882828330857700,0.511857666015625,-0.0007632619817741215,0.005218996666371822,-0.0016178702935576439
1772882828340790800,0.521790771484375,-0.0032589102629572153,0.007897071540355682,-0.0015707324491813779
1772882828350722800,0.531722900390625,0.0003842941368930042,0.00626002624630928,0.001094559207558632
1772882828360656000,0.54165576171875,0.000031158982892520726,0.006326605565845966,0.0027334685437381268
1772882828370588700,0.551588623046875,-0.0019148128340020776,0.010401241481304169,0.0006719155353493989
1772882828380520700,0.561520751953125,-0.00012516857532318681,0.009606288745999336,0.002725212834775448
1772882828390453800,0.571453857421875,-0.0019108180422335863,0.007537278346717358,0.0011153318919241428
1772882828400386800,0.58138671875,0.0011345066595822573,0.0004319647268857807,-0.0005816344055347145
1772882828410318600,0.591318603515625,-0.0007315703551284969,-0.0011105381418019533,-0.0024889903143048286
1772882828420251600,0.601251708984375,-0.002383795566856861,0.008083758875727654,0.0012130698887631297
1772882828430184700,0.611184814453125,-0.00005193164179218002,0.015389342792332172,0.002912166528403759
1772882828440116700,0.62111669921875,-0.0010309095960110426,0.008981777355074883,0.0005510080372914672
1772882828450049500,0.631049560546875,0.00025726135936565697,-0.005840312223881483,0.0010064085945487022
1772882828459981600,0.640981689453125,0.00003488740912871435,0.006459231022745371,0.0006005428149364889
1772882828469914600,0.65091455078125,-0.0018104169284924865,0.011736550368368626,0.0025904567446559668
1772882828479847700,0.66084765625,-0.0006090649403631687,0.0024703482631593943,-0.004511395003646612
1772882828489779700,0.67077978515625,-0.00264798104763031,-0.0012639362830668688,-0.00199310970492661
1772882828499712800,0.680712646484375,0.0010242518037557602,0.014053767547011375,0.002665557898581028
1772882828509645800,0.690645751953125,-0.0015981629258021712,0.011062238365411758,0.002972354181110859
1772882828519577900,0.700577880859375,0.0019952403381466866,0.0038575888611376286,0.000675111310556531
1772882828529510700,0.7105107421875,-0.0007070692372508347,0.0021283982787281275,0.001463406952098012
1772882828539443700,0.720443603515625,0.0004809668753296137,0.00529676117002964,0.0035542547702789307
1772882828549375700,0.730375732421875,-0.00027031084755435586,0.0007366303470917046,-0.000669518718495965
1772882828559308800,0.740308837890625,-0.0012897689593955874,0.007312774192541838,0.0029172266367822886
1772882828569241900,0.750241943359375,-0.0008372978190891445,0.009284578263759613,0.0005693838465958834
1772882828579174000,0.760173828125,-0.002641589380800724,0.0038567897863686085,0.0006013417732901871
1772882828589106700,0.770106689453125,0.00011451592581579462,-0.0011443602852523327,-0.002659432590007782
1772882828599038700,0.780038818359375,-0.001208009896799922,0.010408698581159115,0.0013158678775653243
1772882828608971500,0.789971435546875,-0.00040719733806326985,0.009951700456440449,0.0006511429091915488
1772882828618904800,0.79990478515625,-0.0006199838826432824,-0.000013315805517777335,-0.001901230658404529
1772882828628836600,0.809836669921875,-0.0008660599705763161,0.0054480284452438354,-0.0024700819049030542
1772882828638769700,0.819769775390625,-0.0017986990278586745,0.00971734244376421,0.0027542412281036377
1772882828648702700,0.82970263671875,-0.002139050979167223,0.0059244679287076,0.00030413299100473523
1772882828658634800,0.839634765625,-0.002525475574657321,0.0007954862085171044,-0.001038366463035345
1772882828668567600,0.849567626953125,-0.0010048106778413057,0.0036573191173374653,-0.003465571440756321
1772882828678500600,0.85950048828125,-0.0008799084462225437,0.009014533832669258,0.0010333064710721374
1772882828688432600,0.8694326171875,-0.0025457157753407955,0.010602310299873352,0.003245061729103327
1772882828698365700,0.87936572265625,-0.0012058793799951673,0.009634251706302166,0.0014223942998796701
1772882828708298800,0.889298828125,0.0008713863207958639,0.004131894558668137,-0.0007779093575663865
1772882828718230800,0.899230712890625,-0.0002902845444623381,0.0021638183388859034,0.001136637176387012
1772882828728163800,0.909163818359375,-0.0012948289513587952,0.01107448898255825,0.000261788722127676
1772882828738095900,0.919095947265625,-0.0006924218614585698,0.01197863183915615,0.00350365461781621
1772882828748028700,0.929028564453125,-0.0006540723843500018,0.0021915151737630367,-0.0019046928500756621
1772882828757961700,0.938961669921875,-0.0017156084068119526,0.0041033984161913395,-0.0013960290234535933
1772882828767893800,0.948893798828125,-0.00013768543431069702,0.010660633444786072,0.0007688545738346875
1772882828777826800,0.958826904296875,0.0019209380261600018,0.007225155830383301,0.00022983079543337226
1772882828787759900,0.968759765625,0.00017070861940737814,0.00509862182661891,0.0004780374001711607
1772882828797692000,0.97869189453125,-0.0009898969437927008,0.009398295544087887,0.001630120910704136
1772882828807624700,0.988624755859375,-0.0035428032279014587,0.005992112215608358,-0.0000756337758502923
1772882828817557800,0.998557861328125,-0.0005808354471810162,0.00000852211542223813,-0.0020303940400481224
1772882828827489500,1.008489501953125,-0.0008700547041371465,0.0009267800487577915,-0.0017710020765662193
1772882828837422600,1.018422607421875,-0.001805889536626637,0.009572199545800686,0.0006988134700804949
1772882828847355600,1.028355712890625,-0.003643736941739917,0.003742806613445282,-0.00031558459158986807
1772882828857287700,1.03828759765625,-0.0005315669695846736,0.0026349315885454416,0.0005739112384617329
1772882828867220700,1.048220703125,-0.003073554253205657,0.0076302229426801205,-0.0011108045000582933
1772882828877152800,1.05815283203125,0.0003352919884491712,0.01173468679189682,0.0016160061350092292
1772882828887085600,1.06808544921875,-0.002156095113605261,0.004899417515844107,-0.0009318400407209992
1772882828897018600,1.0780185546875,-0.002183792181313038,0.0073468624614179134,0.0012865731259807944
1772882828906950700,1.08795068359375,-0.00018881811411119998,0.008891229517757893,0.0007651261985301971
1772882828916883700,1.0978837890625,-0.0001246359315700829,-0.0006982808117754757,-0.00007856325100874528
1772882828926816800,1.107816650390625,-0.0024168186355382204,-0.0021377194207161665,-0.0007520766812376678
1772882828936748800,1.117748779296875,-0.002407231368124485,0.012966930866241455,0.0034328147303313017
1772882828946681900,1.127681884765625,-0.0020266654901206493,0.013068131171166897,0.0033302828669548035
1772882828956614700,1.13761474609375,0.0011400992516428232,-0.001531850197352469,-0.0007877630414441228
1772882828966546700,1.147546630859375,0.00039281626231968403,-0.0023345269728451967,-0.005592371802777052
1772882828976479700,1.157479736328125,-0.0020700751338154078,0.010839864611625671,0.0024924525059759617
1772882828986412800,1.167412841796875,-0.0012202603975310922,0.013795973733067513,-0.00022690132027491927
1772882828996344800,1.1773447265625,-0.0000977380113909021,-0.0024104269687086344,-0.0020959076937288046
1772882829006278000,1.18727783203125,-0.000011451592399680521,0.00044554684427566826,-0.002624545246362686
1772882829016210700,1.197210693359375,-0.001528920722194016,0.014248178340494633,0.0033776871860027313
1772882829026142700,1.207142822265625,-0.0002924150903709233,0.009052084758877754,0.0011576761025935411
1772882829036075800,1.21707568359375,-0.0007262440049089491,0.0029430591966956854,-0.0036128442734479904
1772882829046007600,1.227007568359375,-0.0017449031583964825,0.0026069683954119682,-0.0005898901727050543
1772882829055941000,1.236941162109375,-0.004072505980730057,0.009905627928674221,-0.0006807039608247578
1772882829065874200,1.246874267578125,-0.0006868292111903429,0.0026844663079828024,0.0021915151737630367
1772882829075806200,1.25680615234375,-0.0023379891645163298,0.008672317489981651,-0.0011555455857887864
1772882829085739000,1.266739013671875,-0.001332645770162344,0.007357248570770025,0.0018524948973208666
1772882829095672000,1.276672119140625,-0.0021885856986045837,0.00785552617162466,-0.0006524744676426053
1772882829105604000,1.28660400390625,-0.0017158746486529708,0.005840312223881483,-0.0010956244077533484
1772882829115537200,1.296537109375,0.000636495475191623,0.003335609333589673,-0.00022184131375979632
1772882829125470200,1.30647021484375,-0.000773381965700537,0.006561762653291225,-0.001136104459874332
1772882829135402200,1.31640234375,-0.0027076357509940863,0.014271347783505917,0.002594451420009136
1772882829145335300,1.326335205078125,-0.001139300293289125,0.006318349856883287,-0.0007691209320910275
1772882829155267300,1.336267333984375,-0.0035262915771454573,0.0005856291390955448,-0.0012229235144332051
1772882829165200100,1.3462001953125,-0.0033779535442590714,0.009486446157097816,0.00192226970102638
1772882829175133200,1.35613330078125,-0.0007504787645302713,0.011334946379065514,0.0003989415417890996
1772882829185065000,1.36606494140625,-0.0025662221014499664,0.004690092988312244,-0.003123621689155698
1772882829194998000,1.375998046875,-0.003440005239099264,0.006175870541483164,-0.0005305017111822963
1772882829204931000,1.38593115234375,0.00005805691034765914,0.011985822580754757,-0.0009084042394533753
1772882829214863000,1.395863037109375,-0.0018351842882111669,0.007644603960216045,-0.0003837615076918155
1772882829224796200,1.405796142578125,-0.002665557898581028,0.0017955031944438815,-0.0024343954864889383
1772882829234729000,1.41572900390625,-0.00196434766985476,0.007537544704973698,0.00007057376933516935
1772882829244661000,1.425660888671875,0.000008788431841821875,0.007536745630204678,-0.00018695391190703958
1772882829254594000,1.435593994140625,-0.000014647385796706658,0.005352421198040247,0.0016279903938993812
1772882829264527000,1.445527099609375,-0.0013227921444922686,0.006904244888573885,0.0010634001810103655
1772882829274459100,1.455459228515625,-0.00014061490946915,0.0073468624614179134,0.0003579288604669273
1772882829284392200,1.46539208984375,0.0007097324123606086,0.006819023750722408,-0.00033928672201000154
1772882829294324200,1.47532421875,-0.0010247844038531184,0.00625975988805294,0.00015819176041986793
1772882829304257300,1.48525732421875,0.0013427657540887594,0.006804909091442823,-0.0004828310920856893
1772882829314190000,1.495190185546875,-0.0016197345685213804,0.01152642723172903,0.004449876025319099
1772882829324122000,1.5051220703125,-0.0007568703731521964,0.004769188817590475,-0.00014274542627390474
1772882829334055200,1.51505517578125,0.0024466461036354303,0.001582982949912548,-0.0018676748732104897
1772882829343988200,1.52498828125,0.0011033476330339909,0.009880061261355877,-0.0024674187880009413
1772882829353920300,1.534920166015625,0.0008093346259556711,0.012455071322619915,0.0034647725988179445
1772882829363853300,1.544853271484375,-0.0008460862445645034,0.0051966262981295586,0.0024256070610135794
1772882829373786000,1.5547861328125,-0.002439455594867468,-0.0014077469240874052,-0.004408863373100758
1772882829383718000,1.5647177734375,-0.0003438140847720206,0.006168147549033165,0.0014961638953536749
1772882829393651200,1.574651123046875,-0.0018522285390645266,0.012803945690393448,0.0020732709672302008
1772882829403584300,1.584584228515625,0.0004993426846340299,0.0005400890368036926,0.0021632856223732233
1772882829413516000,1.59451611328125,-0.0020836573094129562,0.004593686666339636,-0.0031246868893504143
1772882829423449000,1.604448974609375,-0.0016016251174733043,0.01025876309722662,0.0027441212441772223
1772882829433381000,1.614381103515625,0.00041678472189232707,0.008682171814143658,0.0005270395777188241
1772882829443314200,1.624314208984375,0.0013696637470275164,0.006070675794035196,0.0007643272401764989
1772882829453247000,1.6342470703125,0.00130894361063838,0.005856025032699108,-0.0004058657505083829
1772882829463179000,1.644178955078125,-0.00020293287525419146,0.010435064323246479,0.003326021833345294
1772882829473112000,1.654112060546875,-0.003596865339204669,0.006554571911692619,-0.0007571366732008755
1772882829483045000,1.664045166015625,-0.0010716560063883662,0.0032088428270071745,0.0003914846747647971
1772882829492977200,1.67397705078125,-0.0011598066193982959,0.005161472596228123,0.0011403656098991632
1772882829502910200,1.68391015625,0.00026791400159709156,0.0063007730059325695,-0.0021574266720563173
1772882829512843000,1.693843017578125,-0.0010732539230957627,0.010379137471318245,-0.0002681803307496011
1772882829522775300,1.703775390625,-0.002435460686683655,0.013315006159245968,0.003450924064964056
1772882829532708000,1.7137080078125,-0.0007084008539095521,0.004837099462747574,0.0008396946941502392
1772882829542641200,1.72364111328125,-0.0011310444679111242,-0.0017353157745674253,0.0008780442294664681
1772882829552573200,1.7335732421875,0.001859152689576149,0.00646588858217001,0.0009925601771101356
1772882829562506200,1.74350634765625,-0.0035276231355965137,0.011008442379534245,0.002296710154041648
1772882829572438300,1.753438232421875,0.0021963089238852262,0.002092445734888315,-0.0029878003988415003
1772882829582371300,1.763371337890625,-0.00008096009696600959,0.004543619230389595,-0.000592020689509809
1772882829592304000,1.77330419921875,-0.0022796657867729664,0.0046325684525072575,0.0005930859479121864
1772882829602236200,1.783236083984375,0.00022530343267135322,0.008798019029200077,0.002252235310152173
1772882829612169000,1.7931689453125,-0.002433063928037882,0.009244098328053951,0.001526523963548243
1772882829622102000,1.80310205078125,-0.0008402272942475975,0.005155347287654877,-0.001160339335910976
1772882829632034000,1.813033935546875,-0.003477022983133793,0.004677842371165752,0.0012205267557874322
1772882829641967000,1.822967041015625,-0.002214152133092284,0.007026484236121178,-0.0023957795929163694
1772882829651900200,1.832900146484375,-0.003001915058121085,0.002110288944095373,-0.0013920343481004238
1772882829661832200,1.842832275390625,-0.00023222764139063656,0.007376157213002443,-0.0007142598042264581
1772882829671765000,1.852764892578125,-0.00017070861940737814,0.01031708624213934,0.002091646660119295
1772882829681697000,1.862697021484375,0.00023995080846361816,0.004215251188725233,-0.003456783015280962
1772882829691630000,1.872630126953125,-0.000316916179144755,0.007444866932928562,0.0012839100090786815
1772882829701563100,1.882563232421875,-0.0007563377148471773,0.005864547099918127,0.0004934837343171239
1772882829711495200,1.8924951171875,-0.000016777914424892515,0.006917028222233057,0.00016777914424892515
1772882829721428200,1.90242822265625,-0.0017299894243478775,0.00236249016597867,-0.002627208363264799
1772882829731361000,1.912361083984375,-0.0007901599165052176,0.0039278962649405,-0.0003177151083946228
1772882829741293300,1.922293212890625,-0.0035260252188891172,0.008268316276371479,0.0004069310089107603
1772882829751226000,1.93222607421875,-0.0021949773654341698,0.007135407533496618,-0.0020777983590960503
1772882829761159200,1.9421591796875,-0.0007195860962383449,0.005506617948412895,-0.002100701443850994
1772882829771091200,1.95209130859375,-0.0022690133191645145,0.011023622937500477,0.002368615474551916
1772882829781024300,1.962024169921875,0.00035606464371085167,0.005459214095026255,0.00020746025256812572
1772882829790957300,1.971957275390625,0.000264718197286129,0.0023638217244297266,-0.0009558085002936423
1772882829800889000,1.98188916015625,-0.001475391210988164,0.00857457984238863,0.00007057376933516935
1772882829810822100,1.991822265625,-0.0015140071045607328,0.010212424211204052,0.001374457380734384
1772882829820754200,2.001754150390625,-0.00031558459158986807,0.001972337020561099,-0.000963797967415303
1772882829830687000,2.01168701171875,-0.000251402409048751,0.003620833856984973,-0.0009195895399898291
1772882829840620000,2.0216201171875,0.00046924897469580173,0.00541367381811142,-0.0006596649764105678
1772882829850552000,2.031552001953125,-0.00216594897210598,0.009153816848993301,0.0003787015157286078
1772882829860485000,2.041485107421875,-0.0025571673177182674,0.0034679684322327375,-0.0015456987312063575
1772882829870418200,2.051418212890625,-0.0023286680225282907,-0.00033635724685154855,-0.0014293185668066144
1772882829880350200,2.06135009765625,-0.0032764871139079332,0.004805141594260931,0.000571248063351959
1772882829890283000,2.071282958984375,-0.0002031991898547858,0.006461095064878464,-0.00008628641808172688
1772882829900216000,2.081216064453125,-0.0025246767327189445,0.0038400120101869106,-0.0005331648280844092
1772882829910148000,2.091148193359375,-0.0024029703345149755,0.00035739620216190815,-0.0024021712597459555
1772882829920081200,2.1010810546875,-0.0046725161373615265,0.0065079666674137115,-0.0007398261222988367
1772882829930013200,2.11101318359375,-0.0012503541074693203,0.0029909962322562933,-0.001076982356607914
1772882829939946200,2.1209462890625,-0.0028599686920642853,0.0016823188634589314,-0.000728907180018723
1772882829949879300,2.13087939453125,-0.0011486213188618422,0.004290618933737278,0.001094559207558632
1772882829959811300,2.140811279296875,-0.0010572749888524413,0.00541314110159874,0.0010812433902174234
1772882829969744100,2.150744140625,-0.0017595505341887474,0.007692540530115366,-0.0016857809387147427
1772882829979677200,2.16067724609375,-0.002252501668408513,0.005352687556296587,-0.0006111954571679235
1772882829989609200,2.170609130859375,-0.002751844236627221,0.004508465528488159,-0.002335326047614217
1772882829999542300,2.180542236328125,-0.0018378474051132798,0.005395297892391682,-0.0021110877860337496
1772882830009475300,2.190475341796875,-0.0017145430902019143,0.003997670952230692,-0.000018109494703821838
1772882830019407000,2.200406982421875,-0.002971821464598179,0.006046174559742212,-0.0013608753215521574
1772882830029340000,2.21033984375,-0.0017781927017495036,0.005251753609627485,-0.0010186590952798724
1772882830039273000,2.22027294921875,-0.001752360025420785,0.0007776430575177073,-0.0025334651581943035
1772882830049205000,2.230205078125,-0.0006135923322290182,0.00293293921276927,-0.0036511938087642193
1772882830059138300,2.24013818359375,-0.0023734092246741056,0.007130347657948732,-0.0014101437991485
1772882830069070300,2.2500703125,0.001026382320560515,0.0051897019147872925,-0.0016623451374471188
1772882830079003400,2.26000341796875,-0.0013552826130762696,0.0057015614584088326,-0.00313560594804585
1772882830088936400,2.2699365234375,0.0013946974650025368,0.0036645096261054277,-0.0018527611391618848
1772882830098868500,2.279868408203125,-0.00007084008393576369,0.005780923645943403,0.00041092574247159064
1772882830108801300,2.28980126953125,-0.0011984225129708648,0.0020474381744861603,-0.0009693906176835299
1772882830118734300,2.299734375,-0.0003115898580290377,-0.001734250457957387,-0.003841077210381627
1772882830128666400,2.309666259765625,0.00039734362508170307,0.004775846842676401,-0.001112668658606708
1772882830138599400,2.319599365234375,-0.0005589975044131279,0.005333778914064169,-0.0036629117093980312
1772882830148532500,2.329532470703125,-0.0015582155901938677,0.005964948330074549,0.00010759170982055366
1772882830158464500,2.339464599609375,0.0009443568997085094,0.004057858604937792,-0.0013148026773706079
1772882830168397300,2.349397216796875,-0.00027270769351162016,-0.004878911189734936,-0.004159058444201946
1772882830178330400,2.359330322265625,0.00105328019708395,0.007171626668423414,-0.002264752285555005
1772882830188262100,2.36926220703125,-0.0001411475386703387,0.01016661711037159,0.0014327806420624256
1772882830198195200,2.3791953125,0.00072597770486027,0.011461978778243065,0.0011656655697152019
1772882830208127200,2.389127197265625,0.0013821806060150266,0.0020748688839375973,0.0006905576447024941
1772882830218060300,2.399060302734375,0.00122558674775064,0.008905344642698765,0.0005283711361698806
1772882830227993300,2.408993408203125,0.0015632755821570754,0.014221279881894588,0.00192226970102638
1772882830237925400,2.41892529296875,-0.0002271676348755136,0.007254184223711491,0.002415220718830824
1772882830247858200,2.428858154296875,-0.00016325176693499088,0.0021403825376182795,0.0013915016315877438
1772882830257791200,2.438791259765625,0.0005081311101093888,0.0013909690314903855,0.00002902845517382957
1772882830267723300,2.44872314453125,0.00021944446780253202,0.01076582819223404,0.0008428904693573713
1772882830277656300,2.45865625,0.0011432950850576162,0.011671570129692554,0.002400573343038559
1772882830287589400,2.46858935546875,0.000609863898716867,0.008145011961460114,0.002353435382246971
1772882830297521400,2.478521484375,0.0017206683987751603,0.01194161456078291,0.00101173494476825
1772882830307454500,2.488454345703125,-0.00009614011651137844,0.009528790600597858,0.003229881636798382
1772882830317386500,2.498386474609375,0.0012751214671880007,0.003935619257390499,0.0007422229973599315
1772882830327319300,2.5083193359375,0.0019174759509041905,0.003472495824098587,-0.0006673881434835494
1772882830337252400,2.51825244140625,-0.000859934720210731,0.002234658459201455,-0.0012042814632877707
1772882830347184400,2.528184326171875,-0.00013022858183830976,0.010342918336391449,0.0017955031944438815
1772882830357117400,2.538117431640625,-0.0017534252256155014,0.010206032544374466,0.000526506919413805
1772882830367050500,2.548050537109375,0.0006101301987655461,0.007469101343303919,-0.0024431839119642973
1772882830376982500,2.557982421875,0.0014804512029513717,0.006936203222721815,0.0009291769238188863
1772882830386915300,2.567915283203125,0.0018338527297601104,0.007588677573949099,0.003364637726917863
1772882830396848400,2.577848388671875,0.001258876291103661,0.009972206316888332,-0.00038242992013692856
1772882830406780200,2.5877802734375,-0.0005605954211205244,0.0068115671165287495,0.0035952674224972725
1772882830416713200,2.597713134765625,-0.0015792545164003968,0.008798285387456417,0.0035390746779739857
1772882830426646300,2.607646240234375,-0.0009483516332693398,0.009497098624706268,0.0028391960076987743
1772882830436578300,2.617578369140625,-0.0014349111588671803,0.011665178462862968,0.001306014135479927
1772882830446511400,2.627511474609375,-0.000794420950114727,0.009052351117134094,-0.0012716593919321895
1772882830456443400,2.637443359375,-0.0010314423125237226,0.01065157912671566,0.0028423918411135674
1772882830466376200,2.647376220703125,-0.0010902981739491224,0.014431403949856758,0.001529187080450356
1772882830476309200,2.657309326171875,-0.0013547500129789114,0.010491789318621159,0.005849367007613182
1772882830486241300,2.6672412109375,-0.0011049455497413874,0.007597998715937138,0.0016524913953617215
1772882830496174300,2.67717431640625,-0.00016245282313320786,0.00688959751278162,0.0009137305896729231
1772882830506107400,2.687107421875,-0.0022160164080560207,0.00643632747232914,-0.0004546015989035368
1772882830516039400,2.697039306640625,-0.0010615360224619508,0.010330401360988617,0.002814162289723754
1772882830525972500,2.706972412109375,-0.00011424961121520028,0.013282249681651592,0.003948136232793331
1772882830535905300,2.7169052734375,0.0018812569323927164,0.01272671390324831,0.0038069887086749077
1772882830545837300,2.72683740234375,-0.000055393749789800495,0.012635634280741215,0.0031004520133137703
1772882830555770400,2.736770263671875,-0.0008615325787104666,0.00830613262951374,0.002344380598515272
1772882830565702400,2.746702392578125,-0.002424009144306183,0.006858971435576677,-0.00040559942135587335
1772882830575635500,2.756635498046875,0.0017329188995063305,0.004976915195584297,-0.001826662220992148
1772882830585568500,2.766568603515625,-0.0006149238906800747,0.0016306535108014941,-0.002147573046386242
1772882830595500300,2.776500244140625,0.00017976337403524667,-0.0003603257064241916,-0.0001752359967213124
1772882830605433300,2.786433349609375,-0.0007414240390062332,0.004674380179494619,-0.000639691308606416
1772882830615366100,2.7963662109375,0.0009118663729168475,0.007229150738567114,-0.001520132296718657
1772882830625298200,2.806298095703125,-0.001067661214619875,0.009615076705813408,0.0004498079069890082
1772882830635231200,2.816231201171875,-0.0020421119406819344,0.007014499977231026,0.0001715075777610764
1772882830645164300,2.826164306640625,-0.0007326356135308743,0.006393184419721365,0.0010934938909485936
1772882830655096300,2.836096435546875,-0.0038120488170534372,0.00942226406186819,0.001585646066814661
1772882830665029400,2.846029296875,-0.0033220271579921246,0.005817142780870199,0.0005081311101093888
1772882830674961400,2.85596142578125,-0.001975000137463212,0.0036461339332163334,-0.000434361572843045
1772882830684894200,2.865894287109375,-0.0016974988393485546,0.00341577036306262,-0.003677292726933956
1772882830694827300,2.8758271484375,-0.0018793927738443017,0.0046512107364833355,0.0007382282637991011
1772882830704759300,2.88575927734375,-0.0032168321777135134,0.006222209427505732,0.0010956244077533484
1772882830714692400,2.8956923828125,0.0004191815387457609,0.007795338984578848,0.00005219795639277436
1772882830724625400,2.90562548828125,-0.0011534150689840317,0.008473912253975868,0.0012604740913957357
1772882830734557400,2.915557373046875,-0.0005571332876570523,0.0011587414192035794,-0.0024852619972079992
1772882830744490500,2.925490478515625,-0.002897785510867834,0.006849383935332298,0.0021584921050816774
1772882830754423300,2.93542333984375,-0.004303401801735163,0.00944889523088932,-0.0034416031558066607
1772882830764355300,2.945355224609375,-0.0004215783847030252,0.0016341155860573053,0.00005246427463134751
1772882830774288400,2.955288330078125,-0.002814961364492774,0.006975351367145777,0.0006431533838622272
1772882830784221400,2.965221435546875,-0.002799248555675149,0.010187656618654728,0.0015614113071933389
1772882830794153500,2.975153564453125,-0.002198439557105303,0.006729541812092066,-0.00027856664382852614
1772882830804086500,2.98508642578125,-0.001103880233131349,0.006567621603608131,0.0013917679898440838
1772882830814018300,2.995018310546875,0.00002103897168126423,0.007455253042280674,-0.0015227955300360918
1772882830823951400,3.004951416015625,-0.0019241338595747948,0.0012519520241767168,-0.0008663262706249952
1772882830833884200,3.01488427734375,-0.002272475278005004,-0.00031904669594950974,-0.0019116170005872846
1772882830843816200,3.024816162109375,-0.0012474246323108673,0.005024585872888565,0.0013113404856994748
1772882830853749200,3.034749267578125,-0.00227806787006557,0.008915997110307217,-0.00041518680518493056
1772882830863682300,3.044682373046875,0.0003278351214248687,0.009438242763280869,-0.0010138654615730047
1772882830873614300,3.0546142578125,-0.0010410296963527799,0.009762615896761417,0.0026517093647271395
1772882830883547400,3.06454736328125,0.0005342300864867866,0.005659217480570078,0.000026365294615970924
1772882830893480200,3.074480224609375,-0.0002585929469205439,0.007514108903706074,0.00007137271313695237
1772882830903412200,3.084412109375,-0.0022072279825806618,0.003519367426633835,-0.0007246461464092135
1772882830913345300,3.09434521484375,0.001282045734114945,0.005066131241619587,0.0023824640084058046
1772882830923277300,3.10427734375,0.0003153182624373585,0.006629939656704664,0.00021118867152836174
1772882830933210400,3.11421044921875,0.0007853662245906889,0.004882373381406069,-0.00033422670094296336
1772882830943143400,3.124143310546875,-0.0012479572324082255,0.006384395994246006,0.002834135899320245
1772882830953075500,3.134075439453125,-0.0008410262526012957,0.00914316438138485,0.0018865832826122642
1772882830963008500,3.144008544921875,-0.0007273092633113265,0.00980282947421074,0.0006348976166918874
1772882830972941300,3.15394140625,0.000017843178284238093,0.0008511462947353721,-0.0003944141499232501
1772882830982873300,3.163873291015625,-0.001202150946483016,0.001407480682246387,0.0015904398169368505
1772882830992806400,3.173806396484375,-0.00027537086862139404,0.00643712654709816,0.0008972189389169216
1772882831002739500,3.183739501953125,-0.001499625970609486,0.004614192992448807,0.0016383767360821366
1772882831012671200,3.193671142578125,0.00009693906031316146,0.001541171339340508,-0.0020897823851555586
1772882831022604300,3.203604248046875,0.0004543352697510272,0.0015970977256074548,0.0004713795206043869
1772882831032537300,3.213537353515625,0.00242081331089139,0.00894023198634386,0.004724713973701
1772882831042469400,3.223469482421875,-0.0008293083519674838,0.01200073678046465,0.000580036488827318
1772882831052402200,3.233402099609375,0.000008255799002654385,0.005578523501753807,0.000720118754543364
1772882831062333700,3.243333740234375,0.0011837751371785998,0.0059753344394266605,0.001341966912150383
1772882831072266800,3.253266845703125,-0.00025486451340839267,0.010718690231442451,0.003584881080314517
1772882831082199800,3.26319970703125,-0.0044075315818190575,0.005797967780381441,0.003695135936141014
1772882831092131600,3.273131591796875,-0.0007339671719819307,0.001333178486675024,-0.001823732745833695
1772882831102064600,3.283064697265625,-0.001038632821291685,0.005915147252380848,-0.0011052117915824056
1772882831111997700,3.292997802734375,-0.002369148191064596,0.009909356012940407,0.0011358382180333138
1772882831121929700,3.3029296875,-0.002374208066612482,0.007142331451177597,0.0012042814632877707
1772882831131862500,3.312862548828125,-0.0014751249691471457,0.008676579222083092,-0.000046871635277057067
1772882831141795600,3.322795654296875,0.0023031015880405903,0.008212655782699585,0.004644286818802357
1772882831151727600,3.3327275390625,-0.004477838985621929,0.010728810913860798,0.0008487494196742773
1772882831161660700,3.34266064453125,-0.002168878447264433,0.0057737333700060844,-0.0010511496802791953
1772882831171593700,3.35259375,-0.0032860743813216686,0.002481533447280526,0.0007803061744198203
1772882831181525800,3.36252587890625,-0.0005968143814243376,0.009984723292291164,0.0036975329276174307
1772882831191458800,3.372458740234375,-0.0024522386956959963,0.007114901207387447,0.00046631949953734875
1772882831201390800,3.382390869140625,-0.003179814200848341,0.004318049177527428,-0.003513242118060589
1772882831211323600,3.39232373046875,-0.002669020090252161,0.007998804561793804,0.0012535499408841133
1772882831221256700,3.402256591796875,0.00035499935620464385,0.01031735260039568,-0.0009648632840253413
1772882831231188700,3.412188720703125,0.0009869674686342478,0.010466755367815495,0.0021441110875457525
1772882831241121800,3.422121826171875,-0.0015339808305725455,0.003876763628795743,0.0009150621481239796
1772882831251054800,3.432054931640625,-0.000055926382628967986,0.004542287439107895,0.0016756609547883272
1772882831260987000,3.44198681640625,-0.0022533005103468895,0.005529521498829126,0.0035483958199620247
1772882831270919700,3.451919677734375,-0.00054142065346241,0.0028093685396015644,-0.00009986854274757206
1772882831280852700,3.461852783203125,0.00043649208964779973,0.006535663735121489,0.0012029499048367143
1772882831290784500,3.471784423828125,-0.0023529028985649347,0.004120176658034325,-0.000627707049716264
1772882831300717800,3.4817177734375,0.002062085550278425,0.0028972530271857977,-0.0006578007596544921
1772882831310649600,3.491649658203125,0.0018370485631749034,0.00503896689042449,0.0016801883466541767
1772882831320582700,3.501582763671875,0.002147839404642582,0.007696801796555519,0.0029704899061471224
1772882831330515700,3.511515625,0.0004090615548193455,0.005367334932088852,-0.000675111310556531
1772882831340447700,3.52144775390625,0.0009012137306854129,0.006195577792823315,0.0002788329729810357
1772882831350380500,3.531380615234375,-0.00035260253935121,0.0076097166165709496,0.001975266495719552
1772882831360313600,3.541313720703125,0.0019236012594774365,0.0025995115283876657,0.0007097324123606086
1772882831370245600,3.55124560546875,0.0023752732668071985,0.006835535634309053,-0.0012570120161399245
1772882831380178700,3.5611787109375,0.003251187037676573,0.006998787168413401,-0.0008420915110036731
1772882831390111700,3.57111181640625,0.002650377806276083,0.006331132724881172,0.0010879012988880277
1772882831400043800,3.581043701171875,0.001627191435545683,0.007848868146538734,-0.0009270463488064706
1772882831409976800,3.590976806640625,0.0008791094878688455,0.006050968077033758,0.0018016285030171275
1772882831419908900,3.600908935546875,-0.0009182579233311117,0.004789428785443306,0.0015720640076324344
1772882831429841700,3.610841552734375,-0.003058640519157052,0.004260525107383728,0.00006631271389778703
1772882831439774700,3.620774658203125,-0.0027262780349701643,0.004604605492204428,-0.0016439693281427026
1772882831449706800,3.630706787109375,-0.0020993698853999376,0.0012926984345540404,-0.0022357236593961716
1772882831459639800,3.640639892578125,-0.0011952266795560718,0.005882656667381525,0.000723048229701817
1772882831469572900,3.65057275390625,-0.0019531622529029846,0.005008607171475887,0.0007520766812376678
1772882831479505000,3.6605048828125,-0.004995823837816715,0.002725212834775448,-0.0013052152935415506
1772882831489437700,3.670437744140625,-0.005979595705866814,0.003355050226673484,-0.0008881642133928835
1772882831499370800,3.680370849609375,-0.009320264682173729,0.0023454460315406322,0.0007648598402738571
1772882831509302500,3.690302490234375,-0.00737242866307497,-0.0024381240364164114,-0.003400856629014015
1772882831519235600,3.700235595703125,-0.006083991378545761,0.0018453042721375823,0.0003733751946128905
1772882831529168600,3.710168701171875,-0.007024087477475405,0.0016993631143122911,-0.0010125337867066264
1772882831539100700,3.7201005859375,-0.00794420950114727,0.0010551444720476866,-0.0010045443195849657
1772882831549033700,3.73003369140625,-0.009179916232824326,0.004291950259357691,0.0012905678013339639
1772882831558965800,3.7399658203125,-0.008206796832382679,0.00469541922211647,0.0004801679460797459
1772882831568898600,3.749898681640625,-0.011353855021297932,0.002686064224690199,-0.0014056164072826505
1772882831578831600,3.75983154296875,-0.008187090046703815,0.005621932912617922,-0.0023276028223335743
1772882831588763600,3.769763671875,-0.011986621655523777,0.0036485306918621063,-0.0011036139912903309
1772882831598696700,3.77969677734375,-0.006395048461854458,0.0037585191894322634,-0.0033124396577477455
1772882831608629800,3.789629638671875,-0.009588445536792278,0.004851480480283499,-0.001094825565814972
1772882831618561800,3.799561767578125,-0.01128061767667532,0.0019568908028304577,-0.0011797803454101086
1772882831628494800,3.809494873046875,-0.008858206681907177,0.0022101574577391148,-0.0018333201296627522
1772882831638427600,3.819427734375,-0.01098340842872858,0.0008729841792955995,-0.0007542071980424225
1772882831648359700,3.829359619140625,-0.008096275851130486,0.004235225263983011,-0.0031933963764458895
1772882831658292700,3.839292724609375,-0.008222243748605251,0.0032019184436649084,-0.004405667539685965
1772882831668225800,3.849225830078125,-0.010599647648632526,0.004294081125408411,-0.0011805793037638068
1772882831678157800,3.85915771484375,-0.00635004136711359,0.0027595674619078636,0.001561944023706019
1772882831688091000,3.8690908203125,-0.008378837257623672,0.007328220177441835,-0.0005930859479121864
1772882831698022700,3.879022705078125,-0.007135940250009298,0.007290403358638287,-0.0007888282998465002
1772882831707955700,3.888955810546875,-0.0047090016305446625,0.0065316688269376755,0.0004183826094958931
1772882831717888800,3.898888671875,-0.003899400355294347,0.00526693370193243,0.00010572749306447804
1772882831727820500,3.908820556640625,-0.003959321416914463,0.005333246197551489,-0.0008886968716979027
1772882831737753600,3.918753662109375,-0.004748682491481304,0.003013632958754897,-0.0016823188634589314
1772882831747686700,3.928686767578125,-0.0020442423410713673,0.006365753710269928,0.0006636597099713981
1772882831757618700,3.93861865234375,-0.002918025478720665,0.00965369213372469,-0.0002772350562736392
1772882831767551700,3.9485517578125,-0.0035662390291690826,0.008378304541110992,0.001169394003227353
1772882831777484500,3.958484619140625,0.00005619269722956233,0.00620995881035924,0.000437291048001498
1772882831787416600,3.96841650390625,0.00043595946044661105,0.008342351764440536,0.0017124125733971596
1772882831797349600,3.978349609375,0.0013041499769315124,0.005633917171508074,-0.0015078817959874868
1772882831807282700,3.98828271484375,0.0019313243683427572,0.002853044541552663,0.0003134540456812829
1772882831817213000,3.998212890625,0.0002884203568100929,0.009997240267693996,0.0005661880713887513
1772882831827145700,4.008145751953125,0.00018109494703821838,0.00962572917342186,-0.0015784555580466986
1772882831837078800,4.018078857421875,0.00036911413189955056,0.008746353909373283,0.0018104169284924865
1772882831847010600,4.028010498046875,0.0013233247445896268,0.009131979197263718,0.002046106616035104
1772882831856943600,4.037943603515625,0.002877012826502323,0.00666402792558074,0.0011081412667408586
1772882831866876700,4.047876708984375,0.0014056164072826505,0.006202502176165581,0.001270327833481133
1772882831876808700,4.05780859375,0.0020783308427780867,0.01224521454423666,0.0014703312190249562
1772882831886741800,4.06774169921875,0.004910869058221579,0.009614810347557068,0.0004625910660251975
1772882831896674600,4.077674560546875,0.007358314003795385,0.005682120565325022,0.005762814078480005
1772882831906606600,4.087606689453125,0.006392118986696005,0.010926417075097561,0.004443750716745853
1772882831916539600,4.09753955078125,0.00754899624735117,0.01552223414182663,0.00421232171356678
1772882831926471700,4.1074716796875,0.009089634753763676,0.011954663321375847,0.005745769944041967
1772882831936404700,4.11740478515625,0.0065231467597186565,0.012458800338208675,0.006431267596781254
1772882831946337800,4.127337890625,0.009356483817100525,0.010293916799128056,0.0017385114915668964
1772882831956269800,4.137269775390625,0.013075321912765503,0.008843026123940945,-0.00007403588097076863
1772882831966202600,4.14720263671875,0.011140269227325916,0.010880344547331333,0.005300223361700773
1772882831976135700,4.1571357421875,0.00866379588842392,0.00977433379739523,0.0019885823130607605
1772882831986067700,4.167067626953125,0.011060640215873718,0.007861917838454247,0.001365402713418007
1772882831996000800,4.177000732421875,0.007764179725199938,0.011473963037133217,0.0023992417845875025
1772882832005933800,4.186933837890625,0.007150587625801563,0.012910738587379456,0.003653324441984296
1772882832015865900,4.196865966796875,0.007611047942191362,0.010625746101140976,0.002715891692787409
1772882832025799000,4.206798828125,0.0062304651364684105,0.008800415322184563,0.0006330333999358118
1772882832035731700,4.216731689453125,0.006149771623313427,0.012851882725954056,0.0035603800788521767
1772882832045663500,4.22666357421875,0.006729808170348406,0.011511780321598053,0.002688993699848652
1772882832055596800,4.2365966796875,0.005629123654216528,0.010038252919912338,0.001812014845199883
1772882832065529600,4.246529541015625,0.005000617355108261,0.011552526615560055,0.002371544949710369
1772882832075462700,4.256462646484375,0.004805141594260931,0.00923504400998354,0.002974484581500292
1772882832085395500,4.2663955078125,0.005170793738216162,0.01139806304126978,0.0009808422764763236
1772882832095327500,4.276327392578125,0.005774531979113817,0.010908840224146843,0.004312190227210522
1772882832105260500,4.286260498046875,0.005335909314453602,0.008244347758591175,-0.0014849785948172212
1772882832115193600,4.296193603515625,0.004594219382852316,0.007127151824533939,0.0015939018921926618
1772882832125125600,4.306125732421875,0.0049404301680624485,0.006970025133341551,0.002198972040787339
1772882832135058700,4.31605859375,0.005022988189011812,0.009327721782028675,0.0008868326549418271
1772882832144991700,4.32599169921875,0.004204598721116781,0.007545001804828644,0.0004665858286898583
1772882832154923800,4.335923828125,0.0018511632224544883,0.006414489820599556,0.0029582392890006304
1772882832164856600,4.345856689453125,0.0017624800093472004,0.00965715479105711,0.002118811011314392
1772882832174788400,4.355788330078125,0.003695402294397354,0.009787117131054401,0.0006657902849838138
1772882832184721400,4.365721435546875,0.0005419532535597682,0.009290170855820179,0.0009861685102805495
1772882832194654700,4.37565478515625,0.0016612798208370805,0.005027781706303358,-0.00038695731200277805
1772882832204586500,4.38558642578125,0.001549693406559527,0.009757556021213531,0.000672448193654418
1772882832214519600,4.39551953125,-0.0002777676854748279,0.007181480061262846,0.0007123955874703825
1772882832224452600,4.40545263671875,0.0007880293414928019,0.008452607318758965,0.0025923210196197033
1772882832234384600,4.415384521484375,0.0019656792283058167,0.007770038675516844,0.000606934423558414
1772882832244317400,4.4253173828125,0.0006143912323750556,0.007586014457046986,0.0010985539993271232
1772882832254250500,4.43525048828125,-0.001041295938193798,0.006943393498659134,-0.0005467469454742968
1772882832264182500,4.4451826171875,0.00035606464371085167,0.00566960358992219,0.0019116170005872846
1772882832274115600,4.455115478515625,-0.001490304945036769,0.005574262235313654,-0.002299639629200101
1772882832284048600,4.465048583984375,-0.0008929579053074121,0.005803560372442007,0.0015672702575102448
1772882832293980700,4.474980712890625,0.00047857005847617984,0.006118612363934517,0.0016130766598507762
1772882832303913500,4.48491357421875,-0.0006804376607760787,0.006462426856160164,-0.0019531622529029846
1772882832313846500,4.494846435546875,-0.0009576727170497179,0.006110623013228178,-0.000441818410763517
1772882832323778600,4.504778564453125,-0.0000500674286740832,0.007653925102204084,-0.002004561247304082
1772882832333711600,4.514711669921875,0.00007430219557136297,0.00785419438034296,-0.0006181196658872068
1772882832343643600,4.5246435546875,-0.0027688886038959026,0.0034141724463552237,-0.00044900894863530993
1772882832353576700,4.53457666015625,0.0006074670236557722,0.006665625609457493,0.0020008329302072525
1772882832363509800,4.544509765625,-0.0007933556917123497,0.009529856033623219,0.0011659319279715419
1772882832373441800,4.55444189453125,0.00013901700731366873,0.004649879410862923,-0.00040240364614874125
1772882832383374600,4.56437451171875,-0.0010125337867066264,0.004622981417924166,-0.000031957933970261365
1772882832393307600,4.5743076171875,-0.0012365056900307536,0.005560946650803089,0.0003989415417890996
1772882832403239400,4.584239501953125,-0.0017148094484582543,0.007436078507453203,0.00018136126163881272
1772882832413172500,4.59417236328125,0.002919357270002365,0.0018287927377969027,0.00023995080846361816
1772882832423105500,4.60410546875,-0.00196434766985476,0.007449660450220108,-0.0002519350382499397
1772882832433037600,4.61403759765625,0.0026615632232278585,0.007130613550543785,-0.0014921691035851836
1772882832442970600,4.623970703125,-0.0006314354832284153,0.004739361349493265,0.0017875137273222208
1772882832452903400,4.6339033203125,0.000925448490306735,0.0049529471434652805,-0.000005858954409632133
1772882832462835500,4.64383544921875,0.0006540723843500018,0.007104780990630388,0.000006924218723725062
1772882832472768500,4.6537685546875,0.001612011343240738,0.007573231123387814,-0.0017928400775417686
1772882832482700500,4.663700439453125,-0.0014239922165870667,0.0043651871383190155,-0.0020604876335710287
1772882832492633600,4.673633544921875,-0.0003028014034498483,0.007779359817504883,-0.0032439965289086103
1772882832502566700,4.683566650390625,0.0014950985787436366,0.0068243504501879215,0.0004239752306602895
1772882832512498700,4.693498779296875,-0.0018306568963453174,0.006638728082180023,0.0008825715631246567
1772882832522431500,4.703431396484375,0.00227860058657825,0.005100752227008343,0.00213585514575243
1772882832532364500,4.713364501953125,-0.0004905542591586709,0.0073324814438819885,0.001440237509086728
1772882832542296600,4.723296630859375,-0.001050084363669157,0.007454720325767994,0.0006894923863001168
1772882832552229600,4.733229736328125,-0.00014381069922819734,0.00552339619025588,0.0005760417552664876
1772882832562162700,4.74316259765625,0.000041545314161339775,0.0076302229426801205,0.001109739183448255
1772882832572094700,4.7530947265625,-0.0006407565670087934,0.007389206904917955,0.0012487561907619238
1772882832582027800,4.76302783203125,-0.0009925601771101356,0.007138337008655071,-0.0015819176333025098
1772882832591960600,4.772960693359375,0.0010255833622068167,0.004899950232356787,-0.0001691107318038121
1772882832601892400,4.782892333984375,-0.002510828198865056,0.005563876125961542,0.0001739044237183407
1772882832611825700,4.79282568359375,-0.0007757788407616317,0.004526308737695217,-0.0012199940392747521
1772882832621757400,4.80275732421875,-0.00213532242923975,0.0075876121409237385,-0.002549976808950305
1772882832631690500,4.8126904296875,-0.002406165935099125,0.0057526943273842335,0.002139583695679903
1772882832641623600,4.82262353515625,-0.0034019220620393753,0.005258145276457071,-0.0008612662786617875
1772882832651555600,4.8325556640625,-0.0016141419764608145,0.0046448190696537495,-0.0009914948605000973
1772882832661488600,4.842488525390625,-0.0033896714448928833,0.005720470100641251,-0.002261290093883872
1772882832671421400,4.85242138671875,-0.001933721243403852,0.004550809506326914,-0.002085521351546049
1772882832681353500,4.862353515625,-0.0034463966730982065,0.0027427896857261658,-0.0014367754338309169
1772882832691286500,4.87228662109375,-0.0016548882704228163,0.003005110891535878,-0.000990695902146399
1772882832701219600,4.882219482421875,-0.0030037793330848217,0.004730306565761566,-0.002629871480166912
1772882832711151600,4.892151611328125,-0.003079679561778903,0.003433347214013338,-0.0015401060227304697
1772882832721084700,4.902084716796875,-0.0026493126060813665,0.0044136568903923035,-0.0013102752855047584
1772882832731017500,4.912017578125,-0.0032676986884325743,0.007988683879375458,0.0013022858183830976
1772882832740949500,4.921949462890625,-0.002822417998686433,0.006464557256549597,0.0005454153870232403
1772882832750882600,4.931882568359375,-0.0024687503464519978,0.006795321591198444,0.00009800432599149644
1772882832760815600,4.941815673828125,-0.0012093414552509785,0.008773251436650753,0.001136637176387012
1772882832770747600,4.95174755859375,-0.005576659459620714,0.006188653875142336,0.0031313446816056967
1772882832780680700,4.9616806640625,-0.003600327530875802,0.005773200653493404,0.0012871057260781527
1772882832790612700,4.97161279296875,-0.003314037574455142,0.005619269795715809,-0.0032929987646639347
1772882832800545800,4.9815458984375,-0.0030240193009376526,0.007199855986982584,-0.0030900659039616585
1772882832810478600,4.991478515625,-0.002338788006454706,0.004649346694350243,-0.000892691605258733
1772882832820410400,5.001410400390625,-0.004571582190692425,0.004505003336817026,-0.000636761833447963
1772882832830343400,5.011343505859375,-0.0016117451013997197,0.006398244295269251,0.001234907773323357
1772882832840276500,5.0212763671875,-0.0039265644736588,0.0025840650778263807,0.001243696198798716
1772882832850208500,5.03120849609375,-0.0020245350897312164,0.003689010627567768,-0.0024375913199037313
1772882832860141600,5.0411416015625,-0.0037590519059449434,0.01136983372271061,-0.0007265103631652892
1772882832870074600,5.05107470703125,-0.002079928759485483,0.004650145769119263,0.001600559800863266
1772882832880006700,5.061006591796875,-0.0017502295086160302,0.00430020596832037,-0.0014274542918428779
1772882832889939500,5.070939453125,-0.0029995182994753122,0.005861084908246994,-0.00023995080846361816
1772882832899872500,5.08087255859375,-0.0007214503129944205,0.0035305526107549667,-0.0016903083305805922
1772882832909804500,5.090804443359375,-0.004748682491481304,0.004712463356554508,-0.0035603800788521767
1772882832919737600,5.100737548828125,-0.004825381562113762,0.0015182681381702423,-0.000049801110435510054
1772882832929670700,5.110670654296875,-0.0009070726810023189,0.004268514458090067,-0.0031124362722039223
1772882832939602700,5.120602783203125,-0.002584597794339061,0.00336117553524673,-0.000245543458731845
1772882832949535500,5.130535400390625,-0.0018935075495392084,0.000919323181733489,-0.0009155947482213378
1772882832959467800,5.1404677734375,-0.0013073458103463054,0.0008543420699425042,-0.00043569316039793193
1772882832969400600,5.150400634765625,-0.001642371411435306,0.0034490597900003195,-0.0018351842882111669
1772882832979333600,5.160333740234375,0.00040266994619742036,0.0060933125205338,-0.00008122641156660393
1772882832989265700,5.170265625,-0.003073021536692977,-0.0006348976166918874,-0.003334810258820653
1772882832999198700,5.18019873046875,-0.0019068233668804169,0.00017337177996523678,-0.0010804444318637252
1772882833009131800,5.1901318359375,-0.0027710190042853355,0.0030655646696686745,0.0010151970200240612
1772882833019063600,5.2000634765625,-0.0046213832683861256,-0.0005403553950600326,-0.0017630126094445586
1772882833028996600,5.20999658203125,-0.006847519893199205,-0.0036136433482170105,-0.0031150993891060352
1772882833038929700,5.2199296875,-0.008774316869676113,0.001264468883164227,-0.0017148094484582543
1772882833048861400,5.229861328125,-0.007774033583700657,0.0024668860714882612,0.00026525085559114814
1772882833058793500,5.23979345703125,-0.006041381042450666,-0.000901480030734092,-0.0015755260828882456
1772882833068726500,5.2497265625,-0.006488259416073561,-0.00007297061529243365,0.0010250506456941366
1772882833078658600,5.259658447265625,-0.008328770287334919,0.006335926707834005,0.001466336427256465
1772882833088591600,5.269591552734375,-0.006287190597504377,0.002784601179882884,0.0005456816870719194
1772882833098523400,5.2795234375,-0.0057556238025426865,0.0021174794528633356,-0.0005664543714374304
1772882833108456400,5.28945654296875,-0.0068419273011386395,0.0027411917690187693,-0.0003020024741999805
1772882833118389200,5.29938916015625,-0.005818208213895559,0.0011614045361056924,0.0001424791116733104
1772882833128321500,5.309321533203125,-0.0028937908355146646,0.00680118054151535,0.00039015308720991015
1772882833138254300,5.31925439453125,-0.003186472225934267,0.002686330582946539,-0.0012775183422490954
1772882833148187400,5.3291875,-0.0008367652189917862,0.005478388629853725,-0.0013970943400636315
1772882833158119400,5.339119384765625,-0.0005310343112796545,0.005792907904833555,-0.00039468047907575965
1772882833168052500,5.349052490234375,0.0015214639715850353,0.0060112872160971165,-0.0008362325606867671
1772882833177985500,5.358985595703125,-0.0008703210623934865,0.00523577444255352,-0.004282895475625992
1772882833187917600,5.36891748046875,-0.001329982653260231,0.0035079156514257193,0.0004921521758660674
1772882833197850400,5.378850341796875,-0.003823500359430909,0.0035230957437306643,-0.0006463492172770202
1772882833207783400,5.388783447265625,-0.0037380128633230925,0.0035302862524986267,0.0003432814555708319
1772882833217715500,5.398715576171875,-0.0038631814531981945,0.002572613535448909,-0.0001739044237183407
1772882833227648500,5.4086484375,-0.007714645005762577,0.004268514458090067,-0.001356614287942648
1772882833237581600,5.41858154296875,-0.007512511219829321,0.006440588738769293,0.0004977448261342943
1772882833247513600,5.428513671875,-0.006420881487429142,0.005391303449869156,-0.0012178635224699974
1772882833257446400,5.4384462890625,-0.005062402691692114,0.004415254574269056,-0.0004439489566721022
1772882833267378700,5.448378662109375,-0.00452710734680295,0.002764627570286393,-0.0007294398383237422
1772882833277311500,5.4583115234375,-0.003697799053043127,0.006716492120176554,0.0011744539951905608
1772882833287244500,5.46824462890625,-0.0033361418172717094,0.005516205448657274,0.0003408846096135676
1772882833297176300,5.47817626953125,-0.002679672557860613,0.0054885088466107845,-0.0008404936525039375
1772882833307109400,5.488109375,-0.0017417073249816895,0.00869255792349577,-0.0014998923288658261
1772882833317042400,5.49804248046875,-0.00452710734680295,0.008449677377939224,0.0025656893849372864
1772882833326974500,5.507974365234375,-0.0047119311057031155,0.008085357025265694,0.0016636766958981752
1772882833336907300,5.5179072265625,-0.0029830066487193108,0.0049433596432209015,0.0012985573848709464
1772882833346840300,5.52784033203125,-0.004269846249371767,0.004070907831192017,-0.000931307440623641
1772882833356772400,5.5377724609375,-0.005549761466681957,0.007255782373249531,-0.0006492786924354732
1772882833366705400,5.547705322265625,-0.004339887294918299,0.004071706905961037,-0.002472478663548827
1772882833376638500,5.557638427734375,-0.0043910201638937,0.004625910893082619,0.0010298443958163261
1772882833386570500,5.567570556640625,-0.004079962614923716,0.006206497084349394,-0.0005259743193164468
1772882833396503600,5.577503662109375,-0.00352868833579123,0.006991596892476082,-0.0014034858904778957
1772882833406436400,5.587436279296875,-0.0029883331153541803,0.005844307132065296,-0.001189900329336524
1772882833416368400,5.597368408203125,-0.0029148298781365156,0.004385693464428186,-0.00017496968212071806
1772882833426301400,5.607301513671875,-0.001350488979369402,0.006886934395879507,-0.0012365056900307536
1772882833436234500,5.617234375,0.0011896340874955058,0.006418484263122082,0.0017608820926398039
1772882833446166500,5.62716650390625,-0.0012471582740545273,0.003757453989237547,0.0012029499048367143
1772882833456099600,5.637099609375,0.0010338390711694956,0.0028751487843692303,0.001044225413352251
1772882833466031600,5.647031494140625,-0.001722532557323575,0.0035459990613162518,-0.00029827404068782926
1772882833475964700,5.656964599609375,-0.004703941289335489,0.005364938173443079,0.0005281048361212015
1772882833485897500,5.6668974609375,-0.001383512164466083,0.005814746022224426,0.0007424892974086106
1772882833495829500,5.67682958984375,-0.0021526331547647715,0.0036048549227416515,0.0008293083519674838
1772882833505762600,5.686762451171875,-0.003020557342097163,0.003254915354773402,0.0001483380765421316
1772882833515695600,5.696695556640625,-0.0028551749419420958,0.007803328335285187,0.0001400822657160461
1772882833525627400,5.70662744140625,-0.0010732539230957627,0.005535646807402372,-0.001327053178101778
1772882833535560400,5.716560546875,-0.00344586418941617,0.005717274267226458,0.00008309062832267955
1772882833545493200,5.7264931640625,-0.0026138925459235907,0.005321528296917677,0.0009422263829037547
1772882833555425300,5.73642529296875,-0.0004924184759147465,0.007239536847919226,-0.0007302387384697795
1772882833565358300,5.7463583984375,0.0005275722360238433,0.00440939562395215,0.002570749493315816
1772882833575291400,5.75629150390625,-0.003413107246160507,0.007953263819217682,-0.0005350290448404849
1772882833585223400,5.766223388671875,0.00023968449386302382,0.0059777311980724335,0.0008130630594678223
1772882833595156500,5.776156494140625,-0.0017813884187489748,0.006717557553201914,-0.00013076121103949845
1772882833605089500,5.786089599609375,-0.003457315731793642,0.008674981072545052,0.001579787116497755
1772882833615021600,5.796021484375,-0.004476773552596569,0.005320729687809944,0.001413339632563293
1772882833624954400,5.805954345703125,-0.0012796488590538502,0.006232596002519131,-0.0008796420879662037
1772882833634887400,5.815887451171875,-0.0017235978739336133,0.0057044909335672855,0.00019414443522691727
1772882833644819500,5.8258193359375,0.0005219795857556164,0.006400108803063631,0.001062334980815649
1772882833654752500,5.83575244140625,0.0025691515766084194,0.005934588145464659,0.001496430253610015
1772882833664684500,5.8456845703125,0.00016671388584654778,0.005412076134234667,-0.0008045409340411425
1772882833674617600,5.85561767578125,-0.0004972121678292751,0.007963118143379688,-0.0003640541108325124
1772882833684550400,5.86555029296875,0.00015233281010296196,0.008621451444923878,-0.001059139147400856
1772882833694482700,5.875482666015625,0.0037233654875308275,0.008188155479729176,0.0016615461790934205
1772882833704415500,5.88541552734375,-0.00002157160452043172,0.004516721237450838,-0.0022825952619314194
1772882833714348500,5.8953486328125,0.001457548001781106,0.008110657334327698,0.001404018490575254
1772882833724280300,5.9052802734375,-0.00037976677413098514,0.00688933115452528,0.0035683694295585155
1772882833734213400,5.91521337890625,0.00247540813870728,0.00782436691224575,-0.001321194227784872
1772882833744146400,5.925146484375,0.000012250540748937055,0.005872802808880806,-0.0009813748765736818
1772882833754078500,5.935078369140625,0.0001608549355296418,0.005246960092335939,0.0008040083339437842
1772882833764011300,5.94501123046875,-0.0003968109958805144,0.011090467683970928,0.004025634378194809
1772882833773944300,5.9549443359375,-0.0000013315805063029984,0.008081362582743168,0.0036943370942026377
1772882833783876400,5.96487646484375,-0.0008623315370641649,0.0075876121409237385,0.0007952199084684253
1772882833793809400,5.974809326171875,-0.0007283745799213648,0.0060152821242809296,-0.0001536643976578489
1772882833803742500,5.984742431640625,-0.003439472522586584,0.008592423051595688,-0.0006301039247773588
1772882833813674500,5.994674560546875,-0.0012865731259807944,0.006490656174719334,0.0014426343841478229
1772882833823607600,6.004607666015625,-0.0006205165409483016,0.005554821342229843,0.0009329052991233766
1772882833833539600,6.01453955078125,-0.0026232136879116297,0.003829359309747815,-0.0005528722540475428
1772882833843472400,6.024472412109375,-0.0008735168376006186,0.0062584285624325275,-0.00023462448734790087
1772882833853405400,6.034405517578125,-0.00038269624928943813,0.007366569712758064,0.0012985573848709464
1772882833863337500,6.04433740234375,-0.0022801985032856464,0.00706829596310854,0.0009736517095007002
1772882833873270500,6.0542705078125,-0.00015233281010296196,0.007139136083424091,0.0026818031910806894
1772882833883203600,6.06420361328125,-0.003311640815809369,0.005637912079691887,-0.0002716424351092428
1772882833893135600,6.074135498046875,-0.0006543386843986809,0.007436344865709543,0.0013198626693338156
1772882833903068400,6.084068359375,-0.002040247665718198,0.007443002425134182,0.0020668793004006147
1772882833913001500,6.09400146484375,0.00022983079543337226,0.006082127336412668,-0.0002109223569277674
1772882833922933500,6.10393359375,-0.00005193164179218002,0.005224855616688728,0.00046339002437889576
1772882833932866600,6.113866455078125,-0.0016341155860573053,0.006208361126482487,-0.00033156355493701994
1772882833942799600,6.123799560546875,-0.0023995081428438425,0.006929278839379549,-0.00007297061529243365
1772882833952731400,6.1337314453125,-0.0013670006301254034,0.00446825148537755,-0.00021358551748562604
1772882833962664400,6.14366455078125,-0.0001757686259225011,0.005723133217543364,0.00046578687033616006
1772882833972597200,6.15359716796875,-0.0019941749051213264,0.004057592246681452,0.00038296254933811724
1772882833982529300,6.163529296875,-0.001193096162751317,0.0063798688352108,0.0008335694437846541
1772882833992462300,6.17346240234375,-0.0027049726340919733,0.008738097734749317,0.00047617321251891553
1772882834002395400,6.1833955078125,0.000218645524000749,0.007877097465097904,-0.0018916432745754719
1772882834012327400,6.193327392578125,0.0012780509423464537,0.00552206439897418,-0.0013635384384542704
1772882834022260500,6.203260498046875,0.0001448759576305747,0.0057439059019088745,-0.0003787015157286078
1772882834032193500,6.213193603515625,0.0011749867117032409,0.006088519003242254,-0.000508663768414408
1772882834042125600,6.22312548828125,-0.0016351809026673436,0.00478303711861372,-0.00029055087361484766
1772882834052058400,6.233058349609375,-0.0008325041271746159,0.006991330534219742,0.00020479709201026708
1772882834061990700,6.24299072265625,-0.0026112294290214777,0.003877029987052083,-0.0010974886827170849
1772882834071923700,6.252923828125,0.00037230990710668266,0.006939931306988001,0.0011012171162292361
1772882834081856800,6.262856689453125,0.00036671728594228625,0.007288272958248854,-0.0014093448407948017
1772882834091788800,6.272788818359375,-0.0009411611245013773,0.0060208747163414955,0.0009116000146605074
1772882834101721900,6.282721923828125,-0.0008617989369668067,0.005291700828820467,-0.001446096459403634
1772882834111654700,6.292654541015625,-0.003335609333589673,0.010203102603554726,-0.0002671150432433933
1772882834121586700,6.302586669921875,-0.0027656927704811096,0.007405984681099653,-0.0014586133183911443
1772882834131519700,6.312519775390625,-0.0035204326268285513,0.007325290702283382,-0.001181378262117505
1772882834141452800,6.322452880859375,-0.0014109427575021982,0.0037468012887984514,0.0011254518758505583
1772882834151384800,6.332384765625,-0.000666322885081172,0.005195294506847858,-0.0011134676169604063
1772882834161318000,6.34231787109375,-0.0013278521364554763,0.0052083441987633705,-0.0009134642314165831
1772882834171251000,6.3522509765625,-0.0009289105655625463,0.006598247680813074,0.0028250813484191895
1772882834181182700,6.3621826171875,0.00008229167724493891,0.009002549573779106,0.0012210593558847904
1772882834191115500,6.372115478515625,-0.002150768879801035,0.0078102522529661655,-0.00046578687033616006
1772882834201048600,6.382048583984375,-0.002487392397597432,0.005087969359010458,0.0009859022684395313
1772882834210980600,6.391980712890625,-0.002630404196679592,0.005375324282795191,-0.0005102616851218045
1772882834220913700,6.40191357421875,-0.0022394522093236446,0.006324474699795246,-0.00018668759730644524
1772882834230846700,6.4118466796875,-0.0013800500892102718,0.007500526960939169,0.0012511530658230186
1772882834240778800,6.42177880859375,-0.0009760485263541341,0.004979312419891357,0.0029031119775027037
1772882834250711600,6.431711669921875,-0.0005675196298398077,0.0037939392495900393,-0.0007414240390062332
1772882834260643800,6.441643798828125,-0.0018730012234300375,0.00743101816624403,-0.0008958873804658651
1772882834270576600,6.45157666015625,-0.0018439727136865258,0.007570834364742041,0.0001691107318038121
1772882834280509700,6.461509765625,-0.003349457634612918,0.006447779480367899,0.0001656486128922552
1772882834290441700,6.471441650390625,0.0003193130251020193,0.005446164403110743,0.002832271857187152
1772882834300374800,6.481374755859375,-0.00017550231132190675,0.00643765926361084,0.000019707391402334906
1772882834310307800,6.491307861328125,-0.0016112125013023615,0.006277070846408606,-0.0012634035665541887
1772882834320239900,6.501239990234375,-0.0016442356863990426,0.00526720006018877,-0.0002492718631401658
1772882834330172700,6.511172607421875,0.00017656758427619934,0.00720624765381217,-0.002540922025218606
1772882834340105700,6.521105712890625,0.0003254382754676044,0.004898352082818747,-0.0007368966471403837
1772882834350037800,6.531037841796875,-0.0019430422689765692,0.0026181535795331,-0.0014080132823437452
1772882834359970800,6.540970703125,-0.002472212305292487,0.006368417292833328,0.001091896090656519
1772882834369903900,6.55090380859375,-0.0011323761427775025,0.005016596522182226,-0.0001691107318038121
1772882834379835600,6.560835693359375,-0.0007768440991640091,0.006642722524702549,-0.0005243764026090503
1772882834389768700,6.570768798828125,0.00003355582884978503,0.003847202518954873,-0.00048070057528093457
1772882834399701500,6.580701416015625,-0.0036993969697505236,0.005547364708036184,-0.000020240024241502397
1772882834409633500,6.590633544921875,0.0010426276130601764,0.00788721814751625,-0.0013917679898440838
1772882834419566600,6.600566650390625,-0.000060453756304923445,0.004181162919849157,-0.0012269183062016964
1772882834429499600,6.610499755859375,-0.00016724651504773647,0.0062309978529810905,0.0009808422764763236
1772882834439431700,6.620431640625,0.00035233621019870043,0.02346750907599926,0.0024285365361720324
1772882834449364700,6.63036474609375,-0.0008202536264434457,0.0020628846250474453,0.004354268312454224
1772882834459297500,6.640297607421875,0.0009006810723803937,0.009126919321715832,-0.000045540054998127744
1772882834469229800,6.650229736328125,-0.0021909826900810003,0.010647318325936794,0.0029403960797935724
1772882834479162600,6.66016259765625,-0.0008807073463685811,0.0016772588714957237,-0.00037230990710668266
1772882834489094700,6.6700947265625,-0.0038136467337608337,0.006258694920688868,-0.002916161436587572
1772882834499027700,6.68002783203125,-0.0041193775832653046,0.007647267077118158,0.002171807922422886
1772882834508960800,6.689960693359375,-0.0016029566759243608,0.004893824923783541,-0.0026695525739341974
1772882834518892800,6.699892822265625,-0.001499625970609486,0.004326837603002787,0.0016980315558612347
1772882834528825900,6.709825927734375,0.0005467469454742968,0.007918110117316246,0.0003254382754676044
1772882834538758700,6.719758544921875,-0.002254632068797946,0.006024336442351341,0.0013049489352852106
1772882834548690700,6.729690673828125,-0.00024527712957933545,0.006505569908767939,0.0010301107540726662
1772882834558623700,6.739623779296875,0.00038242992013692856,0.008703743107616901,0.0018937737913802266
1772882834568556800,6.749556884765625,-0.002162486780434847,0.0059811933897435665,-0.0010580739472061396
1772882834578488800,6.75948876953125,0.0004982774262316525,0.0046152579598128796,-0.001463673310354352
1772882834588422000,6.769421875,-0.0016700683627277613,0.009432650171220303,0.000036218989407643676
1772882834598355000,6.77935498046875,-0.00011638013529591262,0.00791438203305006,0.0002641855680849403
1772882834608286700,6.78928662109375,0.0010495517635717988,0.004797684494405985,0.0036541232839226723
1772882834618219500,6.799219482421875,-0.0004985437262803316,0.007820638827979565,0.0017989652696996927
1772882834628152600,6.809152587890625,0.0018644790397956967,0.00866006687283516,-0.0011851066956296563
1772882834638084600,6.819084716796875,0.0002567287301644683,0.009240103885531425,0.0001400822657160461
1772882834648017700,6.829017578125,0.0001233043585671112,0.007774566300213337,-0.0014484933344647288
1772882834657950700,6.83895068359375,0.0007848335662856698,0.0018519621808081865,0.001505751279182732
1772882834667882800,6.8488828125,-0.0036605149507522583,0.005912217777222395,-0.001178448786959052
1772882834677815600,6.858815673828125,-0.0037294907961040735,0.0072778863832354546,-0.0012639362830668688
1772882834687748600,6.86874853515625,-0.0032461269292980433,0.005997971165925264,0.0012855078093707561
1772882834697680600,6.8786806640625,-0.0002721750643104315,0.005822469014674425,0.0005560680292546749
1772882834707613700,6.88861376953125,-0.0006173207075335085,0.006632336415350437,0.00007004113285802305
1772882834717545700,6.898545654296875,-0.0008711199625395238,0.006646717432886362,0.0008311725687235594
1772882834727478800,6.908478759765625,-0.0031017838045954704,0.004192081745713949,0.0003222425002604723
1772882834737411800,6.918411865234375,0.00022956448083277792,0.003072755178436637,-0.0007640608819201589
1772882834747344000,6.92834375,-0.0020897823851555586,0.002478603972122073,-0.0007880293414928019
1772882834757276700,6.938276611328125,-0.002971821464598179,0.006037918850779533,-0.0006319681415334344
1772882834767209700,6.948209716796875,-0.0010934938909485936,0.0035800873301923275,0.0011851066956296563
1772882834777141800,6.958141845703125,-0.002371012233197689,0.0052384380251169205,0.0044046021066606045
1772882834787074800,6.96807470703125,-0.0020988371688872576,0.004845887888222933,0.0024469124618917704
1772882834797008000,6.9780078125,-0.0015241270884871483,0.006450708955526352,0.0012932310346513987
1772882834806939600,6.987939697265625,-0.00440939562395215,0.006668821442872286,-0.0008111988427117467
1772882834816872700,6.997872802734375,-0.00364746549166739,0.0068312743678689,-0.0009374326909892261
1772882834826805800,7.0078056640625,-0.0010641991393640637,0.003924700431525707,-0.0005001416429877281
1772882834836737500,7.017737548828125,-0.0023281353060156107,0.007931426167488098,-0.0012623383663594723
1772882834846670600,7.027670654296875,0.000021305288100847974,0.005319397896528244,-0.0004087952256668359
1772882834856603600,7.037603759765625,-0.001740642124786973,0.005849367007613182,0.0011315771844238043
1772882834866535700,7.04753564453125,0.00018429075134918094,0.006231264211237431,0.0019433086272329092
1772882834876468700,7.05746875,-0.0032461269292980433,0.006893592420965433,0.000892425247002393
1772882834886401500,7.067401611328125,-0.0002487392339389771,0.004723649006336927,-0.00008894957863958552
1772882834896333600,7.07733349609375,-0.0018184063956141472,0.009979663416743279,-0.003477289341390133
1772882834906266600,7.0872666015625,-0.0012740562669932842,0.0054331147111952305,0.0004916195175610483
1772882834916199700,7.09719970703125,-0.005538842175155878,0.005952964071184397,-0.0010096043115481734
1772882834926131700,7.107131591796875,-0.002017610939219594,0.007363640237599611,0.0008804410463199019
1772882834936064800,7.117064697265625,-0.0008237157016992569,0.00902864895761013,-0.0015132081462070346
1772882834945997800,7.126997802734375,-0.0006079996819607913,0.00893996562808752,0.00025060345069505274
1772882834955929900,7.136929931640625,-0.002883670851588249,0.006557235028594732,-0.0015550197567790747
1772882834965862700,7.146862548828125,0.0003802994033321738,0.004102067090570927,0.000707868195604533
1772882834975794700,7.156794677734375,-0.002424541860818863,0.006728742737323046,-0.00012250541476532817
1772882834985727700,7.166727783203125,-0.0021976404823362827,0.005227785091847181,0.0014556838432326913
1772882834995660800,7.176660888671875,-0.0006317017832770944,0.0056799896992743015,0.0006495449924841523
1772882835005592800,7.1865927734375,-0.001764344167895615,0.008146876469254494,0.0025502429343760014
1772882835015526000,7.19652587890625,-0.0010729875648394227,0.006962035782635212,-0.0011065434664487839
1772882835025458700,7.206458740234375,-0.0013523531379178166,0.006080529186874628,0.0006817692192271352
1772882835035390700,7.216390625,-0.004160390235483646,0.006171077024191618,-0.0005760417552664876
1772882835045323500,7.226323486328125,-0.000996554852463305,0.0019198728259652853,0.0013638047967106104
1772882835055256600,7.236256591796875,-0.001461010193452239,0.004680505488067865,0.00115394766908139
1772882835065188400,7.246188232421875,-0.0030157635919749737,0.004800613969564438,-0.00009960222087102011
1772882835075121400,7.256121337890625,-0.0015100123127922416,0.007020891644060612,-0.0012482235906645656
1772882835085054500,7.266054443359375,-0.0012825783342123032,0.004442685283720493,0.0004655205411836505
1772882835094986500,7.275986572265625,-0.0015243934467434883,0.005711415316909552,0.0008215851848945022
1772882835104919600,7.28591943359375,-0.003197923768311739,0.00529622845351696,0.0009536779834888875
1772882835114852400,7.295852294921875,-0.0022357236593961716,0.006074670236557722,0.0008575378451496363
1772882835124784400,7.305784423828125,-0.0034703651908785105,0.003631486324593425,-0.00038695731200277805
1772882835134717400,7.315717529296875,-0.0014090784825384617,0.007823302410542965,0.0007747135823592544
1772882835144650500,7.325650390625,-0.0029257487040013075,0.006137254647910595,-0.002802977105602622
1772882835154582500,7.33558251953125,-0.0016831178218126297,0.005524461157619953,0.0037521275226026773
1772882835164515600,7.345515625,-0.00010093380114994943,0.009010273031890392,0.000699079770129174
1772882835174447600,7.355447509765625,0.00011238539445912465,0.008260592818260193,0.0013528858544304967
1772882835184380400,7.36538037109375,-0.00005219795639277436,0.00762889115139842,0.002019208623096347
1772882835194313500,7.3753134765625,-0.0008910936885513365,0.006000368390232325,0.0003123887872789055
1772882835204245500,7.38524560546875,-0.001496430253610015,0.005620335228741169,-0.0013763216556981206
1772882835214178600,7.395178466796875,-0.0031526500824838877,0.005114068277180195,0.001437308033928275
1772882835224111600,7.405111572265625,0.00025060345069505274,0.0027438548859208822,0.0018767296569421887
1772882835234043400,7.41504345703125,-0.003596332622691989,0.0070432620123028755,0.0012913667596876621
1772882835243976400,7.4249765625,-0.002049835165962577,0.0060325926169753075,0.0012125372886657715
1772882835253909200,7.4349091796875,-0.00245117349550128,0.008753277361392975,0.0002878876985050738
1772882835263841300,7.44484130859375,-0.0015065502375364304,0.0065284729935228825,0.0013313142117112875
1772882835273774300,7.4547744140625,0.0005488775204867125,0.005194229539483786,0.00035499935620464385
1772882835283707400,7.464707275390625,-0.003022687742486596,0.004821386653929949,-0.0009289105655625463
1772882835293639400,7.474639404296875,-0.0008689894457347691,0.005634982604533434,-0.0015867113834246993
1772882835303572500,7.484572509765625,-0.0015105449128895998,0.00586641114205122,0.0014514228096231818
1772882835313505500,7.494505615234375,0.0005542038124985993,0.004195011220872402,0.001306014135479927
1772882835323437600,7.5044375,-0.0014567491598427296,0.0073439329862594604,-0.0007360977469943464
1772882835333370400,7.514370361328125,-0.002491120947524905,0.0054544201120734215,0.00012836436508223414
1772882835343303400,7.524303466796875,-0.001156877144239843,0.005874666851013899,-0.000004793690095539205
1772882835353235500,7.5342353515625,-0.00330338510684669,0.005239236634224653,0.0009944243356585503
1772882835363168500,7.54416845703125,-0.002523078816011548,0.007443801499903202,0.0011323761427775025
1772882835373100500,7.5541005859375,-0.003070624778047204,0.005292233545333147,0.002669020090252161
1772882835383033600,7.56403369140625,-0.003174221608787775,0.006147641222923994,-0.0011371697764843702
1772882835392966400,7.57396630859375,-0.00010173275222769007,0.004911934491246939,-0.0006428870838135481
1772882835402898400,7.5838984375,-0.0008468852029182017,0.006141782272607088,-0.003049585735425353
1772882835412831500,7.59383154296875,0.00002370213405811228,0.0049436260014772415,0.0005105279851704836
1772882835422764500,7.6037646484375,-0.0036669063847512007,0.008244880475103855,0.00034434671397320926
1772882835432696600,7.613696533203125,-0.002517752582207322,0.008869391866028309,-0.0011643340112641454
1772882835442629600,7.623629638671875,0.0006881608278490603,0.002686863299459219,0.0023790018167346716
1772882835452562700,7.633562744140625,-0.00014460964302998036,0.005993976723402739,0.0003731088654603809
1772882835462494500,7.643494384765625,-0.0011598066193982959,0.005988384131342173,0.0016237293602898717
1772882835472427300,7.65342724609375,-0.0017856494523584843,0.006038983818143606,0.0015153386630117893
1772882835482360300,7.6633603515625,-0.002734533743932843,0.006599579472094774,0.0003818972909357399
1772882835492292400,7.673292236328125,-0.00013448962999973446,0.007066431455314159,-0.0006503439508378506
1772882835502225400,7.683225341796875,0.0009408948244526982,0.007506918627768755,0.002906573936343193
1772882835512158500,7.693158447265625,-0.0012599414912983775,0.0036429380998015404,0.0010479538468644023
1772882835522090500,7.703090576171875,0.00036698358599096537,0.005231247283518314,0.0006250438746064901
1772882835532023600,7.7130234375,-0.0027118970174342394,0.007363640237599611,-0.0009142631897702813
1772882835541956400,7.722956298828125,-0.0036964674945920706,0.007872303947806358,-0.002454369328916073
1772882835551888400,7.732888427734375,-0.002255431143566966,0.007969776168465614,-0.0010120011866092682
1772882835561821400,7.742821533203125,-0.0007613977650180459,0.007440872024744749,-0.001511876587755978
1772882835571754500,7.75275439453125,-0.00007616640505148098,0.005497563164681196,0.0004324973560869694
1772882835581686500,7.7626865234375,-0.0018847191240638494,0.004740160424262285,0.000511593243572861
1772882835591619600,7.77261962890625,-0.0003787015157286078,0.004787032026797533,0.0010783139150589705
1772882835601551600,7.782551513671875,-0.0003557983145583421,0.007075486239045858,-0.0001930791768245399
1772882835611484400,7.792484375,0.00007137271313695237,0.004743622615933418,0.0008346347021870315
1772882835621417500,7.80241748046875,-0.002570483135059476,0.005511944647878408,-0.000355532014509663
1772882835631349500,7.812349609375,-0.0023824640084058046,0.007226487621665001,-0.0015166702214628458
1772882835641282600,7.822282470703125,0.00013422331539914012,0.006256830412894487,-0.0006743124104104936
1772882835651215600,7.832215576171875,0.00021012341312598437,0.008756473660469055,0.0026320021133869886
1772882835661147400,7.8421474609375,0.0016460998449474573,0.006172408349812031,-0.000027430558475316502
1772882835671080400,7.85208056640625,-0.0007270429632626474,0.007449394091963768,-0.0019462381023913622
1772882835681013200,7.86201318359375,-0.0012455604737624526,0.006818757392466068,0.0008343683439306915
1772882835690945300,7.8719453125,-0.0022533005103468895,0.005024053156375885,0.0005430185701698065
1772882835700878300,7.88187841796875,-0.001984853995963931,0.005742041394114494,-0.0018953717080876231
1772882835710811400,7.891811279296875,-0.0024557008873671293,0.005654956214129925,0.0004340952436905354
1772882835720743400,7.901743408203125,-0.0012213257141411304,0.00512924836948514,-0.0009337042574770749
1772882835730676500,7.911676513671875,0.000009054747351910919,0.005846703890711069,0.0006791060441173613
1772882835740609300,7.921609375,-0.0012005530297756195,0.006613694131374359,0.0004961469094268978
1772882835750541600,7.93154150390625,-0.0007350324303843081,0.006226470693945885,0.0009504822082817554
1772882835760474400,7.941474365234375,-0.0011062771081924438,0.00566960358992219,-0.000049801110435510054
1772882835770407400,7.951407470703125,-0.000006924218723725062,0.005549228750169277,-0.001535046030767262
1772882835780339500,7.96133935546875,0.0012450277572497725,0.0059479037299752235,0.0005395564367063344
1772882835790272500,7.9712724609375,-0.002508431440219283,0.005126052536070347,-0.00035499935620464385
1772882835800205600,7.98120556640625,0.0013161342358216643,0.006351639050990343,0.00010386328358436003
1772882835810137600,7.9911376953125,-0.0024807346053421497,0.006619553081691265,-0.0006767092272639275
1772882835820070400,8.0010703125,-0.0012665993999689817,0.0052376389503479,-0.0005041363765485585
1772882835830002400,8.01100244140625,-0.0008735168376006186,0.005885053426027298,-0.00024394555657636374
1772882835839935500,8.020935546875,-0.0007848335662856698,0.006755907088518143,0.002804841147735715
1772882835849868500,8.03086865234375,0.0013659353135153651,0.0054211304523050785,0.00025300029665231705
1772882835859800600,8.040800537109375,-0.00005858954318682663,0.005453621037304401,-0.00044022052315995097
1772882835869733600,8.050733642578125,0.00008122641156660393,0.004985437728464603,0.0014764565275982022
1772882835879666700,8.060666748046875,0.00024394555657636374,0.007420365698635578,-0.00026285400963388383
1772882835889598500,8.070598388671876,0.000287088769255206,0.007084274664521217,0.0017917747609317303
1772882835899531300,8.08053125,-0.0013470269041135907,0.008984173648059368,-0.0013598100049421191
1772882835909464300,8.09046435546875,-0.0013960290234535933,0.006205698009580374,0.00009693906031316146
1772882835919396400,8.100396240234375,-0.0013659353135153651,0.0037236318457871675,0.0011997540714219213
1772882835929329400,8.110329345703125,-0.0020732709672302008,0.007570301648229361,-0.0019089538836851716
1772882835939262500,8.120262451171875,-0.0030858046375215054,0.003817641409114003,0.0010812433902174234
1772882835949194500,8.130194580078125,-0.0004700479330495,0.005621400196105242,0.0010631339391693473
1772882835959127600,8.14012744140625,0.00006418218254111707,0.005075718741863966,-0.0012381036067381501
1772882835969060400,8.150060302734374,-0.0019081549253314734,0.005839513149112463,-0.0014269216917455196
1772882835978992400,8.159992431640624,-0.0018722022650763392,0.005656021647155285,-0.0029726203065365553
1772882835988925400,8.169925537109375,-0.00030652983696199954,0.004821386653929949,0.00015765913121867925
1772882835998858500,8.1798583984375,-0.0005605954211205244,0.006858438719063997,-0.00316063966602087
1772882836008790500,8.18979052734375,-0.0002865561400540173,0.004515123087912798,0.00015180018090177327
1772882836018723600,8.1997236328125,-0.0027622305788099766,0.006705839652568102,0.0001680454588495195
1772882836028656400,8.209656494140624,-0.0007150587625801563,0.0049612028524279594,0.0002109223569277674
1772882836038588400,8.21958837890625,-0.0021260015200823545,0.006727677304297686,0.00042530681821517646
1772882836048521500,8.229521484375,0.0001691107318038121,0.005179582163691521,0.0036304211243987083
1772882836058453500,8.23945361328125,-0.00044821001938544214,0.006525010801851749,0.0018226674292236567
1772882836068386600,8.249386474609375,-0.0014037522487342358,0.007050719112157822,-0.0004647216119337827
1772882836078319600,8.259319580078126,0.0002764361270237714,0.006012884899973869,0.003486344125121832
1772882836088251400,8.26925146484375,-0.005021390039473772,0.007177751511335373,0.0003755057114176452
1772882836098184400,8.279184326171874,-0.0020836573094129562,0.007065898738801479,-0.000005326322025211994
1772882836108117500,8.289117431640625,0.0015510249650105834,0.004920190200209618,-0.0011792477453127503
1772882836118049300,8.29904931640625,0.00005725796290789731,0.008161789737641811,0.0025481125339865685
1772882836127982300,8.308982421875,0.0005113269435241818,0.0065444521605968475,0.00037257623625919223
1772882836137915400,8.318915283203125,-0.0009358347742818296,0.0036248285323381424,0.001392300589941442
1772882836147847400,8.328847412109376,-0.00009480853623244911,0.007041131611913443,0.0005544701125472784
1772882836157780500,8.338780517578124,-0.0011382350930944085,0.009467537514865398,0.00046818371629342437
1772882836167713300,8.34871337890625,-0.003686081152409315,0.008073905482888222,-0.00005832322858623229
1772882836177645600,8.3586455078125,-0.002255164785310626,0.00592420157045126,-0.0006285060080699623
1772882836187578400,8.368578369140625,-0.002034655073657632,0.004824316129088402,0.0005398227367550135
1772882836197511400,8.378511474609375,-0.0012245214311406016,0.002843989757820964,-0.0012173309223726392
1772882836207443500,8.388443359375,-0.0025569009594619274,0.005619536153972149,-0.0015696671325713396
1772882836217376500,8.39837646484375,-0.00006072007090551779,0.007222226355224848,-0.00033209618413820863
1772882836227309600,8.4083095703125,-0.001817873795516789,0.007004912476986647,-0.0002790992730297148
1772882836237241600,8.41824169921875,-0.0011001517996191978,0.006221144460141659,0.00019760655413847417
1772882836247174400,8.42817431640625,0.0008341020438820124,0.008730640634894371,0.000755805114749819
1772882836257107500,8.438107421875,-0.0016138756182044744,0.00583818182349205,0.001427987008355558
1772882836267039500,8.44803955078125,-0.0006878945278003812,0.00714526092633605,0.0034972631838172674
1772882836276972500,8.45797265625,-0.001074052881449461,0.005269596818834543,-0.00041518680518493056
1772882836286904600,8.467904541015624,-0.0017113472567871213,0.006869890261441469,0.00016538229829166085
1772882836296837600,8.477837646484375,-0.0009795106016099453,0.009604690596461296,0.0008154599345289171
1772882836306770700,8.487770751953125,-0.0003448793722782284,0.006482134107500315,0.0020849888678640127
1772882836316702500,8.497702392578125,-0.0008080030675046146,0.005034173373132944,0.00012436961696948856
1772882836326635300,8.50763525390625,-0.0002519350382499397,0.007428887765854597,0.00213638786226511
1772882836336568300,8.517568359375,-0.0036506610922515392,0.006849383935332298,0.004258926957845688
1772882836346500400,8.527500244140626,-0.0037119139451533556,0.005419532768428326,0.0008841694798320532
1772882836356433400,8.537433349609374,-0.002329467097297311,0.006522081326693296,-0.0010942928493022919
1772882836366366500,8.547366455078125,-0.0008207862265408039,0.008779110386967659,0.00022397184511646628
1772882836376298500,8.557298583984375,-0.0012841762509196997,0.005471996963024139,0.0013720606220886111
1772882836386231300,8.567231201171875,-0.0023100259713828564,0.005309011787176132,0.0007147924043238163
1772882836396164400,8.577164306640626,-0.0032743564806878567,0.006089317612349987,0.002673813607543707
1772882836406096400,8.587096435546876,0.00054142065346241,0.007468302734196186,-0.0001531317684566602
1772882836416029400,8.597029541015624,-0.0018042916199192405,0.006959372665733099,0.0013132047606632113
1772882836425962500,8.60696240234375,-0.0023033679462969303,0.005732454359531403,-0.0013648699969053268
1772882836435894500,8.61689453125,0.00008069378236541525,0.007891478948295116,0.0002516687090974301
1772882836445827600,8.62682763671875,-0.000627707049716264,0.005842442624270916,0.0010940266074612737
1772882836455760400,8.636760498046876,-0.000032490566809428856,0.005066397599875927,0.00008175904804375023
1772882836465692400,8.6466923828125,-0.002008289797231555,0.007012103218585253,0.0015646071406081319
1772882836475625500,8.65662548828125,-0.0033505228348076344,0.010054764337837696,0.0007837683078832924
1772882836485558500,8.66655859375,-0.0007147924043238163,0.005883987993001938,-0.0014658038271591067
1772882836495490600,8.676490478515625,-0.0011949603212997317,0.004621649626642466,0.0013028184184804559
1772882836505423600,8.686423583984375,-0.00333241350017488,0.005408613942563534,0.0022266688756644726
1772882836515356400,8.6963564453125,0.001139033935032785,0.005284244194626808,-0.000215716048842296
1772882836525288700,8.706288818359376,-0.000663393409922719,0.005299157928675413,-0.0007888282998465002
1772882836535221500,8.716221435546874,-0.003031476167961955,0.006616357248276472,-0.0010253170039504766
1772882836545154600,8.726154541015624,0.0005102616851218045,0.0060919807292521,0.0013140037190169096
1772882836555086300,8.73608642578125,-0.0025483788922429085,0.0052208611741662025,-0.0013174657942727208
1772882836565019400,8.746019287109375,0.0003134540456812829,0.0062666842713952065,0.0007174555794335902
1772882836574951400,8.755951416015625,-0.0031222901307046413,0.007095459848642349,0.0010381002211943269
1772882836584884500,8.765884521484375,-0.0016490293201059103,0.005927930120378733,0.0022562299855053425
1772882836594817300,8.7758173828125,-0.0005331648280844092,0.0062882560305297375,-0.00030866035376675427
1772882836604749600,8.78574951171875,-0.0012383698485791683,0.00558145297691226,0.0014183996245265007
1772882836614682400,8.795682373046875,-0.0018897791160270572,0.006409962195903063,-0.0030093719251453876
1772882836624615400,8.805615478515625,-0.0036338833160698414,0.006410761270672083,-0.0003371562052052468
1772882836634547500,8.81554736328125,-0.0001347559446003288,0.006637129932641983,0.0014391721924766898
1772882836644480500,8.82548046875,-0.0015483618481084704,0.004610730800777674,0.0011994877131655812
1772882836654413600,8.83541357421875,-0.00018722022650763392,0.005178516730666161,-0.0002061286650132388
1772882836664345600,8.845345703125,-0.0011374361347407103,0.007288805674761534,-0.0007597998483106494
1772882836674278400,8.8552783203125,0.00032330775866284966,0.0068299430422484875,0.0011472897604107857
1772882836684211500,8.86521142578125,-0.004343882203102112,0.008478972129523754,0.0010876349406316876
1772882836694143500,8.8751435546875,-0.002939863596111536,0.005937517620623112,0.0013369068037718534
1772882836704076500,8.88507666015625,-0.0022543659433722496,0.006383064668625593,0.001079645473510027
1772882836714009600,8.895009521484376,-0.001466336427256465,0.0049026133492589,-0.0001347559446003288
1772882836723941600,8.904941650390626,-0.0005728459218516946,0.0065164887346327305,-0.00021358551748562604
1772882836733874400,8.91487451171875,-0.0010801780736073852,0.0065191518515348434,0.00022796659322921187
1772882836743807500,8.924807373046875,-0.0006018743733875453,0.007447263691574335,0.0008498146780766547
1772882836753739300,8.9347392578125,-0.0010391654213890433,0.005973204039037228,0.00010519486386328936
1772882836763672300,8.94467236328125,-0.002064748667180538,0.005873069167137146,-0.0016913736471906304
1772882836773605400,8.95460546875,-0.002877545543015003,0.0073165022768080235,0.0005744438385590911
1772882836783537400,8.964537353515626,-0.0008841694798320532,0.00777749577537179,0.00018216021999251097
1772882836793470500,8.974470458984374,-0.00047164582065306604,0.007995874620974064,0.0010665960144251585
1772882836803403300,8.9844033203125,-0.0012000204296782613,0.005801429972052574,0.0018516959389671683
1772882836813335300,8.994335205078125,-0.0029792783316224813,0.006618754006922245,-0.0005755090969614685
1772882836823268400,9.004268310546875,-0.002591255819424987,0.007667240686714649,0.0014029532903805375
1772882836833201400,9.014201416015625,-0.00007643271965207532,0.00560968229547143,0.00014221279707271606
1772882836843133400,9.024133544921876,-0.002124403603374958,0.005487177055329084,-0.00030306773260235786
1772882836853066500,9.03406640625,-0.0018194715958088636,0.004829908721148968,0.0001877528557088226
1772882836862999600,9.04399951171875,0.0012665993999689817,0.005878661759197712,0.0007904262165538967
1772882836872931600,9.053931640625,-0.0008876316132955253,0.006894657853990793,0.0001877528557088226
1772882836882864400,9.063864501953125,-0.003367833560332656,0.006863232236355543,-0.00017310546536464244
1772882836892797400,9.07379736328125,0.00035979304811917245,0.0067993164993822575,-0.0016247945604845881
1772882836902729500,9.0837294921875,0.0005430185701698065,0.006422479171305895,0.0010165285784751177
1772882836912662500,9.09366259765625,-0.0008993495139293373,0.00643819198012352,0.00012303804396651685
1772882836922594600,9.103594482421874,-0.0027917916886508465,0.006356166675686836,-0.00054142065346241
1772882836932527600,9.113527587890625,-0.0023670175578445196,0.003349723992869258,0.00019201391842216253
1772882836942460400,9.12346044921875,0.0004929511342197657,0.005842708982527256,-0.001175252953544259
1772882836952392700,9.133392822265625,-0.0005004079430364072,0.003948136232793331,-0.00014540860138367862
1772882836962325500,9.143325439453125,-0.0013294500531628728,0.007266967557370663,-0.0011406318517401814
1772882836972258600,9.153258544921876,-0.0027286747936159372,0.005143895745277405,-0.0003818972909357399
1772882836982190300,9.1631904296875,-0.0006540723843500018,0.00424401368945837,-0.0006056028068996966
1772882836992123400,9.173123291015624,-0.0013704627053812146,0.006131662055850029,0.0010876349406316876
1772882837002056400,9.183056396484375,0.0005052016349509358,0.005923935677856207,0.0009773800848051906
1772882837011988500,9.192988525390625,-0.0034197650384157896,0.006262689363211393,0.001960352761670947
1772882837021921300,9.20292138671875,-0.0009025452891364694,0.007848868146538734,0.0009235842735506594
1772882837031854300,9.212854248046876,0.0014178669080138206,0.005090898834168911,-0.0026290726382285357
1772882837041786400,9.222786376953126,0.00009108010999625549,0.006324741058051586,-0.0014828480780124664
1772882837051719400,9.232719482421874,-0.00007456851017195731,0.005023254547268152,-0.000428502622526139
1772882837061652500,9.242652587890625,-0.0011355718597769737,0.005182777531445026,0.0020873856265097857
1772882837071585300,9.252585205078125,0.000809068325906992,0.006191583350300789,0.001047421246767044
1772882837081518000,9.26251806640625,0.0015414375811815262,0.006875749211758375,0.0011965582380071282
1772882837091451100,9.272451171875,-0.0019259981345385313,0.006317284423857927,0.00012969593808520585
1772882837101383000,9.2823828125,-0.003081277245655656,0.006625944748520851,-0.0011299792677164078
1772882837111316200,9.292316162109374,-0.0012964267516508698,0.0052237906493246555,-0.0014048174489289522
1772882837121249300,9.302249267578125,0.001395496423356235,0.005953496787697077,0.00020213393145240843
1772882837131181000,9.31218115234375,-0.002016811864450574,0.007770571392029524,0.0010524812387302518
1772882837141114000,9.322114013671875,-0.00018961707246489823,0.0041366880759596825,0.001133707701228559
1772882837151047000,9.332046875,-0.0016982977977022529,0.004679440520703793,-0.0006921555614098907
1772882837160979000,9.34197900390625,-0.0018082864116877317,0.004756139125674963,0.0003222425002604723
1772882837170912000,9.351912109375,-0.0008807073463685811,0.007428621407598257,0.0011864382540807128
1772882837180845000,9.361844970703125,-0.0018309232546016574,0.004962534178048372,0.002517219865694642
1772882837190777000,9.371777099609375,-0.0007526093395426869,0.006371080409735441,-0.0008122641011141241
1772882837200710100,9.381710205078125,-0.0015009575290605426,0.008079764433205128,-0.0010285128373652697
1772882837210643000,9.391642822265625,-0.0008934905636124313,0.004941495135426521,-0.0020413128659129143
1772882837220575000,9.401574951171876,-0.0026557042729109526,0.008316786028444767,-0.00180908537004143
1772882837230508000,9.411508056640624,-0.0011145329335704446,0.0065385932102799416,-0.0013574132462963462
1772882837240441000,9.421441162109375,-0.0020604876335710287,0.006105563137680292,-0.00024501082953065634
1772882837250373000,9.431373046875,-0.00041305628838017583,0.004308462142944336,-0.0009840379934757948
1772882837260306200,9.44130615234375,-0.0024924525059759617,0.007254450581967831,0.00006524744821945205
1772882837270238200,9.45123828125,0.00041625206358730793,0.009738114662468433,0.00008602010348113254
1772882837280171300,9.461171142578126,-0.0020716730505228043,0.01068140659481287,-0.0001573928166180849
1772882837290104000,9.47110400390625,-0.0020996362436562777,0.005907956510782242,-0.00008069378236541525
1772882837300036000,9.4810361328125,-0.000022370553779182956,0.004199006129056215,0.0013512879377231002
1772882837309969200,9.49096923828125,-0.003308711340650916,0.006717291194945574,0.0006450176006183028
1772882837319902200,9.500902099609375,0.0011808456620201468,0.007831557653844357,0.0018823222490027547
1772882837329834000,9.510833984375,0.000441818410763517,0.0059684100560843945,0.0011776498286053538
1772882837339767000,9.52076708984375,-0.00007962851668708026,0.005781722720712423,0.0010780475568026304
1772882837349700000,9.5307001953125,-0.0009614011505618691,0.005797701422125101,0.0010061422362923622
1772882837359632100,9.540632080078124,-0.0009116000146605074,0.006372944451868534,-0.0016359798610210419
1772882837369565000,9.55056494140625,-0.000606668065302074,0.0057617491111159325,-0.0016074840677902102
1772882837379498000,9.560498046875,-0.001791242160834372,0.005824067164212465,-0.0010719223646447062
1772882837389430000,9.570429931640625,-0.003156378399580717,0.007536479737609625,0.000313986703986302
1772882837399363000,9.580363037109375,-0.0025188177824020386,0.006161755882203579,-0.0000673779723001644
1772882837409296100,9.590296142578126,-0.0005307680112309754,0.00717695290222764,-0.00012969593808520585
1772882837419228200,9.600228271484376,-0.0017446368001401424,0.008452074602246284,0.0007574030314572155
1772882837429161000,9.610160888671874,0.0001560612436151132,0.005904227960854769,0.0006716492353007197
1772882837439094000,9.620093994140625,-0.00065460498444736,0.007767908275127411,0.00045806370326317847
1772882837449026000,9.630026123046875,0.000365918327588588,0.005792907904833555,0.0005315669695846736
1772882837458959000,9.639958984375,-0.0018453042721375823,0.006895190104842186,0.0015611450653523207
1772882837468892200,9.64989208984375,-0.00017204020696226507,0.005881857592612505,-0.0006093312404118478
1772882837478824200,9.65982421875,-0.0009566074586473405,0.006036587059497833,-0.0020935109350830317
1772882837488757200,9.66975732421875,-0.0004114583716727793,0.005117264110594988,0.0034671693574637175
1772882837498690000,9.67968994140625,-0.00145222176797688,0.006623547989875078,-0.0005752427969127893
1772882837508622000,9.6896220703125,-0.0019648801535367966,0.009016664698719978,0.0011795139871537685
1772882837518555100,9.69955517578125,-0.0021963089238852262,0.0070946612395346165,0.0004444815858732909
1772882837528488200,9.70948828125,-0.0008231831016018987,0.0040914141573011875,0.0009145294898189604
1772882837538420200,9.719420166015626,0.00004261057620169595,0.004960670135915279,0.0001816275907913223
1772882837548353300,9.729353271484374,-0.0011587414192035794,0.005568936001509428,-0.00036751621519215405
1772882837558286000,9.7392861328125,0.00005193164179218002,0.006400907412171364,0.0004005394293926656
1772882837568218000,9.749218017578125,-0.0013435647124424577,0.008987902663648129,0.000011185276889591478
1772882837578151000,9.75915087890625,-0.004495682194828987,0.00535375252366066,0.00038056570338085294
1772882837588084000,9.769083984375,-0.001988049829378724,0.008951417170464993,-0.00018242653459310532
1772882837598016000,9.77901611328125,-0.0015560849569737911,0.005331115797162056,0.002683933824300766
1772882837607949000,9.788948974609376,-0.0010482202051207423,0.0062677497044205666,0.0002716424351092428
1772882837617882000,9.798882080078124,0.0030594393610954285,0.0071005201898515224,-0.00009827064059209079
1772882837627814100,9.808814208984375,-0.0006407565670087934,0.0065535069443285465,-0.00014674017438665032
1772882837637747000,9.818746826171875,-0.0005803027888759971,0.0046823699958622456,0.0018354506464675069
1772882837647680000,9.828679931640625,-0.002043443499132991,0.0049401638098061085,0.001535312389023602
1772882837657612000,9.838612060546875,-0.0026226809713989496,0.007213970646262169,-0.0006103964988142252
1772882837667545000,9.848545166015626,-0.0016535567119717598,0.004781173076480627,-0.0007084008539095521
1772882837677478100,9.85847802734375,0.00017257283616345376,0.1019604504108429,0.0650828629732132
1772882837687410200,9.86841015625,-0.015565910376608372,0.46460655331611633,0.11475321650505066
1772882837697343200,9.87834326171875,-0.0051537491381168365,0.1340470165014267,0.07776323705911636
1772882837707276000,9.888276123046875,-0.00036458674003370106,-0.029808495193719864,-0.0179385207593441
1772882837717208000,9.8982080078125,0.000019707391402334906,-0.006856041960418224,-0.009612679481506348
1772882837727141000,9.90814111328125,-0.001817873795516789,0.03340962156653404,0.02040940150618553
1772882837737073200,9.9180732421875,-0.0012322446564212441,0.03747919946908951,-0.006238987669348717
1772882837747006200,9.928006103515624,0.0038924762047827244,-0.10083047300577164,-0.03341761231422424
1772882837756939300,9.937939208984375,0.0038980687968432903,-0.09481572359800339,-0.0460420586168766
1772882837766871000,9.94787109375,0.0027614317368716,-0.09955908358097076,-0.047454334795475006
1772882837776804000,9.95780419921875,0.003715642262250185,-0.2674202620983124,-0.09844774007797241
1772882837786737200,9.967737060546876,0.004196875728666782,-0.2084655910730362,-0.05759378895163536
1772882837796669000,9.9776689453125,-0.002977147698402405,0.13176628947257996,0.033542245626449585
