time,seconds_elapsed,z,y,x
1772806908092038700,0.01903857421875,0.11241583434641361,-0.094862824662216,-0.16273021823531017
1772806908101970700,0.028970703125,0.004532382732629776,-0.06153866547560319,0.009601831484027207
1772806908111901700,0.038901611328125,0.03566811023056507,-0.07096612677341327,0.07467900981670245
1772806908121833700,0.048833740234375,-0.0014361702829599379,-0.04355020524989813,0.16082027469445018
1772806908131765800,0.058765869140625,0.06919336321353912,-0.005117470877896994,0.22992957635372877
1772806908141697500,0.068697509765625,0.030434301230311392,0.014546028154250233,0.095666523994226
1772806908151628800,0.07862890625,0.06454992132186889,0.02261224756883457,-0.06051161484965123
1772806908161560800,0.088560791015625,0.010230302113294601,0.04719155742693692,-0.12331619947468861
1772806908171492900,0.098492919921875,0.08474982878565787,0.03686787794176489,-0.15258395027681254
1772806908181424600,0.108424560546875,-0.011906710892915725,0.03743343940265476,-0.09471713258121162
1772806908191356700,0.118356689453125,0.057825581502914426,0.0518522427143529,0.03444789338638075
1772806908201287700,0.12828759765625,0.03342588426172733,0.04127148319557309,0.08094998897812329
1772806908211219700,0.1382197265625,0.07951601978540421,0.03648945481711998,0.03806872336519882
1772806908221151700,0.14815185546875,0.0018529343903064726,0.011090955796930937,-0.03070471566952765
1772806908231083500,0.15808349609375,0.0539227288454771,0.01287515406627208,-0.051230640217289326
1772806908241014800,0.168014892578125,0.03312427096664906,-0.020854900773800908,-0.023746521428925915
1772806908250946800,0.17794677734375,0.024601357293128966,-0.032846696134284134,0.028855388875259083
1772806908260878800,0.18787890625,0.03118599638044834,-0.008940682427864522,0.05197660887953825
1772806908270811000,0.197810791015625,0.03971358622908592,-0.029221929765865205,0.0683280333547853
1772806908280741600,0.20774169921875,0.04554828373193741,-0.040391595088504255,0.035892758432449774
1772806908290673700,0.217673583984375,0.05571954913437366,-0.014485566671285777,-0.04907266759895719
1772806908300605700,0.227605712890625,0.03566635666489601,-0.03009719649674371,-0.11845539763844572
1772806908310537700,0.237537841796875,0.030582185268402097,-0.025840762894973158,-0.09591139300023205
1772806908320468700,0.24746875,0.039863223832845684,-0.012579276392236351,-0.025793288757745177
1772806908330400800,0.25740087890625,0.03911737390160561,-0.021467388382647185,0.06647111690910533
1772806908340332800,0.267332763671875,0.013525836527347564,-0.009442841530032456,0.1484942241446115
1772806908350264800,0.277264892578125,0.05870937860012054,0.0049401415496133265,0.13501865649977698
1772806908360195600,0.287195556640625,0.02997603606879711,-0.004150068884156644,0.07071859088628553
1772806908370127600,0.297127685546875,0.023390227937698363,-0.007518339740857482,-0.01852207391206175
1772806908380059600,0.3070595703125,0.03460954108834267,0.006634177317470312,-0.12707786269630306
1772806908389991700,0.31699169921875,0.030423779836297033,0.0018385405387729406,-0.14428720090882852
1772806908399922700,0.326922607421875,0.0006494038194417953,0.009458495756890624,-0.08222942519625648
1772806908409854700,0.336854736328125,0.04344517397284507,0.00545357096446678,-0.012845672243461012
1772806908419786800,0.346786865234375,0.02653612474799156,-0.009846654824260621,0.0910335578307975
1772806908429718800,0.35671875,0.02503916418850422,-0.019926351219415665,0.11502777954363264
1772806908439649800,0.36664990234375,0.05631342337429523,-0.003028170448448509,0.04899185744770802
1772806908449581600,0.37658154296875,0.031176644030213353,0.001856825114134699,-0.0015330091204028575
1772806908459513600,0.386513671875,0.022048165678977966,0.0022787585869431496,-0.04359964301534928
1772806908469445600,0.396445556640625,0.04449205267727375,0.0150804638245143,-0.07506803653375245
1772806908479377000,0.406376953125,0.02294599130153656,0.013991335147246717,-0.04392384260157123
1772806908489309000,0.416308837890625,0.023995792615413663,-0.004305551706813276,0.013550770039204508
1772806908499240700,0.42624072265625,0.05811375079452991,0.017023195390123872,0.038781438211817294
1772806908509172700,0.4361728515625,0.022799276307225225,0.012397106492053717,0.021566282179858533
1772806908519103700,0.446103759765625,0.04000467813014984,0.001022401850298047,-0.033536130570014935
1772806908529035800,0.456035888671875,0.04538929377794265,0.017705222837533802,-0.03222394285975024
1772806908538967600,0.465967529296875,0.029530630388855932,0.017544607182033357,-0.03732617963589727
1772806908548899600,0.475899658203125,0.03746317695379257,0.014990228257793932,0.0062075859358534215
1772806908558830800,0.485830810546875,0.04629997888207436,-0.0008661701089702546,0.057767101914482186
1772806908568763000,0.495762939453125,0.022064532291889188,-0.003778824418969452,0.06056582012176513
1772806908578695000,0.50569482421875,0.052587680849432945,-0.03420397422844544,0.07860665898867883
1772806908588626700,0.515626708984375,0.026704467052221296,-0.022427520385384557,-0.00741952814203687
1772806908598558700,0.525558837890625,0.010252513945102692,-0.021174122790805994,-0.10110426720189862
1772806908608489700,0.53548974609375,0.056041036173701285,-0.036025545366108414,-0.07534751106225886
1772806908618421800,0.545421875,0.029409634357690808,-0.02298663383917883,-0.07463651324869133
1772806908628353800,0.555353759765625,0.030606735187768935,-0.014228249175660311,0.015066143038216977
1772806908638285600,0.56528564453125,0.057092006531357764,-0.014107855932693928,0.0877973432553932
1772806908648216800,0.575216796875,0.005171849679946899,0.00020319442190229892,0.08400590595002286
1772806908658148900,0.58514892578125,0.05648702637553215,-0.0072007799579761915,0.08900832648035138
1772806908668081000,0.595080810546875,0.04271685969829559,0.018429025333747268,0.0045309762268327175
1772806908678012700,0.6050126953125,0.02925356701314449,0.022093593989592045,-0.07691958268457091
1772806908687943700,0.614943603515625,0.043019057515263553,0.0186783604523167,-0.10449765423354693
1772806908697875700,0.624875732421875,0.03000175503194332,0.021319084219448267,-0.0817440254326444
1772806908707807700,0.634807861328125,0.02581248664855957,0.028773108286131173,-0.03281990859205834
1772806908717739800,0.64473974609375,0.03583703705668449,0.01370396957322955,0.04355464396299794
1772806908727670800,0.6546708984375,0.025364742881059645,0.0027742139536887406,0.051878336136834693
1772806908737602800,0.664602783203125,0.03763502638936043,0.007458608910255134,0.02997267506793141
1772806908747534800,0.674534912109375,0.045559974169731135,-0.0006856989755295216,0.018361969713214785
1772806908757467000,0.684466796875,0.04210954145491123,-0.0027564225686714052,0.0006663366879336535
1772806908767397600,0.694397705078125,0.041809681725502014,-0.006132821932900697,-0.012662808223534374
1772806908777329700,0.70432958984375,0.014423077628016472,-0.01844888081168756,0.003995654640579596
1772806908787261700,0.71426171875,0.05302841035425663,-0.03687576898727566,0.025228439682908353
1772806908797193700,0.72419384765625,0.033276246657967565,-0.04235412733312696,0.04099456595033407
1772806908807124700,0.734124755859375,0.02444821255803108,-0.03321647929474711,0.013282748486474155
1772806908817056800,0.744056884765625,0.046893853121995926,-0.01709284482654184,-0.044626054320484394
1772806908826988800,0.75398876953125,0.03701543318629265,-0.019843239513225853,-0.07093776832860894
1772806908836920800,0.7639208984375,0.022356208714842795,-0.011439951897691935,-0.05420511685027741
1772806908846851800,0.773851806640625,0.032687633115053176,0.0019574359443970024,-0.005326154325669631
1772806908856783600,0.78378369140625,0.02700023512840271,-0.009680522743426262,0.0593330543232616
1772806908866715600,0.793715576171875,0.02221124728620052,-0.00992191201755777,0.09714359254315495
1772806908876647700,0.803647705078125,0.031787469404935834,0.013067900159396231,0.06916377179287374
1772806908886579700,0.813579833984375,0.03597381517887115,0.004997643890511244,0.013485385785950347
1772806908896510700,0.8235107421875,0.04854103580713272,0.015296462929062544,-0.044699585347576065
1772806908906442800,0.83344287109375,0.03791442785263061,0.0040657333352603015,-0.08001287252479232
1772806908916374800,0.843374755859375,0.029082886621356007,-0.0024495303102768954,-0.08051538781998678
1772806908926306800,0.853306884765625,0.020557634860277174,0.004551489291898906,-0.022567211983865125
1772806908936237800,0.86323779296875,0.035676878058910365,0.00488028285484761,0.03576792647638358
1772806908946169600,0.873169677734375,0.04076747919619083,-0.012739344058465212,0.05984610927877947
1772806908956101600,0.8831015625,0.05888298160135746,-0.010800722412392496,0.051397201556386427
1772806908966033700,0.89303369140625,0.038238837501406664,-0.021958459835220125,0.025898411366343497
1772806908975964700,0.902964599609375,0.04632335975766182,-0.017889493363257496,-0.011883795808209106
1772806908985896700,0.912896728515625,0.046776948744058605,-0.013191745734773575,-0.02844974895012565
1772806908995828700,0.922828857421875,0.04079378268122673,-0.015079532242752611,-0.032186442127265034
1772806909005760800,0.9327607421875,0.03795242177546024,-0.02274840463651344,-0.009517194541031494
1772806909015691800,0.94269189453125,0.04408990161716938,-0.018085381261538712,-0.00311428696247749
1772806909025623800,0.952623779296875,0.06336217284202575,-0.0076751012051478025,0.03167170667131431
1772806909035555800,0.962555908203125,0.0832499456167221,0.004943721746187657,0.016538544545182957
1772806909045487600,0.972487548828125,-0.10273089115619659,0.013750475596077739,-0.11954427972054109
1772806909055418600,0.982418701171875,0.09178747233748435,0.01919062082339078,0.030411733205476774
1772806909065350700,0.9923505859375,0.06619067426621913,0.016575853481423108,0.03202414597133174
1772806909075282700,1.00228271484375,-0.024177578923106194,0.026246348021179436,-0.029377814447320995
1772806909085214700,1.012214599609375,0.047050504988431927,0.012978121250402182,0.03141016965829767
1772806909095145700,1.022145751953125,0.07951835787296295,0.019243520054407416,0.06827387374844401
1772806909105077800,1.032077880859375,0.006193009421229362,-0.00163054207758978,-0.014175897933915257
1772806909115009800,1.042009765625,0.05571662652492523,0.008687346987612544,-0.01755800551972352
1772806909124941800,1.05194189453125,0.035514965495467184,0.01232212329339236,-0.05182126305419951
1772806909134872600,1.06187255859375,0.013374445357918738,0.012999693761393427,-0.05749029426709749
1772806909144804600,1.0718046875,0.050182957795262335,-0.022653657291457057,-0.028226278925174847
1772806909154736600,1.081736572265625,0.046883331727981564,-0.006723663965519517,0.03105838794540614
1772806909164668700,1.091668701171875,0.02637538122832775,-0.017535875886306167,0.06353075260827318
1772806909174601000,1.10160107421875,0.013802899903059005,-0.020836999790929258,0.03782488640565425
1772806909184531700,1.11153173828125,0.017092004576325415,-0.0027843334889039394,0.018379943761322647
1772806909194463700,1.121463623046875,0.052550271448493,-0.0076805810978636145,-0.006219650832982733
1772806909204395800,1.131395751953125,0.02875613888502121,0.004337389883492142,-0.0392248437309172
1772806909214327800,1.141327880859375,0.013798808249831198,-0.006249287919420749,-0.05833426167741418
1772806909224258600,1.151258544921875,0.031159692895412445,-0.000311641498748213,-0.0183516127159819
1772806909234190600,1.161190673828125,0.043727498045563695,0.009642145228106528,0.00903201397312805
1772806909244122600,1.17112255859375,0.04163432515859604,-0.00004003974944353103,0.02683878835584037
1772806909254055000,1.181054931640625,0.02292845564484596,0.008223108743038028,0.02270097616505809
1772806909263985700,1.190985595703125,0.03564356031119823,0.017044493906479326,0.01540883726235479
1772806909273917700,1.200917724609375,0.03728782038688659,0.010240768708381802,-0.02315751516036689
1772806909283849700,1.210849609375,0.04312544049918651,-0.002904927661269903,-0.013198486002814024
1772806909293781800,1.22078173828125,0.03624444881379604,0.0011662855667062104,0.007048922997666522
1772806909303712800,1.230712646484375,0.028311317726969716,-0.0019779672757722438,0.019290628865454344
1772806909313644500,1.24064453125,0.03459843517243862,-0.007983473034575582,0.03650562050063163
1772806909323576600,1.25057666015625,0.019335984110832212,0.00012205547709017991,0.015214291937788947
1772806909333508600,1.260508544921875,0.041782793718576426,-0.00032687560049816965,-0.003978000252880156
1772806909343440000,1.27043994140625,0.025022797575592993,0.009730974289029836,-0.020232284496584905
1772806909353371600,1.28037158203125,0.03594283551871776,-0.009310301191546022,-0.026962999257398767
1772806909363303700,1.2903037109375,0.03309913652539253,0.0035201004175469276,0.004203872297471389
1772806909373235700,1.300235595703125,0.04117664451897144,0.00007111074114218354,0.024485393630107863
1772806909383166700,1.310166748046875,0.042215924438834186,-0.005410060616303235,0.04118582333927043
1772806909393098800,1.3200986328125,0.04444645996987819,-0.014295761453919111,0.03422949226219207
1772806909403030500,1.330030517578125,0.032628011882305144,-0.025479254372511057,-0.011360794847412033
1772806909412962600,1.339962646484375,-0.028994623816013334,-0.014984931028168648,-0.06892266564653254
1772806909422893300,1.349893310546875,0.033572014734148975,-0.005410316344629973,-0.05048133795363828
1772806909432825300,1.359825439453125,0.10283844318389893,-0.01251689694682136,0.02263415800654329
1772806909442757400,1.36975732421875,0.04193476940989494,-0.008067260594200343,0.011924474878469482
1772806909452689400,1.379689453125,-0.03181377288997173,0.0017578582516871392,-0.024970784260565412
1772806909462620200,1.3896201171875,0.0479448234796524,0.007978175804950296,0.04521166305555962
1772806909472552200,1.39955224609375,0.08683832549750804,0.017736987948976456,0.09383764633294195
1772806909482484200,1.409484130859375,-0.004733458262681961,0.01137578235398978,-0.006504431724268942
1772806909492416300,1.419416259765625,0.028491934990882872,0.013742219224385916,-0.03319673341466114
1772806909502347300,1.42934716796875,0.07770926262438296,0.008124379342608153,0.022354583013337103
1772806909512279300,1.439279296875,0.048372693502902984,0.011051372705213725,-0.008662157747428864
1772806909522211300,1.44921142578125,0.005433715486526489,-0.0037626222028397023,-0.029902870367886497
1772806909532143400,1.459143310546875,0.0216021754771471,-0.010327533676382153,0.008839724537730216
1772806909542075400,1.469075439453125,0.06395370899438858,-0.01230551921846345,0.02079349857592024
1772806909552006100,1.479006103515625,0.03552840949892998,-0.010552702468074857,-0.00041347617171704767
1772806909561938200,1.488938232421875,0.01175181259214878,-0.003980539269838482,-0.025275840754900126
1772806909571870200,1.4988701171875,0.022691724279522894,-0.024201489521656183,-0.01991203043311834
1772806909581802500,1.508802490234375,0.05426935032606125,-0.02270531441345811,0.012349184830253943
1772806909591733200,1.518733154296875,0.10571896705627441,-0.019445490633603183,0.06187852842183783
1772806909601665300,1.528665283203125,0.033138884013891215,-0.006602156477700918,0.016820905150519684
1772806909611597300,1.538597412109375,-0.025662264522910115,-0.003128215023130178,-0.05400363032827153
1772806909621529300,1.548529296875,0.08057341988384724,-0.010474979323055595,0.022738275968143717
1772806909631460400,1.55846044921875,0.03837269301414489,-0.016354484082013367,-0.02447860769629478
1772806909641392000,1.56839208984375,0.02789513814151287,0.008748922715429217,-0.039376536294445395
1772806909651324200,1.57832421875,0.05093991364240646,0.00580333425020799,-0.02148082325295545
1772806909661256200,1.588256103515625,0.01397825646996498,0.011808145889267326,-0.012180869925487786
1772806909671187500,1.5981875,0.04120762417912483,0.012537757071759551,0.008349484202219173
1772806909681119200,1.608119140625,0.04000993882715702,0.014457107761781662,0.037069254865916446
1772806909691051300,1.61805126953125,0.02803893052637577,0.005896894285175949,0.04075376119809225
1772806909700983300,1.6279833984375,0.03821604114770889,0.0022312661834061145,0.010980563358170912
1772806909710914300,1.637914306640625,0.021755904734134673,0.01538224151637405,-0.02132150450539775
1772806909720846300,1.647846435546875,0.02759527841210365,-0.008956628915667533,-0.04012680667247623
1772806909730778000,1.657778076171875,0.040168344259262086,-0.00037411227570846676,-0.0365535421624314
1772806909740710100,1.667710205078125,0.03762567403912544,-0.01158425573920831,-0.004950306750601157
1772806909750641400,1.677641357421875,0.0308913973480463,-0.012719324183743446,0.010064973750058562
1772806909760573400,1.687573486328125,0.04136544508934021,-0.028592417956981805,0.018382227049954236
1772806909770505500,1.69750537109375,0.018017302727699278,-0.016044523083698005,0.010010247888136654
1772806909780437200,1.707437255859375,0.026249124500155447,-0.014679098215699194,0.007750568460999056
1772806909790368300,1.7173681640625,0.051689855226874346,-0.026155272204242644,-0.0023861005520913747
1772806909800300300,1.72730029296875,0.020865677896142003,-0.015454557833913713,-0.010901634636754169
1772806909810232300,1.737232421875,0.03717734574973583,-0.009630801850184797,-0.0005273666086606681
1772806909820164000,1.7471640625,0.04914601596295833,-0.011736578490398823,-0.004609786217240616
1772806909830095400,1.757095458984375,0.02774783862531185,0.007285389501508325,0.007271571038709953
1772806909840027400,1.76702734375,0.032983401191234586,0.003280884834192693,-0.009832699364144354
1772806909849959400,1.77695947265625,0.03342939139306545,0.018480773787293583,-0.005100346213160082
1772806909859891500,1.786891357421875,0.030433716708421706,0.025773707274440675,-0.017453111239988356
1772806909869822200,1.796822265625,0.02983224368393421,0.00596292699240148,-0.02861399960112758
1772806909879754200,1.806754150390625,0.034172903236746786,0.005157565426267683,0.0016485891909338534
1772806909889686300,1.816686279296875,0.028490181425213812,0.032127916873060165,0.012149351409217342
1772806909899618300,1.826618408203125,0.02429799043238163,0.009131748020555823,0.0069321008181199425
1772806909909549300,1.83654931640625,0.04285188425481319,-0.002827277581486851,0.006535393118113279
1772806909919481300,1.8464814453125,0.021901450684666632,0.0026134521677158773,-0.0006283336319494993
1772806909929413400,1.856413330078125,0.03372165233790874,-0.0055026342705823475,-0.010307221540715545
1772806909939345400,1.866345458984375,0.04359481157660484,-0.014997662645578384,-0.03714031080813147
1772806909949276200,1.876276123046875,0.04733341358304023,-0.022733663725107905,-0.005422710035322234
1772806909959208200,1.886208251953125,0.029827567508816717,-0.028645134524907915,-0.0102301285833586
1772806909969140200,1.89614013671875,0.02893207997381687,-0.029433216162677852,0.008024499164707958
1772806909979072300,1.906072265625,0.026539047357439994,-0.02988165404992178,0.01751931747714989
1772806909989003500,1.91600341796875,0.03267477363348007,-0.028408202230185267,0.01299550164346583
1772806909998935300,1.925935302734375,0.04254793287217617,-0.009793152805045247,0.021573689168179408
1772806910008867300,1.935867431640625,0.034763270345330236,-0.01180062016993761,0.006301483897538855
1772806910018799400,1.94579931640625,0.031167876201868054,-0.025597693120408802,-0.005711564313527196
1772806910028730400,1.95573046875,0.034010990673303605,-0.019553024394996465,-0.02767852711561136
1772806910038662100,1.965662109375,0.026978023296594617,0.0027947270187549294,-0.025263237001653758
1772806910048594200,1.97559423828125,0.03012099749743938,0.0002504493634216487,-0.004610489470139145
1772806910058526200,1.985526123046875,0.03251519915759563,-0.011021324626822024,0.0076052508393302555
1772806910068457500,1.99545751953125,0.04628010513782501,0.0034022279252298175,0.014935173602309077
1772806910078389500,2.005389404296875,0.04387187495231628,0.013478508520592004,0.020977970031043514
1772806910088321300,2.0153212890625,0.040270051068067546,0.010288188046682625,0.02087397993360646
1772806910098253300,2.02525341796875,-0.018825696501135827,0.012128683080524205,-0.05687724040267057
1772806910108185300,2.035185302734375,0.020689736807346343,0.009468560493178665,0.001879913728777319
1772806910118116400,2.045116455078125,0.05420914457142353,-0.002553739603422582,0.025501794997882098
1772806910128048400,2.05504833984375,0.043433483535051345,-0.003145549750421196,0.01714803647934459
1772806910137980200,2.064980224609375,0.02278817039132118,-0.004250405719783157,0.0049868485018610955
1772806910147912200,2.074912109375,0.024731705674529075,-0.016261691232025623,0.004787015080824494
1772806910157843500,2.084843505859375,0.03460661847889423,-0.02087117605516687,-0.009530254952004179
1772806910167775500,2.094775390625,0.04134147969186306,0.001060213110037148,0.008305736392037943
1772806910177707300,2.104707275390625,0.031163200026750562,-0.024932087084837257,0.003741972140455618
1772806910187639300,2.114639404296875,0.040893151402473446,-0.011472648590896278,-0.013471284195361657
1772806910197570300,2.1245703125,0.03371814520657063,-0.012889968042913823,0.009950042133498937
1772806910207502300,2.13450244140625,0.037462007910013195,-0.0017264949990436435,0.004213014585152268
1772806910217434400,2.144434326171875,0.044944472619891165,0.0033844913391396403,0.017576381426630542
1772806910227366100,2.1543662109375,0.03701777127385139,-0.013747516454011201,0.005197669107792899
1772806910237297400,2.16429736328125,0.03237666746973991,0.01338040017466992,-0.009770995772164314
1772806910247229400,2.1742294921875,0.0391045144200325,0.0163405286218971,-0.009108924267394467
1772806910257161500,2.184161376953125,0.0431435606777668,0.023503515586443244,-0.01917251891111955
1772806910267093500,2.194093505859375,0.030272973188757896,0.033375944172777235,-0.005269939759559929
1772806910277024300,2.204024169921875,0.041942952716350554,0.021242657982371745,-0.001569560004817322
1772806910286956300,2.213956298828125,0.03520575341582298,0.02064739550296217,0.007423775058891624
1772806910296888300,2.223888427734375,0.029518355429172513,0.026865210571885106,0.008136453372891992
1772806910306820400,2.2338203125,0.025773323681950566,0.030126148596592246,0.0073412296082824464
1772806910316751400,2.24375146484375,0.05539806209504604,0.02543338767047971,0.0007474573664367198
1772806910326683400,2.253683349609375,0.03818856861889362,0.005031948018912226,-0.011205485554691403
1772806910336615400,2.263615478515625,0.026367782443761825,0.0005239873414859175,0.00002681494168937206
1772806910346547500,2.27354736328125,0.010214520022273063,0.003892093801405281,-0.003697448012139648
1772806910356478200,2.283478271484375,0.07306698977649212,-0.01364827559692785,0.0006540251956321299
1772806910366410200,2.29341015625,0.013514730611443518,-0.008548139446321875,0.017032903933385385
1772806910376342300,2.30334228515625,0.055417935839295385,-0.016879092478007077,0.0011014858353417367
1772806910386274300,2.3132744140625,0.020108722048997878,-0.009580514701362699,-0.017989245676994323
1772806910396205300,2.323205322265625,0.035675709015130994,-0.02191345164971426,-0.010334118680795654
1772806910406137300,2.333137451171875,0.037923195680975914,-0.014591602595336735,-0.005962844794010744
1772806910416069400,2.3430693359375,0.03044014644920826,-0.0006820457137189806,-0.005643924171105027
1772806910426001200,2.353001220703125,0.04016717521548271,-0.007004581532441079,-0.002193929847702384
1772806910435932200,2.36293212890625,0.030144962894916534,-0.009058427056018262,0.010128467440325766
1772806910445864200,2.3728642578125,0.03957563906311989,-0.011462181995809078,0.018237064691912382
1772806910455796200,2.382796142578125,0.038676059874892234,-0.00023464900609105824,0.007653227300057187
1772806910465728300,2.392728271484375,0.0419628264605999,-0.008719477425236254,-0.012059161508269607
1772806910475659000,2.402658935546875,0.03582943827211857,-0.02151345601407811,-0.014269229640020057
1772806910485591300,2.41259130859375,0.020866846939921378,-0.02915606145542115,-0.00733318329914473
1772806910495523300,2.4225234375,0.051989130434393876,-0.027382859504129737,0.005734150604670867
1772806910505455400,2.432455322265625,0.03582768470644951,-0.03233998872116208,-0.0024038188718724994
1772806910515386000,2.44238623046875,0.03313420783877372,-0.06010726269930601,0.009121345357550308
1772806910525318100,2.452318115234375,0.03343289852440357,-0.04710943210143596,0.016847674426436424
1772806910535250200,2.462250244140625,0.045105216139554975,-0.021335889223776758,0.025088848549127577
1772806910545182200,2.47218212890625,0.042110710498690605,-0.04191743468260392,0.008612729115132242
1772806910555113000,2.482113037109375,0.04136486056745052,-0.03437797908848152,-0.000502104303240776
1772806910565045000,2.492044921875,0.032387188863754274,-0.03627146468488499,0.004839494186732918
1772806910574977300,2.501977294921875,0.05782499698102474,-0.029295031534694132,-0.006390102895908058
1772806910584909300,2.511909423828125,0.03747311382591724,-0.023072832551598546,-0.004846325786318629
1772806910594840300,2.52184033203125,0.03806698806583881,-0.007097118654102086,-0.0042508897769730535
1772806910604772000,2.531772216796875,0.04389759391546249,-0.004161741055641323,0.00028742950609885154
1772806910614704000,2.5417041015625,0.060199324896931646,-0.002855206768028438,0.01631586910467595
1772806910624636200,2.55163623046875,0.015458850416541098,0.014530520057864486,-0.03438411656832322
1772806910634567200,2.561567138671875,0.0238373871833086,0.02838047397304326,-0.013958136130543424
1772806910644499200,2.571499267578125,0.034007483541965484,0.026219204285927115,0.015873705694591626
1772806910654431200,2.58143115234375,0.041188334956765174,0.022095566750969735,-0.003420521633746102
1772806910664363300,2.59136328125,0.04552548737823963,0.01656560608204454,0.006694310006871819
1772806910674294300,2.601294189453125,0.040135026511549945,0.03437498341379687,0.005872764490917325
1772806910684226300,2.611226318359375,0.029056583136320112,0.03126242261752486,0.000977832056209445
1772806910694158000,2.621157958984375,0.03892506619989872,0.012172522222250699,-0.006812703088996931
1772806910704090000,2.631090087890625,0.028445173239707945,0.013023129435908049,-0.020409440294932572
1772806910714021000,2.641021240234375,0.018866613033413887,0.016346830498520284,-0.013872668070485815
1772806910723953200,2.650953125,0.020513795718550682,0.006242255390435457,-0.0017228691366966812
1772806910733885200,2.66088525390625,0.02141395942866802,-0.0006732230864465236,0.012419893712596967
1772806910743817200,2.670817138671875,0.03922258784174919,-0.019614545323885978,0.019473556817462667
1772806910753749200,2.680749267578125,0.039081718066334724,-0.004337462948728352,0.0033328433502931147
1772806910763680300,2.69068017578125,0.02308101585805416,-0.018807649387791753,0.012245815787324681
1772806910773612300,2.7006123046875,0.0365513228058815,-0.010389164203125982,-0.013566552130226044
1772806910783544300,2.71054443359375,0.025180033963918685,-0.019290427936054764,-0.011300041103502734
1772806910793476000,2.72047607421875,0.023982348611950872,-0.010536755980271845,-0.002969352933298796
1772806910803407000,2.730406982421875,0.044481531283259386,0.0011424845660105347,-0.0026716942941304293
1772806910813339100,2.740339111328125,0.04657470417022705,-0.01022935226522386,-0.01725807272507809
1772806910823271200,2.750271240234375,0.0386380659520626,-0.00582777457172051,0.0008349621199537068
1772806910833203200,2.760203125,0.031902620217204095,0.0011854103922843931,-0.003601348960213363
1772806910843134200,2.77013427734375,0.03908756328523159,0.015450173919741064,0.020871833642292767
1772806910853066200,2.780066162109375,0.037142274436354636,0.005919909834582358,0.0009990118415560572
1772806910862998300,2.789998291015625,0.026968670946359633,0.00871545883724466,0.002464326020609587
1772806910872930300,2.799930419921875,0.05121113179922104,0.01888615798410028,-0.010713902645464986
1772806910882861000,2.809861083984375,0.037299510824680325,0.0216251179613173,-0.008996376404166222
1772806910892793000,2.81979296875,0.02278524778187275,0.02391887318799272,-0.0023883655744139105
1772806910902725000,2.82972509765625,0.05166764339506626,0.01791557765258476,-0.011152997315628453
1772806910912657200,2.8396572265625,0.03416296636462211,0.01361492131659761,-0.010604085595440118
1772806910922588200,2.849588134765625,-0.005039747732877731,0.02217389268418774,-0.0028363833365496246
1772806910932520200,2.859520263671875,0.07127952183783054,0.0035813108191825446,-0.003124251234065741
1772806910942452200,2.8694521484375,0.05108487507104873,0.01517862696936354,-0.0016133169481530785
1772806910952384300,2.87938427734375,0.016671148815751075,-0.007814473143219947,0.0038716720678843557
1772806910962315000,2.88931494140625,0.05004325706362724,-0.016206947103794663,0.010623877141298725
1772806910972247000,2.8992470703125,0.04106909249126911,-0.0026297091827727852,0.000530444481736049
1772806910982179000,2.909178955078125,0.023716391152143478,-0.0035468057613819836,-0.011161792543437332
1772806910992111000,2.919111083984375,0.04841185646951198,-0.024641945031844078,0.00030092830848880113
1772806911002042400,2.92904248046875,0.058741527304053305,-0.01459406854705885,0.0005417969928123057
1772806911011974100,2.93897412109375,0.017743746483325957,-0.017188870813231914,0.0009835768104065209
1772806911021906200,2.94890625,0.043482583373785015,-0.01863939841510728,-0.01825083748893812
1772806911031838200,2.958838134765625,0.0324076471298933,-0.012685403647832572,-0.014361310103954746
1772806911041769200,2.968769287109375,0.02552314831316471,-0.009592424334865063,0.0009365958635229617
1772806911051701000,2.978700927734375,0.040489246776700016,-0.01365468707140535,0.019588524966640396
1772806911061633000,2.988633056640625,0.051562429454922676,-0.017502631203830242,0.007691202956577763
1772806911071565000,2.99856494140625,0.03375672365128994,-0.009365958635229616,0.009522217776020988
1772806911081496300,3.008496337890625,0.030911855614185333,0.006226875158213079,0.005084591521602124
1772806911091428400,3.018428466796875,0.0413876569211483,0.006843965876940638,0.004872483140882104
1772806911101360000,3.028360107421875,0.040188218003511425,-0.01352892353357747,-0.0011217431720811873
1772806911111292200,3.038292236328125,0.04452127877175808,-0.006468282698653638,-0.0053868898032698774
1772806911121223200,3.04822314453125,0.04197802402973175,0.0029810251047834753,-0.005938358806725591
1772806911131155200,3.0581552734375,0.023273908081650734,-0.003932316213939338,0.0062632616458460685
1772806911141087200,3.068087158203125,0.030151977157592772,-0.0004515979587100446,-0.003636548137757927
1772806911151019000,3.07801904296875,0.0629115064650774,-0.005281465800572187,0.009736362850200384
1772806911160950300,3.0879501953125,0.02161561948060989,-0.0008279569904319941,-0.0017412633099127559
1772806911170882300,3.09788232421875,0.00426291814148426,0.015294161374121904,-0.028055772063322364
1772806911180814300,3.107814453125,0.07398761175274848,0.005911580397654324,0.02677219852618873
1772806911190746000,3.11774609375,0.03029401597678661,0.004611877709627152,-0.008848839425947516
1772806911200677000,3.127677001953125,0.046751814302802085,-0.0024895152607932684,0.0011462017599027604
1772806911210609200,3.137609130859375,0.026855273699760436,0.012148465493228285,-0.007736128943692892
1772806911220541200,3.147541259765625,0.033141806623339654,0.006323047275375575,0.004760949057806283
1772806911230473200,3.15747314453125,0.0323947876483202,-0.0016117277792654931,-0.015721373810246585
1772806911240404200,3.167404296875,0.031049802780151365,0.005119407106656581,-0.008852099962113424
1772806911250336300,3.177336181640625,0.04840893386006355,-0.015453918513096868,-0.001341368138976395
1772806911260268300,3.187268310546875,0.03240238643288612,-0.016034001689683646,0.00283399045006372
1772806911270200300,3.197200439453125,0.031055647999048232,-0.0018875307796522975,-0.004757432793313637
1772806911280131000,3.207131103515625,0.034498481929302216,-0.0023774697210639712,0.0007449274826329201
1772806911290063000,3.21706298828125,0.04572188673317432,-0.0033921083900146183,0.017291262608626855
1772806911299995100,3.2269951171875,0.05021159936785698,-0.012124353965278714,-0.004332823306228965
1772806911309927200,3.23692724609375,0.03868891935646534,-0.003711348673328757,-0.006154010851401835
1772806911319858200,3.246858154296875,0.03614858722388744,0.005717446065042168,-0.009285248948680236
1772806911329790200,3.256790283203125,0.03868891935646534,-0.0013415325357578694,-0.0213790525120683
1772806911339722200,3.26672216796875,0.04138531883358955,-0.0016999175193719565,-0.021523813011310993
1772806911349654300,3.276654296875,0.021783377262949943,0.005603646959643811,-0.004885470486618578
1772806911359585300,3.286585205078125,0.0258241770863533,0.006054386401828378,-0.0057073995950631794
1772806911369517000,3.29651708984375,0.03675298285782337,0.0013940481742843985,-0.004083725649677216
1772806911379449000,3.306448974609375,0.040493338429927826,0.00621993396077305,0.009093525768863037
1772806911389381000,3.316381103515625,0.024327801048755645,-0.01108003254411742,-0.007092241549585014
1772806911399312400,3.3263125,0.03255553116798401,0.0005452310589142143,-0.006078680592868477
1772806911409244400,3.336244384765625,0.028963644155859947,-0.0012273498378694058,-0.025664693942014125
1772806911419176200,3.34617626953125,0.025820085433125493,-0.011463241441734134,-0.0059961534085683525
1772806911429108700,3.356108642578125,0.03015899142026901,-0.01872609031787142,-0.010604615318402648
1772806911439041000,3.366041015625,0.04003624231219292,0.005026340262033045,-0.0019516729238908737
1772806911448972000,3.375971923828125,0.022680033841729164,-0.018596162061579526,-0.012834776390111073
1772806911458904000,3.385904052734375,0.04393032714128494,-0.005098108590301126,-0.02159521601339802
1772806911468836000,3.395836181640625,0.056793900367617604,-0.005232329429220408,-0.02671728086802177
1772806911478767900,3.405767822265625,0.01833528263568878,0.004110266596730798,-0.03041900319647975
1772806911488699000,3.415698974609375,0.03030804450213909,0.006542918837442993,-0.003830298877879977
1772806911498631000,3.425630859375,0.02850947064757347,-0.002871281119994819,0.00862875780132599
1772806911508563000,3.43556298828125,0.035838206100463864,0.0017082834889180958,0.028311372525896876
1772806911518495000,3.445494873046875,0.04466799376606941,0.0011057875511236489,0.022503654361516235
1772806911528426000,3.455426025390625,0.0454179353505373,0.0021337423593737184,0.00993686299151741
1772806911538358000,3.46535791015625,0.04093114532530308,0.004154690260346978,-0.008369129617605359
1772806911548290000,3.4752900390625,0.026866964137554166,-0.0018407690284773705,-0.02738791013858281
1772806911558222000,3.48522216796875,0.03390168507993221,-0.007787950462475418,-0.030368953509675337
1772806911568152800,3.49515283203125,0.03285305280983448,-0.006292944398056715,-0.01099338630712591
1772806911578084900,3.5050849609375,0.018785949012637138,-0.009479008821956812,0.0027737755622714755
1772806911588017000,3.515016845703125,0.037788171124458314,-0.018618903616350144,0.00806581755578518
1772806911597949000,3.524948974609375,0.026265491113066673,-0.002454425681103021,0.02306403732378967
1772806911607880000,3.5348798828125,0.027910920232534407,-0.0005665843741968274,-0.018810407600458712
1772806911617812000,3.54481201171875,0.035841713231801985,-0.005691800167132169,-0.00435064209070988
1772806911627744000,3.554743896484375,0.04571487247049808,-0.015850699278339743,0.017776315312366932
1772806911637676000,3.564676025390625,0.03957914619445801,-0.009171495509054512,-0.01027525549987331
1772806911647607000,3.57460693359375,0.036433249384164805,-0.0020253500814549625,0.011711791109014302
1772806911657538800,3.584538818359375,0.024610125121474265,0.0029838015837594864,0.03192468591853976
1772806911667470800,3.594470947265625,0.03672901746034622,-0.0003467858773656189,0.04229119076528586
1772806911677403000,3.60440283203125,0.054231940925121305,-0.005751585796661675,-0.012023633537162095
1772806911687334100,3.614334228515625,0.030437223839759824,-0.00535918894559145,-0.017833863319037482
1772806911697266000,3.624265869140625,0.04555471347272396,0.00313700111778453,-0.029341784152714535
1772806911707198000,3.634197998046875,0.02385784544944763,0.01270436407662928,-0.030440886234724893
1772806911717130000,3.6441298828125,0.026249709022045133,-0.007680526298936456,-0.014029511733166872
1772806911727061000,3.65406103515625,0.04300678255558014,0.010704148436430841,0.007306505354773253
1772806911736993000,3.663992919921875,0.041059740141034126,0.015932422745041547,0.005235699563240632
1772806911746924800,3.6739248046875,0.030584523355960843,0.0015961831502616405,-0.004075825471011921
1772806911756856800,3.68385693359375,0.046746553605794904,0.006957235259376466,0.0022968330997508017
1772806911766788000,3.6937880859375,0.04973521402776241,0.00964965268112719,-0.007673174109542742
1772806911776720100,3.70372021484375,0.0465899017393589,-0.003705686117522418,-0.01003530013100244
1772806911786652200,3.713652099609375,0.033275077614188193,0.0038616803968325253,-0.016166916487505657
1772806911796584000,3.723583984375,0.02340074933171272,-0.0003382372447289526,-0.0020895652909297493
1772806911806515000,3.733514892578125,0.02609481072127819,-0.005983860182575881,0.008958629076508805
1772806911816447000,3.743447021484375,0.04225801001489162,-0.015809253023099153,0.008929686109814792
1772806911826379000,3.75337890625,0.03642331251204014,-0.026594741333741692,0.024816315218061206
1772806911836310800,3.763310791015625,0.03417874845564365,-0.00039531946051865813,-0.022299884550878776
1772806911846242000,3.773241943359375,0.024899463456869123,0.0029796368652954697,-0.024597831895481793
1772806911856174000,3.783174072265625,0.03567161736190319,0.011198325161542743,-0.02039996008053422
1772806911866106000,3.793106201171875,0.030286417192220687,-0.006660827862378209,-0.010478623451711608
1772806911876038100,3.8030380859375,0.038218379235267635,-0.0014161686745472251,0.0027003632661886513
1772806911885969000,3.812968994140625,0.04061491898298263,-0.011704119259212165,0.0022796171034686267
1772806911895901000,3.82290087890625,0.033579028996825216,-0.0031142412967048584,0.011310178905026986
1772806911905833000,3.8328330078125,0.03791618141829967,0.0068038347959518426,0.005189540600264444
1772806911915765000,3.842764892578125,0.030885552129149434,0.013409808932244777,-0.019761598244914785
1772806911925696000,3.852696044921875,0.02983867342472076,0.011744542601145803,-0.02453461219985038
1772806911935628000,3.8626279296875,0.037169746965169906,0.007467230608128011,-0.009005062034120782
1772806911945560000,3.87256005859375,0.027291911551356313,0.008157149101048708,0.012326790335355326
1772806911955492000,3.8824921875,0.035521979758143425,-0.0028748430502600966,0.028097291383799163
1772806911965422800,3.8924228515625,0.042404725009202955,0.0025104301846586166,0.03623799167354591
1772806911975355000,3.90235498046875,0.04165712151229381,0.00024389175847172736,0.0149992974802386
1772806911985287000,3.912286865234375,0.03282908741235733,-0.017755217725411058,-0.02283305071266368
1772806911995219000,3.922218994140625,0.021012392890453337,-0.014897307543642819,-0.031804694534372534
1772806912005151000,3.93215087890625,0.035980244919657706,-0.01088595301043242,-0.01983675497351214
1772806912015082000,3.94208203125,0.04136661413311958,-0.0060627889039926225,0.004392682000994682
1772806912025014000,3.952013916015625,0.035979075875878334,-0.014714717518351971,0.024868967853905632
1772806912034946000,3.961946044921875,0.03418167106509209,-0.022169088644906878,0.03024086101744324
1772806912044878000,3.971878173828125,0.033732758253812785,-0.005473262045625597,0.02556737104738131
1772806912054809000,3.98180908203125,0.038517654442787166,-0.0038002142668701706,0.006967190397810191
1772806912064740900,3.991740966796875,0.03537409572005272,0.0031579343079589308,-0.0076083835113327945
1772806912074673000,4.0016728515625,0.02684767491519451,0.003959496481809765,-0.02205063163070008
1772806912084605000,4.01160498046875,0.0301420402854681,-0.004643277494888753,-0.026917004691204054
1772806912094536200,4.0215361328125,0.03882511295676231,-0.011456081048585474,-0.006326262145768851
1772806912104468000,4.031468017578125,0.037030630755424496,0.00039822380365803835,0.006143388992687687
1772806912114400000,4.04139990234375,0.019675006806850432,0.0004154306667856872,0.02603283313466236
1772806912124332000,4.05133203125,0.03240063286721706,0.006639328416623175,0.009283102657366543
1772806912134263000,4.061262939453125,0.04556991104185581,-0.002153561304695904,-0.02410401136339642
1772806912144195000,4.071195068359375,0.038083354678750035,-0.002955525337345898,-0.03279628112129867
1772806912154126800,4.081126953125,0.012344517788290977,-0.008496847650501876,-0.015004969169199465
1772806912164059000,4.091058837890625,0.03209317435324192,-0.006620020927954465,0.00881149395708926
1772806912173990000,4.100989990234375,0.042569560182094575,-0.007626914681866765,0.012963681733096017
1772806912183922200,4.110922119140625,0.03777940329611301,-0.007927797324582934,-0.00029777737017720935
1772806912193854200,4.120854248046875,0.018178630769252777,-0.002545245769713074,0.0005627941150683909
1772806912203786000,4.130785888671875,0.04376490744650364,0.001574300112016499,-0.004864628627989441
1772806912213717000,4.140717041015625,0.03568330779969692,-0.007309135703276843,-0.02845745733254589
1772806912223649000,4.15064892578125,0.025958617120981214,0.0015860270824283361,-0.012097703420370816
1772806912233581000,4.1605810546875,0.031495208460092544,-0.009818999632354825,-0.012752541466755791
1772806912243512800,4.170512939453125,0.041670565515756604,-0.01220763006825,0.00138653158810921
1772806912253443800,4.18044384765625,0.05229834251403808,-0.003039641690533608,0.0072730049439705905
1772806912263376000,4.1903759765625,0.03987783688008785,-0.0006505363306030631,0.01458069760883227
1772806912273308200,4.20030810546875,0.04795534487366676,0.0023258856642991302,-0.003698918450018391
1772806912283240200,4.210240234375,0.041669980993866915,-0.005545066906511784,-0.003673637878289446
1772806912293171000,4.2201708984375,0.029545827957987783,-0.0005015563139691948,-0.014605073998263106
1772806912303103000,4.23010302734375,0.029544658914208412,-0.0036221542862243947,-0.006165810887049883
1772806912313035000,4.240034912109375,0.03597966039776802,0.0038574060805141924,0.01231172976354137
1772806912322967000,4.249967041015625,0.038220717322826385,0.008503167793434113,0.01581081479252316
1772806912332897800,4.259897705078125,0.034033202505111694,0.005686996127851307,0.02242072531841695
1772806912342829800,4.269829833984375,0.019963760620355604,0.020428619919437913,0.010799498569685964
1772806912352761900,4.279761962890625,0.053182724133133887,0.007781246727053075,0.026623090645391492
1772806912362694100,4.289694091796875,0.016665303596854208,0.008890249148570001,-0.02985127717796713
1772806912372625000,4.299625,0.03970891005396843,-0.008850976584106683,-0.02251175546958111
1772806912382557000,4.309556884765625,0.023846155011653897,-0.009864501008205115,-0.009924186173034831
1772806912392489000,4.319489013671875,0.03267594267725944,-0.009658000384364276,0.010698540679551661
1772806912402421000,4.3294208984375,0.023252865293622017,-0.015795955150108783,0.008501724755018949
1772806912412352000,4.33935205078125,0.03552899402081966,-0.012339458020683378,0.008566451421147212
1772806912422283800,4.34928369140625,0.04166822742819786,-0.015479418280534445,0.00040988684198819096
1772806912432215800,4.3592158203125,0.03418751628398895,-0.009692907300963997,-0.0012562014730181544
1772806912442147600,4.369147705078125,0.033439912787079806,-0.01470425092326477,-0.0011655914469622076
1772806912452078600,4.37907861328125,0.03373568086326122,-0.01171858617598191,-0.009175294901337474
1772806912462010600,4.3890107421875,0.02699965060651302,-0.006918437618948519,-0.004620572472736239
1772806912471942700,4.398942626953125,0.038222470888495445,0.0018783245598897338,0.018487696718424557
1772806912481874700,4.408874755859375,0.027595862933993336,-0.008406484219618142,-0.0009491265515331178
1772806912491805400,4.418805419921875,0.026548399707674978,0.001284011928550899,0.003002716346783563
1772806912501737500,4.428737548828125,0.038815760606527326,0.010891268506366758,0.003457501776423305
1772806912511669800,4.438669677734375,0.019058920735120773,0.00587239916473627,-0.002988130699004978
1772806912521601800,4.448601806640625,0.04285305329859256,0.015309176280163228,-0.0046937747062649575
1772806912531532500,4.458532470703125,0.043747956311702724,0.01276634166324511,-0.0005620725958608091
1772806912541464600,4.468464599609375,0.039110359638929365,0.015394534742366522,0.00018409699578769505
1772806912551396600,4.478396728515625,0.036865211060643194,0.009706113842409103,0.0019144553191959856
1772806912561328600,4.48832861328125,0.03686170392930507,0.009201525321137159,0.007023414097074419
1772806912571259400,4.49825927734375,0.03401858945786953,0.0053975664609111846,-0.013202166664088143
1772806912581191400,4.50819140625,0.025938158854842186,-0.00513040342470631,-0.009176747072907164
1772806912591123500,4.51812353515625,0.026682839742302893,-0.003734638217370957,-0.0017498210757039487
1772806912601055700,4.5280556640625,0.03985562504827976,-0.019495430722553282,0.004725220157299191
1772806912610987800,4.53798779296875,0.029231939703226087,-0.021300763111468404,-0.016713490120135246
1772806912620918500,4.54791845703125,0.024146599262952803,-0.021079813837166873,-0.004356012385571375
1772806912630850600,4.5578505859375,0.0379150123745203,-0.011586155435349792,0.016442089300230143
1772806912640782600,4.567782470703125,0.03462356961369514,-0.0077178261020220814,-0.00422750890138559
1772806912650714600,4.577714599609375,0.03701894031763077,-0.02240673332568258,-0.0057639155552722515
1772806912660645400,4.587645263671875,0.03776595929265022,-0.018535408317670227,-0.008347210046742111
1772806912670577400,4.597577392578125,0.03147884184718132,-0.010055950193386525,-0.005505273752240464
1772806912680509400,4.607509521484375,0.035817747834324835,-0.004770758065767586,-0.009476871663797647
1772806912690441700,4.617441650390625,0.027736732709407803,-0.0013177680676802993,-0.004043137910962105
1772806912700372700,4.627372802734375,0.043590719923377035,0.013159523965604603,-0.0012482830280438064
1772806912710304500,4.637304443359375,0.051067339414358134,0.005119169644638896,0.02225841089617461
1772806912720236500,4.647236572265625,0.011858780097961425,-0.011048121302202344,-0.011679624138772486
1772806912730168600,4.65716845703125,0.06542611963450909,0.022559147408418356,0.012432579664234071
1772806912740099600,4.667099609375,0.01709434266388416,0.016329294841829687,-0.015968124246085062
1772806912750031600,4.677031494140625,0.0477706359565258,-0.0040826479374431075,-0.006048258055141195
1772806912759963400,4.68696337890625,0.042533319824934,0.008824709631688892,0.006154558840673416
1772806912769895700,4.696895751953125,0.035651743617653844,-0.00019566870257258415,-0.003073726623225957
1772806912779826700,4.70682666015625,0.03759644794464111,-0.0070395797805860635,0.0072102419060654935
1772806912789758700,4.7167587890625,0.03714753513336182,0.006136402129475027,0.0071968892341479655
1772806912799690500,4.7266904296875,0.034898879423737525,-0.005652673733141273,0.0036202454569283873
1772806912809622500,4.73662255859375,0.02861877624094486,0.0022286541012115774,-0.00251092337500304
1772806912819553500,4.746553466796875,0.03610416356027126,-0.00016713672783225773,-0.009998895377060397
1772806912829485600,4.756485595703125,0.04193769201934337,-0.00023894158871844409,-0.014769772173836826
1772806912839417600,4.76641748046875,0.037300095346570014,0.004661306341923773,0.0073404350238386535
1772806912849349400,4.776349365234375,0.03834755857288837,-0.0032809213668107983,0.010561917820991947
1772806912859280600,4.78628076171875,0.03849602713286877,0.0024591749214567245,0.007261177508858963
1772806912869212700,4.796212646484375,0.033708792856335636,-0.008680679784808307,-0.0014215298362541943
1772806912879144700,4.806144775390625,0.032359131813049315,0.004856755848787725,0.004558412223029881
1772806912889076700,4.81607666015625,0.05046645091176033,0.00450635324222967,-0.003205700706131756
1772806912899007500,4.826007568359375,0.03325929552316666,0.005423760348092764,-0.008972548004006967
1772806912908939500,4.835939453125,0.04044131598174572,0.003733469173591584,-0.011522734810318798
1772806912918871600,4.84587158203125,0.03864391117095947,0.002411463322211057,-0.0009098265876062214
1772806912928803600,4.855803466796875,0.024727029499411583,0.003172876148764044,0.021859474706463513
1772806912938734600,4.865734619140625,0.04103986639678478,-0.0033447986495681106,-0.004821118279825896
1772806912948666600,4.87566650390625,0.03475684060454368,-0.0016449907280504702,0.006238994854269549
1772806912958598700,4.8855986328125,0.04822480946481228,-0.000006977730058133601,-0.019109226150251925
1772806912968530700,4.89553076171875,0.03505319320261478,0.00804219921818003,-0.012760962235229089
1772806912978461400,4.90546142578125,0.03879179520905018,-0.0004823949557729065,-0.0021613792849704623
1772806912988393500,4.9153935546875,0.0467161584675312,-0.004033749028109014,0.009391248340113088
1772806912998325500,4.925325439453125,0.019637597405910492,0.0034186128044500943,-0.015070709615480155
1772806913008257500,4.935257568359375,0.03175941235423088,0.0005541632840409874,0.016930585203226656
1772806913018189600,4.945189453125,0.031012393379211425,-0.01798455123556778,0.002337786164646968
1772806913028120600,4.95512060546875,0.026823124995827674,-0.0038998021838255225,-0.020173567446134983
1772806913038052600,4.965052490234375,0.03684884444773197,-0.018258965996466574,-0.0006488101643975823
1772806913047984600,4.974984619140625,0.034305589705705644,-0.0007826017450541258,-0.000055767041537910694
1772806913057916700,4.984916748046875,0.0441805025100708,-0.004195296265371144,0.011572629233496263
1772806913067847400,4.994847412109375,0.02891805144846439,-0.013159944090712816,0.008760996745713054
1772806913077779500,5.004779541015625,0.042837271207571026,0.00902640621624887,0.010031802132818847
1772806913087711500,5.01471142578125,0.044182256075739855,0.007942538235988467,-0.007111494239326566
1772806913097643500,5.0246435546875,0.03864508021473884,0.0027601123631000517,-0.007161470860894769
1772806913107574800,5.03457470703125,0.053905193188786504,0.008364179447852074,-0.005655578076280653
1772806913117506600,5.044506591796875,0.03160685214102268,0.01131948558948934,-0.0028370774562936274
1772806913127438600,5.0544384765625,0.023970658174157142,-0.004484232741966843,0.01045986395231448
1772806913137370600,5.06437060546875,0.04177402589023113,-0.010872289811260998,0.018938609690545127
1772806913147301600,5.074301513671875,0.02321779398024082,0.0025050416234880684,-0.0017213256335817276
1772806913157233700,5.084233642578125,0.04057575601637363,-0.007351221279334277,-0.008396382950711994
1772806913167165400,5.09416552734375,0.03324585151970386,0.008579320035874843,-0.0018656568745616822
1772806913177097500,5.104097412109375,0.04386895234286785,0.007255615417752414,-0.006886298048170283
1772806913187028700,5.11402880859375,0.045664603587985034,-0.0054446204730309545,-0.0022763839667662975
1772806913196960800,5.123960693359375,0.052397711235284805,-0.0024031704179011282,-0.0078728887995705
1772806913206892500,5.133892578125,0.04671206681430339,0.007335640117712318,0.006983703141193836
1772806913216824600,5.143824462890625,0.017530980515480042,-0.00019921236652880906,-0.006948010773304849
1772806913226755600,5.153755615234375,0.05224865815341472,0.010309632693510502,-0.0017748093864880501
1772806913236687600,5.1636875,0.02711070976555347,0.0075748374347575,-0.0011752817239146678
1772806913246619600,5.17361962890625,0.03998246629834175,-0.0030542547377757725,-0.0014534502113237977
1772806913256551400,5.183551513671875,0.02786415848135948,-0.006223532423656433,-0.01157318635592237
1772806913266482700,5.193482666015625,0.036544308543205256,-0.0017018172155134378,-0.0054249659244902425
1772806913276414700,5.203414794921875,0.021878069809079168,-0.01006733010392636,0.002969836990488693
1772806913286346800,5.2133466796875,0.043424715706706044,0.010302654963452368,0.007827040363848209
1772806913296278800,5.22327880859375,0.04222819939851761,0.004276764003746211,0.011283939352072775
1772806913306209500,5.23320947265625,0.03384907810986042,-0.014725458108074962,-0.012530359216593205
1772806913316141600,5.2431416015625,0.03564531387686729,-0.01909112423798069,-0.0034534466558136046
1772806913326073600,5.253073486328125,0.03564531387686729,-0.000801580440159887,-0.0015601163230370728
1772806913336005600,5.263005615234375,0.038036008405685426,-0.010600761127192526,0.017635591667424885
1772806913345936600,5.2729365234375,0.05030395382642746,0.00024297844301909206,0.0027183099148329346
1772806913355868700,5.28286865234375,0.04431728063225746,-0.01755717440266162,0.0031361517344135788
1772806913365800700,5.29280078125,0.030550036564469335,-0.010364943077322095,0.013067680963687598
1772806913375732700,5.302732666015625,0.02740706236362457,-0.00020118512790650127,-0.0013859014004468917
1772806913385663500,5.31266357421875,0.047155718928575514,-0.009263996098097414,-0.0033795411693863567
1772806913395595500,5.322595458984375,0.04849778118729591,-0.007856942311767489,0.011659202405251562
1772806913405527600,5.332527587890625,0.02246317622065544,-0.0030377054617740213,-0.013040674225753172
1772806913415459600,5.34245947265625,0.04476034822463989,0.003311553967092186,0.0002153323842678219
1772806913425390600,5.352390625,0.03413958548903465,-0.00474377872729674,-0.02233406081511639
1772806913435322600,5.362322509765625,0.03159107005000114,-0.011753182565327733,-0.005202153486665338
1772806913445254400,5.37225439453125,0.038920974546670914,-0.0014356588263064623,-0.006597836495609953
1772806913455186400,5.3821865234375,0.03517944993078709,-0.018351795379072427,0.0008168693408370018
1772806913465118500,5.392118408203125,0.04490238704383373,-0.004757569790631532,0.02317693224688992
1772806913475049500,5.402049560546875,0.030531916385889053,0.0019423297068104147,0.018336269016377627
1772806913484981500,5.4119814453125,0.0430997215360403,0.0014194200775586067,0.005325104012899101
1772806913494913300,5.421913330078125,0.03502279806435108,-0.006897668825555593,0.006549604306556284
1772806913504845300,5.43184521484375,0.03263034996986389,-0.003638173839263618,0.001955225721001625
1772806913514776600,5.441776611328125,0.026792729857563972,-0.020927838145848362,0.004191031082207337
1772806913524708600,5.45170849609375,0.040406829190254206,-0.002522887807432562,-0.013930572270182892
1772806913534640600,5.461640625,0.03681085052490234,-0.001379928317386657,0.00007138473577797413
1772806913544572400,5.471572509765625,0.031869886991381643,-0.01163859800864011,-0.0035124651003628966
1772806913554503400,5.48150341796875,0.023187983363866804,0.0004031739734113216,-0.01460996936908923
1772806913564435500,5.491435546875,0.015257190364599226,-0.005291786265186965,0.003929704131744802
1772806913574367500,5.501367431640625,0.03980009546875953,-0.001844659752305597,-0.007799905761750415
1772806913584299300,5.51129931640625,0.044887773996591565,0.0042474100450985135,0.0004028908456210047
1772806913594230500,5.52123046875,0.036359015104174615,0.022913696467131376,0.01870017042532563
1772806913604162600,5.53116259765625,0.028874796828627584,0.022069829521514473,0.010424144184961914
1772806913614094600,5.541094482421875,0.03321545638144016,0.010354914873652159,0.00039428741405718025
1772806913624026600,5.551026611328125,0.036954058387875556,0.004617101874016225,-0.004840005643386393
1772806913633957400,5.560957275390625,0.034708325287699696,-0.0029690241397358477,0.001019661903940141
1772806913643889400,5.570889404296875,0.03321253377199173,0.006413684700895101,-0.0005807864294853061
1772806913653821400,5.580821533203125,0.03575461947023868,0.00004067907026037574,-0.006234081217134371
1772806913663753500,5.59075341796875,0.030065467917919156,-0.009896814108919351,0.004164380537299439
1772806913673684500,5.6006845703125,0.034407296514511104,-0.005840323526039719,0.006455423217080533
1772806913683616500,5.610616455078125,0.02453355275392532,-0.02701420885482803,-0.008091426921077073
1772806913693548500,5.620548583984375,0.03216623958945274,-0.03381851857481524,-0.001626897948933765
1772806913703480600,5.63048046875,0.043240591311454774,-0.0017850933184847234,0.0007922280899249017
1772806913713411300,5.640411376953125,0.035761049211025235,0.0007114179386757314,-0.006668024788144975
1772806913723343400,5.65034326171875,0.03291676569581031,-0.001790408814419061,-0.007862431337637827
1772806913733275400,5.660275390625,0.03591127133667469,0.00011204553972929716,0.00674056030139327
1772806913743207400,5.67020751953125,0.032168577677011485,-0.0037813999685458836,-0.005554474055673927
1772806913753138400,5.680138427734375,0.032767712613940236,-0.0002815203551203012,-0.020574613394541665
1772806913763070500,5.690070556640625,0.039050153884291644,0.011622231395728886,-0.004985505928145721
1772806913773002500,5.70000244140625,0.03381225323081016,0.01494911079611629,0.0075771937886253
1772806913782934500,5.7099345703125,0.04039923040568828,0.012279599325917661,0.004266279142349958
1772806913792865500,5.719865478515625,0.038304303953051566,0.007085811808798461,0.003865653319051489
1772806913802797300,5.72979736328125,0.05192015685141086,-0.0013817001493647693,-0.0063857007154263555
1772806913812729300,5.739729248046875,0.041594577670097346,0.018284739758539944,-0.01709061633683741
1772806913822661400,5.749661376953125,0.04863105217814445,0.0009715667122043669,0.0001880425185430795
1772806913832592400,5.75959228515625,0.03426759578287601,0.00045490416064858434,-0.005834752301778644
1772806913842524400,5.7695244140625,0.03815934252440929,0.009578943798784167,0.0022608758703805505
1772806913852456400,5.77945654296875,0.03816109609007835,-0.017247122072800995,-0.000966470411978662
1772806913862388500,5.789388427734375,0.05133388139605522,-0.017061134514026344,-0.0035211324640084057
1772806913872320500,5.799320556640625,0.025749942806363103,-0.0018126389125362038,0.012874843539018183
1772806913882251500,5.80925146484375,0.028294366592168805,-0.009418182012811303,-0.004316849418962374
1772806913892183600,5.81918359375,0.029045477220416067,-0.008421079000551253,0.001962340448377654
1772806913902115300,5.829115234375,0.024108605340123174,0.007234353434015065,0.009437854827661067
1772806913912046300,5.83904638671875,0.039216742622852324,0.01093218503864482,0.006396486970921978
1772806913921978400,5.848978271484375,0.01752104364335537,0.00745143025079742,0.0005959748654626309
1772806913931910400,5.858910400390625,0.031737785044312475,0.010873495387658477,-0.002313811634015292
1772806913941842400,5.868842529296875,0.028594226321578025,0.016068963405210523,0.005355435219081118
1772806913951774500,5.8787744140625,0.031140403673052788,0.010923234547208994,-0.016483179362444207
1772806913961705500,5.88870556640625,0.039517186874151226,0.0167425518178381,-0.0022532953521236776
1772806913971637500,5.898637451171875,0.04579729005694389,-0.0035926359307952224,-0.013411608163686469
1772806913981569500,5.908569580078125,0.043703532648086546,-0.00035420199884101744,-0.012221740791993214
1772806913991501300,5.918501220703125,0.033382045120000835,0.0018905264543369411,0.0029098138989415018
1772806914001432300,5.928432373046875,0.04400514594316482,0.009800952519010753,0.006987602998176589
1772806914011364400,5.9383642578125,0.04026479037106037,0.005591536396741867,-0.005582969497796147
1772806914021296400,5.94829638671875,0.02395896773636341,-0.009574030161648988,0.008313125114049762
1772806914031228400,5.958228515625,0.016625556108355522,-0.012699395640566944,0.0012379351639654488
1772806914041159400,5.968159423828125,0.03129354840815067,-0.0039657252931967375,-0.0019783691345714033
1772806914051091500,5.978091552734375,0.03951894043982029,-0.002931998331286013,-0.01025780204157345
1772806914061023500,5.9880234375,0.035626024654507635,-0.0012508403113111852,-0.014549736214987933
1772806914070955500,5.99795556640625,0.030092940446734426,0.0039943485994823275,-0.0008081563114188611
1772806914080886300,6.00788623046875,0.04176467353999615,-0.0018120726569555699,0.004070235980441794
1772806914090818300,6.017818359375,0.030991350591182708,-0.004295322573743761,-0.001792536839423701
1772806914100750300,6.027750244140625,0.026504560565948486,-0.0015268259747885167,0.004914157724985852
1772806914110682400,6.037682373046875,0.049096331602334974,-0.0007645728980191052,-0.021763686181791125
1772806914120613400,6.04761328125,0.03607669103145599,-0.003597385171148926,-0.006866835295874625
1772806914130545400,6.05754541015625,0.025750527328252792,0.003715878717973828,-0.011811607354832812
1772806914140477400,6.0674775390625,0.005699088424444198,-0.00333763825641945,0.0023284520807210353
1772806914150409500,6.077409423828125,0.03053542351722717,0.006686181499343365,-0.004839585518278181
1772806914160340500,6.087340576171875,0.034276948133110996,-0.0005379428016021847,-0.004347262823535129
1772806914170272300,6.097272216796875,0.044452889710664745,0.0021399529044516382,-0.0030366825484670697
1772806914180204300,6.107204345703125,0.041759997364878655,-0.0003005173165351152,-0.005994792568543925
1772806914190136300,6.11713623046875,0.03801788822710514,-0.006263133781682699,0.008757124288193882
1772806914200067600,6.127067626953125,0.05597556972205638,-0.0009435279278084635,-0.0018182558025699109
1772806914209999400,6.136999267578125,0.02454933484494686,-0.0018655929424799978,0.0007412650876678526
1772806914219931400,6.146931396484375,0.04295476010739803,-0.00870163124129176,0.008430787543812766
1772806914229863400,6.156863525390625,0.040409751799702645,0.001131232519634068,0.012990103949140757
1772806914239794400,6.16679443359375,0.05043371768593788,-0.01309186555687338,-0.002532185358740389
1772806914249726500,6.1767265625,0.02065408097207546,-0.0014528474231250584,-0.005109360636677593
1772806914259658200,6.186658203125,0.02633738730549812,-0.008431856122892349,-0.0005653879309538752
1772806914269590300,6.19659033203125,0.03755670045614242,-0.0173045513484627,-0.013355439263349398
1772806914279521500,6.206521484375,0.035761049211025235,0.003593786708265543,-0.02176602426934987
1772806914289453600,6.21645361328125,0.022746084815263745,0.008746347165852784,-0.01157453806279227
1772806914299385600,6.226385498046875,0.03531739709675312,-0.00567411837996915,0.005875988494465127
1772806914309317400,6.2363173828125,0.04639233334064483,-0.008542385558970272,0.0039711686532944435
1772806914319249400,6.24624951171875,0.026191256833076475,0.0018964447384700177,0.007482556041423231
1772806914329180400,6.256180419921875,0.03202595433592796,-0.005227086998522281,0.010958698586234822
1772806914339112400,6.266112548828125,0.03232230693399906,-0.007725370087660849,-0.0009542228517588228
1772806914349044200,6.276044189453125,0.03501519927978516,-0.002061426041834056,-0.007883099666330964
1772806914358976300,6.285976318359375,0.029329554858803748,0.009043594813067466,-0.01130085395425558
1772806914368907500,6.295907470703125,0.04354629625976086,0.004565444752015173,0.004480533814383671
1772806914378839600,6.305839599609375,0.025589199286699293,0.00799008543845266,-0.0025925189775414764
1772806914388771600,6.315771484375,0.03202244720458984,-0.01129066135380417,-0.0057917534102685745
1772806914398703400,6.325703369140625,0.040998949864506716,-0.005182224943488836,-0.0029612518252339214
1772806914408634400,6.33563427734375,0.029774960538744923,-0.003988192853331566,-0.0055717083182651546
1772806914418566400,6.34556640625,0.04937748663127422,0.0029070100205019116,-0.006805953687801957
1772806914428498200,6.355498291015625,0.03920212957561016,-0.000371427128277719,-0.004439845610968768
1772806914438430200,6.36543017578125,0.036811435046792025,-0.0009507248535752296,-0.00535305146574974
1772806914448361500,6.375361572265625,0.037110710254311556,0.00021307649509981274,0.02149181957100518
1772806914458293200,6.385293212890625,0.033223639687895774,0.0027591259824112056,0.0017392266164533792
1772806914468225300,6.395225341796875,0.03337561537921428,0.006146302468981593,-0.004525998657615855
1772806914478157300,6.4051572265625,0.02918576247394085,-0.0013321984518319368,0.006276760448236018
1772806914488088300,6.41508837890625,0.02709258958697319,-0.0009506883209571241,-0.010212254999950527
1772806914498020400,6.425020263671875,0.0272445652782917,0.001656863828934729,-0.013269359281938523
1772806914507952000,6.4349521484375,0.040864509829878805,0.0034132790422067042,-0.0016940723004750906
1772806914517884200,6.44488427734375,0.029342998862266538,0.00833248740164563,-0.007102963872998952
1772806914527815400,6.4548154296875,0.03816869487464428,0.00592599251549691,-0.015650390933267772
1772806914537747500,6.46474755859375,0.031135142976045607,0.007991875536739825,0.0015767751968931406
1772806914547679500,6.474679443359375,0.03383154245316982,-0.014767945542931557,0.005020266714273021
1772806914557611300,6.484611328125,0.02276420499384403,0.0082586915130727,-0.007146583819016814
1772806914567542300,6.494542236328125,0.0321896204650402,0.0037021972524933513,-0.01944052219754085
1772806914577474300,6.504474365234375,0.03383271149694919,-0.004853814973030239,-0.0002517736708279699
1772806914587406300,6.51440625,0.04251519964635372,0.004069861521106213,0.006001423238730058
1772806914597338000,6.524338134765625,0.03129121032059193,-0.0028444296456873416,0.005273446890898048
1772806914607269400,6.534269287109375,0.02306055759191513,0.00045621933490037913,0.009773900115303694
1772806914617201400,6.544201416015625,0.03248421949744224,0.010704641626775264,-0.001133378810947761
1772806914627133400,6.554133544921875,0.0266477684289217,0.005060900118760764,0.0021209102772641927
1772806914637065500,6.5640654296875,0.03652209671139717,0.007213383711222559,0.0020075678295921533
1772806914646996200,6.573996337890625,0.03667056527137756,0.006084818072710186,-0.009364488197350874
1772806914656928300,6.58392822265625,0.03307692469358444,-0.0024498591038398443,-0.012049233769299462
1772806914666860300,6.5938603515625,0.04026011419594288,-0.010783698212355374,0.0029190018523950127
1772806914676792300,6.603792236328125,0.032031799554824825,-0.01676812465051189,0.0049844738816842435
1772806914686723300,6.613723388671875,0.023055881416797635,-0.01785294247884303,0.0069466225338168435
1772806914696655400,6.6236552734375,0.04804243863523006,-0.016347031427919864,0.005719765886291861
1772806914706587400,6.63358740234375,0.04624620286822319,-0.017207630312629042,0.012139259273465722
1772806914716519400,6.64351953125,0.03457797690629959,-0.015096702573262155,-0.0038961306557059286
1772806914726450200,6.6534501953125,0.027392449316382406,-0.003737615625746548,0.004498087737383321
1772806914736382200,6.66338232421875,0.04340133483111858,0.0037216326053254303,-0.00972374996379949
1772806914746314200,6.673314208984375,0.028885318222641943,-0.0078026731075719,-0.0035901882453821597
1772806914756246300,6.683246337890625,0.04189969809651375,0.007701167228166013,-0.008496509723784402
1772806914766177500,6.693177490234375,0.030076573833823204,-0.0029018589213490485,-0.014371438772324472
1772806914776109300,6.703109375,0.03636076866984367,0.006233871154580265,0.002560963928652927
1772806914786041300,6.713041259765625,0.038454526078701014,0.0076601958969607946,-0.002745079190749675
1772806914795973400,6.722973388671875,0.03815525087118148,0.008376271744444965,0.010214090764010324
1772806914805905400,6.732905517578125,0.032172084808349606,0.00826186985084787,0.0053433611887972795
1772806914815836400,6.74283642578125,0.029627661022543904,0.0027704876266419886,-0.015804923907853662
1772806914825768200,6.752768310546875,0.04638590359985828,0.018893939431756733,0.004217772958660498
1772806914835700200,6.7627001953125,0.046082536739110946,-0.008917356351204216,0.004399358336953446
1772806914845632300,6.77263232421875,0.017352116817235946,-0.006096307581104338,-0.00603337101326324
1772806914855563500,6.7825634765625,0.03275894478559494,-0.0019875205554068087,0.0013436879602260886
1772806914865495300,6.792495361328125,0.06281622939705848,0.00012541647795587778,0.03653375974972732
1772806914875427300,6.80242724609375,0.002069207489490509,-0.005432564709056169,-0.036454620965756475
1772806914885359400,6.812359375,0.01030219830572605,-0.008869261159468442,-0.037666152179986236
1772806914895290400,6.822290283203125,0.06626023237109184,-0.005683945654239506,0.029668257894413543
1772806914905222400,6.832222412109375,0.025706688186526296,0.005677442848216742,-0.017493498049303887
1772806914915154200,6.842154296875,0.01628010367155075,0.007265881083440035,-0.007709843724966049
1772806914925086200,6.852086181640625,0.04201777151823043,-0.003017027999926358,0.022620458274753764
1772806914935017500,6.862017578125,0.02960135753750801,0.007924271926935761,0.0027123459649272263
1772806914944949500,6.871949462890625,0.03483984271287918,0.0017399390025064348,0.017960494506545365
1772806914954881500,6.881881591796875,0.030951018580794333,-0.00598526668837294,-0.004473556084325537
1772806914964813300,6.891813232421875,0.02750993821620941,-0.0013528941799886523,-0.01809347323644906
1772806914974744300,6.901744384765625,0.029454642543196675,-0.005958597877155989,-0.020665963206114246
1772806914984676400,6.91167626953125,0.021527356675267218,-0.007029113185498863,0.0029887426203582435
1772806914994608400,6.9216083984375,0.027070962277054786,-0.0009372808501124381,0.00023834793367423116
1772806915004540200,6.9315400390625,0.030367081212997436,-0.011670490984246135,-0.00038698089043609794
1772806915014471200,6.94147119140625,0.03395721465945244,-0.0016134813449345529,-0.013344570809463038
1772806915024403500,6.951403564453125,0.020337854629755018,-0.005280424620956182,-0.01597095552398823
1772806915034335500,6.96133544921875,0.034253567257523536,-0.012005294162873178,-0.0012714173084590584
1772806915044267500,6.971267578125,0.0462239910364151,-0.00497952371193096,-0.0037390951967798173
1772806915054198300,6.9811982421875,0.04352934512495994,0.01058127097543329,-0.0017105850438587367
1772806915064130300,6.99113037109375,0.03035948242843151,-0.0044957222503609956,0.006778033634414896
1772806915074062300,7.001062255859375,0.03559621403813362,-0.005090491539426148,0.0060996868482790885
1772806915083994400,7.010994384765625,0.039488545301556585,0.0017726539620198309,-0.013178621391719207
1772806915093925000,7.020925048828125,0.03589899637699127,-0.005241681779455393,0.00837966927792877
1772806915103857200,7.030857177734375,0.036195933496952055,-0.00950335781192407,0.0019567692241165787
1772806915113789400,7.04078955078125,0.027964696246385572,0.00024250351898372173,-0.008865699229203165
1772806915123721500,7.050721435546875,0.03694119890630245,-0.005816138932853937,0.006277271904889494
1772806915133652200,7.06065234375,0.02915653637945652,0.006171966633200645,-0.00795943457186222
1772806915143584300,7.070584228515625,0.04860650225877761,-0.012745262342598289,0.0019837028968147934
1772806915153516300,7.080516357421875,0.03513736435472965,-0.0025373181915841997,0.010776181626180187
1772806915163448300,7.0904482421875,0.04695815052986145,-0.009421250752732157,-0.012519636893179267
1772806915173379300,7.10037939453125,0.0269090497136116,-0.005235763495322316,0.0012284914821851997
1772806915183311000,7.11031103515625,0.027205986833572386,0.002043050134927034,0.005153446373576298
1772806915193243400,7.120243408203125,0.025561142235994337,0.022464747123233972,-0.0037635446514468636
1772806915203175400,7.130175537109375,0.02317161675095558,-0.012068678255286068,-0.010263839056715369
1772806915213106400,7.1401064453125,0.032148703932762146,-0.01459839766230434,-0.0018003639528527855
1772806915223038200,7.1500380859375,0.032298926058411594,-0.0024329627679660916,0.0004667955278418958
1772806915232970200,7.15997021484375,0.043972412717342375,0.0002852101495489478,0.012259433320723474
1772806915242902300,7.16990234375,0.042775896409153934,0.010813801089674233,0.001457003008434549
1772806915252833300,7.179833251953125,0.024819968479871748,0.007261880761757492,0.0018173972860444337
1772806915262765300,7.189765380859375,0.038140053302049635,0.0009678403851576149,0.0024085315796080974
1772806915272697000,7.199697021484375,0.046070261779427524,0.008735478711966425,-0.004838955330615863
1772806915282629400,7.20962939453125,0.01838321343064308,-0.0004487666808068752,-0.0036544673869386315
1772806915292561400,7.2195615234375,0.0219768540084362,0.006439275799877941,-0.01537382988105528
1772806915302492400,7.229492431640625,0.04038286379277706,-0.005070471664704382,0.007742284689843654
1772806915312424400,7.239424560546875,0.0411304672896862,-0.008373951923195273,0.0022623463082592932
1772806915322356200,7.249356201171875,0.03200081989467144,0.00857511878479272,-0.006330445130541921
1772806915332288300,7.259288330078125,0.027530981004238127,-0.0010014503938145934,-0.013145276244543492
1772806915342219300,7.26921923828125,-0.05921031385958194,0.00553565975734964,-0.07663718554661608
1772806915352151300,7.2791513671875,0.062169748187065124,0.0013752156096510587,0.029316467048367482
1772806915362083000,7.2890830078125,0.05935235267877578,-0.007202496991027146,0.012347677859757095
1772806915372015400,7.299015380859375,0.027054011142253875,-0.0069881601206026964,-0.009374717330420388
1772806915381946400,7.3089462890625,0.04741875377893447,0.009283230521529913,0.02198521997798234
1772806915391878400,7.31887841796875,0.0462239910364151,-0.009427643960900603,0.027242428120132535
1772806915401810400,7.328810546875,0.04741466212570667,-0.00309352730223909,0.018644092856533824
1772806915411742200,7.3387421875,0.05278758733570575,0.0020796558182686565,0.020296326176123692
1772806915421673200,7.348673095703125,0.054712417918443675,-0.012276987243723123,-0.00021871165144257245
1772806915431605800,7.358605712890625,0.041672319081425664,-0.0021610504914075135,-0.00004135492369532585
1772806915441537500,7.36853759765625,0.040001170998811716,0.003002597615774721,-0.00262211039820686
1772806915451469600,7.378469482421875,0.036245033335685725,0.00860947771212086,-0.01266236983211711
1772806915461400800,7.38840087890625,-0.012534487402439117,0.010551332494895904,-0.032815643408894535
1772806915471332900,7.398332763671875,0.03445347374379635,-0.002761354472115636,0.010303093354869633
