time,seconds_elapsed,z,y,x
1772806908078383600,0.005383544921875,0.0009717874927446246,0.021767346188426018,0.0010404969798400998
1772806908088315600,0.015315673828125,-0.0006141249323263764,0.00631888210773468,-0.0003832288784906268
1772806908098247700,0.02524755859375,-0.001139033935032785,0.006312224548310041,-0.0034109766129404306
1772806908108178700,0.0351787109375,-0.0002897519152611494,0.012054798193275928,-0.0010783139150589705
1772806908118110700,0.04511083984375,-0.001407214323990047,0.010321080684661865,-0.00018562232435215265
1772806908128042800,0.055042724609375,-0.0008572715451009572,-0.0007195860962383449,-0.003662645351141691
1772806908137974800,0.064974853515625,0.0003680488734971732,-0.005662412848323584,-0.001347825862467289
1772806908147905800,0.07490576171875,-0.0015867113834246993,0.010672884061932564,0.0025952504947781563
1772806908157837600,0.084837646484375,0.0015635418239980936,0.002752110594883561,0.0014570154016837478
1772806908167769600,0.09476953125,-0.0010815097484737635,0.002993126632645726,-0.0020157466642558575
1772806908177701600,0.10470166015625,-0.00296250032261014,0.020719392225146294,0.00043809000635519624
1772806908187633700,0.114633544921875,-0.00009081379539566115,0.008169779554009438,-0.0009483516332693398
1772806908197565000,0.12456494140625,-0.0008831042214296758,-0.004652276169508696,0.00015233281010296196
1772806908207496700,0.13449658203125,-0.0012311793398112059,0.009435580112040043,-0.0009499495499767363
1772806908217428700,0.1444287109375,0.0006021407316438854,0.005548163317143917,0.002636529505252838
1772806908227360800,0.15436083984375,0.0007707187905907631,0.001537975505925715,0.0010290454374626279
1772806908237291800,0.164291748046875,-0.001044225413352251,0.010931743308901787,0.0012040151050314307
1772806908247223600,0.1742236328125,-0.00022743394947610795,0.006601709872484207,-0.0019033611752092838
1772806908257155600,0.184155517578125,-0.0024258734192699194,0.0009709885343909264,-0.0016695356462150812
1772806908267087600,0.194087646484375,-0.0009440905996598303,0.008836634457111359,-0.001496430253610015
1772806908277019000,0.204018798828125,-0.001745968358591199,-0.00021118867152836174,-0.00046365635353140533
1772806908286951000,0.213950927734375,-0.0031425300985574722,-0.0035931370221078396,-0.0003278351214248687
1772806908296882700,0.223882568359375,-0.00023755396250635386,0.0098038949072361,0.0011598066193982959
1772806908306814700,0.233814697265625,-0.0002234392159152776,0.013230318203568459,-0.0008823052630759776
1772806908316745700,0.243745849609375,0.0012855078093707561,0.0065045044757425785,-0.003829359309747815
1772806908326677800,0.253677734375,-0.000657534459605813,0.013441773131489754,0.0025001754984259605
1772806908336609800,0.26360986328125,-0.0004942826926708221,0.0052115400321781635,0.0001781654718797654
1772806908346541600,0.27354150390625,-0.002356098499149084,0.0015129417879506946,-0.0022011026740074158
1772806908356472800,0.283472900390625,-0.000505734293255955,0.006734335329383612,0.0013619405217468739
1772806908366404900,0.29340478515625,-0.004577973857522011,0.004156395327299833,0.0005510080372914672
1772806908376337000,0.3033369140625,0.0008101335843093693,0.002027997048571706,0.00006311691686278209
1772806908386268700,0.3132685546875,0.0004165183927398175,0.011301656253635883,-0.0015536881983280182
1772806908396199700,0.32319970703125,-0.00018722022650763392,0.009485913440585136,0.0006985471700318158
1772806908406131700,0.333131591796875,-0.0007784419576637447,0.005505819339305162,0.0010942928493022919
1772806908416063700,0.343063720703125,-0.0024916534312069416,0.012718192301690578,0.0022506373934447765
1772806908425995800,0.352995849609375,-0.002484462922438979,0.004742823541164398,0.0013720606220886111
1772806908435926800,0.3629267578125,-0.002273007994517684,0.0018032263033092022,-0.0008663262706249952
1772806908445858800,0.37285888671875,-0.001395496423356235,0.009659817442297935,0.00029081720276735723
1772806908455790800,0.382790771484375,-0.00029640982393175364,0.004781972151249647,-0.00017869810108095407
1772806908465723000,0.392722900390625,-0.0018053569365292788,0.005963616538792849,-0.00015765913121867925
1772806908475653600,0.402653564453125,-0.0012447615154087543,0.013085441663861275,0.0018495653057470918
1772806908485585700,0.412585693359375,-0.0005520732956938446,0.003908987622708082,0.0003147856332361698
1772806908495517700,0.422517578125,0.0005315669695846736,0.0041068606078624725,-0.0001776328426785767
1772806908505449700,0.43244970703125,-0.002484196564182639,0.006245112512260675,-0.0012961605098098516
1772806908515380700,0.442380615234375,-0.0010221211705356836,0.0016498282784596086,-0.0020234698895365
1772806908525312800,0.452312744140625,0.00017443705291952938,0.003993676509708166,0.0007379619055427611
1772806908535244800,0.462244873046875,-0.000901480030734092,0.008924785070121288,0.0009153284481726587
1772806908545176800,0.4721767578125,0.0011859056539833546,0.00564084155485034,0.0015100123127922416
1772806908555107800,0.48210791015625,0.0017307883827015758,0.02221289463341236,0.0033840788528323174
1772806908565039600,0.49203955078125,-0.002198439557105303,0.018375013023614883,0.0012833772925660014
1772806908574971600,0.5019716796875,-0.0012921657180413604,-0.006944725289940834,-0.0004122573300264776
1772806908584903700,0.511903564453125,-0.0035451999865472317,0.011711783707141876,0.0013057478936389089
1772806908594835700,0.521835693359375,-0.0012594088912010193,0.018328940495848656,-0.001508414396084845
1772806908604766700,0.5317666015625,-0.0019473034190014005,0.001740375766530633,-0.002654106356203556
1772806908614698800,0.54169873046875,-0.0014229270163923502,0.020242953673005104,0.0013606089632958174
1772806908624630800,0.551630859375,-0.0011467571603134274,0.0010096043115481734,-0.001151018193922937
1772806908634562800,0.561562744140625,-0.0009661948424763978,0.00836525484919548,-0.0008783105295151472
1772806908644493800,0.571493896484375,-0.002255164785310626,0.010146643966436386,0.0014021543320268393
1772806908654425600,0.581425537109375,0.000015446334145963192,-0.006147374864667654,-0.001505484920926392
1772806908664357600,0.591357666015625,-0.002582467393949628,-0.002415220718830824,-0.0033910030033439398
1772806908674289700,0.60128955078125,-0.002469282830134034,0.005797701422125101,0.00047164582065306604
1772806908684220700,0.611220703125,0.0007462177309207618,0.005647233221679926,0.000054328484111465514
1772806908694153000,0.621153076171875,-0.0005946838646195829,0.005257079843431711,-0.0008221178431995213
1772806908704084700,0.631084716796875,0.0006993460701778531,0.005621932912617922,0.0010096043115481734
1772806908714016800,0.641016845703125,-0.0006924218614585698,-0.0000958738019107841,-0.0011222560424357653
1772806908723947800,0.65094775390625,0.0015851134667173028,-0.00020932445477228612,-0.002258094260469079
1772806908733879800,0.6608798828125,-0.003094060579314828,0.005182245280593634,0.0012301141396164894
1772806908743811800,0.670811767578125,-0.0016655409708619118,-0.003200853243470192,-0.0005696501466445625
1772806908753743600,0.68074365234375,-0.0031846079509705305,-0.0006325007416307926,-0.0020426444243639708
1772806908763674600,0.690674560546875,-0.002169144805520773,0.0016245282022282481,-0.0006719155353493989
1772806908773606700,0.700606689453125,-0.0008103998843580484,0.005621666554361582,-0.0019800602458417416
1772806908783539000,0.7105390625,0.00025992453447543085,0.0033358754590153694,-0.00058323226403445
1772806908793470700,0.720470703125,-0.0005126585019752383,0.006185990758240223,0.0012325108982622623
1772806908803401700,0.730401611328125,-0.0015488944482058287,0.005558283533900976,-0.00020186760229989886
1772806908813333800,0.740333740234375,-0.000811997801065445,-0.00035712990211322904,-0.002436259761452675
1772806908823265800,0.750265869140625,-0.0015195996966212988,0.005978796631097794,-0.00032916670897975564
1772806908833197800,0.76019775390625,-0.001264735241420567,0.015539278276264668,0.0006799050024710596
1772806908843128600,0.770128662109375,0.0004266384057700634,0.011983691714704037,-0.002159290947020054
1772806908853060600,0.780060546875,0.0004980111261829734,0.004740426782518625,-0.000523843802511692
1772806908862992600,0.78999267578125,-0.0007840346079319715,0.006965497974306345,0.0004511394945438951
1772806908872925000,0.799925048828125,-0.0014583469601348042,0.006761233322322369,0.002493784064427018
1772806908882857000,0.80985693359375,0.000009054747351910919,0.0022011026740074158,-0.0008088020258583128
1772806908892787700,0.81978759765625,-0.0021262678783386946,0.002965696156024933,-0.002543585142120719
1772806908902719700,0.8297197265625,-0.0012141350889578462,0.0031965922098606825,0.0005150553770363331
1772806908912651800,0.83965185546875,-0.002240783767774701,0.008171110413968563,0.0004953479510731995
1772806908922583800,0.849583740234375,-0.0016410398529842496,0.014688665047287941,0.002410160843282938
1772806908932514600,0.8595146484375,-0.0022272015921771526,0.017857028171420097,0.0009155947482213378
1772806908942446600,0.869446533203125,-0.0000029294772048160667,0.012506737373769283,-0.0003808320325333625
1772806908952378600,0.879378662109375,-0.003716707695275545,0.016937704756855965,-0.00006924218905624002
1772806908962311000,0.889310791015625,-0.0017358483746647835,0.013676131144165993,0.0008103998843580484
1772806908972241700,0.89924169921875,-0.0003818972909357399,0.009318666532635689,0.0003038666909560561
1772806908982173700,0.909173583984375,-0.001184041379019618,0.012997823767364025,0.0022208099253475666
1772806908992105700,0.919105712890625,-0.0015475628897547722,0.011871839873492718,-0.00013448962999973446
1772806909002037800,0.929037841796875,-0.0013158678775653243,0.00920228660106659,-0.00046818371629342437
1772806909011968500,0.938968505859375,-0.0027545075863599777,0.016626380383968353,0.0009177253232337534
1772806909021900500,0.948900634765625,-0.0004958806093782187,-0.0603320486843586,-0.008085889741778374
1772806909031832600,0.95883251953125,-0.0007712514488957822,0.00034967303508892655,-0.0007819040911272168
1772806909041764900,0.968764892578125,-0.002115615177899599,0.045403968542814255,0.004452272783964872
1772806909051695900,0.97869580078125,-0.0002721750643104315,-0.026751985773444176,-0.0035595810040831566
1772806909061627600,0.988627685546875,0.00010120012302650139,-0.00433003343641758,0.0004114583716727793
1772806909071559700,0.9985595703125,-0.00299286050722003,0.03365489840507507,0.004056526813656092
1772806909081491700,1.00849169921875,-0.0016346483025699854,-0.005155347287654877,-0.000021837920940015465
1772806909091422700,1.018422607421875,0.0011779161868616939,-0.000577107013668865,-0.00043516053119674325
1772806909101354800,1.028354736328125,-0.00162426196038723,0.005340436939150095,0.00038988678716123104
1772806909111286500,1.03828662109375,-0.0010580739472061396,-0.0032461269292980433,-0.0009872338268905878
1772806909121218600,1.048218505859375,-0.002834402257576585,0.009504023008048534,-0.00016005597717594355
1772806909131149800,1.05814990234375,-0.0037912761326879263,0.02160462737083435,-0.000179230744834058
1772806909141081900,1.068081787109375,-0.0017832526937127113,0.0029379993211477995,-0.002251702593639493
1772806909151013600,1.078013671875,0.002501773415133357,-0.012283564545214176,-0.0036218990571796894
1772806909160945700,1.087945556640625,0.0006194512825459242,-0.0020540961995720863,-0.0015566176734864712
1772806909170877700,1.097877685546875,-0.0022511701099574566,0.013117133639752865,0.0007073355955071747
1772806909180808700,1.10780859375,-0.0017467673169448972,-0.0019630161114037037,-0.003233876544982195
1772806909190740700,1.11774072265625,-0.0012152004055678844,-0.003710049670189619,-0.0009725864510983229
1772806909200672500,1.127672607421875,-0.002025333931669593,0.006291984114795923,-0.0003842941368930042
1772806909210604500,1.1376044921875,-0.0025361282750964165,0.013379720970988274,0.001091896090656519
1772806909220535800,1.147535888671875,-0.00029774141148664057,0.008237423375248909,0.0005480785621330142
1772806909230467800,1.1574677734375,-0.0006740460521541536,0.0049284459091722965,0.00042344260145910084
1772806909240400000,1.16739990234375,-0.0028964539524167776,0.008894691243767738,0.0005664543714374304
1772806909250331600,1.17733154296875,-0.00022690132027491927,0.002031991956755519,-0.00028762139845639467
1772806909260262700,1.1872626953125,0.0011891013709828258,0.004679706413298845,0.0008146609761752188
1772806909270194700,1.197194580078125,-0.0025867284275591373,0.006080262828618288,-0.0010186590952798724
1772806909280126700,1.207126708984375,0.0007459514308720827,0.006085323169827461,-0.0016138756182044744
1772806909290058500,1.21705859375,0.000502804818097502,0.0034224283881485462,0.00047697214176878333
1772806909299989800,1.22698974609375,-0.002846652874723077,0.0031079088803380728,0.000054328484111465514
1772806909309921800,1.236921875,-0.003111371072009206,0.007254184223711491,-0.0011270497925579548
1772806909319853800,1.246853759765625,-0.000621848099399358,0.0015880429418757558,0.001487109111621976
1772806909329785900,1.256785888671875,0.00042104575550183654,-0.000018908443962573074,-0.0008255799184553325
1772806909339716600,1.266716552734375,-0.0036277580074965954,0.0025009745731949806,0.0004599279200192541
1772806909349648600,1.276648681640625,-0.002469016704708338,0.0024833977222442627,0.0009464874165132642
1772806909359580700,1.28658056640625,-0.0012333098566159606,0.0028868666850030422,0.0009339706157334149
1772806909369512700,1.2965126953125,-0.0013012205017730594,-0.0006117281154729426,-0.0031398669816553593
1772806909379443700,1.306443603515625,-0.000523577444255352,-0.014026869088411331,-0.0032671659719198942
1772806909389375700,1.316375732421875,-0.0012743226252496243,-0.019877035170793533,-0.004682902246713638
1772806909399307800,1.326307861328125,-0.0011342403013259172,0.01961497962474823,0.00027537086862139404
1772806909409239800,1.33623974609375,-0.002942793071269989,0.05927477404475212,0.006049636751413345
1772806909419170300,1.34617041015625,-0.001725728390738368,0.03268710523843765,0.004829642828553915
1772806909429102300,1.356102294921875,-0.0011355718597769737,-0.026797525584697723,-0.0043902210891246796
1772806909439034000,1.3660341796875,-0.001064998097717762,0.008679508231580257,0.00021731393644586205
1772806909448966100,1.375966064453125,-0.00250523560680449,0.04599092900753021,0.0028613002505153418
1772806909458897400,1.3858974609375,-0.001924666459672153,-0.004431233741343021,-0.0007571366732008755
1772806909468829400,1.395829345703125,0.0015337144723162055,-0.014663364738225937,-0.0016823188634589314
1772806909478761200,1.40576123046875,-0.0028328043408691883,0.021327925845980644,-0.0007491472060792148
1772806909488693200,1.415693359375,0.00011717908637365326,0.0133275231346488,0.0024945829063653946
1772806909498624300,1.425624267578125,-0.002441585995256901,-0.019365442916750908,-0.0038637141697108746
1772806909508556300,1.435556396484375,-0.0009038768475875258,-0.005813414230942726,-0.0005840312223881483
1772806909518488300,1.44548828125,0.0005105279851704836,0.02201395481824875,0.0012985573848709464
1772806909528420000,1.455420166015625,0.00003941478280466981,0.014623417519032955,0.0017960357945412397
1772806909538352000,1.46535205078125,0.0015153386630117893,0.0032522522378712893,-0.0005973470397293568
1772806909548283400,1.475283447265625,-0.0010319749126210809,0.015971776098012924,0.0004884237423539162
1772806909558215400,1.48521533203125,-0.0017321199411526322,0.03317340090870857,0.004209392238408327
1772806909568147500,1.4951474609375,-0.0012546151410788298,0.03374890983104706,-0.0006924218614585698
1772806909578079200,1.505079345703125,-0.0011643340112641454,0.013837252743542194,0.002578738844022155
1772806909588010200,1.51501025390625,0.0014018879737704992,-0.04572327807545662,-0.007764446083456278
1772806909597942300,1.5249423828125,-0.0024253407027572393,0.007195594720542431,0.0007371630053967237
1772806909607874300,1.534874267578125,-0.0026106967125087976,0.01230486948043108,0.0025651566684246063
1772806909617806000,1.54480615234375,-0.00022024342615623027,-0.011816445738077164,-0.0021646174136549234
1772806909627737300,1.5547373046875,-0.00036991306114941835,0.008355135098099709,-0.0002002697146963328
1772806909637669400,1.56466943359375,0.0007816377910785377,0.0004215783847030252,-0.0026109630707651377
1772806909647601400,1.574601318359375,-0.0025126924738287926,0.004224039614200592,-0.0005731122801080346
1772806909657533400,1.584533447265625,-0.0015627428656443954,0.006580404471606016,0.00019707392493728548
1772806909667464200,1.594464111328125,-0.0006748450105078518,0.004533232655376196,0.0012548814993351698
1772806909677396200,1.604396240234375,-0.0018668759148567915,0.00643792562186718,-0.0009408948244526982
1772806909687328300,1.614328369140625,-0.00009827064059209079,0.006844057701528072,-0.001246892032213509
1772806909697260300,1.62426025390625,-0.003494866192340851,0.005322860088199377,0.001418932224623859
1772806909707191300,1.63419140625,-0.0012538161827251315,0.0072717610746622086,-0.00035206988104619086
1772806909717123300,1.644123291015625,0.002171807922422886,0.008706672117114067,0.002120675053447485
1772806909727055400,1.654055419921875,-0.0009004147723317146,0.005459746345877647,0.000749679864384234
1772806909736987400,1.6639873046875,-0.00250470289029181,0.004791026934981346,0.00185063062235713
1772806909746918100,1.673918212890625,-0.002444781828671694,0.005887716542929411,-0.00020240024605300277
1772806909756850200,1.68385009765625,-0.00205223192460835,0.003847202518954873,0.000690291344653815
1772806909766782200,1.6937822265625,-0.002537459833547473,0.004954811185598373,0.0014857775531709194
1772806909776714200,1.70371435546875,-0.0008005462004803121,0.007019826211035252,-0.0020969731267541647
1772806909786645500,1.7136455078125,-0.0018125474452972412,0.006168946158140898,0.0009291769238188863
1772806909796577300,1.723577392578125,-0.00044341632747091353,0.0043806335888803005,-0.00039015308720991015
1772806909806509300,1.73350927734375,-0.001318264752626419,0.00595615990459919,0.0004902879591099918
1772806909816441300,1.74344140625,-0.0005366269615478814,0.0062331282533705235,-0.0014791196445003152
1772806909826372400,1.753372314453125,0.00023302659974433482,0.006502640433609486,0.0019560917280614376
1772806909836304400,1.763304443359375,0.00042796999332495034,0.004798217210918665,-0.0015012238873168826
1772806909846236200,1.773236083984375,0.0022242721170186996,0.00558012118563056,-0.0012748552253469825
1772806909856168200,1.783168212890625,-0.0016245282022282481,0.006206230726093054,0.002880475018173456
1772806909866099500,1.793099365234375,-0.0020807278342545033,0.004322843160480261,0.0014828480780124664
1772806909876031500,1.803031494140625,-0.0013662016717717052,0.004814994987100363,0.00020160128769930452
1772806909885963300,1.81296337890625,0.0007510114228352904,0.005501291714608669,-0.00006364954606397077
1772806909895895300,1.822895263671875,-0.0005440838285721838,0.0028538433834910393,0.00033662354690022767
1772806909905826300,1.832826416015625,-0.0012199940392747521,0.005514075048267841,-0.0005251753609627485
1772806909915758300,1.84275830078125,0.00042983421008102596,0.0060240705497562885,-0.0001371527905575931
1772806909925690400,1.8526904296875,-0.0022626216523349285,0.006019276566803455,0.00007323692989302799
1772806909935622100,1.8626220703125,-0.001437041675671935,0.006727943662554026,0.0008040083339437842
1772806909945553400,1.872553466796875,0.0014002900570631027,0.0031491878908127546,0.002426672261208296
1772806909955485400,1.8824853515625,-0.000969656917732209,0.008989233523607254,-0.003216299694031477
1772806909965417500,1.89241748046875,0.0004396878939587623,0.008519984781742096,0.00016698020044714212
1772806909975349500,1.902349609375,-0.0015611450653523207,0.005603556986898184,-0.0012980246683582664
1772806909985280300,1.9122802734375,0.0005315669695846736,0.0064776064828038216,-0.0008764463127590716
1772806909995212300,1.92221240234375,-0.00035233621019870043,0.005262938793748617,-0.0008961536805145442
1772806910005144300,1.932144287109375,0.00007057376933516935,0.006442719139158726,0.0006231797160580754
1772806910015076400,1.942076416015625,-0.002823217073455453,0.0070733558386564255,0.0015267902053892612
1772806910025007400,1.95200732421875,-0.0006625944515690207,0.00740332156419754,0.00005273058923194185
1772806910034939400,1.961939453125,0.0003608583356253803,0.002724946476519108,0.0013515542959794402
1772806910044871400,1.971871337890625,-0.0012740562669932842,0.008315720595419407,0.0008934905636124313
1772806910054803500,1.981803466796875,0.0009036105475388467,0.008953015320003033,-0.001344363670796156
1772806910064734200,1.991734130859375,-0.001755023142322898,0.007022755686193705,0.00001917476038215682
1772806910074666200,2.001666259765625,-0.0005901564727537334,-0.030194386839866638,-0.008793225511908531
1772806910084598300,2.011598388671875,-0.001660480978898704,-0.003952131140977144,-0.0007150587625801563
1772806910094530300,2.0215302734375,-0.0005254416610114276,0.026164492592215538,0.0018908443162217736
1772806910104462300,2.03146240234375,-0.0011773834703490138,0.01985786110162735,0.0006748450105078518
1772806910114393300,2.041393310546875,0.0024655545130372047,0.00022370553051587194,-0.0023968450259417295
1772806910124325400,2.051325439453125,-0.001121723442338407,0.004624579101800919,0.0005600627628155053
1772806910134257400,2.06125732421875,-0.0026192190125584602,0.010882475413382053,0.002094576135277748
1772806910144189400,2.071189453125,-0.0023004384711384773,0.003180080559104681,-0.0015603461069986224
1772806910154120200,2.0811201171875,-0.004495149478316307,0.006625412032008171,-0.0008881642133928835
1772806910164052200,2.09105224609375,-0.002435460686683655,0.004339354578405619,-0.000319845654303208
1772806910173984300,2.100984375,-0.0025899240281432867,0.0016205335268750787,-0.000060453756304923445
1772806910183916300,2.110916259765625,0.0013622068800032139,0.006262955721467733,-0.0010282464791089296
1772806910193847300,2.120847412109375,-0.001163002452813089,0.005525792948901653,-0.002246642718091607
1772806910203779300,2.130779296875,-0.001924932817928493,0.007012369576841593,0.0014982944121584296
1772806910213711400,2.14071142578125,0.001555552356876433,0.006394516211003065,0.0032591766212135553
1772806910223643400,2.150643310546875,-0.000687361869495362,0.008982841856777668,-0.0008293083519674838
1772806910233574400,2.160574462890625,-0.00233825552277267,0.0029502499382942915,0.00101146858651191
1772806910243506200,2.170506103515625,-0.0010277138790115714,0.0015701997326686978,-0.0009416937828063965
1772806910253438200,2.180438232421875,-0.0017038905061781406,0.00589570589363575,-0.0004900216590613127
1772806910263370200,2.190370361328125,-0.0007044061203487217,0.0057407100684940815,-0.0007510114228352904
1772806910273301200,2.20030126953125,-0.0023547669406980276,0.0033483924344182014,-0.001341434195637703
1772806910283233300,2.2102333984375,0.00004500742215896025,0.0022021678742021322,-0.00036218989407643676
1772806910293165300,2.220165283203125,-0.0012042814632877707,0.005352953914552927,0.001990712946280837
1772806910303097300,2.230097412109375,-0.0019028285751119256,0.003820038167759776,-0.0005062668933533132
1772806910313028400,2.2400283203125,-0.0003510046226438135,0.003291134489700198,0.0013677994720637798
1772806910322960400,2.24996044921875,-0.0004900216590613127,0.008440356701612473,-0.001957956003025174
1772806910332892400,2.259892333984375,-0.0005829659639857709,0.006442186422646046,-0.0015843145083636045
1772806910342824200,2.26982421875,0.0014021543320268393,0.008560198359191418,0.0016713999211788177
1772806910352755200,2.279755126953125,-0.000464188982732594,0.006484797224402428,-0.0006077333819121122
1772806910362687200,2.289687255859375,-0.0015488944482058287,0.0049276468344032764,0.001240766723640263
1772806910372619300,2.299619384765625,-0.0012895026011392474,0.007872836664319038,-0.001100684516131878
1772806910382551300,2.30955126953125,-0.0010080065112560987,0.004659732803702354,0.0014682007022202015
1772806910392482300,2.319482421875,-0.0035023230593651533,0.007709318771958351,0.0005403553950600326
1772806910402414300,2.329414306640625,-0.0011888351291418076,0.003793140407651663,-0.001175519311800599
1772806910412346400,2.339346435546875,-0.004264785908162594,0.004203533288091421,0.0008349010022357106
1772806910422278100,2.349278076171875,0.0004511394945438951,0.00612420542165637,0.0005009406013414264
1772806910432209200,2.359209228515625,-0.0010756507981568575,0.005590507760643959,0.0004958806093782187
1772806910442141200,2.36914111328125,0.00005858954318682663,0.004206462763249874,-0.001954760169610381
1772806910452073200,2.3790732421875,0.0003067961661145091,0.005183043889701366,-0.0006274407496675849
1772806910462005200,2.389005126953125,-0.001386175281368196,0.00714632635936141,0.0002008023438975215
1772806910471936300,2.398936279296875,0.0002790992730297148,0.005982525181025267,-0.00011877698125317693
1772806910481868300,2.408868408203125,-0.00006604639202123508,0.008503473363816738,0.00018801917030941695
1772806910491800000,2.418800048828125,0.0006282397080212831,0.007337274961173534,-0.0002247707889182493
1772806910501732000,2.428732177734375,0.0006458165589720011,0.007093862164765596,0.000550475378986448
1772806910511663000,2.4386630859375,0.0002740392810665071,0.004035487771034241,0.0006809702608734369
1772806910521595100,2.44859521484375,-0.0011808456620201468,0.004505802411586046,-0.001198955113068223
1772806910531527200,2.458527099609375,-0.00028069718973711133,0.007941014133393764,-0.0013699301052838564
1772806910541459200,2.468459228515625,-0.0008825715631246567,0.00863077212125063,0.0004442152567207813
1772806910551390200,2.47839013671875,-0.0009970874525606632,0.004452006425708532,-0.002088450826704502
1772806910561322200,2.488322265625,-0.0022602248936891556,0.00503949960693717,-0.0017963021527975798
1772806910571254300,2.498254150390625,-0.0007099987124092877,0.005840578582137823,-0.0010847054654732347
1772806910581186300,2.508186279296875,-0.0008862999966368079,0.00752050057053566,0.001543568097986281
1772806910591117000,2.518116943359375,-0.000708134553860873,0.010063553228974342,-0.0009672601008787751
1772806910601049000,2.528049072265625,-0.0014093448407948017,-0.0004993426846340299,0.00037390782381407917
1772806910610981000,2.537981201171875,0.0008514125947840512,-0.0005419532535597682,0.00035952674807049334
1772806910620913200,2.5479130859375,-0.0023816649336367846,0.012440158054232597,0.002368881832808256
1772806910630844200,2.55784423828125,-0.001680987305007875,0.004789428785443306,0.0009864348685368896
1772806910640776200,2.567776123046875,-0.0025627599097788334,0.0017981663113459945,-0.0021752698812633753
1772806910650708200,2.577708251953125,-0.0014985607704147696,0.006373743526637554,-0.0012572783743962646
1772806910660640300,2.58764013671875,0.0014154701493680477,0.004078098572790623,-0.0013843111228197813
1772806910670571000,2.597571044921875,-0.0016431703697890043,-0.00019627496658358723,0.00001304948909819359
1772806910680503000,2.6075029296875,-0.00047857005847617984,-0.0002697782183531672,0.002665824256837368
1772806910690435000,2.61743505859375,-0.0034914042335003614,0.000559530162718147,-0.0010572749888524413
1772806910700367000,2.6273671875,0.0011891013709828258,0.003718571737408638,0.0006958839949220419
1772806910710298400,2.63729833984375,-0.0006540723843500018,0.005264004226773977,0.00019734023953787982
1772806910720230100,2.647230224609375,-0.00040959418402053416,0.008258462883532047,0.0006223807577043772
1772806910730162200,2.657162109375,-0.0009382316493429244,0.0035635759122669697,-0.0030037793330848217
1772806910740094200,2.66709423828125,-0.0008532768115401268,0.004778509959578514,0.00034914040588773787
1772806910750026200,2.677026123046875,-0.002469549188390374,0.01252005249261856,0.0014748586108908057
1772806910759957000,2.68695703125,-0.0017805894603952765,0.013949104584753513,-0.0002854908525478095
1772806910769889000,2.696888916015625,-0.0009065400226972997,0.00948058720678091,0.0023318638559430838
1772806910779821000,2.706821044921875,-0.001508414396084845,0.007932491600513458,-0.0004551342281047255
1772806910789753000,2.716753173828125,-0.0011249192757532,0.005991047248244286,-0.002305498579517007
1772806910799684400,2.726684326171875,-0.002621882129460573,0.0007254450465552509,-0.002569684060290456
1772806910809616100,2.7366162109375,-0.001618403010070324,0.0016583503456786275,-0.001886317040771246
1772806910819548200,2.746548095703125,-0.0010346380295231938,-0.0003201119543518871,-0.00044661210267804563
1772806910829480200,2.756480224609375,-0.0003427488263696432,0.006062420085072517,0.0006838997360318899
1772806910839411200,2.7664111328125,-0.00005166532355360687,0.00926433876156807,-0.001520132296718657
1772806910849343200,2.77634326171875,-0.004991828929632902,0.008980711922049522,-0.0004902879591099918
1772806910859275000,2.78627490234375,-0.002811232814565301,0.005975867155939341,0.0022335932590067387
1772806910869207000,2.79620703125,-0.002167813014239073,0.006583068054169416,0.002025600289925933
1772806910879138300,2.80613818359375,-0.002272475278005004,0.00872291810810566,-0.0006671218434348702
1772806910889070300,2.8160703125,0.00043516053119674325,0.0065412563271820545,-0.0005555353709496558
1772806910899002000,2.826002197265625,-0.0016610135789960623,0.0075812204740941525,-0.0003920173039659858
1772806910908934100,2.83593408203125,-0.0006032059900462627,0.008742891252040863,-0.0022509037517011166
1772806910918865200,2.845865234375,-0.001832787413150072,0.008048871532082558,-0.00044661210267804563
1772806910928797200,2.855797119140625,-0.0016921724891290069,0.012183163315057755,0.0005685848882421851
1772806910938729200,2.865729248046875,-0.0015446334145963192,0.009847304783761501,-0.003073287894949317
1772806910948661000,2.875660888671875,-0.002526274649426341,0.005264270585030317,0.0017646105261519551
1772806910958592300,2.88559228515625,-0.0022186795249581337,0.011364507488906384,0.00043063313933089375
1772806910968524300,2.895524169921875,-0.003489539958536625,0.009734652936458588,0.0015579492319375277
1772806910978456300,2.905456298828125,-0.0006785734440200031,0.011477691121399403,-0.0020775320008397102
1772806910988388400,2.915388427734375,0.00038242992013692856,0.009369000792503357,-0.002360093407332897
1772806910998319000,2.925319091796875,-0.0022684806026518345,0.008566590026021004,-0.00038056570338085294
1772806911008251100,2.935251220703125,-0.0012900352012366056,0.00896633043885231,0.000027963191314483993
1772806911018183200,2.94518310546875,0.00047111319145187736,0.008357798680663109,0.0009816411184147
1772806911028115200,2.955115234375,-0.0021550299134105444,0.007429953198879957,0.0006072007236070931
1772806911038046200,2.965046142578125,-0.004479703027755022,0.004954012110829353,0.0001776328426785767
1772806911047978200,2.974978271484375,-0.000040480048483004794,0.008984972722828388,-0.0008990831556729972
1772806911057910300,2.98491015625,-0.0014833806781098247,0.007215036079287529,0.0013677994720637798
1772806911067842300,2.99484228515625,-0.0006894923863001168,0.008798285387456417,-0.00024447820032946765
1772806911077773000,3.00477294921875,-0.0021313277538865805,0.006442719139158726,-0.0006048039067536592
1772806911087705000,3.014705078125,0.0006713828770443797,0.008324508555233479,-0.0007550061563961208
1772806911097637000,3.02463720703125,-0.00004234426160110161,0.009645436890423298,-0.0009233179152943194
1772806911107569200,3.034569091796875,-0.0010791128734126687,0.004356931429356337,-0.00038962045800872147
1772806911117500200,3.044500244140625,-0.0012098740553483367,0.008460329845547676,0.0005400890368036926
1772806911127432200,3.05443212890625,-0.0009717874927446246,0.009484315291047096,0.0010096043115481734
1772806911137364200,3.0643642578125,-0.0015864450251683593,0.0019800602458417416,-0.0009155947482213378
1772806911147296300,3.074296142578125,-0.0016197345685213804,-0.014614894986152649,-0.003944674041122198
1772806911157227300,3.084227294921875,-0.0029800771735608578,0.018750252202153206,0.0036077843979001045
1772806911167159000,3.094158935546875,0.0004921521758660674,0.012132296338677406,0.0016056197928264737
1772806911177091000,3.104091064453125,-0.0017363809747621417,0.0018516959389671683,-0.001058872789144516
1772806911187023000,3.114023193359375,-0.0014759238110855222,0.007511978503316641,0.00011132013605674729
1772806911196954400,3.123954345703125,0.00031079089967533946,-0.0004897553008049726,-0.0004215783847030252
1772806911206886400,3.133886474609375,-0.0013283847365528345,0.012826316058635712,-0.000355532014509663
1772806911216818200,3.143818115234375,-0.002570749493315816,0.00777776213362813,-0.0019038938917219639
1772806911226750200,3.153750244140625,-0.0016916398890316486,0.008357532322406769,0.0011345066595822573
1772806911236681200,3.16368115234375,-0.0013584784464910626,0.0078073227778077126,-0.0002724413643591106
1772806911246613200,3.17361328125,-0.0005291700945235789,0.005134840961545706,-0.0002745719102676958
1772806911256545000,3.183544921875,0.00008122641156660393,0.006810235325247049,0.001294029993005097
1772806911266477000,3.19347705078125,-0.000883636821527034,0.002457298804074526,-0.0006122607155703008
1772806911276408300,3.203408203125,-0.001457814360037446,0.006449643522500992,0.0016346483025699854
1772806911286340400,3.21334033203125,-0.0018469021888449788,0.003245594445616007,-0.0007038734620437026
1772806911296272400,3.2232724609375,-0.000031158982892520726,0.004820588044822216,-0.0020732709672302008
1772806911306204200,3.2332041015625,-0.0014314490836113691,0.005845904815942049,0.0001651159836910665
1772806911316135200,3.24313525390625,-0.003561178920790553,0.004120176658034325,0.0002383529208600521
1772806911326067200,3.253067138671875,-0.003942809998989105,0.010610566474497318,0.0008460862445645034
1772806911335999200,3.262999267578125,-0.0035742283798754215,0.007240069564431906,-0.0026051041204482317
1772806911345931300,3.27293115234375,-0.0015374429058283567,0.0044293696992099285,0.0010000169277191162
1772806911355862000,3.282862060546875,-0.001654089312069118,0.007721036672592163,0.0011643340112641454
1772806911365794300,3.292794189453125,-0.002472212305292487,0.01013599056750536,-0.0007579356315545738
1772806911375726300,3.302726318359375,-0.001927862293086946,0.0054546864703297615,0.00040852889651432633
1772806911385658400,3.312658447265625,-0.0025300029665231705,0.007738080807030201,0.0008335694437846541
1772806911395589000,3.322589111328125,0.0002671150432433933,0.00777509855106473,-0.001284708851017058
1772806911405521200,3.332521240234375,0.0011701929615810513,0.004828843753784895,0.0008452873444184661
1772806911415453200,3.342453125,-0.0020642161834985018,0.00686083547770977,-0.0012796488590538502
1772806911425386000,3.352385986328125,0.00046392265358008444,0.008875250816345215,0.0010990865994244814
1772806911435318000,3.362318115234375,0.00006125270738266408,0.005823001731187105,0.00011105381418019533
1772806911445249000,3.3722490234375,0.000031425301131093875,0.006095176562666893,-0.00011052118497900665
1772806911455180800,3.382180908203125,-0.0015270565636456013,0.0070608388632535934,0.0016466324450448155
1772806911465112800,3.39211279296875,-0.0008500810363329947,0.004534830804914236,0.0014229270163923502
1772806911475044900,3.402044921875,-0.00017337177996523678,0.006457100156694651,0.001383512164466083
1772806911484976000,3.41197607421875,-0.00017470336752012372,0.004859736189246178,0.0009867012267932296
1772806911494908200,3.421908203125,-0.0004548678989522159,0.0082115912809968,0.0018351842882111669
1772806911504840000,3.43183984375,0.00043063313933089375,0.00737376045435667,0.0015299860388040543
1772806911514772000,3.44177197265625,0.0022128205746412277,0.0062483083456754684,0.0005768407136201859
1772806911524703000,3.451702880859375,-0.0010498181218281388,0.00751916877925396,-0.002153964713215828
1772806911534635000,3.461635009765625,-0.0022240057587623596,0.00905368197709322,-0.0009835053933784366
1772806911544566800,3.47156689453125,-0.0014687333023175597,0.009007076732814312,0.0004010720585938543
1772806911554498800,3.481498779296875,0.0005259743193164468,0.005887982901185751,0.0002902845444623381
1772806911564430000,3.49143017578125,-0.002017078222706914,0.0068211546167731285,-0.00022556974727194756
1772806911574362000,3.501362060546875,-0.0016176040517166257,0.003929493948817253,0.0006865629111416638
1772806911584294100,3.511294189453125,-0.0014468954177573323,0.00367143377661705,-0.0023616913240402937
1772806911594226000,3.521225830078125,-0.0012578109744936228,0.006434996146708727,-0.0005251753609627485
1772806911604157000,3.531156982421875,0.00007829693640815094,0.00959643442183733,-0.0007997472421266139
1772806911614089000,3.5410888671875,-0.0010868359822779894,0.003934554290026426,0.00008974852971732616
1772806911624021000,3.55102099609375,-0.002401106059551239,0.004800081718713045,-0.00045540055725723505
1772806911633953000,3.560953125,-0.0012892362428829074,0.0082102594897151,0.0003145193331874907
1772806911643884000,3.570884033203125,-0.0023441144730895758,0.0019289276096969843,-0.001508414396084845
1772806911653816000,3.580816162109375,0.0004977448261342943,0.007931159809231758,-0.0004902879591099918
1772806911663748000,3.590748046875,-0.0023694143164902925,0.004738030023872852,0.002383262850344181
1772806911673680100,3.60068017578125,-0.0020599551498889923,0.006779076531529427,0.0014602112350985408
1772806911683611000,3.61061083984375,0.00004367584188003093,0.004254932515323162,-0.0007329019135795534
1772806911693543000,3.62054296875,-0.0006436860421672463,0.005910086911171675,-0.0012154667638242245
1772806911703475000,3.630474853515625,-0.0019270633347332478,0.00618279492482543,-0.0003382214636076242
1772806911713407000,3.640406982421875,0.002115881536155939,0.007781223859637976,0.0002921487612184137
1772806911723338000,3.650337890625,-0.000916393706575036,0.006966296583414078,-0.0008578042034059763
1772806911733270000,3.66027001953125,-0.0017837852938100696,0.00700730923563242,0.0016892430139705539
1772806911743202000,3.6702021484375,-0.001276453142054379,0.006522081326693296,0.0021345235873013735
1772806911753134000,3.680134033203125,-0.002115348819643259,0.005549495108425617,0.0013116068439558148
1772806911763064800,3.69006494140625,-0.0010631339391693473,0.003943342715501785,0.003421096596866846
1772806911772996900,3.699996826171875,-0.002645051572471857,0.0059689427725970745,0.001407480682246387
1772806911782929000,3.709928955078125,0.0003842941368930042,0.007899735122919083,0.0003296993381809443
1772806911792861000,3.71986083984375,-0.0017560884589329362,0.009289105422794819,-0.00033662354690022767
1772806911802792200,3.729792236328125,-0.00037204360705800354,0.006238454952836037,-0.0002687129599507898
1772806911812724000,3.739723876953125,-0.001079911831766367,0.006943393498659134,0.0023185480386018753
1772806911822656000,3.749656005859375,-0.0023816649336367846,0.0061521683819592,-0.00004207794336252846
1772806911832588000,3.759588134765625,-0.001383778522722423,0.007731955498456955,-0.0008737831376492977
1772806911842519000,3.76951904296875,-0.0010239854454994202,0.005850166082382202,0.0018218684708699584
1772806911852451000,3.779451171875,-0.0018841864075511694,0.007666707970201969,0.0024618261959403753
1772806911862382800,3.7893828125,-0.002282062778249383,0.006323942448943853,0.0015899071004241705
1772806911872315000,3.79931494140625,-0.0022865901701152325,0.0068089039996266365,-0.00041039311327040195
1772806911882246100,3.80924609375,-0.0009978864109143615,0.0044054011814296246,0.0014037522487342358
1772806911892178200,3.81917822265625,-0.0006580671179108322,0.004341219086199999,-0.0008522115531377494
1772806911902110000,3.82910986328125,-0.0007145261042751372,0.0034133736044168472,0.0002998719282913953
1772806911912042000,3.8390419921875,-0.0025124261155724525,0.006425941362977028,-0.0009486179915256798
1772806911921973000,3.848972900390625,0.00040000680019147694,0.00657587731257081,-0.0006833671359345317
1772806911931905000,3.858905029296875,-0.002016811864450574,0.00592659879475832,-0.00006604639202123508
1772806911941837000,3.868837158203125,-0.0014021543320268393,0.007958590984344482,-0.0008516788948327303
1772806911951768800,3.878768798828125,-0.0020762004423886538,0.007014233618974686,-0.000046871635277057067
1772806911961699800,3.888699951171875,-0.002569417702034116,0.0062395199202001095,-0.00008175904804375023
1772806911971632000,3.898632080078125,-0.0018373148050159216,0.006739927921444178,-0.0023257385473698378
1772806911981564200,3.908564208984375,-0.00005699164830730297,0.005329251755028963,0.0011920308461412787
1772806911991496200,3.91849609375,0.001458080718293786,0.005300223361700773,-0.0015132081462070346
1772806912001426000,3.928426025390625,-0.0005110605852678418,0.007635282818228006,0.0021140172611922026
1772806912011358000,3.93835791015625,0.00264744833111763,0.006329268682748079,0.00041332258842885494
1772806912021290000,3.9482900390625,0.0007225155713967979,0.00547386147081852,0.0011171960504725575
1772806912031221000,3.958220947265625,-0.002764893928542733,0.0036722328513860703,0.0008378304773941636
1772806912041153000,3.968153076171875,-0.0007760451408103108,0.004038949962705374,-0.0021614215802401304
1772806912051085000,3.9780849609375,-0.0010468886466696858,0.006673082709312439,0.0007281082216650248
1772806912061017000,3.98801708984375,0.00016644757124595344,0.007795604877173901,0.0017241304740309715
1772806912070947800,3.99794775390625,-0.0010527475969865918,0.004600876942276955,-0.0016056197928264737
1772806912080879900,4.0078798828125,-0.0015981629258021712,0.006704774219542742,-0.00011478224041638896
1772806912090812000,4.01781201171875,0.00009214537567459047,0.008670453913509846,0.0003129214164800942
1772806912100744000,4.027743896484375,-0.0025486452504992485,0.0062645538710057735,-0.0006090649403631687
1772806912110675000,4.037675048828125,0.001085504423826933,0.008851282298564911,-0.00042051312630064785
1772806912120607000,4.04760693359375,-0.003612045431509614,0.005363073665648699,0.00034221619716845453
1772806912130539000,4.0575390625,-0.0025648903101682663,0.007745271548628807,-0.00023196132679004222
1772806912140471000,4.067470947265625,0.001190166687592864,0.005761216394603252,0.0005467469454742968
1772806912150402000,4.077402099609375,-0.003698598127812147,0.005390504375100136,0.0011848403373733163
1772806912160333800,4.087333740234375,-0.0009499495499767363,0.003719104453921318,0.001957423286512494
1772806912170265900,4.097265869140625,-0.00037763622822239995,0.0029225528705865145,-0.000060453756304923445
1772806912180198000,4.107197998046875,-0.00033688987605273724,0.003406981937587261,-0.00047164582065306604
1772806912190129200,4.117129150390625,-0.00048655952559784055,0.00595536082983017,-0.00025992453447543085
1772806912200061200,4.127061279296875,-0.0014796522445976734,0.006955377757549286,0.0019105518003925681
1772806912209993000,4.136992919921875,0.00044075315236113966,0.008705873973667622,-0.0002641855680849403
1772806912219925000,4.146925048828125,-0.0005523395957425237,0.005897836294025183,-0.00014620754518546164
1772806912229856000,4.15685595703125,-0.0013318468118086457,0.006552441511303186,-0.0004934837343171239
1772806912239788000,4.1667880859375,-0.0005704491049982607,0.005021922755986452,0.001344363670796156
1772806912249719800,4.1767197265625,-0.0009294432238675654,0.004971056245267391,-0.0013185309944674373
1772806912259651800,4.18665185546875,-0.00042264367220923305,0.0020602215081453323,0.0011760519118979573
1772806912269583000,4.1965830078125,-0.0024194817524403334,0.00938897393643856,-0.00020532972121145576
1772806912279515100,4.20651513671875,-0.0002873550693038851,0.006584133021533489,-0.0010833739070221782
1772806912289447200,4.216447265625,-0.00330231967382133,0.0072983927093446255,0.0009898969437927008
1772806912299379000,4.22637890625,0.0000428768944402691,0.007094128523021936,-0.00039414784987457097
1772806912309310000,4.23631005859375,-0.0015851134667173028,0.008245679549872875,-0.0015688681742176414
1772806912319242000,4.246241943359375,-0.00018855179951060563,-0.008463526144623756,-0.0010894992155954242
1772806912329174000,4.256174072265625,-0.0025992451701313257,0.011098457500338554,0.0010298443958163261
1772806912339106000,4.26610595703125,-0.002436792477965355,0.001936917076818645,-0.00031798143754713237
1772806912349039000,4.2760390625,-0.00033422670094296336,0.004262921866029501,0.0023190807551145554
1772806912358971000,4.285970947265625,-0.00046924897469580173,0.002701244316995144,0.0035124430432915688
1772806912368902000,4.29590185546875,-0.0005560680292546749,0.0026578346733003855,-0.00014620754518546164
1772806912378834000,4.305833984375,-0.002858903491869569,0.008379103615880013,0.003687146585434675
1772806912388766000,4.315765869140625,-0.00031425300403498113,0.0035545211285352707,0.0010048106778413057
1772806912398698000,4.325697998046875,-0.00242161238566041,0.005203816574066877,0.000023435817638528533
1772806912408629000,4.33562890625,-0.0013246563030406833,0.007059241179376841,-0.001332912128418684
1772806912418561000,4.34556103515625,-0.002442118711769581,0.00748960766941309,-0.0004293015517760068
1772806912428492500,4.355492431640625,0.0012311793398112059,0.005093295592814684,-0.0003944141499232501
1772806912438424600,4.365424560546875,-0.002311091171577573,0.005762547720223665,0.0004415521107148379
1772806912448355600,4.37535546875,-0.0008953547803685069,0.005662412848323584,0.0007478156476281583
1772806912458287600,4.38528759765625,-0.0014293185668066144,0.0035414716694504023,-0.002031991956755519
1772806912468219400,4.395219482421875,-0.002326271263882518,0.0062363240867853165,0.000036485307646216825
1772806912478151700,4.405151611328125,-0.0011052117915824056,0.003951065707951784,0.001511876587755978
1772806912488082700,4.415082763671875,-0.001788046327419579,0.006223807577043772,-0.000660463934764266
1772806912498014700,4.4250146484375,-0.000322775129461661,0.008669122122228146,0.000294545607175678
1772806912507946500,4.434946533203125,-0.000046072687837295234,0.006158027332276106,0.002499110298231244
1772806912517878500,4.44487841796875,0.0005044027348048985,0.006850715726613998,-0.001454884884878993
1772806912527809500,4.4548095703125,-0.002600310370326042,0.007728226948529482,0.0022804648615419865
1772806912537741600,4.464741455078125,0.0004423510399647057,0.004325506277382374,-0.001216798322275281
1772806912547673600,4.474673583984375,-0.001898034941405058,0.004819256253540516,-0.002620816696435213
1772806912557605600,4.484605712890625,-0.002174471039324999,0.00424161646515131,0.0019835224375128746
1772806912567536600,4.49453662109375,0.0014165353495627642,0.0009246495319530368,0.0002388855500612408
1772806912577468700,4.50446875,-0.001323857344686985,0.0036842171102762222,-0.001184574095532298
1772806912587400700,4.514400634765625,-0.0010657970560714602,0.003969441633671522,0.00048709215479902923
1772806912597332700,4.524332763671875,-0.0006487460341304541,0.005583050660789013,-0.003376621985808015
1772806912607264500,4.534264404296875,-0.0005898901727050543,0.005643771030008793,-0.00041012681322172284
1772806912617195500,4.544195556640625,0.0000500674286740832,0.0060048955492675304,-0.0005017395596951246
1772806912627127600,4.55412744140625,-0.0012607404496520758,0.00657641002908349,-0.00045353634050115943
1772806912637059600,4.5640595703125,-0.0010098706698045135,0.006109291687607765,0.0007896272582001984
1772806912646991600,4.57399169921875,-0.002513757674023509,0.007228351663798094,-0.001499359728768468
1772806912656922600,4.583922607421875,-0.002663427498191595,0.009290969930589199,0.0004069310089107603
1772806912666854700,4.593854736328125,-0.000987766426987946,0.008652077987790108,0.001583249308168888
1772806912676786700,4.60378662109375,0.001237571006640792,0.006767891347408295,-0.0002735066518653184
1772806912686718700,4.61371875,-0.003288205014541745,0.006056028418242931,0.001294029993005097
1772806912696649500,4.6236494140625,-0.0010756507981568575,-0.00017230652156285942,-0.0008546083699911833
1772806912706581500,4.63358154296875,-0.003367034485563636,0.0049026133492589,0.0013398362789303064
1772806912716513500,4.643513427734375,-0.0017251957906410098,0.004679706413298845,0.00039760995423421264
1772806912726445600,4.653445556640625,-0.0006820355774834752,0.002291117561981082,-0.00196354859508574
1772806912736376600,4.66337646484375,0.0013582120882347226,0.009458216838538647,0.0023883229587227106
1772806912746308600,4.67330859375,-0.0011494202772155404,0.004222441930323839,-0.0011076086666435003
1772806912756240600,4.68324072265625,-0.0011411645682528615,0.009868077002465725,0.0005880259559489787
1772806912766172700,4.693172607421875,-0.0015864450251683593,0.007990015670657158,0.0014197311829775572
1772806912776103400,4.703103515625,0.00008628641808172688,0.007728759665042162,0.002499909373000264
1772806912786035500,4.713035400390625,-0.0025539714843034744,0.0073133064433932304,-0.002496979897841811
1772806912795967500,4.722967529296875,-0.00250550196506083,0.007712514605373144,-0.001279382617212832
1772806912805899500,4.7328994140625,0.00007962851668708026,0.009722135961055756,-0.0002817624481394887
1772806912815830800,4.742830810546875,-0.0013840447645634413,0.007434746716171503,0.0004876247840002179
1772806912825762600,4.752762451171875,-0.0017678063595667481,0.008992962539196014,-0.0007922904333099723
1772806912835694600,4.762694580078125,0.00044661210267804563,0.005031776614487171,-0.0005760417552664876
1772806912845626600,4.772626708984375,-0.0025012409314513206,0.008502407930791378,-0.001431182725355029
1772806912855557600,4.7825576171875,-0.0024056334514170885,0.006403304636478424,-0.002627208363264799
1772806912865489700,4.79248974609375,-0.001791242160834372,0.004291950259357691,-0.0005486111622303724
1772806912875421400,4.80242138671875,-0.0016905746888369322,0.007769772317260504,-0.00042211104300804436
1772806912885353500,4.812353515625,-0.0004988100845366716,0.005518335849046707,-0.0014234596164897084
1772806912895284700,4.82228466796875,-0.0005893575726076961,0.0017960357945412397,0.0006729807937517762
1772806912905216800,4.832216796875,0.0012322446564212441,0.003385410411283374,-0.001478320686146617
1772806912915148500,4.8421484375,-0.0018034926615655422,0.005939115304499865,-0.0004524710529949516
1772806912925080600,4.85208056640625,-0.001094559207558632,0.003941478207707405,-0.0005049353349022567
1772806912935011600,4.862011474609375,-0.00015686018741689622,0.004992628004401922,-0.0013733921805396676
1772806912944943600,4.871943603515625,-0.0012274509062990546,0.00908510759472847,-0.0008154599345289171
1772806912954875600,4.881875732421875,-0.0013334447285160422,0.007053914945572615,0.0024341291282325983
1772806912964807400,4.891807373046875,-0.0015816513914614916,0.005874666851013899,0.0008591357618570328
1772806912974738700,4.90173876953125,-0.0027739484794437885,0.006323409732431173,0.002305764937773347
1772806912984670700,4.911670654296875,-0.000642620783764869,-0.003946005832403898,0.0013787185307592154
1772806912994602800,4.921602783203125,-0.002588326344266534,0.016172578558325768,0.0018413095967844129
1772806913004534800,4.93153466796875,0.00018189390539191663,-0.00031185615807771683,-0.0013084110105410218
1772806913014466600,4.941466552734375,-0.000046871635277057067,0.005327120888978243,-0.0006745787104591727
1772806913024397600,4.9513974609375,0.0001776328426785767,0.0025244103744626045,-0.00038456046604551375
1772806913034329600,4.96132958984375,-0.0007014766451902688,0.002435460686683655,0.0005374259199015796
1772806913044261600,4.97126171875,0.0005491438205353916,0.007510913070291281,-0.0005379585199989378
1772806913054193400,4.981193359375,-0.0024346618447452784,0.006434197071939707,-0.0009664611425250769
1772806913064124700,4.991124755859375,0.0010290454374626279,0.005302620120346546,0.0026043052785098553
1772806913074056700,5.001056640625,-0.002258626976981759,0.006584665738046169,-0.0013291836949065328
1772806913083988700,5.01098876953125,0.0005320995696820319,0.007987885735929012,-0.000023435817638528533
1772806913093920800,5.020920654296875,-0.0007432882557623088,0.006481601390987635,-0.0015326491557061672
1772806913103851500,5.0308515625,-0.0012056130217388272,0.003564641112461686,0.00021784658019896597
1772806913113783600,5.040783447265625,-0.0001525991247035563,0.0037497307639569044,0.000031425301131093875
1772806913123715600,5.050715576171875,-0.0016431703697890043,0.005826996639370918,0.00041971419705078006
1772806913133647600,5.060647705078125,0.0018911106744781137,0.0007693872321397066,-0.0010508833220228553
1772806913143578600,5.07057861328125,-0.0021049624774605036,0.006512227933853865,-0.0004500742070376873
1772806913153510700,5.0805107421875,0.0002921487612184137,0.005599029827862978,0.0036551884841173887
1772806913163442700,5.090442626953125,-0.0031150993891060352,0.005434979218989611,0.0012508867075666785
1772806913173374700,5.100374755859375,0.000708134553860873,0.0057348511181771755,0.0019180085510015488
1772806913183305500,5.110305419921875,-0.0015305186389014125,0.005422994960099459,-0.0029518476221710443
1772806913193237500,5.120237548828125,-0.0013315805699676275,0.005409146659076214,0.0013406352372840047
1772806913203169500,5.13016943359375,0.0011494202772155404,0.00809041690081358,0.0016112125013023615
1772806913213101600,5.1401015625,-0.0006058691651560366,0.006607036106288433,0.0002692455891519785
1772806913223032800,5.15003271484375,-0.00040480049210600555,0.004762264434248209,-0.0012831110507249832
1772806913232964600,5.159964599609375,-0.0009038768475875258,0.006133792456239462,0.0010317085543647408
1772806913242896600,5.169896728515625,0.000060986389144090936,0.005017928313463926,-0.0014564828015863895
1772806913252828700,5.17982861328125,-0.0005052016349509358,0.00657481187954545,-0.002129463478922844
1772806913262759700,5.189759765625,-0.0006846986943855882,0.008036088198423386,-0.001181644620373845
1772806913272691500,5.19969140625,-0.0006404902087524533,0.006078931502997875,0.0004780374001711607
1772806913282623500,5.20962353515625,-0.001365668955259025,0.00574896577745676,-0.0001507349224993959
1772806913292555500,5.219555419921875,0.00046392265358008444,0.004974784795194864,0.00010998855577781796
1772806913302486800,5.22948681640625,-0.00026045716367661953,0.00612287363037467,-0.0019800602458417416
1772806913312418800,5.239418701171875,0.0009648632840253413,0.006877613253891468,0.0025747441686689854
1772806913322350600,5.2493505859375,0.0001400822657160461,0.006369215901941061,0.0025478461757302284
1772806913332282600,5.25928271484375,-0.0029638318810611963,0.0038519962690770626,0.0010490191634744406
1772806913342213600,5.269213623046875,0.0012753878254443407,0.0028517129831016064,-0.00021438446128740907
1772806913352145700,5.279145751953125,-0.00014540860138367862,0.0049348375760018826,0.0003866909828502685
1772806913362077700,5.28907763671875,0.0015188007382676005,0.003555852686986327,-0.0003563309437595308
1772806913372009500,5.299009521484375,0.00043809000635519624,0.006433397997170687,-0.0014532869681715965
1772806913381940500,5.3089404296875,-0.0015425028977915645,-0.0013704627053812146,-0.002222940558567643
1772806913391872800,5.318872802734375,2.6631610694494157e-7,0.0018844527658075094,-0.0018879148410633206
1772806913401804800,5.3288046875,-0.0020719394087791443,0.009159144014120102,-0.0002681803307496011
1772806913411736600,5.338736572265625,-0.001990979304537177,0.00567040266469121,-0.00054142065346241
1772806913421667300,5.348667236328125,-0.002435727044939995,0.006880542729049921,-0.001567802974022925
1772806913431599400,5.358599365234375,-0.0025273398496210575,0.006682670209556818,0.0006101301987655461
1772806913441531400,5.368531494140625,0.0021640846971422434,0.004095142707228661,-0.0022650184109807014
1772806913451463400,5.37846337890625,-0.0015986956423148513,0.003052781568840146,0.0004966795677319169
1772806913461395500,5.3883955078125,-0.0019265307346358895,0.005466138012707233,-0.0025385250337421894
1772806913471326500,5.398326416015625,-0.0015425028977915645,0.0033486587926745415,0.00045673211570829153
1772806913481258500,5.408258544921875,-0.00020532972121145576,0.006969226058572531,-0.00015393071225844324
1772806913491190500,5.4181904296875,-0.00000958738019107841,0.005989449098706245,-0.00253453035838902
1772806913501122600,5.42812255859375,-0.0011113371001556516,0.00446905056014657,-0.0006532734259963036
1772806913511053300,5.43805322265625,-0.0002990729990415275,0.004405933897942305,-0.0010905644157901406
1772806913520985300,5.4479853515625,-0.0011108045000582933,0.006381732877343893,-0.00035473305615596473
1772806913530917400,5.45791748046875,-0.0013917679898440838,0.005822202656418085,0.000355532014509663
1772806913540849400,5.467849365234375,-0.0022746059112250805,0.003885019337758422,-0.000008788431841821875
1772806913550780400,5.477780517578125,-0.0011507519520819187,0.004024568945169449,0.0017896442441269755
1772806913560712400,5.48771240234375,-0.0019217369845137,0.004541754722595215,0.0003938815207220614
1772806913570644500,5.49764453125,-0.0010423612548038363,0.005179315805435181,0.00036724991514347494
1772806913580576500,5.507576416015625,-0.0013941648649051785,0.0038093857001513243,-0.0011105381418019533
1772806913590507500,5.517507568359375,-0.0010426276130601764,0.005188636481761932,-0.0001174454009742476
1772806913600439600,5.527439453125,-0.0007068029372021556,0.004543885588645935,0.001184574095532298
1772806913610371300,5.537371337890625,-0.0027254789602011442,0.0051750545389950275,-0.0013086773687973619
1772806913620303400,5.547303466796875,-0.002008556155487895,0.007452589925378561,0.0011478224769234657
1772806913630234400,5.557234375,-0.0022021678742021322,0.006960437633097172,-0.0006053365068510175
1772806913640166400,5.56716650390625,0.000461259507574141,0.003817641409114003,-0.0011369034182280302
1772806913650098400,5.577098388671875,0.0002942793071269989,0.008028898388147354,0.0003611246356740594
1772806913660030500,5.587030517578125,-0.00004793690095539205,0.0083700492978096,0.0006175870657898486
1772806913669961500,5.59696142578125,-0.0003121224872302264,0.006480802316218615,0.0015238607302308083
1772806913679893500,5.6068935546875,-0.0025963156949728727,0.007690942846238613,-0.0003203782835043967
1772806913689825500,5.616825439453125,0.00046312372433021665,0.006828344892710447,0.0010258496040478349
1772806913699757300,5.62675732421875,-0.001853826455771923,0.006452839355915785,0.000006924218723725062
1772806913709688300,5.636688232421875,-0.002403769176453352,0.004777444526553154,0.0013800500892102718
1772806913719620400,5.646620361328125,-0.0007542071980424225,0.005018726922571659,-0.0008780442294664681
1772806913729552400,5.656552490234375,-0.000666589243337512,0.006535930093377829,-0.0023379891645163298
1772806913739484700,5.666484619140625,-0.0029286781791597605,0.007526625879108906,-0.0015736619243398309
1772806913749415400,5.67641552734375,0.000639424950350076,0.0089404983446002,-0.0005033374181948602
1772806913759347500,5.686347412109375,-0.0011140003334730864,0.003765976056456566,0.0009108011145144701
1772806913769279500,5.696279541015625,0.00037816885742358863,0.007652859669178724,-0.0003147856332361698
1772806913779211500,5.70621142578125,0.0009054747642949224,0.007111705373972654,0.002377936616539955
1772806913789142300,5.716142333984375,0.0003382214636076242,0.007454986684024334,0.00011105381418019533
1772806913799074300,5.72607421875,-0.0005174521938897669,0.00481339730322361,0.0006005428149364889
1772806913809006300,5.73600634765625,-0.0006460828590206802,0.003964381758123636,0.0023166837636381388
1772806913818938400,5.7459384765625,-0.00227833422832191,0.00842570886015892,-0.001812014845199883
1772806913828869400,5.755869384765625,-0.0009480853332206607,0.007819839753210545,-0.00008229167724493891
1772806913838801400,5.765801513671875,-0.0009145294898189604,0.008918393403291702,-0.0009619337506592274
1772806913848733400,5.7757333984375,-0.0004617921367753297,0.007610515225678682,-0.00024767397553659976
1772806913858665500,5.78566552734375,-0.002496713539585471,0.007478422485291958,-0.00007962851668708026
1772806913868597500,5.795597412109375,-0.0013552826130762696,0.0051505533047020435,0.00041518680518493056
1772806913878528300,5.8055283203125,0.0009446232579648495,0.009953032247722149,-0.002397643867880106
1772806913888460300,5.815460205078125,-0.0019302591681480408,0.0052024852484464645,0.00018668759730644524
1772806913898392300,5.825392333984375,-0.000029294771593413316,0.00515880947932601,-0.00008708536915946752
1772806913908323600,5.835323486328125,-0.0005054679932072759,0.005794506054371595,0.0008756473544053733
1772806913918255400,5.84525537109375,0.0010428938549011946,0.00532685499638319,-0.0004450142150744796
1772806913928187400,5.8551875,-0.00004793690095539205,0.006157760974019766,0.0006287723081186414
1772806913938119400,5.865119384765625,-0.0021821942646056414,0.006945523899048567,0.00043516053119674325
1772806913948051500,5.875051513671875,-0.002055960241705179,0.006315952632576227,-0.0006684534018859267
1772806913957982500,5.884982421875,-0.0012506204657256603,0.005282912403345108,0.0008058725506998599
1772806913967914200,5.894914306640625,-0.0007025419035926461,0.0065191518515348434,-0.0005976133397780359
1772806913977846300,5.90484619140625,-0.0003382214636076242,0.005616606678813696,0.00035899411886930466
1772806913987778300,5.9147783203125,-0.0023899206425994635,0.006302637048065662,-0.0007267766632139683
1772806913997709600,5.92470947265625,-0.002109223511070013,0.0033835461363196373,-0.0009707222343422472
1772806914007641600,5.9346416015625,-0.002472212305292487,0.006051767151802778,-0.00012969593808520585
1772806914017573400,5.944573486328125,-0.0023494407068938017,0.009278985671699047,-0.0003177151083946228
1772806914027505400,5.95450537109375,-0.00021278657368384302,0.005570800509303808,0.0006199838826432824
1772806914037436400,5.9644365234375,0.00037976677413098514,0.00535561703145504,0.0004846953088417649
1772806914047368400,5.974368408203125,0.0010743191232904792,0.006060289219021797,0.0005898901727050543
1772806914057300200,5.98430029296875,-0.0018429075134918094,0.006019809283316135,0.0002918824611697346
1772806914067232300,5.994232177734375,-0.0010048106778413057,0.006770288106054068,-0.0002966761530842632
1772806914077163500,6.00416357421875,0.0000881506348378025,0.007757521700114012,-0.0012474246323108673
1772806914087095600,6.014095458984375,-0.002822417998686433,0.0059449742548167706,-0.00007057376933516935
1772806914097027600,6.024027587890625,-0.0009566074586473405,0.005268797744065523,-0.0000428768944402691
1772806914106959400,6.03395947265625,-0.0015358449891209602,0.0065292720682919025,0.000642620783764869
1772806914116890400,6.043890380859375,-0.0001893507578643039,0.0033755565527826548,-0.0019433086272329092
1772806914126822400,6.053822509765625,-0.003007774008437991,0.002769421087577939,-0.0008743157959543169
1772806914136754400,6.06375439453125,-0.00002210423735959921,0.006882407236844301,-0.0009179916232824326
1772806914146686500,6.0736865234375,0.00013528858835343271,0.0070129018276929855,-0.0004386226355563849
1772806914156617500,6.083617431640625,0.0005965480813756585,0.007000918034464121,-0.0004261057765688747
1772806914166549500,6.093549560546875,-0.0009744506096467376,0.007647799793630838,0.0016397082945331931
1772806914176481500,6.1034814453125,-0.003972903825342655,0.006924751214683056,0.00032650353386998177
1772806914186413600,6.11341357421875,-0.0007531419396400452,0.0059713395312428474,0.0013992248568683863
1772806914196344300,6.12334423828125,-0.0001512675517005846,0.007876299321651459,0.003353186184540391
1772806914206276400,6.1332763671875,-0.0006769755273126066,0.004027232062071562,0.0002612560929264873
1772806914216208400,6.14320849609375,-0.002267149044200778,0.005175587255507708,-0.0002561961009632796
1772806914226140400,6.153140380859375,0.00038456046604551375,0.002846386516466737,-0.0014386395923793316
1772806914236071400,6.163071533203125,-0.0031071100383996964,0.003736947663128376,0.0014000238152220845
1772806914246003500,6.17300341796875,-0.0009153284481726587,0.003394731320440769,0.000979244359768927
1772806914255935500,6.182935546875,-0.0026202842127531767,0.004745753016322851,-0.0018937737913802266
1772806914265867500,6.192867431640625,-0.0025545042008161545,0.004287955816835165,0.001284708851017058
1772806914275798300,6.20279833984375,0.000365918327588588,0.005527124274522066,-0.0004700479330495
1772806914285730300,6.212730224609375,-0.0031649006996303797,0.008168980479240417,-0.0017385114915668964
1772806914295662300,6.222662353515625,-0.00043356261448934674,0.006479470990598202,0.002983273006975651
1772806914305594400,6.232594482421875,-0.0020160130225121975,0.008379369974136353,0.00005752427750849165
1772806914315526400,6.2425263671875,0.0002956108655780554,0.005781989078968763,-0.0012564794160425663
1772806914325457400,6.25245751953125,0.0012008192716166377,0.004995823837816715,-0.00047377636656165123
1772806914335389400,6.262389404296875,-0.00010359696898376569,0.003983556292951107,-0.0008743157959543169
1772806914345321500,6.272321533203125,0.0001054611784638837,0.0054490938782691956,0.0002868224401026964
1772806914355253500,6.28225341796875,-0.0012149340473115444,0.002972354181110859,-0.0036850159522145987
1772806914365184500,6.2921845703125,-0.0002798982313834131,0.00407623453065753,-0.00023435817274730653
1772806914375116300,6.3021162109375,-0.0019313243683427572,0.0070709590800106525,0.00020426444825716317
1772806914385048300,6.31204833984375,-0.0012434299569576979,0.004797418136149645,-0.001541171339340508
1772806914394980400,6.32198046875,-0.0005803027888759971,0.006931675598025322,-0.0015835155500099063
1772806914404911600,6.33191162109375,0.0015219965716823936,0.007764978799968958,0.0035537220537662506
1772806914414843400,6.341843505859375,-0.0006567355012521148,0.006786000914871693,0.0024618261959403753
1772806914424775400,6.351775390625,-0.002782470779493451,0.006303968373686075,-0.0008362325606867671
1772806914434707500,6.36170751953125,-0.000978978001512587,0.004853344522416592,0.00043595946044661105
1772806914444638200,6.37163818359375,-0.001764344167895615,0.00526693370193243,-0.0010407633380964398
1772806914454570200,6.3815703125,-0.0022956449538469315,0.009127185679972172,-0.0013078784104436636
1772806914464502300,6.391502197265625,-0.002935868687927723,0.007518370170146227,-0.0008980178972706199
1772806914474434300,6.401434326171875,-0.0024370586033910513,0.0057471017353236675,-0.0011430287268012762
1772806914484365300,6.411365234375,-0.0003278351214248687,0.0059753344394266605,-0.00024580975878052413
1772806914494297300,6.42129736328125,-0.00006231796578504145,0.006570018362253904,-0.0014969628537073731
1772806914504229400,6.4312294921875,-0.00040986048406921327,0.004728708881884813,-0.0006639260682277381
1772806914514161400,6.441161376953125,-0.0022897860035300255,0.006892260629683733,0.0024442493449896574
1772806914524092200,6.451092041015625,-0.00002157160452043172,0.001680720946751535,0.0015225291717797518
1772806914534024200,6.461024169921875,-0.0030751521699130535,0.005385976750403643,0.0008692557457834482
1772806914543956200,6.470956298828125,0.00007004113285802305,0.009011604823172092,-0.001526257605291903
1772806914553888300,6.48088818359375,0.00017017599020618945,0.0070435283705592155,-0.0014615427935495973
1772806914563819500,6.490819580078125,0.00047164582065306604,0.0070800138637423515,0.0019859191961586475
1772806914573751300,6.500751220703125,-0.0004809668753296137,0.005073588341474533,0.0004362257895991206
1772806914583683300,6.510683349609375,0.00038695731200277805,0.0054094125516712666,-0.0007550061563961208
1772806914593615400,6.520615478515625,-0.0020562265999615192,0.009230249561369419,0.0007454187725670636
1772806914603546400,6.53054638671875,0.0003944141499232501,0.006441121455281973,-0.0007238471880555153
1772806914613478400,6.540478515625,-0.0015749934827908874,0.004839229863137007,0.0004040015337523073
1772806914623410200,6.55041015625,-0.004707137122750282,0.0023105584550648928,-0.0008964200387708843
1772806914633342200,6.56034228515625,-0.00014061490946915,0.006318349856883287,-0.000895621080417186
1772806914643273500,6.5702734375,-0.005375057924538851,0.006463758181780577,-0.0013662016717717052
1772806914653205500,6.58020556640625,-0.0008564725867472589,0.006864031311124563,0.002633866388350725
1772806914663137300,6.59013720703125,-0.001184574095532298,0.005398760084062815,0.0009510148083791137
1772806914673069300,6.6000693359375,-0.001894839107990265,0.0073471288196742535,0.000978978001512587
1772806914683000300,6.610000244140625,-0.002348109148442745,0.0087807085365057,-0.000029827404432580806
1772806914692932400,6.619932373046875,-0.0024567660875618458,0.003352653468027711,-0.002118011936545372
1772806914702864400,6.629864501953125,-0.00008788431296125054,0.004375840071588755,-0.001368598430417478
1772806914712796200,6.639796142578125,0.0003938815207220614,0.006083458662033081,0.00036671728594228625
1772806914722727400,6.6497275390625,0.00040000680019147694,0.003299123840406537,0.0007909588166512549
1772806914732659500,6.659659423828125,-0.0006985471700318158,0.005879993550479412,-0.0005792375304736197
1772806914742591500,6.669591552734375,-0.0016189356101676822,0.005304750520735979,-0.0007789746159687638
1772806914752523500,6.6795234375,-0.0036847495939582586,0.004504736978560686,0.0002335592289455235
1772806914762454300,6.689454345703125,0.00004500742215896025,0.004126035608351231,0.00006072007090551779
1772806914772386300,6.69938623046875,-0.0018410432385280728,0.006125803105533123,0.0001155811914941296
1772806914782318300,6.709318359375,-0.0012575446162372828,0.004087153356522322,0.001434112200513482
1772806914792250400,6.71925048828125,0.00016058860637713224,0.004261324182152748,-0.0013440974289551377
1772806914802182100,6.72918212890625,-0.0008463526028208435,0.004566522315144539,-0.0009238505735993385
1772806914812113400,6.739113525390625,0.000520647969096899,0.0051899682730436325,0.001241033081896603
1772806914822045400,6.74904541015625,-0.0006756439688615501,0.009060872718691826,0.0016767261549830437
1772806914831977500,6.7589775390625,-0.0010439591715112329,0.002775812754407525,0.0003454120014794171
1772806914841909500,6.768909423828125,-0.0010436928132548928,0.006052566226571798,0.0006029396899975836
1772806914851840300,6.77884033203125,-0.0010162622202187777,0.0008080030675046146,-0.0005158542771823704
1772806914861772300,6.788772216796875,0.0013307816116139293,-0.02821885421872139,-0.004712463356554508
1772806914871704300,6.798704345703125,-0.0020218719728291035,0.025793246924877167,0.0018293253378942609
1772806914881636400,6.80863623046875,-0.0013265205780044198,0.00863103847950697,-0.00036618465674109757
1772806914891567000,6.818567138671875,-0.0026581010315567255,-0.006325007416307926,-0.0014391721924766898
1772806914901499400,6.82849951171875,-0.00101120222825557,0.009841712191700935,0.002558765234425664
1772806914911431400,6.838431396484375,-0.0016610135789960623,0.004065048880875111,-0.0015486282063648105
1772806914921363500,6.848363525390625,-0.0005246427026577294,0.0037436054553836584,0.00029587719473056495
1772806914931294200,6.858294189453125,-0.001344896387308836,0.0062395199202001095,-0.0017390442080795765
1772806914941226200,6.868226318359375,-0.0008215851848945022,0.00826991442590952,0.0014705975772812963
1772806914951158300,6.878158203125,-0.0008892294717952609,0.007723699789494276,-0.0005006743012927473
1772806914961090300,6.88809033203125,-0.00036218989407643676,0.005780923645943403,-0.000023169501218944788
1772806914971021300,6.898021240234375,-0.0009265137487091124,0.007231281138956547,-0.0007243797881528735
1772806914980953300,6.907953369140625,-0.003623230615630746,0.007437143474817276,-0.002080195117741823
1772806914990885400,6.917885498046875,-0.00021198761533014476,0.007889880798757076,0.0003352919884491712
1772806915000817400,6.9278173828125,-0.0016247945604845881,0.007876831106841564,-0.00022423815971706063
1772806915010748400,6.93774853515625,-0.0024658208712935448,0.006245112512260675,-0.0007512777228839695
1772806915020680400,6.947680419921875,-0.0002854908525478095,0.005584915168583393,0.0018293253378942609
1772806915030612200,6.9576123046875,0.0003701793903019279,0.0062554990872740746,0.00006205165118444711
1772806915040544300,6.967544189453125,0.00022849922243040055,0.005775863770395517,0.0019419770687818527
1772806915050475300,6.977475341796875,-0.0003765709698200226,0.006930610164999962,-0.0007185208378359675
1772806915060407300,6.9874072265625,-0.00021651499264407903,0.006052299868315458,0.0015254586469382048
1772806915070339300,6.99733935546875,-0.001425057533197105,0.0038775624707341194,-0.00037390782381407917
1772806915080271400,7.007271240234375,-0.00041092574247159064,0.0020748688839375973,0.0002743055811151862
1772806915090202400,7.017202392578125,0.002130528911948204,0.0025427863001823425,-0.0010847054654732347
1772806915100134400,7.027134521484375,0.0003352919884491712,0.0016413062112405896,0.0018338527297601104
1772806915110066400,7.03706640625,-0.0009920274605974555,0.004364654887467623,-0.0003808320325333625
1772806915119998200,7.046998291015625,-0.001404284848831594,0.004506867378950119,-0.000931041082367301
1772806915129929200,7.05692919921875,-0.001460743835195899,0.003245860803872347,0.0009914948605000973
1772806915139861200,7.066861328125,-0.0005017395596951246,0.0033193640410900116,-0.000716922979336232
1772806915149793300,7.076793212890625,0.0010450243717059493,0.005601959303021431,-0.0011494202772155404
1772806915159725300,7.086725341796875,0.000362988852430135,0.007868043147027493,0.0006412891671061516
1772806915169656300,7.09665625,-0.002240517409518361,0.005261873826384544,0.001119060325436294
1772806915179588400,7.10658837890625,-0.001603489276021719,0.0051628039218485355,0.0010194580536335707
1772806915189520400,7.116520263671875,-0.004344148561358452,0.005243497900664806,-0.0003235740587115288
1772806915199452400,7.126452392578125,-0.0013752563390880823,0.004806472919881344,0.00007829693640815094
1772806915209383200,7.136383056640625,-0.0001661812566453591,0.003168362658470869,0.0008769789128564298
1772806915219315200,7.146315185546875,0.001160072977654636,0.003753725439310074,-0.001746234716847539
1772806915229247200,7.156247314453125,0.0008727178792469203,-0.0015299860388040543,0.0019318570848554373
1772806915239179300,7.16617919921875,0.0006865629111416638,0.003914846573024988,0.0013251889031380415
1772806915249110300,7.1761103515625,-0.0022623552940785885,0.0038120488170534372,-0.0026490462478250265
1772806915259042300,7.186042236328125,-0.0008210525847971439,0.0033574472181499004,-0.0012658004416152835
1772806915268974300,7.195974365234375,-0.00044075315236113966,0.0029949909076094627,-0.00013688647595699877
1772806915278906400,7.20590625,-0.002130262553691864,0.004306597635149956,0.0008580705034546554
1772806915288838400,7.21583837890625,0.0001424791116733104,0.00812024436891079,-0.00045673211570829153
1772806915298769200,7.22576904296875,-0.0009443568997085094,0.006307164207100868,-0.0008117315010167658
1772806915308701200,7.235701171875,0.0002926813904196024,0.0031617048662155867,-0.0025039040483534336
1772806915318633200,7.24563330078125,-0.0012684636749327183,0.006337790749967098,-0.0013622068800032139
1772806915328565200,7.255565185546875,-0.0009829727932810783,0.03484293445944786,0.004722317215055227
1772806915338496300,7.265496337890625,-0.004236556589603424,0.08872666954994202,0.01167396642267704
1772806915348428300,7.27542822265625,-0.0010961571242660284,0.032710809260606766,0.0032751555554568768
1772806915358360300,7.2853603515625,-0.0009076052810996771,0.05350823327898979,0.006082393694669008
1772806915368292400,7.295292236328125,-0.004357464145869017,0.04523645341396332,0.005780390929430723
1772806915378223400,7.305223388671875,-0.002490321872755885,0.02936800941824913,0.0007693872321397066
1772806915388155100,7.315155029296875,-0.001796834752894938,0.0043840957805514336,0.00010093380114994943
1772806915398087200,7.325087158203125,0.0011076086666435003,-0.0002378202771069482,-0.0007699198904447258
1772806915408019200,7.335019287109375,-0.0014008227735757828,-0.025002023205161095,-0.005892510060220957
1772806915417950500,7.344950439453125,0.0004596615908667445,-0.03135951980948448,-0.006622748915106058
1772806915427882800,7.3548828125,0.00044474788592197,-0.037334054708480835,-0.008147141896188259
1772806915437814800,7.364814697265625,0.0011488876771181822,-0.04148459434509277,-0.007161772809922695
1772806915447746800,7.374746826171875,0.0002133192028850317,-0.009018261916935444,-0.001945439144037664
1772806915457677800,7.384677734375,-0.00003062635369133204,0.016203470528125763,0.000604004948399961
1772806915467609600,7.394609619140625,-0.0017395768081769347,0.0019773971289396286,-0.0003326288133393973
