time,seconds_elapsed,z,y,x
1772806908092038700,0.01903857421875,0.0017337012104690075,0.00009859632700681686,0.0014852900058031082
1772806908101970700,0.028970703125,0.0013460550690069795,0.0019326219335198402,-0.0040548196993768215
1772806908111901700,0.038901611328125,0.0010861305054277182,0.0056293560191988945,-0.0033043406438082457
1772806908121833700,0.048833740234375,-0.003340537892654538,0.0010501490905880928,-0.0009560917969793081
1772806908131765800,0.058765869140625,-0.00141826830804348,-0.010286394506692886,-0.0013646206352859735
1772806908141697500,0.068697509765625,-0.0019711414352059364,-0.005232698284089565,0.00007452160934917629
1772806908151628800,0.07862890625,0.0003010676009580493,0.0032691764645278454,0.0026154436636716127
1772806908161560800,0.088560791015625,0.0031846086494624615,-0.006662197411060333,-0.0007266760803759098
1772806908171492900,0.098492919921875,0.0008724520448595285,0.0052091097459197044,-0.0009181572822853923
1772806908181424600,0.108424560546875,0.0012487949570640922,0.012588107958436012,0.0004564098489936441
1772806908191356700,0.118356689453125,0.0004051055875606835,-0.0052601308561861515,0.0005717247258871794
1772806908201287700,0.12828759765625,-0.0005392513703554869,-0.004967449698597193,0.0029174371156841516
1772806908211219700,0.1382197265625,0.001471435185521841,0.002089128363877535,0.0008039523963816464
1772806908221151700,0.14815185546875,0.0025117583572864532,-0.006879146676510572,-0.0007768610375933349
1772806908231083500,0.15808349609375,0.00013089238200336695,0.00043149664998054504,0.0009195725433528423
1772806908241014800,0.168014892578125,0.0019068976398557425,0.008926179260015488,0.0018589406972751021
1772806908250946800,0.17794677734375,0.0003657263587228954,-0.0011821147054433823,-0.002261768328025937
1772806908260878800,0.18787890625,-0.000310779782012105,-0.0033119383733719587,-0.0012789886677637696
1772806908270811000,0.197810791015625,-0.002297764178365469,0.0017776289023458958,0.0015061452286317945
1772806908280741600,0.20774169921875,0.0014993601944297552,-0.010381834581494331,-0.0029565407894551754
1772806908290673700,0.217673583984375,0.0014399717329069972,-0.005432083271443844,-0.001610579201951623
1772806908300605700,0.227605712890625,-0.0016789099900051951,0.0041485498659312725,0.0020311279222369194
1772806908310537700,0.237537841796875,0.0004835766740143299,0.0038734455592930317,-0.0008267102530226111
1772806908320468700,0.24746875,-0.0011254780692979693,0.003397981636226177,0.0014101616106927395
1772806908330400800,0.25740087890625,0.0001975802588276565,0.00597272627055645,0.0030948773492127657
1772806908340332800,0.267332763671875,0.0013694623485207558,-0.005171803291887045,0.0014913969207555056
1772806908350264800,0.277264892578125,-0.0016303224256262183,-0.006101246923208237,-0.001217836863361299
1772806908360195600,0.287195556640625,-0.0005330882268026471,0.000005030538886785507,0.00021846241725143045
1772806908370127600,0.297127685546875,0.0019513748120516539,-0.006549541372805834,-0.001092611812055111
1772806908380059600,0.3070595703125,0.0021435744129121304,0.0005642902106046677,-0.000789526617154479
1772806908389991700,0.31699169921875,0.00000665406696498394,0.006439222954213619,-0.0009927258361130953
1772806908399922700,0.326922607421875,0.0015112849650904536,0.0008105435408651829,-0.0002259011089336127
1772806908409854700,0.336854736328125,-0.00009619910269975662,0.0009261248633265495,0.000506468175444752
1772806908419786800,0.346786865234375,-0.0006705372361466289,0.001566262450069189,0.0025047031231224537
1772806908429718800,0.35671875,-0.0005914414068683982,-0.007523372769355774,-0.0015417037066072226
1772806908439649800,0.36664990234375,-0.003016083035618067,0.000124253798276186,-0.002148409839719534
1772806908449581600,0.37658154296875,-0.0012421513674780726,0.0011240043677389622,-0.0006437236443161964
1772806908459513600,0.386513671875,0.0016673028003424406,-0.00036089029163122177,-0.000105901992355939
1772806908469445600,0.396445556640625,0.0009943220065906644,0.003231181763112545,0.0017636370612308383
1772806908479377000,0.406376953125,0.0009575238800607622,0.004039629828184843,0.0004095472686458379
1772806908489309000,0.416308837890625,0.00022968195844441652,-0.00132078118622303,0.0007027613464742899
1772806908499240700,0.42624072265625,0.0006865249015390873,0.0007235473021864891,0.0018864176236093044
1772806908509172700,0.4361728515625,-0.0005819386569783092,-0.002547081094235182,0.0002674819843377918
1772806908519103700,0.446103759765625,0.00024019181728363037,-0.0021387292072176933,-0.0008556469110772014
1772806908529035800,0.456035888671875,-0.00046368164476007223,0.0020999577827751637,0.0012559734750539064
1772806908538967600,0.465967529296875,0.000041067483834922314,0.0030812532640993595,-0.00023314669670071453
1772806908548899600,0.475899658203125,-0.00013257062528282404,0.004444258753210306,-0.0006307566072791815
1772806908558830800,0.485830810546875,-0.0001774356933310628,0.01816077157855034,0.002743248362094164
1772806908568763000,0.495762939453125,0.0007315012044273317,0.001041972078382969,-0.001133515266701579
1772806908578695000,0.50569482421875,0.0014173431554809213,-0.011125029996037483,-0.0015507455682381988
1772806908588626700,0.515626708984375,0.0016562286764383316,0.01494571939110756,0.0005691307014785707
1772806908598558700,0.525558837890625,-0.00004345271736383438,0.0004127561114728451,-0.0011216584825888276
1772806908608489700,0.53548974609375,-0.0008269546087831259,0.003931324928998947,0.002522078575566411
1772806908618421800,0.545421875,-0.0014307871460914612,0.008380942046642303,-0.00009956637222785503
1772806908628353800,0.555353759765625,0.0019133442547172308,-0.008902440778911114,-0.0005339279305189848
1772806908638285600,0.56528564453125,-0.0002095641102641821,0.006372466683387756,-0.0016189594753086567
1772806908648216800,0.575216796875,0.0011851333547383547,-0.002506778808310628,0.0014042609836906195
1772806908658148900,0.58514892578125,-0.002383233280852437,-0.012865142896771431,-0.0005768639384768903
1772806908668081000,0.595080810546875,-0.000616225996054709,-0.0023403307422995567,-0.0016088389093056321
1772806908678012700,0.6050126953125,-0.0011992573272436857,0.00045084115117788315,-0.0006143524660728872
1772806908687943700,0.614943603515625,0.0016239596297964454,-0.0007459833286702633,-0.00019836673163808882
1772806908697875700,0.624875732421875,0.000981639721430838,0.00217781076207757,-0.0005998613778501749
1772806908707807700,0.634807861328125,0.0011371682630851865,-0.0006278296932578087,0.0007961676456034184
1772806908717739800,0.64473974609375,0.002681281417608261,-0.005081783048808575,-0.0034464604686945677
1772806908727670800,0.6546708984375,0.00041786080691963434,-0.002303839661180973,-0.001651223748922348
1772806908737602800,0.664602783203125,-0.0023252787068486214,-0.005752550438046455,-0.0010171865578740835
1772806908747534800,0.674534912109375,-0.0013404418714344501,-0.01209406927227974,0.001060611684806645
1772806908757467000,0.684466796875,-0.00024119310546666384,-0.004582799505442381,-0.00032487697899341583
1772806908767397600,0.694397705078125,-0.0010055203456431627,-0.00029564276337623596,0.0002911121700890362
1772806908777329700,0.70432958984375,0.0010747574269771576,-0.0009949905797839165,0.0000035034972825087607
1772806908787261700,0.71426171875,0.00013546051923185587,-0.0007933895103633404,-0.000977338757365942
1772806908797193700,0.72419384765625,-0.0030427114106714725,-0.0005234335549175739,0.0007543379324488342
1772806908807124700,0.734124755859375,0.0006140749901533127,-0.0034510467667132616,-0.0013482277281582355
1772806908817056800,0.744056884765625,-0.0001608370803296566,-0.005704523529857397,-0.0014543019933626056
1772806908826988800,0.75398876953125,0.0009656799957156181,0.0031800484284758568,0.002662678947672248
1772806908836920800,0.7639208984375,0.0014982932480052114,0.007591930218040943,-0.002816857537254691
1772806908846851800,0.773851806640625,0.00015313061885535717,0.0011236444115638733,-0.00008685108332429081
1772806908856783600,0.78378369140625,0.00014541286509484053,0.00035842927172780037,0.0014951183693483472
1772806908866715600,0.793715576171875,0.0012639404740184546,0.0032506221905350685,0.0006591521669179201
1772806908876647700,0.803647705078125,0.0011976119130849838,0.0007349126972258091,-0.0014555403031408787
1772806908886579700,0.813579833984375,-0.001068738172762096,-0.005313392262905836,0.000548488344065845
1772806908896510700,0.8235107421875,0.0016765354666858912,-0.002713613910600543,-0.000044117416109656915
1772806908906442800,0.83344287109375,0.0001295051770284772,-0.003245713422074914,0.00013644489808939397
1772806908916374800,0.843374755859375,-0.0004207841120660305,0.002040318213403225,0.00006326312723103911
1772806908926306800,0.853306884765625,0.0008077321108430624,0.010542992502450943,0.0031243006233125925
1772806908936237800,0.86323779296875,0.0012933346442878246,0.00956249050796032,0.0014438028447329998
1772806908946169600,0.873169677734375,-0.0015437307301908731,0.0073166475631296635,0.0011505887378007174
1772806908956101600,0.8831015625,0.0008651965763419867,0.0076124342158436775,0.0022100480273365974
1772806908966033700,0.89303369140625,0.0014415045734494925,0.006490444764494896,-0.0001319357252214104
1772806908975964700,0.902964599609375,-0.00004699314013123512,0.004354423377662897,0.0014050910249352455
1772806908985896700,0.912896728515625,-0.0002427354920655489,0.010302327573299408,0.0018298651557415724
1772806908995828700,0.922828857421875,0.002600594889372587,0.008693769574165344,0.00220219767652452
1772806909005760800,0.9327607421875,0.0026538579259067774,0.004752557259052992,-0.0015904100146144629
1772806909015691800,0.94269189453125,0.0007216106168925762,-0.007546454668045044,0.0001741288142511621
1772806909025623800,0.952623779296875,0.0011112310457974672,-0.06559217721223831,-0.007152493577450514
1772806909035555800,0.962555908203125,-0.0016039697220548987,0.030947141349315643,0.005760361906141043
1772806909045487600,0.972487548828125,-0.002274820115417242,0.009846115484833717,0.00021566063514910638
1772806909055418600,0.982418701171875,0.0004759204457513988,-0.0373309850692749,-0.005677922163158655
1772806909065350700,0.9923505859375,0.001074599102139473,0.012486640363931656,0.00001538356445962563
1772806909075282700,1.00228271484375,2.19675712287426e-7,0.01832917518913746,0.0007093183230608702
1772806909085214700,1.012214599609375,0.0009379186667501926,-0.01663094013929367,-0.002537874039262533
1772806909095145700,1.022145751953125,0.0011410955339670181,0.0006390358321368694,-0.0008826546836644411
1772806909105077800,1.032077880859375,-0.00081046880222857,-0.004868114832788706,0.0014550681225955486
1772806909115009800,1.042009765625,0.0014357795007526875,-0.005707809701561928,0.003519816556945443
1772806909124941800,1.05194189453125,-0.0009850338101387024,0.007724908646196127,0.0015312342438846827
1772806909134872600,1.06187255859375,-0.0018994209822267294,0.013072002679109573,0.0020787788089364767
1772806909144804600,1.0718046875,0.0003549449611455202,-0.0076223560608923435,-0.00044483254896476865
1772806909154736600,1.081736572265625,0.0017819262575358152,-0.018078457564115524,-0.0008024791022762656
1772806909164668700,1.091668701171875,-0.0007129231235012412,0.0024521169252693653,0.0025847952347248793
1772806909174601000,1.10160107421875,-0.000700225355103612,0.002367872279137373,0.0025435863062739372
1772806909184531700,1.11153173828125,-0.002226483076810837,-0.008469062857329845,-0.0015587470261380076
1772806909194463700,1.121463623046875,0.0022406596690416336,-0.004597448743879795,0.0008120719576254487
1772806909204395800,1.131395751953125,0.00017111713532358408,0.004104429855942726,-0.0020292545668780804
1772806909214327800,1.141327880859375,-0.0004390840185806155,0.0083737438544631,0.0021210196428000927
1772806909224258600,1.151258544921875,0.0015899784630164504,0.0012226235121488571,-0.00008993658411782235
1772806909234190600,1.161190673828125,0.003689014818519354,0.0009057074785232544,0.001823019003495574
1772806909244122600,1.17112255859375,-0.000550737720914185,0.0009163599461317062,-0.0009818222606554627
1772806909254055000,1.181054931640625,-0.0015378224197775126,-0.000624100212007761,0.0007354745757766068
1772806909263985700,1.190985595703125,0.0004259926499798894,0.0007444983348250389,0.0034569588024169207
1772806909273917700,1.200917724609375,0.002680102363228798,-0.0017510619945824146,-0.00035995536018162966
1772806909283849700,1.210849609375,-0.0016430070390924811,-0.00036994693800807,-0.0009951192187145352
1772806909293781800,1.22078173828125,-0.000053977593779563904,-0.0020659356378018856,0.00008888907905202359
1772806909303712800,1.230712646484375,0.0007047569379210472,-0.002569805597886443,-0.001680515124462545
1772806909313644500,1.24064453125,-0.001094231498427689,-0.001330370083451271,-0.0017337950412184
1772806909323576600,1.25057666015625,0.00047756615094840527,-0.004013771191239357,-0.0015297968639060855
1772806909333508600,1.260508544921875,0.0012639627093449235,-0.0074196006171405315,-0.0030497328843921423
1772806909343440000,1.27043994140625,-0.0007587081054225564,-0.004635531920939684,-0.0002875022473745048
1772806909353371600,1.28037158203125,0.0019880016334354877,-0.0061592822894454,-0.0010210518958047032
1772806909363303700,1.2903037109375,0.000040432089008390903,-0.002950972178950906,-0.002166477497667074
1772806909373235700,1.300235595703125,0.002571600489318371,-0.009962830692529678,-0.003696638625115156
1772806909383166700,1.310166748046875,0.0004157716757617891,-0.023899151012301445,-0.003451361320912838
1772806909393098800,1.3200986328125,-0.0006593923317268491,-0.019990429282188416,-0.002300103660672903
1772806909403030500,1.330030517578125,-0.0014333068393170834,0.03418838977813721,0.006985274143517017
1772806909412962600,1.339962646484375,0.00087550631724298,0.052604589611291885,0.008563314564526081
1772806909422893300,1.349893310546875,-0.0004872331628575921,-0.0018482664600014687,-0.001963095273822546
1772806909432825300,1.359825439453125,0.001427734037861228,-0.027314655482769012,-0.00320954667404294
1772806909442757400,1.36975732421875,-0.00007322360761463642,0.025680650025606155,0.0036504901945590973
1772806909452689400,1.379689453125,0.0006737952935509384,0.030337991192936897,0.003219031495973468
1772806909462620200,1.3896201171875,0.000137168332003057,-0.024359876289963722,-0.0029909275472164154
1772806909472552200,1.39955224609375,-0.000014736782759428024,-0.007792175747454166,0.0002710304979700595
1772806909482484200,1.409484130859375,0.00041163526475429535,0.019451960921287537,0.0026534944772720337
1772806909492416300,1.419416259765625,-0.001996031031012535,-0.006715194322168827,-0.0028387606143951416
1772806909502347300,1.42934716796875,0.0009819157421588898,-0.02547210454940796,-0.0020683081820607185
1772806909512279300,1.439279296875,-0.0008327048271894455,0.00023627979680895805,-0.00010139773803530261
1772806909522211300,1.44921142578125,-0.004198407754302025,0.016886096447706223,0.0021923829335719347
1772806909532143400,1.459143310546875,-0.001499128993600607,0.006081828847527504,0.0004608872113749385
1772806909542075400,1.469075439453125,0.0005616251146420836,0.000055095646530389786,-0.000501845555845648
1772806909552006100,1.479006103515625,-0.0021703816018998623,0.01844395510852337,0.0011655683629214764
1772806909561938200,1.488938232421875,-0.00020763184875249863,0.02795969508588314,0.001809787005186081
1772806909571870200,1.4988701171875,-0.0011774537852033973,0.023517634719610214,0.003587346524000168
1772806909581802500,1.508802490234375,0.0035406025126576424,-0.023700477555394173,-0.0013671983033418655
1772806909591733200,1.518733154296875,0.0026310887187719345,-0.03818193078041077,-0.004068369511514902
1772806909601665300,1.528665283203125,-0.002339168917387724,0.019940491765737534,0.0003671253507491201
1772806909611597300,1.538597412109375,0.0007480856729671359,-0.008882916532456875,-0.0019858505111187696
1772806909621529300,1.548529296875,-0.001001078519038856,-0.006346521899104118,-0.001749628223478794
1772806909631460400,1.55846044921875,0.001183867803774774,0.0015550749376416206,0.00170694210100919
1772806909641392000,1.56839208984375,0.0006128860404714942,-0.008070654235780239,0.00038548163138329983
1772806909651324200,1.57832421875,0.0004532566526904702,-0.0010449672117829323,-0.000579650339204818
1772806909661256200,1.588256103515625,0.001027167891152203,0.00007835449650883675,0.0014395583420991898
1772806909671187500,1.5981875,0.00042383925756439567,-0.0049645197577774525,0.0008831470622681081
1772806909681119200,1.608119140625,0.00029121385887265205,0.0012201392091810703,-0.0012258101487532258
1772806909691051300,1.61805126953125,-0.0006211345316842198,-0.0018673515878617764,0.0006294541526585817
1772806909700983300,1.6279833984375,0.0007320175645872951,0.00047250138595700264,-0.0011569942580536008
1772806909710914300,1.637914306640625,0.000814409926533699,-0.001370762474834919,-0.0013638404197990894
1772806909720846300,1.647846435546875,-0.0006724328268319368,0.000749912578612566,0.00012619821063708514
1772806909730778000,1.657778076171875,0.00040537427412346005,0.0006501325406134129,-0.001687744166702032
1772806909740710100,1.667710205078125,0.0008802158990874887,0.003529808484017849,0.0015325502026826143
1772806909750641400,1.677641357421875,0.0002518664114177227,0.0016508596017956734,-0.001100952154956758
1772806909760573400,1.687573486328125,-0.0008096696110442281,-0.001122556161135435,0.0014958962565287948
1772806909770505500,1.69750537109375,-0.00040957797318696976,-0.0027097053825855255,-0.00007278826524270698
1772806909780437200,1.707437255859375,-0.0007326194318011403,-0.001298496499657631,-0.002530086785554886
1772806909790368300,1.7173681640625,-0.000680531607940793,0.0006145364604890347,-0.00203637033700943
1772806909800300300,1.72730029296875,-0.0008773392764851451,-0.0007338221184909344,-0.0004248914192430675
1772806909810232300,1.737232421875,-0.0007896443130448461,0.0026495447382330894,0.001488800742663443
1772806909820164000,1.7471640625,0.000960052537266165,0.003591771237552166,0.00036361528327688575
1772806909830095400,1.757095458984375,-0.0003297401126474142,-0.0019916347227990627,0.0012180658522993326
1772806909840027400,1.76702734375,0.0008564318413846195,-0.0011969474144279957,0.0005267091910354793
1772806909849959400,1.77695947265625,-0.00020017940551042557,0.0009023356251418591,-0.0002668117231223732
1772806909859891500,1.786891357421875,-0.0003671596059575677,-0.0006827777251601219,0.00029724580235779285
1772806909869822200,1.796822265625,0.0010008353274315596,0.000805580522865057,-0.001166091300547123
1772806909879754200,1.806754150390625,-0.0020098681561648846,0.002535836771130562,-0.0016161655075848103
1772806909889686300,1.816686279296875,0.0012894924730062485,0.0008479221723973751,-0.002063197549432516
1772806909899618300,1.826618408203125,-0.0002002798719331622,-0.0034655998460948467,0.00013018188474234194
1772806909909549300,1.83654931640625,0.0016230149194598198,3.236345946788788e-7,-0.0012347936863079667
1772806909919481300,1.8464814453125,0.0009526972426101565,-0.002199979964643717,0.0035197478719055653
1772806909929413400,1.856413330078125,0.0007702384609729052,-0.0006241886876523495,-0.000010847419616766274
1772806909939345400,1.866345458984375,0.0009739702800288796,0.0017713247798383236,0.002244317438453436
1772806909949276200,1.876276123046875,-0.00027774216141551733,-0.0014792410656809807,-0.0000051872775657102466
1772806909959208200,1.886208251953125,-0.0002007768489420414,0.0019836677238345146,0.00005207068898016587
1772806909969140200,1.89614013671875,0.0006790971965529025,-0.0009228172712028027,0.001132002449594438
1772806909979072300,1.906072265625,-0.0014746012166142464,0.0006998465396463871,-0.0008459272794425488
1772806909989003500,1.91600341796875,0.0016377023421227932,-0.0031718567479401827,0.0020535034127533436
1772806909998935300,1.925935302734375,0.00009173736907541752,-0.004363621585071087,0.0014393783640116453
1772806910008867300,1.935867431640625,-0.0008001017849892378,-0.002260081237182021,-0.0005732207209803164
1772806910018799400,1.94579931640625,0.00018580042524263263,0.0008550183847546577,0.0005655469722114503
1772806910028730400,1.95573046875,0.00044527358841151,0.0016590268351137638,0.002587750321254134
1772806910038662100,1.965662109375,0.00038721668533980846,0.0037797014228999615,-0.001584890647791326
1772806910048594200,1.97559423828125,-0.0007555920165032148,0.0037201386876404285,0.000833352969493717
1772806910058526200,1.985526123046875,-0.0019894344732165337,0.0021507381461560726,-0.0016066351672634482
1772806910068457500,1.99545751953125,-0.0003117389278486371,-0.00322396750561893,-0.0006688995636068285
1772806910078389500,2.005389404296875,0.002507749479264021,-0.034379489719867706,-0.004080142360180616
1772806910088321300,2.0153212890625,-0.0013867674861103296,0.0025689401663839817,0.002003858797252178
1772806910098253300,2.02525341796875,-0.001423519104719162,0.024904606863856316,0.0026374247390776873
1772806910108185300,2.035185302734375,0.0019313192460685968,0.00003734324127435684,-0.0013416230212897062
1772806910118116400,2.045116455078125,0.0003973384737037122,-0.006877021864056587,-0.0015293757896870375
1772806910128048400,2.05504833984375,0.00023126002633944154,0.002834723796695471,-0.0000747649755794555
1772806910137980200,2.064980224609375,-0.00046489026863127947,0.002837653737515211,-0.0021706728730350733
1772806910147912200,2.074912109375,-0.0005210116505622864,-0.0015135970897972584,-0.0004939939826726913
1772806910157843500,2.084843505859375,-0.0010528448037803173,0.0009194668382406235,0.00035182596184313297
1772806910167775500,2.094775390625,-0.00088046386372298,-0.0015179459005594254,0.0014260538155212998
1772806910177707300,2.104707275390625,-0.0019161672098562121,-0.0010106135159730911,0.00024600717006251216
1772806910187639300,2.114639404296875,-0.0017857151105999947,0.0029329052194952965,-0.001556775183416903
1772806910197570300,2.1245703125,0.00043216539779677987,0.003429585136473179,-0.0031288391910493374
1772806910207502300,2.13450244140625,-0.0020120919216424227,0.0005024159327149391,-0.0010122043313458562
1772806910217434400,2.144434326171875,-0.002010227646678686,0.003922713454812765,0.00015932015958242118
1772806910227366100,2.1543662109375,-0.0010044402442872524,0.0028845262713730335,-0.0016149379080161452
1772806910237297400,2.16429736328125,-0.00009150872938334942,-0.006903123576194048,0.0025952535215765238
1772806910247229400,2.1742294921875,0.0001729282084852457,-0.0004889890551567078,0.000277165905572474
1772806910257161500,2.184161376953125,-0.0006659675855189562,0.0033816490322351456,-0.0005697192973457277
1772806910267093500,2.194093505859375,0.000034150551073253155,-0.003989624325186014,0.001778115052729845
1772806910277024300,2.204024169921875,0.00015585706569254398,-0.002548854099586606,0.0001245584135176614
1772806910286956300,2.213956298828125,0.0013164097908884287,-0.0002938695251941681,0.0003067492216359824
1772806910296888300,2.223888427734375,0.001786990324035287,-0.0007905489765107632,0.0012156860902905464
1772806910306820400,2.2338203125,0.0015426974277943373,-0.0002645743079483509,0.0011318466858938336
1772806910316751400,2.24375146484375,-0.0007865031948313117,-0.00013700919225811958,0.00008256126602645963
1772806910326683400,2.253683349609375,0.001613542204722762,0.001626536250114441,0.0005214781267568469
1772806910336615400,2.263615478515625,0.001130977412685752,-0.00022223033010959625,0.0005899213720113039
1772806910346547500,2.27354736328125,-0.00201640697196126,0.0012738578952848911,-0.0012109981616958976
1772806910356478200,2.283478271484375,0.0012174696894362569,0.0006296392530202866,-0.00033029087353497744
1772806910366410200,2.29341015625,-0.00021409138571470976,0.00009735021740198135,0.00007397054287139326
1772806910376342300,2.30334228515625,0.00041947467252612114,0.002864640671759844,0.00012164111831225455
1772806910386274300,2.3132744140625,-0.000658593256957829,0.0027880296111106873,-0.0003175631572958082
1772806910396205300,2.323205322265625,0.002480741124600172,-0.0011417306959629059,-0.002612142823636532
1772806910406137300,2.333137451171875,0.0009776391088962555,-0.0010515376925468445,-0.0010795588605105877
1772806910416069400,2.3430693359375,-0.0009624736849218607,-0.002212143037468195,-0.00009898295684251934
1772806910426001200,2.353001220703125,0.0027636948507279158,0.0006829849444329739,0.00022707358584739268
1772806910435932200,2.36293212890625,0.0017519600223749876,0.000376987736672163,-0.0031034755520522594
1772806910445864200,2.3728642578125,-0.00026380422059446573,-0.00088855205103755,-0.002530075376853347
1772806910455796200,2.382796142578125,-0.002439873293042183,-0.0005234326235949993,0.0030697532929480076
1772806910465728300,2.392728271484375,-0.00175469892565161,0.0008347784169018269,0.0007561793318018317
1772806910475659000,2.402658935546875,0.0006450755754485726,-0.0002704337239265442,-0.004551234655082226
1772806910485591300,2.41259130859375,-0.001352936029434204,0.0009715757332742214,-0.0006876936531625688
1772806910495523300,2.4225234375,0.0008284592186100781,0.0024435054510831833,0.0005019403761252761
1772806910505455400,2.432455322265625,-0.00011877843644469976,0.0015012812800705433,0.0008944860310293734
1772806910515386000,2.44238623046875,0.0013118716888129711,0.0008440129458904266,-0.0006362989079207182
1772806910525318100,2.452318115234375,0.0014286123914644122,-0.0002818848006427288,0.002572614001110196
1772806910535250200,2.462250244140625,-0.0007115037878975272,0.0009258585050702095,0.0014735274016857147
1772806910545182200,2.47218212890625,-0.001297658309340477,0.0008123251609504223,0.0013135022018104792
1772806910555113000,2.482113037109375,-0.0013732919469475746,0.0025726743042469025,-0.0008596372208558023
1772806910565045000,2.492044921875,-0.0018628216348588467,0.0005373032763600349,0.000825841969344765
1772806910574977300,2.501977294921875,0.0013625327264890075,0.0007732594385743141,-0.0017843222012743354
1772806910584909300,2.511909423828125,-0.0005035791546106339,0.001302163116633892,-0.000373012968339026
1772806910594840300,2.52184033203125,-0.0013928087428212166,0.002195121254771948,-0.0012055170955136418
1772806910604772000,2.531772216796875,0.0004276061663404107,-0.009994078427553177,-0.0027523732278496027
1772806910614704000,2.5417041015625,-0.0011436588829383254,0.002358994446694851,0.0010879049077630043
1772806910624636200,2.55163623046875,-0.00004861690104007721,0.005973260849714279,-0.000052812116337008774
1772806910634567200,2.561567138671875,-0.0011895152274519205,-0.0024340723175555468,0.00006995960575295612
1772806910644499200,2.571499267578125,-0.00020540005061775446,-0.003088850062340498,-0.00003566047234926373
1772806910654431200,2.58143115234375,-0.00021951482631266117,-0.0004762890748679638,0.0013545096153393388
1772806910664363300,2.59136328125,0.0002456693327985704,-0.004196998197585344,0.0011597166303545237
1772806910674294300,2.601294189453125,-0.0014060231624171138,-0.003104036906734109,-0.000805696239694953
1772806910684226300,2.611226318359375,-0.0017199995927512646,-0.00569600285962224,-0.0009616093011572957
1772806910694158000,2.621157958984375,0.0004456830210983753,-0.004903978668153286,0.0029628248885273933
1772806910704090000,2.631090087890625,0.0004182085976935923,-0.0020896377973258495,0.0000881638698047027
1772806910714021000,2.641021240234375,0.0003031600499525666,-0.0005442053079605103,-0.00044207152677699924
1772806910723953200,2.650953125,-0.002458422677591443,-0.00027123093605041504,-0.0008890994358807802
1772806910733885200,2.66088525390625,0.00005054136272519827,0.0000030742958188056946,-0.00011198903666809201
1772806910743817200,2.670817138671875,0.003697299864143133,0.0015162825584411621,0.0006723733386024833
1772806910753749200,2.680749267578125,0.0006029729847796261,0.008048750460147858,-0.0010435013100504875
1772806910763680300,2.69068017578125,-0.0009486875496804714,0.006759868003427982,0.0018181310733780265
1772806910773612300,2.7006123046875,-0.0011313804425299168,0.0034711305052042007,-0.00017284814384765923
1772806910783544300,2.71054443359375,0.0026330463588237762,-0.0005873497575521469,-0.0003965776413679123
1772806910793476000,2.72047607421875,0.0005776186008006334,-0.0028797986451536417,-0.0012929977383464575
1772806910803407000,2.730406982421875,-0.0014652280369773507,-0.006579278502613306,-0.000806931930128485
1772806910813339100,2.740339111328125,-0.0007456419989466667,-0.004540895111858845,-0.0011036080541089177
1772806910823271200,2.750271240234375,0.00009617325849831104,-0.003410477889701724,0.0011498932726681232
1772806910833203200,2.760203125,0.0001345227938145399,0.002635164186358452,0.00032990597537718713
1772806910843134200,2.77013427734375,-0.0006382018327713013,0.002474670298397541,0.00038004107773303986
1772806910853066200,2.780066162109375,0.00009922741446644068,0.0017297840677201748,-0.0030485126189887524
1772806910862998300,2.789998291015625,0.0001257583498954773,-0.00014100270345807076,-0.002357065211981535
1772806910872930300,2.799930419921875,0.0013100660871714354,0.004545361734926701,-0.0006377283716574311
1772806910882861000,2.809861083984375,-0.0011987586040049791,0.003420354798436165,-0.0019178217044100165
1772806910892793000,2.81979296875,0.0007251088973134756,0.0039955973625183105,0.0025600173976272345
1772806910902725000,2.82972509765625,-0.00013227504678070545,0.00017893873155117035,-0.00007043772347969934
1772806910912657200,2.8396572265625,-0.0013610573951154947,0.004957182332873344,-0.0012614033184945583
1772806910922588200,2.849588134765625,0.0003959380555897951,0.004001724999397993,0.0007361745811067522
1772806910932520200,2.859520263671875,0.0003597190952859819,0.001648023258894682,-0.0014747817767784
1772806910942452200,2.8694521484375,0.000874292163643986,-0.0006749611347913742,-0.00048257550224661827
1772806910952384300,2.87938427734375,0.0004852043348364532,0.0008734008297324181,-0.0005004187114536762
1772806910962315000,2.88931494140625,-0.000983338337391615,0.0033147153444588184,0.00045341867371462286
1772806910972247000,2.8992470703125,0.0018215029267594218,0.0048854476772248745,0.0007431706180796027
1772806910982179000,2.909178955078125,0.0014146252069622278,0.007194496691226959,0.0007087739650160074
1772806910992111000,2.919111083984375,-0.0013372190296649933,0.002216516062617302,-0.0005793970776721835
1772806911002042400,2.92904248046875,0.00016183184925466776,0.0019006719812750816,0.00011600561992963776
1772806911011974100,2.93897412109375,0.00091257703024894,0.0024119997397065163,-0.0005332730361260474
1772806911021906200,2.94890625,-0.0007878267206251621,0.0018892139196395874,0.0008910851320251822
1772806911031838200,2.958838134765625,0.0002806334523484111,0.001736082136631012,0.001470855320803821
1772806911041769200,2.968769287109375,-0.0013516861945390701,-0.00011490471661090851,0.0003094440617132932
1772806911051701000,2.978700927734375,0.001097090425901115,0.003237216267734766,-0.00005753952427767217
1772806911061633000,2.988633056640625,0.0011731236008927226,0.001018269918859005,0.00005085350858280435
1772806911071565000,2.99856494140625,-0.00033209507819265127,0.004618331324309111,0.001415457227267325
1772806911081496300,3.008496337890625,0.0010278660338371992,0.004853222984820604,0.0007759657455608249
1772806911091428400,3.018428466796875,0.0008544942829757929,-0.00010531628504395485,0.001178103033453226
1772806911101360000,3.028360107421875,0.0018452471122145653,0.0004731239750981331,0.0005149010103195906
1772806911111292200,3.038292236328125,-0.000416575581766665,-0.003211891744285822,0.0000680225421092473
1772806911121223200,3.04822314453125,-0.00016100157517939806,0.0009897812269628048,-0.001453117816708982
1772806911131155200,3.0581552734375,-0.001404431415721774,0.0015040375292301178,0.002289955038577318
1772806911141087200,3.068087158203125,-0.0008555407403036952,-0.01566491648554802,-0.0021364055573940277
1772806911151019000,3.07801904296875,-0.0011721906485036016,-0.011770842596888542,-0.002204582327976823
1772806911160950300,3.0879501953125,0.0005361969815567136,0.0187025498598814,0.004346697591245174
1772806911170882300,3.09788232421875,0.000820089946500957,-0.002848016330972314,0.0013825995847582817
1772806911180814300,3.107814453125,0.0005297790630720556,0.004652242176234722,0.002663558116182685
1772806911190746000,3.11774609375,0.00038516940549016,-0.0036411075852811337,-0.0025703522842377424
1772806911200677000,3.127677001953125,-0.0000357672106474638,0.00002331426367163658,-0.0005672464612871408
1772806911210609200,3.137609130859375,0.001549346256069839,0.0056614927016198635,-0.000009314218914369121
1772806911220541200,3.147541259765625,-0.001314937137067318,-0.0009814039804041386,0.0001636170782148838
1772806911230473200,3.15747314453125,0.0013114723842591047,0.0034788576886057854,0.0012584426440298557
1772806911240404200,3.167404296875,0.0017052835319191217,-0.0017519486136734486,-0.0010628212476149201
1772806911250336300,3.177336181640625,0.001417928491719067,-0.0015554074198007584,0.000026411602448206395
1772806911260268300,3.187268310546875,-0.002405668841674924,0.0006441893056035042,0.00010860228212550282
1772806911270200300,3.197200439453125,0.00010702363215386868,0.0003062342293560505,-0.0010171158937737346
1772806911280131000,3.207131103515625,0.0010793028632178903,0.0010331850498914719,-0.0006251580780372024
1772806911290063000,3.21706298828125,-0.00025201134849339724,-0.0009119878523051739,0.0011479745153337717
1772806911299995100,3.2269951171875,0.0007339432486332953,0.0004785405471920967,0.00012754660565406084
1772806911309927200,3.23692724609375,0.0013973367167636752,0.0010734908282756805,-0.000582718406803906
1772806911319858200,3.246858154296875,0.0004481328069232404,-0.00014224089682102203,-0.0014313252177089453
1772806911329790200,3.256790283203125,0.00014080398250371218,0.0005629640072584152,-0.00035114705679006875
1772806911339722200,3.26672216796875,0.0021224902011454105,0.0017174389213323593,-0.0012933069374412298
1772806911349654300,3.276654296875,-0.0008493312634527683,-0.0005963155999779701,-0.0021111636888235807
1772806911359585300,3.286585205078125,-0.001167047070339322,0.0033069923520088196,-0.0004271864308975637
1772806911369517000,3.29651708984375,-0.0022019515745341778,0.0012824572622776031,-0.0003302473924122751
1772806911379449000,3.306448974609375,-0.0003344195429235697,0.0008111651986837387,-0.0010332985548302531
1772806911389381000,3.316381103515625,-0.0009464139584451914,0.0005411207675933838,0.0022852665279060602
1772806911399312400,3.3263125,-0.000018951715901494026,0.0006559072062373161,0.0007461539353244007
1772806911409244400,3.336244384765625,-0.0014480038080364466,0.0022655222564935684,0.0006084684864617884
1772806911419176200,3.34617626953125,0.0002702992642298341,0.002218735869973898,-0.000057776065659709275
1772806911429108700,3.356108642578125,0.0010948139242827892,0.00012762146070599556,0.0008040228276513517
1772806911439041000,3.366041015625,-0.0010423471685498953,0.0012930193915963173,-0.00012033747043460608
1772806911448972000,3.375971923828125,-0.0002825474366545677,0.005080300383269787,0.0000809975026641041
1772806911458904000,3.385904052734375,0.001189844566397369,0.00013010622933506966,-0.0012592889834195375
1772806911468836000,3.395836181640625,-0.0002485287841409445,-0.0007372857071459293,0.0010315621038898826
1772806911478767900,3.405767822265625,0.001607031561434269,-0.0010121227242052555,-0.0020044920966029167
1772806911488699000,3.415698974609375,-0.0002513221697881818,-0.000538878608494997,0.0005191191448830068
1772806911498631000,3.425630859375,0.0005228267982602119,0.0018816697411239147,0.002728072227910161
1772806911508563000,3.43556298828125,0.00025384750915691257,0.000822264701128006,0.00114189344458282
1772806911518495000,3.445494873046875,0.00009442667942494154,0.001532184425741434,-0.0005106552271172404
1772806911528426000,3.455426025390625,0.00007205607835203409,0.00013136165216565132,0.0010606097057461739
1772806911538358000,3.46535791015625,0.0008430230082012713,0.0013699978590011597,-0.00011444075789768249
1772806911548290000,3.4752900390625,-0.0008896294748410583,0.0037183729000389576,0.0001787732617231086
1772806911558222000,3.48522216796875,-0.00024953647516667843,0.0038398001343011856,0.0015986472135409713
1772806911568152800,3.49515283203125,-0.0007539392681792378,0.003273346461355686,0.0013283363077789545
1772806911578084900,3.5050849609375,0.0010831779800355434,-0.0005055018700659275,-0.00008105499728117138
1772806911588017000,3.515016845703125,-0.0014215249102562666,-0.0010967236012220383,0.0002499759430065751
1772806911597949000,3.524948974609375,-0.002228548750281334,-0.00017704302445054054,0.0003618411428760737
1772806911607880000,3.5348798828125,-0.00036220543552190065,0.003248848021030426,0.0008393458556383848
1772806911617812000,3.54481201171875,0.0024498996790498495,-0.0062635219655931,-0.00044680314022116363
1772806911627744000,3.554743896484375,0.0004956721095368266,0.003142230212688446,0.00042165370541624725
1772806911637676000,3.564676025390625,-0.0007322923047468066,-0.00022133812308311462,-0.000008062152119236998
1772806911647607000,3.57460693359375,-0.00025452126283198595,-0.002244008705019951,0.00028408662183210254
1772806911657538800,3.584538818359375,0.00022063235519453883,0.002039592247456312,-0.0009122469928115606
1772806911667470800,3.594470947265625,-0.0012110830284655094,-0.0012424872256815434,0.0017980519914999604
1772806911677403000,3.60440283203125,-0.00027058436535298824,-0.0007355078123509884,0.0023273294791579247
1772806911687334100,3.614334228515625,0.00013608031440526247,0.0017777178436517715,-0.0003890947555191815
1772806911697266000,3.624265869140625,0.001248108339495957,0.0007087225094437599,-0.00023157896066550165
1772806911707198000,3.634197998046875,0.00009922066237777472,-0.0010542902164161205,0.00018174364231526852
1772806911717130000,3.6441298828125,-0.00022054556757211685,-0.0011854944750666618,0.0007884448859840631
1772806911727061000,3.65406103515625,-0.00171777477953583,0.002359972335398197,0.0013746066251769662
1772806911736993000,3.663992919921875,-0.00005201192107051611,0.0013651028275489807,0.0002146350161638111
1772806911746924800,3.6739248046875,0.00015065469779074192,0.0006164880469441414,-0.0025316167157143354
1772806911756856800,3.68385693359375,0.0006075015990063548,-0.000019830185920000076,-0.0003619350609369576
1772806911766788000,3.6937880859375,-0.0004990418674424291,-0.0006952076219022274,0.002749169711023569
1772806911776720100,3.70372021484375,-0.0020322734490036964,0.0020033884793519974,0.0006775500951334834
1772806911786652200,3.713652099609375,-0.0006096127908676863,0.001713370904326439,-0.0015563092892989516
1772806911796584000,3.723583984375,0.0006662359810434282,0.0008453154005110264,-0.0005247306544333696
1772806911806515000,3.733514892578125,0.002468130784109235,0.0026061972603201866,-0.0011633567046374083
1772806911816447000,3.743447021484375,0.0011860557133331895,-0.00016212370246648788,-0.0009628859697841108
1772806911826379000,3.75337890625,-0.0016107960836961865,0.0002064574509859085,-0.00032079784432426095
1772806911836310800,3.763310791015625,-0.00007887778338044882,0.0005214889533817768,0.00007610481407027692
1772806911846242000,3.773241943359375,-0.0010642473353073,0.0037367232143878937,0.0011693325359374285
1772806911856174000,3.783174072265625,0.0003278609365224838,0.0018096519634127617,0.002129943110048771
1772806911866106000,3.793106201171875,0.0007598256343044341,0.0012927320785820484,-0.0002621081948745996
1772806911876038100,3.8030380859375,0.0024379496462643147,0.0010690814815461636,0.0007747895433567464
1772806911885969000,3.812968994140625,0.00182249303907156,-0.0009253597818315029,-0.0012473486131057143
1772806911895901000,3.82290087890625,-0.0008673900738358498,-0.004441217519342899,-0.0014705173671245575
1772806911905833000,3.8328330078125,0.002076467964798212,-0.0024742064997553825,-0.001463060500100255
1772806911915765000,3.842764892578125,-0.00009124237112700939,0.001308706123381853,0.00014789996203035116
1772806911925696000,3.852696044921875,0.0002294022706337273,0.0008221468888223171,0.0009441851289011538
1772806911935628000,3.8626279296875,-0.0006079301238059998,0.0017636669799685478,0.0015483462484553456
1772806911945560000,3.87256005859375,-0.001468663802370429,0.002219866029918194,0.003368883393704891
1772806911955492000,3.8824921875,-0.0008878509979695082,-0.00040075136348605156,0.0003049933002330363
1772806911965422800,3.8924228515625,-0.0023041199892759323,-0.0008670706301927567,0.00011138148693135008
1772806911975355000,3.90235498046875,0.00033651740523055196,0.0011949185281991959,-0.0016160767991095781
1772806911985287000,3.912286865234375,-0.00045896880328655243,-0.00014331983402371407,0.000203661184059456
1772806911995219000,3.922218994140625,-0.00013567786663770676,0.0011626905761659145,-0.0024126400239765644
1772806912005151000,3.93215087890625,0.0024358704686164856,-0.0008434690535068512,0.00023054749181028455
1772806912015082000,3.94208203125,-0.0010979631915688515,0.0011603604070842266,0.001562729710713029
1772806912025014000,3.952013916015625,-0.0007147343130782247,-0.0003824089653789997,0.0006300905952230096
1772806912034946000,3.961946044921875,0.00008771650027483702,-0.00285283918492496,-0.0002053751959465444
1772806912044878000,3.971878173828125,0.0006080982275307178,0.0008982233703136444,0.0006596195162273943
1772806912054809000,3.98180908203125,-0.0002817552303895354,0.002391913440078497,0.0015720668016001582
1772806912064740900,3.991740966796875,0.001245834049768746,0.0008765743114054203,0.0016082857036963105
1772806912074673000,4.0016728515625,0.000448850158136338,0.0025965943932533264,-0.0036077811382710934
1772806912084605000,4.01160498046875,0.0001780067104846239,0.00047698477283120155,-0.0009054715046659112
1772806912094536200,4.0215361328125,0.00010563724208623171,0.0032675638794898987,0.0005756423925049603
1772806912104468000,4.031468017578125,-0.002189741237089038,0.002811097539961338,-0.0015389075269922614
1772806912114400000,4.04139990234375,0.0012817661045119166,-0.0000346209853887558,-0.0009601108031347394
1772806912124332000,4.05133203125,-0.0018983144545927644,-0.00021118856966495514,-0.0032224662136286497
1772806912134263000,4.061262939453125,0.002310995478183031,-0.004382321611046791,0.0007752744713798165
1772806912144195000,4.071195068359375,0.0008334738085977733,-0.002693877788260579,0.0009680872899480164
1772806912154126800,4.081126953125,0.0003542560734786093,-0.0011494155041873455,-0.0015970517415553331
1772806912164059000,4.091058837890625,-0.0014010333688929677,0.00032357918098568916,-0.000608752598054707
1772806912173990000,4.100989990234375,0.0029501779936254025,-0.00172500591725111,0.0004578566295094788
1772806912183922200,4.110922119140625,-0.0008533485233783722,0.0022561531513929367,-0.001115272636525333
1772806912193854200,4.120854248046875,-0.0003338425885885954,-0.0002792906016111374,0.0010165906278416514
1772806912203786000,4.130785888671875,0.00010877475142478943,0.0011569522321224213,0.0012703898828476667
1772806912213717000,4.140717041015625,0.00252332235686481,0.0009184060618281364,0.0005031498149037361
1772806912223649000,4.15064892578125,0.0028511574491858482,-0.0013189157471060753,0.0008988955523818731
1772806912233581000,4.1605810546875,0.00043022865429520607,-0.0008466406725347042,-0.000041966854041675106
1772806912243512800,4.170512939453125,-0.00010772992391139269,-0.0002090800553560257,-0.0007421118789352477
1772806912253443800,4.18044384765625,-0.0011002608807757497,0.00032787397503852844,-0.0009632595465518534
1772806912263376000,4.1903759765625,-0.0007521858206018806,-0.0006207441911101341,0.0020074965432286263
1772806912273308200,4.20030810546875,-0.0009807620663195848,-0.0008501303382217884,0.00035281837335787714
1772806912283240200,4.210240234375,0.0027239611372351646,0.0025829505175352097,0.0004122068639844656
1772806912293171000,4.2201708984375,0.003111991100013256,-0.00033349404111504555,-0.00003056479908991605
1772806912303103000,4.23010302734375,-0.0008646408095955849,-0.00032443972304463387,-0.00048809588770382106
1772806912313035000,4.240034912109375,0.0006228148704394698,0.0015665306709706783,-0.0007081394433043897
1772806912322967000,4.249967041015625,-0.0005572318332269788,-0.015090743079781532,-0.0037023313343524933
1772806912332897800,4.259897705078125,0.00006641296204179525,0.005630518775433302,0.0010631823679432273
1772806912342829800,4.269829833984375,-0.0003900529118254781,-0.00779873738065362,-0.0015030397335067391
1772806912352761900,4.279761962890625,-0.0018433183431625366,0.0020912615582346916,-0.00030721951043233275
1772806912362694100,4.289694091796875,-0.0014196094125509262,-0.004154916852712631,0.0009708314901217818
1772806912372625000,4.299625,-0.001518239383585751,-0.00042959488928318024,-0.0002669826790224761
1772806912382557000,4.309556884765625,0.0002623500186018646,-0.0011931229382753372,-0.0005000092787668109
1772806912392489000,4.319489013671875,0.0005577357369475067,-0.0009520221501588821,-0.0014117950340732932
1772806912402421000,4.3294208984375,0.00029301753966137767,0.0035990532487630844,-0.0008011322352103889
1772806912412352000,4.33935205078125,-0.00046057766303420067,-0.0023456551134586334,-0.0002087307657347992
1772806912422283800,4.34928369140625,-0.0006382105639204383,0.0014117988757789135,-0.0016955735627561808
1772806912432215800,4.3592158203125,-0.0018074261024594307,-0.0006310218013823032,-0.00003845727405860089
1772806912442147600,4.369147705078125,-0.0008161976002156734,0.000840906985104084,-0.00019398587755858898
1772806912452078600,4.37907861328125,0.0029942113906145096,0.0005620731972157955,0.001188959227874875
1772806912462010600,4.3890107421875,0.0006109484238550067,-0.0017665950581431389,-0.00238447031006217
1772806912471942700,4.398942626953125,-0.0009964143391698599,-0.0007987134158611298,-0.0006348106544464827
1772806912481874700,4.408874755859375,-0.000007316470146179199,-0.002712460933253169,0.0004597485240083188
1772806912491805400,4.418805419921875,-0.0006870755460113287,0.0017427434213459492,-0.001578079187311232
1772806912501737500,4.428737548828125,0.0007973704487085342,0.0008694925345480442,0.0011825535912066698
1772806912511669800,4.438669677734375,0.0010439029429107904,-0.0007233461365103722,-0.0005778521299362183
1772806912521601800,4.448601806640625,0.0006742562400177121,0.0011091753840446472,0.0012599952751770616
1772806912531532500,4.458532470703125,0.00000806350726634264,0.0019257008098065853,0.0001693409722065553
1772806912541464600,4.468464599609375,0.0009263214888051152,0.00020316801965236664,-0.00038619444239884615
1772806912551396600,4.478396728515625,-0.0010058822808787227,-0.0009229052811861038,-0.0008981777937151492
1772806912561328600,4.48832861328125,-0.0027531823143363,0.002017224207520485,-0.0017908693989738822
1772806912571259400,4.49825927734375,-0.0011176145635545254,-0.0020958492532372475,0.00010911047138506547
1772806912581191400,4.50819140625,0.0011047932785004377,-0.000901954248547554,0.000840148190036416
1772806912591123500,4.51812353515625,-0.0009344856953248382,-0.0019033881835639477,-0.0005120695568621159
1772806912601055700,4.5280556640625,-0.0002447271253913641,0.0010841460898518562,0.0014131295029073954
1772806912610987800,4.53798779296875,-0.0009355397196486592,0.00023388303816318512,0.0012842178111895919
1772806912620918500,4.54791845703125,0.0002767311525531113,0.0009566652588546276,-0.0020186344627290964
1772806912630850600,4.5578505859375,0.001967967953532934,-0.0002672341652214527,-0.0012641928624361753
1772806912640782600,4.567782470703125,0.0014784790109843016,0.00006432924419641495,-0.001355272950604558
1772806912650714600,4.577714599609375,-0.000663254875689745,0.0033939010463654995,0.00021749742154497653
1772806912660645400,4.587645263671875,0.0005189222865737975,-0.001002711709588766,0.002338438993319869
1772806912670577400,4.597577392578125,-0.0004564751870930195,-0.0010272981598973274,-0.0008114714873954654
1772806912680509400,4.607509521484375,-0.0008207955397665501,0.0007764608599245548,0.0015057449927553535
1772806912690441700,4.617441650390625,0.0006602283101528883,0.0007352693937718868,-0.0014919337118044496
1772806912700372700,4.627372802734375,0.0011963226133957505,-0.015172058716416359,-0.001427751500159502
1772806912710304500,4.637304443359375,0.00022453558631241322,0.004583270754665136,0.00037443547626025975
1772806912720236500,4.647236572265625,0.0005845949635840952,-0.006993224378675222,-0.0005374308675527573
1772806912730168600,4.65716845703125,-0.0017865767003968358,0.0019301455467939377,-0.0014217488933354616
1772806912740099600,4.667099609375,-0.0002776295877993107,0.0033975476399064064,-0.0005101489368826151
1772806912750031600,4.677031494140625,0.0013556958874687552,-0.002985967556014657,-0.0008852195460349321
1772806912759963400,4.68696337890625,0.000349287292920053,0.0019209063611924648,-0.0010913482401520014
1772806912769895700,4.696895751953125,-0.0012341043911874294,-0.0007134922780096531,0.000013890945410821587
1772806912779826700,4.70682666015625,-0.00038908340502530336,-0.0003489055670797825,0.002946031279861927
1772806912789758700,4.7167587890625,-0.0013216559309512377,0.0001603793352842331,0.0015866219764575362
1772806912799690500,4.7266904296875,-0.0006057983264327049,0.0008117887191474438,-0.0003947699151467532
1772806912809622500,4.73662255859375,0.00087734404951334,0.00014209561049938202,0.00007661173003725708
1772806912819553500,4.746553466796875,0.00028479070169851184,-0.0010094554163515568,0.0008268242236226797
1772806912829485600,4.756485595703125,-0.0007971713785082102,0.0009103319607675076,0.0013399175368249416
1772806912839417600,4.76641748046875,-0.0011843948159366846,-0.0011917012743651867,-0.0004915383760817349
1772806912849349400,4.776349365234375,-0.0004298718413338065,0.0009920005686581135,-0.0002008180890697986
1772806912859280600,4.78628076171875,0.00076775171328336,-0.0008397214114665985,-0.0021177614107728004
1772806912869212700,4.796212646484375,0.0005337620386853814,0.001179482787847519,-0.0010463104117661715
1772806912879144700,4.806144775390625,-0.00023189675994217396,0.0018189079128205776,-0.0018644335214048624
1772806912889076700,4.81607666015625,-0.0016238774405792356,-0.002817109925672412,-0.0012855003587901592
1772806912899007500,4.826007568359375,0.0009239688515663147,-0.0007262621074914932,-0.00030092967790551484
1772806912908939500,4.835939453125,0.0005500969127751887,-0.00013869302347302437,-0.0014015554916113615
1772806912918871600,4.84587158203125,-0.0014784327941015363,-0.0027741570957005024,0.001238968688994646
1772806912928803600,4.855803466796875,0.0010442951461300254,-0.0009181085042655468,-0.0005662685725837946
1772806912938734600,4.865734619140625,0.0008189916843548417,0.0008235988207161427,0.0003884746110998094
1772806912948666600,4.87566650390625,-0.0003369030309841037,0.00374313211068511,0.0008274733554571867
1772806912958598700,4.8855986328125,0.0038021819200366735,-0.0007067439146339893,0.0016796848503872752
1772806912968530700,4.89553076171875,0.0007026105304248631,-0.0008727493695914745,0.0010698973201215267
1772806912978461400,4.90546142578125,0.00027650478295981884,-0.008791126310825348,-0.0015426637837663293
1772806912988393500,4.9153935546875,-0.00045640673488378525,0.0016398783773183823,-0.0006026839837431908
1772806912998325500,4.925325439453125,0.0005750355776399374,0.0026393625885248184,-0.002183536533266306
1772806913008257500,4.935257568359375,-0.0028035303112119436,-0.006221264600753784,-0.002216506050899625
1772806913018189600,4.945189453125,-0.0011411854065954685,0.0006020204164087772,-0.0008417822537012398
1772806913028120600,4.95512060546875,-0.000635507982224226,-0.005472649820148945,-0.002604846376925707
1772806913038052600,4.965052490234375,0.0026393812149763107,0.0002432926557958126,-0.0015473051462322474
1772806913047984600,4.974984619140625,0.000248588970862329,0.00031573744490742683,0.0006860799621790648
1772806913057916700,4.984916748046875,0.0005497924867086112,-0.0029855170287191868,-0.000172789441421628
1772806913067847400,4.994847412109375,0.0011797189945355058,0.00267458101734519,-0.003128261771053076
1772806913077779500,5.004779541015625,0.0008758523035794497,-0.0005286689847707748,-0.00006243076495593414
1772806913087711500,5.01471142578125,0.00019044417422264814,-0.0007878830656409264,0.0033743614330887794
1772806913097643500,5.0246435546875,0.0000652755843475461,0.0013586245477199554,-0.0014669991796836257
1772806913107574800,5.03457470703125,0.0002454467467032373,0.00040912022814154625,0.0006453966489061713
1772806913117506600,5.044506591796875,0.00012453924864530563,0.00167918112128973,0.0015378219541162252
1772806913127438600,5.0544384765625,-0.0005531500792130828,-0.0009310641326010227,0.000260191154666245
1772806913137370600,5.06437060546875,-0.0004801794420927763,-0.0016682273708283901,0.0005768410046584904
1772806913147301600,5.074301513671875,0.0010291347280144691,-0.002152569591999054,-0.0003592254070099443
1772806913157233700,5.084233642578125,-0.0004888670518994331,-0.0008436259813606739,0.0006642274092882872
1772806913167165400,5.09416552734375,-0.0019571157172322273,-0.0017259223386645317,-0.002886984497308731
1772806913177097500,5.104097412109375,-0.00018291757442057133,-0.001332306768745184,-0.000005977035471005365
1772806913187028700,5.11402880859375,0.0011302601778879762,0.0007643862627446651,0.0016187470173463225
1772806913196960800,5.123960693359375,-0.0007664432050660253,0.0008072634227573872,0.00020008112187497318
1772806913206892500,5.133892578125,0.0019607385620474815,0.001592273823916912,0.0004299802822060883
1772806913216824600,5.143824462890625,0.002631588838994503,-0.0017582490108907223,0.0008001597016118467
1772806913226755600,5.153755615234375,-0.0010355963604524732,-0.001718742772936821,-0.0014084998983889818
1772806913236687600,5.1636875,-0.002469708677381277,0.00016091670840978622,-0.0010558974463492632
1772806913246619600,5.17361962890625,0.00043220160296186805,-0.0022533275187015533,-0.001497861696407199
1772806913256551400,5.183551513671875,0.00028093403670936823,-0.002781698713079095,-0.0018821557750925422
1772806913266482700,5.193482666015625,0.0026980512775480747,-0.0013619717210531235,-0.0008546753088012338
1772806913276414700,5.203414794921875,0.0025933890137821436,0.00016268761828541756,0.00019327861082274467
1772806913286346800,5.2133466796875,-0.00043016066774725914,-0.0015973937697708607,-0.00008102675201371312
1772806913296278800,5.22327880859375,-0.003538602264598012,0.0012838803231716156,0.0012601411435753107
1772806913306209500,5.23320947265625,-0.0008716997690498829,0.002220424357801676,0.0006250453880056739
1772806913316141600,5.2431416015625,0.001350441831164062,0.0007572839967906475,-0.0004293000674806535
1772806913326073600,5.253073486328125,-0.0014955063816159964,-0.0007238192483782768,-0.00017893010226543993
1772806913336005600,5.263005615234375,-0.0005301105557009578,-0.0011003902181982994,0.002033357974141836
1772806913345936600,5.2729365234375,-0.00036166596692055464,-0.0014481605030596256,-0.0014582998119294643
1772806913355868700,5.28286865234375,-0.00033077329862862825,-0.0001874198205769062,0.000643466948531568
1772806913365800700,5.29280078125,-0.00008700881153345108,-0.00005677947774529457,0.0002522155409678817
1772806913375732700,5.302732666015625,0.0024696257896721363,-0.0025079529732465744,0.000937180535402149
1772806913385663500,5.31266357421875,0.0005702233174815774,-0.009347394108772278,-0.0023110199254006147
1772806913395595500,5.322595458984375,-0.001115291379392147,0.0038554933853447437,0.0023266086354851723
1772806913405527600,5.332527587890625,0.001169256865978241,0.0016918927431106567,0.0009915460832417011
1772806913415459600,5.34245947265625,0.0008227795478887856,0.00043354928493499756,-0.00255791493691504
1772806913425390600,5.352390625,-0.0004738557618111372,0.0026332526467740536,0.0020739571191370487
1772806913435322600,5.362322509765625,0.00022575660841539502,-0.006574893370270729,-0.00025258035748265684
1772806913445254400,5.37225439453125,0.001568248146213591,-0.0005400795489549637,0.00046516783186234534
1772806913455186400,5.3821865234375,0.0014185784384608269,0.0002508792094886303,0.0004513193853199482
1772806913465118500,5.392118408203125,0.000439093098975718,-0.0019679786637425423,0.0031545369420200586
1772806913475049500,5.402049560546875,0.001093431725166738,-0.0020816954784095287,0.0006258654175326228
1772806913484981500,5.4119814453125,0.001295846072025597,0.0007626512087881565,0.001066789380274713
1772806913494913300,5.421913330078125,-0.0005193644901737571,0.0019032829441130161,0.001836975570768118
1772806913504845300,5.43184521484375,0.0007530126022174954,0.0001396462321281433,-0.0017864275723695755
1772806913514776600,5.441776611328125,0.00124276801943779,0.0006528375670313835,0.0014716836158186197
1772806913524708600,5.45170849609375,0.00020915752975270152,-0.0011309459805488586,0.0012624142691493034
1772806913534640600,5.461640625,0.000918623642064631,-0.00242524198256433,0.0026339422911405563
1772806913544572400,5.471572509765625,0.0038732746616005898,-0.0029054966289550066,0.002357467310503125
1772806913554503400,5.48150341796875,0.001490544411353767,0.0006769876927137375,0.001479156780987978
1772806913564435500,5.491435546875,-0.0004110619192942977,-0.001885776873677969,-0.002405721228569746
1772806913574367500,5.501367431640625,-0.0014174706302583218,-0.0017409007996320724,-0.00028025254141539335
1772806913584299300,5.51129931640625,-0.0010163843398913741,-0.0016050725243985653,-0.0005651795654557645
1772806913594230500,5.52123046875,0.000370590016245842,-0.001949419267475605,-0.001090088626369834
1772806913604162600,5.53116259765625,-0.0002679964527487755,-0.0017967969179153442,0.00003973618004238233
1772806913614094600,5.541094482421875,0.00026836415054276586,0.0011153696104884148,-0.00021006831957492977
1772806913624026600,5.551026611328125,-0.00015250372234731913,0.0000647231936454773,0.0011439609806984663
1772806913633957400,5.560957275390625,0.0007039689226076007,0.00031905481591820717,0.00018096197163686156
1772806913643889400,5.570889404296875,0.0005373191088438034,-0.0012307637371122837,-0.0020325968507677317
1772806913653821400,5.580821533203125,-0.00015510281082242727,-0.00005524465814232826,0.0014936947263777256
1772806913663753500,5.59075341796875,0.0018455138197168708,-0.0007560611702501774,0.0008969436748884618
1772806913673684500,5.6006845703125,0.00014987913891673088,0.001256223302334547,0.0010990775190293789
1772806913683616500,5.610616455078125,0.0014327543321996927,-0.0014161164872348309,-0.0009386970195919275
1772806913693548500,5.620548583984375,0.0007230218616314232,0.0008835233747959137,-0.00003695067061926238
1772806913703480600,5.63048046875,0.000318172387778759,0.0026565920561552048,-0.0017821851652115583
1772806913713411300,5.640411376953125,-0.00029009359423071146,0.001204103697091341,0.0012631395366042852
1772806913723343400,5.65034326171875,-0.00009605451487004757,0.000883038155734539,0.0007022317149676383
1772806913733275400,5.660275390625,-0.0009413418592885137,0.0031435294076800346,0.00048012411571107805
1772806913743207400,5.67020751953125,0.0004636399098671973,0.001173460390418768,0.001251529436558485
1772806913753138400,5.680138427734375,-0.0015441173454746604,0.0022685518488287926,0.00006695542833767831
1772806913763070500,5.690070556640625,-0.0005616312846541405,0.00008676666766405106,-0.0015622948994860053
1772806913773002500,5.70000244140625,0.001602719770744443,0.0026497934013605118,0.0019397619180381298
1772806913782934500,5.7099345703125,0.00039744150126352906,0.0008605159819126129,0.000019561779481591657
1772806913792865500,5.719865478515625,0.001016093767248094,0.0025100777857005596,-0.0003591397253330797
1772806913802797300,5.72979736328125,-0.0009726999560371041,-0.000559657346457243,0.00023908342700451612
1772806913812729300,5.739729248046875,-0.001165512832812965,0.0024869991466403008,0.00006304847920546308
1772806913822661400,5.749661376953125,-0.0005056352820247412,-0.0016958522610366344,0.00017549750918988138
1772806913832592400,5.75959228515625,0.002482697833329439,0.0025771898217499256,0.00007855844887671992
1772806913842524400,5.7695244140625,4.2410101741552353e-7,0.002363164909183979,-0.0014619980938732624
1772806913852456400,5.77945654296875,-0.00136018474586308,-0.00028614792972803116,0.0010797228896990418
1772806913862388500,5.789388427734375,0.0003200201317667961,0.0008590086363255978,-0.001613133354112506
1772806913872320500,5.799320556640625,0.00046196661423891783,0.0005825725384056568,-0.0016173943877220154
1772806913882251500,5.80925146484375,-0.003069881349802017,0.0016356795094907284,0.0012224200181663036
1772806913892183600,5.81918359375,-0.0017414964968338609,0.0013576457276940346,-0.0014364799717441201
1772806913902115300,5.829115234375,-0.0002881065011024475,-0.0010796836577355862,0.001776485820300877
1772806913912046300,5.83904638671875,-0.002564842812716961,0.0033675292506814003,0.0005447738221846521
1772806913921978400,5.848978271484375,-0.0006762121338397264,0.0003629489801824093,0.0005518426187336445
1772806913931910400,5.858910400390625,0.0018023918382823467,0.0019603134132921696,0.0017127145547419786
1772806913941842400,5.868842529296875,-0.0007759294239804149,0.0017366963438689709,-0.0004949445719830692
1772806913951774500,5.8787744140625,0.000592402764596045,0.0003704945556819439,0.000010789739462779835
1772806913961705500,5.88870556640625,-0.001371375285089016,0.000548394862562418,0.001414611004292965
1772806913971637500,5.898637451171875,-0.00047282478772103786,-0.001058556605130434,0.0006609363481402397
1772806913981569500,5.908569580078125,0.0011096177622675896,-0.0003954293206334114,0.00006598496838705614
1772806913991501300,5.918501220703125,-0.0015119978925213218,0.00023680506274104118,-0.00042536825640127063
1772806914001432300,5.928432373046875,-0.002367490902543068,-0.002667549764737487,0.001212902250699699
1772806914011364400,5.9383642578125,0.0004056589095853269,0.0012662052176892757,0.000039779828512109816
1772806914021296400,5.94829638671875,-0.0012410556664690375,0.0015184949152171612,-0.0005436239298433065
1772806914031228400,5.958228515625,-0.0006498339353129268,-0.0013060537166893482,0.00011976951645920053
1772806914041159400,5.968159423828125,0.0007374054403044283,-0.0012513487599790096,0.000916941266041249
1772806914051091500,5.978091552734375,-0.000012807082384824753,-0.000859597697854042,-0.0014436846831813455
1772806914061023500,5.9880234375,0.002563673071563244,-0.0016475003212690353,-0.0018903467571362853
1772806914070955500,5.99795556640625,-0.0014579665148630738,0.00027769850566983223,0.0005427172291092575
1772806914080886300,6.00788623046875,-0.00159919704310596,0.001446302980184555,-0.0014589772326871753
1772806914090818300,6.017818359375,0.0004034999874420464,-0.0007169824093580246,-0.001877892529591918
1772806914100750300,6.027750244140625,0.001945515745319426,0.000025682151317596436,0.0007531951414421201
1772806914110682400,6.037682373046875,-0.001561867306008935,0.0010725706815719604,0.0005670401733368635
1772806914120613400,6.04761328125,-0.000015873578377068043,-0.0019207498989999294,-0.001308484235778451
1772806914130545400,6.05754541015625,0.0002696173032745719,0.00029952777549624443,0.0003397462423890829
1772806914140477400,6.0674775390625,0.0014350060373544693,0.000323982909321785,0.0016782119637355208
1772806914150409500,6.077409423828125,0.00023871409939602017,0.00003822566941380501,-0.0007804182823747396
1772806914160340500,6.087340576171875,-0.0012107642833143473,0.000024145003408193588,-0.000769639911595732
1772806914170272300,6.097272216796875,-0.000989988213405013,0.000058765988796949387,-0.0009560611797496676
1772806914180204300,6.107204345703125,-0.00009352248162031174,0.0006001712754368782,-0.0005549495690502226
1772806914190136300,6.11713623046875,0.0012601623311638832,-0.0008749533444643021,0.0014687865041196346
1772806914200067600,6.127067626953125,0.003497794736176729,-0.003464870620518923,-0.001868796069175005
1772806914209999400,6.136999267578125,0.0002071930794045329,-0.003429983276873827,-0.0004815555294044316
1772806914219931400,6.146931396484375,0.0010826827492564917,-0.0020631402730941772,-0.0020326273515820503
1772806914229863400,6.156863525390625,0.00010397110600024462,-0.0023941711988300085,-0.00017667023348622024
1772806914239794400,6.16679443359375,-0.00002313579898327589,-0.003091352293267846,-0.0009198421030305326
1772806914249726500,6.1767265625,0.00038246362237259746,-0.0029118552338331938,0.0003009508945979178
1772806914259658200,6.186658203125,0.0019169829320162535,-0.001252015121281147,-0.0007513276068493724
1772806914269590300,6.19659033203125,-0.000020466861315071583,-0.001269591972231865,0.000279315747320652
1772806914279521500,6.206521484375,-0.001977322157472372,0.0010231109336018562,0.0004976620548404753
1772806914289453600,6.21645361328125,0.003599070943892002,0.0025126170367002487,0.0021645347587764263
1772806914299385600,6.226385498046875,-0.0014575199456885457,-0.0009766817092895508,-0.0005604884354397655
1772806914309317400,6.2363173828125,0.0003936433349736035,0.0007458506152033806,-0.0006281327223405242
1772806914319249400,6.24624951171875,0.001486252062022686,-0.0029551873449236155,-0.0013420635368674994
1772806914329180400,6.256180419921875,0.0004995508934371173,-0.0031874149572104216,0.00043346587335690856
1772806914339112400,6.266112548828125,-0.00048971944488585,-0.0007341122254729271,-0.0002391046582488343
1772806914349044200,6.276044189453125,-0.0006031700177118182,0.0011114580556750298,0.00003839672717731446
1772806914358976300,6.285976318359375,0.0007872871938161552,-0.003675271989777684,-0.0014033423503860831
1772806914368907500,6.295907470703125,-0.0007711946964263916,-0.0018496750853955746,0.002114693634212017
1772806914378839600,6.305839599609375,0.0026935464702546597,-0.0021989019587635994,-0.0008800644427537918
1772806914388771600,6.315771484375,-0.00366075593046844,0.0009865052998065948,-0.0002803205861710012
1772806914398703400,6.325703369140625,-0.00012562982738018036,0.004369910806417465,0.00037123303627595305
1772806914408634400,6.33563427734375,0.0017801282228901982,-0.0005079349502921104,0.00004073474701726809
1772806914418566400,6.34556640625,-0.0006816507084295154,-0.000048527028411626816,-0.0008547712350264192
1772806914428498200,6.355498291015625,-0.0012976397993043065,0.0005592061206698418,-0.0004358560254331678
1772806914438430200,6.36543017578125,-0.0015501395100727677,0.0007297666743397713,0.00032501001260243356
1772806914448361500,6.375361572265625,0.0006152767455205321,-0.0010753241367638111,-0.00013385263446252793
1772806914458293200,6.385293212890625,0.00029684731271117926,0.001665815245360136,-0.0021100814919918776
1772806914468225300,6.395225341796875,-0.0008331319550052285,0.0004436909221112728,0.00030460680136457086
1772806914478157300,6.4051572265625,-0.00005975179374217987,0.000543372705578804,-0.0014728815294802189
1772806914488088300,6.41508837890625,0.0008787461556494236,0.0022235610522329807,-0.00027792114997282624
1772806914498020400,6.425020263671875,-0.0014588723424822092,-0.002775935223326087,-0.002788831014186144
1772806914507952000,6.4349521484375,-0.0014261153992265463,-0.001331436913460493,-0.0027675258461385965
1772806914517884200,6.44488427734375,0.0015120328171178699,0.00005894852802157402,0.0002662175102159381
1772806914527815400,6.4548154296875,-0.0014478045050054789,-0.003403959795832634,-0.0008539080736227334
1772806914537747500,6.46474755859375,-0.0019294398371130228,0.00047131674364209175,-0.0002564624883234501
1772806914547679500,6.474679443359375,-0.0001714872196316719,0.004883642308413982,0.0006732470355927944
1772806914557611300,6.484611328125,-0.0004965203115716577,-0.00005652615800499916,-0.0005033466150052845
1772806914567542300,6.494542236328125,-0.001928235637024045,0.002071605995297432,0.0006247683777473867
1772806914577474300,6.504474365234375,0.001566426595672965,-0.0015182201750576496,-0.0004042835789732635
1772806914587406300,6.51440625,0.0012167535023763776,0.0005657034926116467,0.0009043937898240983
1772806914597338000,6.524338134765625,0.0009776800870895386,0.0011099758557975292,-0.0017573853256180882
1772806914607269400,6.534269287109375,0.001526291249319911,-0.0015657022595405579,0.0013119078939780593
1772806914617201400,6.544201416015625,0.0010829409584403038,-0.0005293074063956738,0.0015382874989882112
1772806914627133400,6.554133544921875,-0.001004977384582162,0.0021455716341733932,0.0010820879833772779
1772806914637065500,6.5640654296875,0.00020212196977809072,-0.0011156066320836544,-0.0006530189421027899
1772806914646996200,6.573996337890625,0.001604276243597269,0.0034458558075129986,0.002062606392428279
1772806914656928300,6.58392822265625,-0.0018055879045277834,0.001625041477382183,0.00019179514492861927
1772806914666860300,6.5938603515625,0.00013186171418055892,0.00270388787612319,0.00024985207710415125
1772806914676792300,6.603792236328125,-0.0008468783926218748,0.001011598389595747,0.0007534730830229819
1772806914686723300,6.613723388671875,-0.00007003429345786572,0.0003356877714395523,0.0027423216961324215
1772806914696655400,6.6236552734375,-0.0013097673654556274,-0.005310479551553726,0.00006553993443958461
1772806914706587400,6.63358740234375,-0.00008151750080287457,-0.0006249137222766876,-0.003034645924344659
1772806914716519400,6.64351953125,-0.0014401786029338837,0.0004939748905599117,-0.001905075740069151
1772806914726450200,6.6534501953125,0.00020725291687995195,-0.004580412060022354,-0.00015857470862101763
1772806914736382200,6.66338232421875,0.0010714140953496099,-0.002303328365087509,0.00008075052755884826
1772806914746314200,6.673314208984375,-0.00037361704744398594,-0.0021536587737500668,-0.000810875790193677
1772806914756246300,6.683246337890625,0.0010343586327508092,-0.001907584723085165,0.00002012714685406536
1772806914766177500,6.693177490234375,-0.0011544935405254364,0.0004703518934547901,0.000437710783444345
1772806914776109300,6.703109375,0.0020863814279437065,0.0007291273213922977,-0.0037189871072769165
1772806914786041300,6.713041259765625,0.0011132622603327036,0.0005339174531400204,-0.0010563585674390197
1772806914795973400,6.722973388671875,-0.001045882236212492,0.0004250803031027317,-0.0005199178704060614
1772806914805905400,6.732905517578125,0.0015030291397124529,0.0006575742736458778,-0.0016059549525380135
1772806914815836400,6.74283642578125,-0.0013640206307172775,0.00317417923361063,0.003560003824532032
1772806914825768200,6.752768310546875,0.0015393574722111225,0.001532872673124075,0.00020575255621224642
1772806914835700200,6.7627001953125,-0.0006793158827349544,0.0015646475367248058,0.00034259341191500425
1772806914845632300,6.77263232421875,-0.0002611996605992317,0.0004956545308232307,0.000371355505194515
1772806914855563500,6.7825634765625,0.0007415800355374813,-0.029815375804901123,-0.0025111755821853876
1772806914865495300,6.792495361328125,-0.0006967933150008321,-0.012374334037303925,-0.0024962618481367826
1772806914875427300,6.80242724609375,-0.0000020264415070414543,0.01756146550178528,0.002883561421185732
1772806914885359400,6.812359375,0.0002696160227060318,-0.008744441904127598,-0.0011782919755205512
1772806914895290400,6.822290283203125,0.0012079078005626798,-0.003103961469605565,0.0020861695520579815
1772806914905222400,6.832222412109375,-0.0016201029065996408,0.002789613790810108,0.0005814835894852877
1772806914915154200,6.842154296875,-0.0015309812733903527,-0.003804015927016735,-0.0002885360736399889
1772806914925086200,6.852086181640625,-0.0012793125351890922,-0.0017965249717235565,-0.0011950761545449495
1772806914935017500,6.862017578125,0.0010241583222523332,-0.0007207845337688923,-0.0017252140678465366
1772806914944949500,6.871949462890625,-0.0008547018514946103,0.0008574048988521099,-0.0005720652989111841
1772806914954881500,6.881881591796875,0.002375346142798662,-0.000639735721051693,-0.0006172038847580552
1772806914964813300,6.891813232421875,-0.0029083655681461096,0.0008612214587628841,0.0008177072741091251
1772806914974744300,6.901744384765625,0.0009646578691899776,-0.0008479929529130459,-0.0016020673792809248
1772806914984676400,6.91167626953125,-0.00004148436710238457,0.0016223550774157047,-0.000053439165640156716
1772806914994608400,6.9216083984375,-0.0015398676041513681,0.0038691735826432705,-0.0013763357419520617
1772806915004540200,6.9315400390625,-0.000009615323506295681,0.000554337166249752,0.0005214328411966562
1772806915014471200,6.94147119140625,-0.0004379628226161003,0.00016870955005288124,-0.0005103045841678977
1772806915024403500,6.951403564453125,0.0014653983525931835,0.0011879014782607555,0.0004191386396996677
1772806915034335500,6.96133544921875,-0.000006004353053867817,0.0012705563567578793,0.0008201149175874889
1772806915044267500,6.971267578125,0.001163123408332467,-0.00238117016851902,0.0038976639043539762
1772806915054198300,6.9811982421875,0.0010380327003076673,-0.0013360646553337574,-0.001339268870651722
1772806915064130300,6.99113037109375,0.00043349515181034803,-0.0005179415456950665,0.0005766092799603939
1772806915074062300,7.001062255859375,-0.0010446715168654919,0.000035196542739868164,-0.001211254158988595
1772806915083994400,7.010994384765625,0.001433666329830885,-0.0014055739156901836,-0.00038807105738669634
1772806915093925000,7.020925048828125,0.0011055940994992852,-0.0004328968934714794,-0.001378362881951034
1772806915103857200,7.030857177734375,-0.0009295936906710267,0.0003215768374502659,0.0016184921842068434
1772806915113789400,7.04078955078125,-0.0010852874256670475,-0.004391064401715994,-0.002291141776368022
1772806915123721500,7.050721435546875,0.001281730248592794,-0.0018879594281315804,-0.001050641294568777
1772806915133652200,7.06065234375,0.0002984851016663015,-0.0007670358754694462,0.0022941697388887405
1772806915143584300,7.070584228515625,0.0007506898837164044,-0.0009302874095737934,0.0008691122056916356
1772806915153516300,7.080516357421875,-0.0014167207991704345,0.00018095877021551132,-0.000024392174964305013
1772806915163448300,7.0904482421875,-0.000216434127651155,-0.0006294408813118935,-0.001023343880660832
1772806915173379300,7.10037939453125,-0.0026062417309731245,0.000025793444365262985,0.00037945195799693465
1772806915183311000,7.11031103515625,0.0009200499043799937,0.0004921131767332554,0.0010164801497012377
1772806915193243400,7.120243408203125,-0.00024462491273880005,0.00001238752156496048,-0.0013767818454653025
1772806915203175400,7.130175537109375,-0.0014606242766603827,0.0027136323042213917,-0.0018620098708197474
1772806915213106400,7.1401064453125,-0.0018593918066471815,-0.0022952451836317778,-0.001421131193637848
1772806915223038200,7.1500380859375,0.00023545074509456754,-0.0008648615330457687,-0.001912484411150217
1772806915232970200,7.15997021484375,0.0010058629559352994,0.0009790207259356976,-0.0013451016275212169
1772806915242902300,7.16990234375,-0.0024621053598821163,-0.0022412738762795925,-0.0013253942597657442
1772806915252833300,7.179833251953125,0.001353314844891429,-0.0027900636196136475,-0.0004865303635597229
1772806915262765300,7.189765380859375,-0.0023591318167746067,0.00017190398648381233,-0.00047001877101138234
1772806915272697000,7.199697021484375,0.00059382279869169,-0.0026707525830715895,0.00017380165809299797
1772806915282629400,7.20962939453125,0.0010257875546813011,-0.0009663295932114124,0.00045982515439391136
1772806915292561400,7.2195615234375,-0.0007768837967887521,0.0028451853431761265,0.0004409748362377286
1772806915302492400,7.229492431640625,-0.0003345328150317073,0.0005487413145601749,0.0006090202950872481
1772806915312424400,7.239424560546875,0.0006361159612424672,-0.0008143526501953602,0.0001461836218368262
1772806915322356200,7.249356201171875,0.0004014914738945663,-0.0004598861560225487,-0.00017312938871327788
1772806915332288300,7.259288330078125,-0.0029749795794487,0.07244779914617538,0.010547085665166378
1772806915342219300,7.26921923828125,-0.0012415280798450112,0.06036077439785004,0.007887120358645916
1772806915352151300,7.2791513671875,0.0008179079741239548,0.028960056602954865,0.004987885244190693
1772806915362083000,7.2890830078125,-0.0004849103279411793,0.049179840832948685,0.004819040652364492
1772806915372015400,7.299015380859375,-0.0029945052228868008,0.03259509056806564,0.003330792300403118
1772806915381946400,7.3089462890625,0.0008194075780920684,0.013840312138199806,0.0005475226789712906
1772806915391878400,7.31887841796875,0.0009891143999993801,-0.0008447999134659767,0.0016909745754674077
1772806915401810400,7.328810546875,0.003687162883579731,-0.01840089075267315,-0.0020281297620385885
1772806915411742200,7.3387421875,0.0016530209686607122,-0.03203041851520538,-0.0020595374517142773
1772806915421673200,7.348673095703125,0.0018407739698886871,-0.04283353313803673,-0.004785016179084778
1772806915431605800,7.358605712890625,0.003081702394410968,-0.04342377558350563,-0.006274164188653231
1772806915441537500,7.36853759765625,0.000865153328049928,-0.041224002838134766,-0.0032522755209356546
1772806915451469600,7.378469482421875,-0.00010601268149912357,-0.002046938519924879,-0.0005478811217471957
1772806915461400800,7.38840087890625,0.0019984170794487,0.003793107345700264,0.002238850574940443
1772806915471332900,7.398332763671875,0.000990243162959814,-0.008321346715092659,-0.0027693132869899273
