time,seconds_elapsed,z,y,x
1772806388438229500,0.0572294921875,-0.1738128662109375,0.90081787109375,0.2156524658203125
1772806388448160800,0.067160888671875,-0.152191162109375,0.90020751953125,0.2104644775390625
1772806388458092800,0.0770927734375,-0.13623046875,0.9105987548828125,0.2097625732421875
1772806388468023600,0.0870234375,-0.1248931884765625,0.9140167236328125,0.2040557861328125
1772806388477955600,0.09695556640625,-0.1279296875,0.9167938232421875,0.198394775390625
1772806388487886600,0.106886474609375,-0.144989013671875,0.924163818359375,0.193572998046875
1772806388497818400,0.116818359375,-0.169097900390625,0.92230224609375,0.1860198974609375
1772806388507749600,0.12674951171875,-0.1955108642578125,0.9180908203125,0.1945648193359375
1772806388517681700,0.136681640625,-0.214935302734375,0.9292449951171875,0.2118072509765625
1772806388527612700,0.14661279296875,-0.2321929931640625,0.9423980712890625,0.2167205810546875
1772806388537544400,0.15654443359375,-0.244903564453125,0.9580230712890625,0.2287750244140625
1772806388547475500,0.166475341796875,-0.2590179443359375,0.9781036376953125,0.2457733154296875
1772806388557407700,0.17640771484375,-0.26715087890625,0.992584228515625,0.257720947265625
1772806388567338500,0.18633837890625,-0.264495849609375,0.9890289306640625,0.2621612548828125
1772806388577270500,0.1962705078125,-0.261474609375,0.96563720703125,0.255645751953125
1772806388587201500,0.206201416015625,-0.2578125,0.929962158203125,0.24468994140625
1772806388597133600,0.216133544921875,-0.2502288818359375,0.8826751708984375,0.237396240234375
1772806388607064600,0.226064697265625,-0.2422332763671875,0.8526458740234375,0.2357635498046875
1772806388616996600,0.23599658203125,-0.2382049560546875,0.84356689453125,0.2312774658203125
1772806388626927600,0.245927734375,-0.23846435546875,0.84588623046875,0.218780517578125
1772806388636859600,0.255859619140625,-0.246490478515625,0.8567962646484375,0.199737548828125
1772806388646790400,0.265790283203125,-0.2621307373046875,0.8673248291015625,0.177825927734375
1772806388656722400,0.275722412109375,-0.2806854248046875,0.878509521484375,0.156097412109375
1772806388666653700,0.28565380859375,-0.29327392578125,0.8854217529296875,0.147430419921875
1772806388676585700,0.295585693359375,-0.3025665283203125,0.8893890380859375,0.149627685546875
1772806388686516500,0.3055166015625,-0.3123779296875,0.884307861328125,0.158660888671875
1772806388696448500,0.315448486328125,-0.3121795654296875,0.87518310546875,0.170745849609375
1772806388706379800,0.3253798828125,-0.3107147216796875,0.8686065673828125,0.1786041259765625
1772806388716311800,0.335311767578125,-0.3102264404296875,0.87042236328125,0.1807403564453125
1772806388726242600,0.34524267578125,-0.3194580078125,0.873138427734375,0.1777496337890625
1772806388736174600,0.355174560546875,-0.3251800537109375,0.8874053955078125,0.172607421875
1772806388746105600,0.365105712890625,-0.3321075439453125,0.900360107421875,0.15838623046875
1772806388756037400,0.375037353515625,-0.3399810791015625,0.8996124267578125,0.160797119140625
1772806388765968600,0.38496875,-0.3475341796875,0.891693115234375,0.186279296875
1772806388775900700,0.394900634765625,-0.369110107421875,0.8982391357421875,0.167327880859375
1772806388785831700,0.404831787109375,-0.3800201416015625,0.8759918212890625,0.1709136962890625
1772806388795763500,0.414763427734375,-0.397674560546875,0.8689422607421875,0.173614501953125
1772806388805694500,0.424694580078125,-0.39599609375,0.8654632568359375,0.1731414794921875
1772806388815626500,0.43462646484375,-0.3984222412109375,0.864410400390625,0.1627349853515625
1772806388825557500,0.4445576171875,-0.388824462890625,0.8563690185546875,0.1493682861328125
1772806388835489500,0.454489501953125,-0.400970458984375,0.8479156494140625,0.1324310302734375
1772806388845420500,0.464420654296875,-0.4075927734375,0.855316162109375,0.115142822265625
1772806388855352600,0.4743525390625,-0.3923187255859375,0.8613128662109375,0.101837158203125
1772806388865283600,0.48428369140625,-0.3720855712890625,0.8677978515625,0.0958404541015625
1772806388875215600,0.494215576171875,-0.3645782470703125,0.8672332763671875,0.100555419921875
1772806388885146600,0.504146728515625,-0.3767852783203125,0.860107421875,0.1221466064453125
1772806388895078700,0.51407861328125,-0.404266357421875,0.8495941162109375,0.14031982421875
1772806388905009400,0.524009521484375,-0.4017486572265625,0.83087158203125,0.15234375
1772806388914941400,0.53394140625,-0.3980865478515625,0.814605712890625,0.1476898193359375
1772806388924872700,0.543872802734375,-0.39971923828125,0.8184661865234375,0.14141845703125
1772806388934804700,0.5538046875,-0.404937744140625,0.825897216796875,0.1361541748046875
1772806388944735500,0.563735595703125,-0.4114990234375,0.830841064453125,0.12640380859375
1772806388954667500,0.57366748046875,-0.402099609375,0.83099365234375,0.12225341796875
1772806388964598500,0.5835986328125,-0.403289794921875,0.8306732177734375,0.130096435546875
1772806388974530800,0.59353076171875,-0.4131927490234375,0.8324127197265625,0.1342315673828125
1772806388984461600,0.603461669921875,-0.4275665283203125,0.830322265625,0.1276397705078125
1772806388994393600,0.6133935546875,-0.439361572265625,0.8437042236328125,0.11614990234375
1772806389004324600,0.62332470703125,-0.443206787109375,0.856689453125,0.1064300537109375
1772806389014256400,0.63325634765625,-0.44830322265625,0.8673553466796875,0.102081298828125
1772806389024187600,0.643187744140625,-0.44537353515625,0.8701934814453125,0.0965423583984375
1772806389034119700,0.65311962890625,-0.44171142578125,0.8676300048828125,0.0988922119140625
1772806389044050700,0.66305078125,-0.4393310546875,0.8672027587890625,0.10711669921875
1772806389053982500,0.672982421875,-0.4326171875,0.8711090087890625,0.1119842529296875
1772806389063913500,0.68291357421875,-0.4284210205078125,0.8779144287109375,0.1131591796875
1772806389073845500,0.692845458984375,-0.4377899169921875,0.89208984375,0.11187744140625
1772806389083776500,0.702776611328125,-0.4527740478515625,0.90509033203125,0.111175537109375
1772806389093708500,0.71270849609375,-0.4671478271484375,0.9098358154296875,0.11822509765625
1772806389103639600,0.7226396484375,-0.4682159423828125,0.899688720703125,0.1140289306640625
1772806389113571600,0.732571533203125,-0.4568939208984375,0.899871826171875,0.119781494140625
1772806389123502600,0.742502685546875,-0.4632568359375,0.8908843994140625,0.133758544921875
1772806389133434600,0.7524345703125,-0.473175048828125,0.870452880859375,0.14190673828125
1772806389143365600,0.76236572265625,-0.4909515380859375,0.8567657470703125,0.15350341796875
1772806389153297700,0.772297607421875,-0.5147705078125,0.870635986328125,0.165863037109375
1772806389163228400,0.782228515625,-0.53253173828125,0.920562744140625,0.157867431640625
1772806389173160400,0.792160400390625,-0.5498809814453125,0.958404541015625,0.1415863037109375
1772806389183092500,0.802092529296875,-0.5753326416015625,0.97357177734375,0.1347198486328125
1772806389193024500,0.8120244140625,-0.5834197998046875,1.0148162841796875,0.1512298583984375
1772806389202955500,0.82195556640625,-0.545654296875,1.0975189208984375,0.1869659423828125
1772806389212887600,0.831887451171875,-0.4920196533203125,1.1930389404296875,0.2183837890625
1772806389222818300,0.841818359375,-0.466400146484375,1.2725830078125,0.2367401123046875
1772806389232750300,0.851750244140625,-0.43377685546875,1.34112548828125,0.27410888671875
1772806389242681600,0.861681640625,-0.381195068359375,1.4130859375,0.3126373291015625
1772806389252613600,0.871613525390625,-0.320281982421875,1.39215087890625,0.312469482421875
1772806389262544400,0.88154443359375,-0.30633544921875,1.18719482421875,0.238433837890625
1772806389272476400,0.891476318359375,-0.32806396484375,0.8254852294921875,0.2096099853515625
1772806389282407400,0.901407470703125,-0.3421783447265625,0.43182373046875,0.3434600830078125
1772806389292339500,0.91133935546875,-0.314971923828125,0.233001708984375,0.42205810546875
1772806389302270500,0.9212705078125,-0.2498321533203125,0.2809600830078125,0.375
1772806389312202500,0.931202392578125,-0.1716156005859375,0.5020751953125,0.283721923828125
1772806389322133500,0.941133544921875,-0.0633392333984375,0.81732177734375,0.20037841796875
1772806389332065300,0.951065185546875,0.0580596923828125,1.1294708251953125,0.106842041015625
1772806389341996500,0.96099658203125,0.1793975830078125,1.3261260986328125,0.0329132080078125
1772806389351928600,0.970928466796875,0.1952362060546875,1.319366455078125,-0.0307159423828125
1772806389361859600,0.980859619140625,0.0883026123046875,1.201507568359375,-0.0311737060546875
1772806389371791400,0.990791259765625,-0.0151824951171875,1.062347412109375,-0.0027008056640625
1772806389381722400,1.000722412109375,-0.073577880859375,0.9619598388671875,0.0743408203125
1772806389391654400,1.010654296875,-0.0721282958984375,0.9051055908203125,0.1477508544921875
1772806389401585400,1.02058544921875,-0.0899505615234375,0.885223388671875,0.2323150634765625
1772806389411517400,1.030517333984375,-0.1224822998046875,0.893646240234375,0.2912139892578125
1772806389421448400,1.040448486328125,-0.0941925048828125,0.9090576171875,0.3039703369140625
1772806389431380500,1.05038037109375,-0.0744171142578125,0.9228515625,0.2930145263671875
1772806389441311200,1.060311279296875,-0.0985870361328125,0.9637603759765625,0.2483978271484375
1772806389451243500,1.070243408203125,-0.070159912109375,1.007080078125,0.1548004150390625
1772806389461174500,1.080174560546875,0.0036163330078125,1.038818359375,0.0874786376953125
1772806389471106600,1.0901064453125,0.0680999755859375,1.0444488525390625,0.0128936767578125
1772806389481037300,1.100037353515625,0.0911407470703125,1.03131103515625,-0.04644775390625
1772806389490969300,1.10996923828125,0.1004180908203125,1.032257080078125,-0.060333251953125
1772806389500900600,1.119900634765625,0.103363037109375,1.021575927734375,-0.1003570556640625
1772806389510832600,1.12983251953125,0.1056060791015625,0.9802398681640625,-0.1319580078125
1772806389520763400,1.139763427734375,0.0865478515625,0.946044921875,-0.1207122802734375
1772806389530695400,1.1496953125,0.06787109375,0.916412353515625,-0.07086181640625
1772806389540626400,1.15962646484375,0.0252838134765625,0.91778564453125,0.043304443359375
1772806389550558500,1.169558349609375,-0.00067138671875,0.9356536865234375,0.1260986328125
1772806389560489500,1.179489501953125,-0.0242919921875,0.935638427734375,0.1969146728515625
1772806389570421500,1.18942138671875,-0.0306549072265625,0.9392242431640625,0.2275848388671875
1772806389580352500,1.1993525390625,-0.023834228515625,0.93682861328125,0.1998138427734375
1772806389590284300,1.2092841796875,-0.038238525390625,0.9223480224609375,0.2081146240234375
1772806389600215600,1.219215576171875,-0.040374755859375,0.918609619140625,0.184783935546875
1772806389610147600,1.229147705078125,-0.031585693359375,0.910675048828125,0.166748046875
1772806389620078600,1.23907861328125,-0.010833740234375,0.9247589111328125,0.1565704345703125
1772806389630010400,1.24901025390625,-0.0033111572265625,0.9542999267578125,0.12908935546875
1772806389639941400,1.25894140625,0.00347900390625,0.9806365966796875,0.1080322265625
1772806389649873400,1.268873291015625,0.0065765380859375,0.9911956787109375,0.085357666015625
1772806389659804400,1.278804443359375,0.0026092529296875,0.9909820556640625,0.0655975341796875
1772806389669736400,1.288736328125,-0.0039215087890625,0.9958038330078125,0.0746612548828125
1772806389679667500,1.29866748046875,-0.025726318359375,0.9962921142578125,0.0912933349609375
1772806389689599500,1.308599609375,-0.0462493896484375,0.9965972900390625,0.0972442626953125
1772806389699530200,1.3185302734375,-0.073333740234375,1.0138397216796875,0.1037445068359375
1772806389709462500,1.328462646484375,-0.090789794921875,1.018218994140625,0.0911407470703125
1772806389719393500,1.3383935546875,-0.110321044921875,1.0106201171875,0.08367919921875
1772806389729325600,1.34832568359375,-0.112518310546875,1.0073089599609375,0.07659912109375
1772806389739256300,1.35825634765625,-0.09814453125,1.0149688720703125,0.064117431640625
1772806389749188400,1.368188232421875,-0.06982421875,1.040191650390625,0.0510406494140625
1772806389759119600,1.37811962890625,-0.0320587158203125,1.0675048828125,0.03253173828125
1772806389769051600,1.3880517578125,0.0125579833984375,1.085418701171875,0.01043701171875
1772806389778982400,1.397982421875,0.04522705078125,1.10443115234375,0.0059661865234375
1772806389788914400,1.40791455078125,0.0778045654296875,1.1124420166015625,0.0196380615234375
1772806389798845400,1.417845458984375,0.0950927734375,1.103485107421875,0.0485076904296875
1772806389808777500,1.427777587890625,0.0738372802734375,1.0902252197265625,0.084869384765625
1772806389818708500,1.43770849609375,0.03765869140625,1.0670928955078125,0.1114044189453125
1772806389828640500,1.447640625,0.0003814697265625,1.0390777587890625,0.12542724609375
1772806389838571500,1.457571533203125,-0.0507659912109375,1.0319976806640625,0.13421630859375
1772806389848503300,1.46750341796875,-0.091339111328125,1.03662109375,0.144439697265625
1772806389858434600,1.4774345703125,-0.1043548583984375,1.074554443359375,0.1338653564453125
1772806389868366600,1.48736669921875,-0.1024627685546875,1.133575439453125,0.105377197265625
1772806389878297600,1.497297607421875,-0.1120147705078125,1.1969146728515625,0.0662078857421875
1772806389888229400,1.5072294921875,-0.1327056884765625,1.2363128662109375,0.0471038818359375
1772806389898160400,1.517160400390625,-0.12811279296875,1.202301025390625,0.0286102294921875
1772806389908092400,1.527092529296875,-0.060028076171875,1.1256256103515625,-0.0063629150390625
1772806389918023400,1.5370234375,0.0256500244140625,1.12286376953125,-0.0414581298828125
1772806389927955500,1.54695556640625,0.079925537109375,1.207763671875,-0.0471649169921875
1772806389937886500,1.556886474609375,0.096435546875,1.285064697265625,-0.0247039794921875
1772806389947818500,1.566818603515625,0.0815582275390625,1.27825927734375,-0.0002593994140625
1772806389957749200,1.576749267578125,0.0475921630859375,1.1815338134765625,0.0449676513671875
1772806389967681300,1.586681396484375,0.008392333984375,1.053619384765625,0.1180419921875
1772806389977612500,1.596612548828125,-0.052215576171875,0.9353179931640625,0.1792755126953125
1772806389987544600,1.606544677734375,-0.1140289306640625,0.84112548828125,0.253875732421875
1772806389997475300,1.616475341796875,-0.139678955078125,0.7566986083984375,0.286895751953125
1772806390007407400,1.626407470703125,-0.126922607421875,0.7663421630859375,0.280120849609375
1772806390017338600,1.636338623046875,-0.1161651611328125,0.8720703125,0.3304595947265625
1772806390027270700,1.646270751953125,-0.1171417236328125,1.0146484375,0.373687744140625
1772806390037201400,1.656201416015625,-0.1614837646484375,1.0580291748046875,0.3798828125
1772806390047133400,1.666133544921875,-0.267913818359375,1.1077728271484375,0.4282073974609375
1772806390057064400,1.676064453125,-0.2299346923828125,1.2148284912109375,0.3297576904296875
1772806390066996500,1.68599658203125,-0.2336578369140625,1.2269134521484375,0.29168701171875
1772806390076927500,1.695927490234375,-0.19805908203125,1.199066162109375,0.3090667724609375
1772806390086859500,1.705859619140625,-0.138458251953125,1.1436767578125,0.2837677001953125
1772806390096790500,1.71579052734375,-0.1265106201171875,1.106201171875,0.240264892578125
1772806390106722300,1.725722412109375,-0.1431427001953125,1.0978240966796875,0.2017669677734375
1772806390116653600,1.735653564453125,-0.1527862548828125,1.0809173583984375,0.1668548583984375
1772806390126585600,1.745585693359375,-0.155517578125,1.032135009765625,0.1501617431640625
1772806390136516600,1.7555166015625,-0.1729888916015625,0.9864654541015625,0.138916015625
1772806390146448400,1.765448486328125,-0.1888275146484375,0.9600830078125,0.157379150390625
1772806390156379400,1.77537939453125,-0.195098876953125,0.91015625,0.1663970947265625
1772806390166311400,1.7853115234375,-0.195587158203125,0.8559112548828125,0.20330810546875
1772806390176242400,1.795242431640625,-0.199859619140625,0.81005859375,0.2518310546875
1772806390186173400,1.80517333984375,-0.2220611572265625,0.7749176025390625,0.2830963134765625
1772806390196104200,1.815104248046875,-0.22088623046875,0.741424560546875,0.3071441650390625
1772806390206036200,1.8250361328125,-0.2085723876953125,0.710601806640625,0.302032470703125
1772806390215967500,1.834967529296875,-0.1986846923828125,0.6798553466796875,0.2648773193359375
1772806390225899500,1.8448994140625,-0.1890716552734375,0.6761627197265625,0.1918487548828125
1772806390235830300,1.854830322265625,-0.1944580078125,0.6817474365234375,0.120849609375
1772806390245761300,1.86476123046875,-0.215667724609375,0.681671142578125,0.073883056640625
1772806390255693300,1.874693359375,-0.214569091796875,0.6598968505859375,0.0578155517578125
1772806390265624300,1.884624267578125,-0.2230224609375,0.6536102294921875,0.0801544189453125
1772806390275556400,1.894556396484375,-0.24798583984375,0.650238037109375,0.0880126953125
1772806390285488400,1.90448828125,-0.252044677734375,0.6477203369140625,0.1240997314453125
1772806390295419400,1.91441943359375,-0.2551727294921875,0.6527099609375,0.1566009521484375
1772806390305350400,1.924350341796875,-0.2663726806640625,0.657684326171875,0.1895904541015625
1772806390315282400,1.934282470703125,-0.27667236328125,0.6665191650390625,0.1973419189453125
1772806390325213400,1.94421337890625,-0.2904510498046875,0.68731689453125,0.1983489990234375
1772806390335145500,1.9541455078125,-0.313446044921875,0.7139892578125,0.1733245849609375
1772806390345076200,1.964076171875,-0.334381103515625,0.745025634765625,0.155670166015625
1772806390355008300,1.97400830078125,-0.3431549072265625,0.7623748779296875,0.138763427734375
1772806390364939500,1.983939453125,-0.355621337890625,0.764495849609375,0.1201629638671875
1772806390374871600,1.99387158203125,-0.3659210205078125,0.758880615234375,0.1000213623046875
1772806390384802300,2.00380224609375,-0.3822479248046875,0.765625,0.087249755859375
1772806390394734300,2.013734375,-0.3952178955078125,0.8085479736328125,0.0830535888671875
1772806390404665300,2.023665283203125,-0.3926849365234375,0.8509674072265625,0.0831146240234375
1772806390414597400,2.033597412109375,-0.3846588134765625,0.8920440673828125,0.0823211669921875
1772806390424528400,2.0435283203125,-0.38104248046875,0.9337921142578125,0.074005126953125
1772806390434460400,2.05346044921875,-0.3946533203125,0.962158203125,0.0528564453125
1772806390444391400,2.063391357421875,-0.41583251953125,0.9907989501953125,0.0372772216796875
1772806390454323200,2.0733232421875,-0.4549102783203125,1.036590576171875,0.0252838134765625
1772806390464254500,2.08325439453125,-0.488128662109375,1.1082611083984375,0.010162353515625
1772806390474186500,2.0931865234375,-0.506195068359375,1.1776275634765625,0.004852294921875
1772806390484117200,2.1031171875,-0.5211181640625,1.23651123046875,0.01434326171875
1772806390494049300,2.11304931640625,-0.5542755126953125,1.2658538818359375,0.0374908447265625
1772806390503980300,2.122980224609375,-0.5977935791015625,1.2469024658203125,0.0722808837890625
1772806390513912300,2.132912353515625,-0.6150970458984375,1.183074951171875,0.1088409423828125
1772806390523843300,2.14284326171875,-0.6032257080078125,1.100860595703125,0.12176513671875
1772806390533775400,2.152775390625,-0.5839691162109375,1.024444580078125,0.115966796875
1772806390543706400,2.162706298828125,-0.571868896484375,0.95208740234375,0.077880859375
1772806390553638400,2.172638427734375,-0.571502685546875,0.9053955078125,0.031982421875
1772806390563569400,2.1825693359375,-0.5745697021484375,0.8738861083984375,0.0213623046875
1772806390573501400,2.19250146484375,-0.5678253173828125,0.8692169189453125,0.029998779296875
1772806390583432400,2.202432373046875,-0.5307464599609375,0.8900909423828125,0.0285797119140625
1772806390593364500,2.212364501953125,-0.4846649169921875,0.9242706298828125,0.0463409423828125
1772806390603295200,2.222295166015625,-0.444976806640625,0.9791717529296875,0.1030120849609375
1772806390613227300,2.232227294921875,-0.413177490234375,0.9836578369140625,0.14605712890625
1772806390623158500,2.242158447265625,-0.39794921875,0.991912841796875,0.1803131103515625
1772806390633090300,2.25209033203125,-0.3627777099609375,1.088623046875,0.234619140625
1772806390643021300,2.262021240234375,-0.278350830078125,1.287353515625,0.2572784423828125
1772806390652953300,2.271953369140625,-0.262908935546875,1.5306854248046875,0.247528076171875
1772806390662884400,2.28188427734375,-0.2949676513671875,1.6781463623046875,0.208343505859375
1772806390672816400,2.29181640625,-0.274261474609375,1.51959228515625,0.2745513916015625
1772806390682747400,2.301747314453125,-0.1852264404296875,1.0151214599609375,0.346160888671875
1772806390692679400,2.311679443359375,-0.1407623291015625,0.521209716796875,0.353179931640625
1772806390702610400,2.3216103515625,-0.1225128173828125,0.2846221923828125,0.3097076416015625
1772806390712542200,2.331542236328125,-0.0062103271484375,0.24664306640625,0.3019866943359375
1772806390722473500,2.341473388671875,0.1486358642578125,0.3969573974609375,0.2565460205078125
1772806390732405500,2.351405517578125,0.2603302001953125,0.74810791015625,0.200714111328125
1772806390742336300,2.361336181640625,0.355224609375,1.1292266845703125,0.1661529541015625
1772806390752268300,2.371268310546875,0.397796630859375,1.3120574951171875,0.1121368408203125
1772806390762199300,2.38119921875,0.3535308837890625,1.2981109619140625,0.02642822265625
1772806390772131300,2.39113134765625,0.244110107421875,1.18841552734375,0.0048828125
1772806390782062300,2.401062255859375,0.103851318359375,1.0388946533203125,0.0724945068359375
1772806390791994400,2.410994384765625,-0.0212554931640625,0.9264373779296875,0.2297515869140625
1772806390801925400,2.42092529296875,-0.08306884765625,0.8775787353515625,0.314208984375
1772806390811857400,2.430857421875,-0.093475341796875,0.8448638916015625,0.35333251953125
1772806390821788400,2.440788330078125,-0.066314697265625,0.842132568359375,0.3829498291015625
1772806390831720400,2.450720458984375,-0.0053253173828125,0.853546142578125,0.35931396484375
1772806390841651500,2.4606513671875,0.063018798828125,0.880126953125,0.2922821044921875
1772806390851583500,2.47058349609375,0.0841827392578125,0.9228668212890625,0.19305419921875
1772806390861514200,2.48051416015625,0.1053924560546875,0.97625732421875,0.1115875244140625
1772806390871446300,2.4904462890625,0.1397705078125,0.9845733642578125,0.0481414794921875
1772806390881377500,2.50037744140625,0.17108154296875,0.97784423828125,0.0220184326171875
1772806390891309300,2.510309326171875,0.171844482421875,0.9609222412109375,-0.0380096435546875
1772806390901240300,2.520240234375,0.1352386474609375,0.9348602294921875,-0.0801544189453125
1772806390911171300,2.53017138671875,0.1006622314453125,0.948394775390625,-0.058380126953125
1772806390921103400,2.540103271484375,0.074371337890625,0.9630584716796875,-0.019134521484375
1772806390931034400,2.550034423828125,0.0550994873046875,0.9436187744140625,0.045867919921875
1772806390940966400,2.55996630859375,0.0585784912109375,0.9300384521484375,0.1063232421875
1772806390950897400,2.5698974609375,0.041748046875,0.93865966796875,0.1370391845703125
1772806390960829200,2.5798291015625,0.0118255615234375,0.9394073486328125,0.18798828125
1772806390970760400,2.589760498046875,-0.01666259765625,0.9410400390625,0.19903564453125
1772806390980692500,2.5996923828125,-0.0399932861328125,0.959625244140625,0.170867919921875
1772806390990623500,2.60962353515625,-0.0424652099609375,0.9857025146484375,0.1171875
1772806391000555300,2.61955517578125,-0.0276947021484375,0.9990692138671875,0.0654144287109375
1772806391010486300,2.629486328125,0.0160369873046875,1.00494384765625,0.037445068359375
1772806391020418300,2.639418212890625,0.0543975830078125,1.005035400390625,0.035736083984375
1772806391030349600,2.649349609375,0.07476806640625,0.9934234619140625,0.0265960693359375
1772806391040281300,2.65928125,0.0873260498046875,0.9784698486328125,0.0188751220703125
1772806391050212400,2.66921240234375,0.0871734619140625,0.9772796630859375,-0.000244140625
1772806391060144400,2.679144287109375,0.06512451171875,0.9921722412109375,-0.0239105224609375
1772806391070075400,2.689075439453125,0.0496063232421875,0.9985809326171875,-0.0267791748046875
1772806391080007400,2.69900732421875,0.0368499755859375,0.9842071533203125,-0.0087890625
1772806391089938400,2.7089384765625,0.0200653076171875,0.965301513671875,0.0278472900390625
1772806391099870500,2.718870361328125,-0.002044677734375,0.9657745361328125,0.0726318359375
1772806391109801200,2.72880126953125,-0.013671875,0.9757232666015625,0.105194091796875
1772806391119733200,2.738733154296875,-0.0130462646484375,0.993988037109375,0.1178741455078125
1772806391129664500,2.74866455078125,-0.0045166015625,1.021514892578125,0.1036529541015625
1772806391139596500,2.758596435546875,0.01885986328125,1.0451507568359375,0.0646209716796875
1772806391149527300,2.76852734375,0.0654144287109375,1.0569610595703125,0.0211181640625
1772806391159459300,2.778459228515625,0.1101837158203125,1.0615692138671875,-0.0172882080078125
1772806391169390300,2.788390380859375,0.134033203125,1.0569000244140625,-0.0331268310546875
1772806391179323000,2.798322998046875,0.1298675537109375,1.0656280517578125,-0.00946044921875
1772806391189254000,2.80825390625,0.11199951171875,1.0667724609375,0.0400390625
1772806391199186000,2.81818603515625,0.085662841796875,1.05609130859375,0.0904388427734375
1772806391209117000,2.828116943359375,0.0620269775390625,1.0501556396484375,0.1369171142578125
1772806391219049000,2.838049072265625,0.02593994140625,1.0375518798828125,0.1661376953125
1772806391228979700,2.847979736328125,-0.0176544189453125,1.0153350830078125,0.18310546875
1772806391238911700,2.857911865234375,-0.054534912109375,1.0296173095703125,0.1641693115234375
1772806391248843000,2.867843017578125,-0.06201171875,1.057281494140625,0.1609039306640625
1772806391258774800,2.87777490234375,-0.05670166015625,1.08050537109375,0.1603851318359375
1772806391268705800,2.887705810546875,-0.0797271728515625,1.11669921875,0.152313232421875
1772806391278637800,2.897637939453125,-0.09503173828125,1.1277618408203125,0.136749267578125
1772806391288569000,2.907569091796875,-0.0702972412109375,1.13116455078125,0.0973358154296875
1772806391298500900,2.9175009765625,-0.0281829833984375,1.1485748291015625,0.0661163330078125
1772806391308432000,2.927431884765625,0.0169219970703125,1.166412353515625,0.0288543701171875
1772806391318364000,2.937364013671875,0.06036376953125,1.1741790771484375,-0.0089263916015625
1772806391328295000,2.947294921875,0.0848388671875,1.1790771484375,-0.0112762451171875
1772806391338226700,2.957226806640625,0.1175689697265625,1.1914520263671875,-0.0040435791015625
1772806391348158000,2.967157958984375,0.15325927734375,1.24017333984375,-0.001129150390625
1772806391358089000,2.9770888671875,0.1283721923828125,1.29681396484375,0.01336669921875
1772806391368020700,2.987020751953125,0.0765533447265625,1.281341552734375,0.047515869140625
1772806391377952800,2.996952880859375,0.083221435546875,1.1681671142578125,0.1194000244140625
1772806391387883800,3.0068837890625,0.024017333984375,1.0809783935546875,0.2428741455078125
1772806391397815000,3.01681494140625,-0.0727386474609375,1.00555419921875,0.3214111328125
1772806391407746800,3.026746826171875,-0.1439361572265625,0.9197998046875,0.3478240966796875
1772806391417677800,3.036677734375,-0.2584075927734375,0.863006591796875,0.4512939453125
1772806391427609900,3.04660986328125,-0.303741455078125,1.001861572265625,0.5388031005859375
1772806391437540900,3.056540771484375,-0.245330810546875,1.149993896484375,0.403961181640625
1772806391447473000,3.066472900390625,-0.233306884765625,1.1923065185546875,0.3155059814453125
1772806391457404000,3.07640380859375,-0.172607421875,1.24407958984375,0.2332763671875
1772806391467336000,3.0863359375,-0.1222076416015625,1.2224578857421875,0.133697509765625
1772806391477266700,3.0962666015625,-0.134857177734375,1.1669158935546875,0.0496063232421875
1772806391487198700,3.10619873046875,-0.127349853515625,1.117645263671875,0.005767822265625
1772806391497130000,3.1161298828125,-0.1245880126953125,1.0855560302734375,0.024444580078125
1772806391507062000,3.12606201171875,-0.1546630859375,1.0885467529296875,0.0618896484375
1772806391516992800,3.13599267578125,-0.1802825927734375,1.065155029296875,0.076141357421875
1772806391526924800,3.1459248046875,-0.1659698486328125,0.9937744140625,0.110137939453125
1772806391536856000,3.15585595703125,-0.16015625,0.898529052734375,0.0958404541015625
1772806391546788000,3.1657880859375,-0.1866607666015625,0.8213043212890625,0.110595703125
1772806391556718800,3.17571875,-0.2218170166015625,0.7745361328125,0.171478271484375
1772806391566651000,3.18565087890625,-0.23602294921875,0.7202911376953125,0.1978759765625
1772806391576582000,3.195581787109375,-0.244110107421875,0.672271728515625,0.2128143310546875
1772806391586513700,3.205513671875,-0.2755126953125,0.6605224609375,0.24810791015625
1772806391596445000,3.21544482421875,-0.293121337890625,0.668426513671875,0.2575836181640625
1772806391606377000,3.225376953125,-0.2823944091796875,0.656494140625,0.2279205322265625
1772806391616308000,3.235307861328125,-0.2491455078125,0.6368255615234375,0.195770263671875
1772806391626239700,3.24523974609375,-0.23480224609375,0.62945556640625,0.1602020263671875
1772806391636170800,3.255170654296875,-0.2244720458984375,0.636871337890625,0.12982177734375
1772806391646102800,3.265102783203125,-0.21588134765625,0.6578826904296875,0.1084136962890625
1772806391656034000,3.275033935546875,-0.233978271484375,0.670989990234375,0.0948638916015625
1772806391665965800,3.2849658203125,-0.251739501953125,0.6697845458984375,0.0889892578125
1772806391675896800,3.294896728515625,-0.2747955322265625,0.66192626953125,0.0897979736328125
1772806391685828900,3.304828857421875,-0.285675048828125,0.667388916015625,0.1062774658203125
1772806391695760000,3.314759765625,-0.2929840087890625,0.6773223876953125,0.144561767578125
1772806391705692000,3.32469189453125,-0.291168212890625,0.6849212646484375,0.1756439208984375
1772806391715623000,3.334622802734375,-0.3038787841796875,0.7060699462890625,0.1942291259765625
1772806391725555000,3.344554931640625,-0.334259033203125,0.7252960205078125,0.1910552978515625
1772806391735485700,3.354485595703125,-0.3692474365234375,0.7447357177734375,0.1757965087890625
1772806391745417700,3.364417724609375,-0.39141845703125,0.7529296875,0.1490325927734375
1772806391755349000,3.374348876953125,-0.398651123046875,0.7628021240234375,0.113494873046875
1772806391765279700,3.38427978515625,-0.4021148681640625,0.7757415771484375,0.069366455078125
1772806391775211800,3.394211669921875,-0.3969879150390625,0.799346923828125,0.03448486328125
1772806391785142800,3.404142822265625,-0.3836212158203125,0.8290252685546875,0.0231170654296875
1772806391795074800,3.41407470703125,-0.3610687255859375,0.8499298095703125,0.030853271484375
1772806391805005800,3.424005859375,-0.355377197265625,0.8758392333984375,0.0502777099609375
1772806391814937900,3.433937744140625,-0.3641510009765625,0.8905792236328125,0.0576171875
1772806391824868900,3.443868896484375,-0.384490966796875,0.9093780517578125,0.066314697265625
1772806391834801000,3.45380078125,-0.41009521484375,0.9293060302734375,0.0594024658203125
1772806391844732000,3.46373193359375,-0.4374847412109375,0.951812744140625,0.031829833984375
1772806391854664000,3.473663818359375,-0.4588623046875,0.982147216796875,-0.0091400146484375
1772806391864595000,3.483594970703125,-0.45806884765625,1.023193359375,-0.0480194091796875
1772806391874527000,3.49352685546875,-0.4575347900390625,1.07794189453125,-0.078369140625
1772806391884457700,3.503457763671875,-0.479095458984375,1.1107635498046875,-0.106536865234375
1772806391894389800,3.5133896484375,-0.505035400390625,1.123016357421875,-0.1116943359375
1772806391904321000,3.523321044921875,-0.5281219482421875,1.1225128173828125,-0.0877838134765625
1772806391914252800,3.533252685546875,-0.54168701171875,1.096649169921875,-0.04376220703125
1772806391924183800,3.543183837890625,-0.5493316650390625,1.0474090576171875,0.0088958740234375
1772806391934115800,3.55311572265625,-0.550201416015625,0.9847869873046875,0.05328369140625
1772806391944046800,3.563046875,-0.5417633056640625,0.9349212646484375,0.078704833984375
1772806391953979000,3.572978759765625,-0.5281524658203125,0.9237213134765625,0.0785369873046875
1772806391963910000,3.582909912109375,-0.50640869140625,0.920654296875,0.0666351318359375
1772806391973842000,3.592842041015625,-0.4835968017578125,0.913238525390625,0.0555877685546875
1772806391983773000,3.60277294921875,-0.47967529296875,0.8961181640625,0.046630859375
1772806391993704700,3.61270458984375,-0.494781494140625,0.9028472900390625,0.0400848388671875
1772806392003636000,3.622635986328125,-0.4883575439453125,0.9451446533203125,0.0012664794921875
1772806392013568000,3.632568115234375,-0.4840240478515625,1.0304718017578125,0.0133209228515625
1772806392023498800,3.642498779296875,-0.4798736572265625,1.087127685546875,0.0564727783203125
1772806392033430800,3.6524306640625,-0.477630615234375,1.0614471435546875,0.099609375
1772806392043361800,3.66236181640625,-0.47869873046875,1.0355072021484375,0.1452789306640625
1772806392053293800,3.6722939453125,-0.4624786376953125,1.0459136962890625,0.178497314453125
1772806392063224800,3.682224853515625,-0.44036865234375,0.999603271484375,0.19122314453125
1772806392073156900,3.692156982421875,-0.480499267578125,1.1060638427734375,0.1665496826171875
1772806392083088000,3.702087890625,-0.5718994140625,1.1929168701171875,0.0800018310546875
1772806392093020000,3.71202001953125,-0.6406707763671875,1.1459503173828125,0.0124359130859375
1772806392102951000,3.721950927734375,-0.5388336181640625,0.9722900390625,0.0551300048828125
1772806392112883000,3.731883056640625,-0.3505096435546875,0.782806396484375,0.256561279296875
1772806392122814000,3.74181396484375,-0.333831787109375,0.7222900390625,0.4184722900390625
1772806392132744700,3.75174462890625,-0.4142303466796875,0.771331787109375,0.4302215576171875
1772806392142676700,3.7616767578125,-0.399871826171875,0.883880615234375,0.28021240234375
1772806392152608000,3.77160791015625,-0.235626220703125,1.0140533447265625,0.0744781494140625
1772806392162540000,3.7815400390625,0.004150390625,1.071929931640625,-0.00274658203125
1772806392172470800,3.791470703125,0.1244354248046875,1.079986572265625,0.0439605712890625
1772806392182402600,3.801402587890625,0.1201934814453125,1.053192138671875,0.1359100341796875
1772806392192333800,3.811333740234375,0.06683349609375,0.9820556640625,0.205169677734375
1772806392202265900,3.821265869140625,-0.033111572265625,0.9215087890625,0.2444305419921875
1772806392212196900,3.83119677734375,-0.0980224609375,0.9316864013671875,0.2158660888671875
1772806392222128600,3.841128662109375,-0.10198974609375,0.944427490234375,0.1844329833984375
1772806392232059600,3.8510595703125,-0.1008148193359375,0.96319580078125,0.180267333984375
1772806392241991700,3.86099169921875,-0.1131439208984375,0.9057464599609375,0.1728515625
1772806392251922700,3.870922607421875,-0.1503753662109375,0.876190185546875,0.2335205078125
1772806392261854700,3.880854736328125,-0.1915283203125,0.9050140380859375,0.22564697265625
1772806392271785700,3.89078564453125,-0.2116546630859375,0.910919189453125,0.1902618408203125
1772806392281717800,3.9007177734375,-0.2097930908203125,0.9466400146484375,0.1784515380859375
1772806392291648500,3.9106484375,-0.1881561279296875,1.0210418701171875,0.13653564453125
1772806392301580500,3.92058056640625,-0.1619873046875,1.0512542724609375,0.0642547607421875
1772806392311511800,3.93051171875,-0.1320648193359375,1.056182861328125,0.00244140625
1772806392321443800,3.94044384765625,-0.108978271484375,1.0442962646484375,-0.0419921875
1772806392331374600,3.95037451171875,-0.093658447265625,1.019927978515625,-0.05377197265625
1772806392341306600,3.960306640625,-0.0862884521484375,0.981842041015625,-0.0668792724609375
1772806392351238000,3.97023779296875,-0.1092681884765625,0.9368896484375,-0.0520477294921875
1772806392361167600,3.980167724609375,-0.1422271728515625,0.900238037109375,-0.0132598876953125
1772806392371099600,3.990099609375,-0.1463470458984375,0.8783721923828125,0.0274200439453125
1772806392381031000,4.000031005859375,-0.135833740234375,0.8754119873046875,0.05291748046875
1772806392390962700,4.009962646484375,-0.1335601806640625,0.88104248046875,0.0711517333984375
1772806392400893700,4.019893798828125,-0.1298370361328125,0.8888092041015625,0.07550048828125
1772806392410825700,4.02982568359375,-0.11895751953125,0.899810791015625,0.079132080078125
1772806392420756700,4.0397568359375,-0.1008148193359375,0.9120941162109375,0.070220947265625
1772806392430688500,4.0496884765625,-0.0980682373046875,0.9206390380859375,0.0829010009765625
1772806392440619800,4.059619873046875,-0.0974273681640625,0.9207611083984375,0.0926513671875
1772806392450551800,4.0695517578125,-0.0941314697265625,0.9163970947265625,0.0984344482421875
1772806392460482600,4.079482666015625,-0.091796875,0.9174957275390625,0.1068115234375
1772806392470414600,4.08941455078125,-0.087493896484375,0.9322357177734375,0.1088409423828125
1772806392480345600,4.099345703125,-0.0937347412109375,0.958709716796875,0.0994720458984375
1772806392490278000,4.10927783203125,-0.09967041015625,0.9754486083984375,0.0782318115234375
1772806392500208600,4.119208740234375,-0.1080474853515625,0.9777374267578125,0.065399169921875
1772806392510140700,4.129140625,-0.126190185546875,0.972198486328125,0.0518341064453125
1772806392520071700,4.13907177734375,-0.1327056884765625,0.9689178466796875,0.05328369140625
1772806392530003700,4.149003662109375,-0.126953125,0.968017578125,0.0541229248046875
1772806392539934700,4.158934814453125,-0.1119537353515625,0.966094970703125,0.050384521484375
1772806392549866800,4.16886669921875,-0.100921630859375,0.9702911376953125,0.05517578125
1772806392559797800,4.1787978515625,-0.080657958984375,0.97509765625,0.0562744140625
1772806392569729800,4.188729736328125,-0.0543975830078125,0.9804534912109375,0.042633056640625
1772806392579660500,4.19866064453125,-0.026641845703125,0.970123291015625,0.0385284423828125
1772806392589591800,4.208591796875,-0.0229644775390625,0.944183349609375,0.058990478515625
1772806392599523800,4.21852392578125,-0.050262451171875,0.9406890869140625,0.072235107421875
1772806392609454600,4.22845458984375,-0.084991455078125,0.947540283203125,0.084747314453125
1772806392619386600,4.23838671875,-0.086883544921875,0.961639404296875,0.098785400390625
1772806392629318000,4.24831787109375,-0.0690765380859375,0.9795074462890625,0.110687255859375
1772806392639250000,4.25825,-0.056396484375,0.988128662109375,0.117218017578125
1772806392649180700,4.2681806640625,-0.046966552734375,0.98046875,0.120025634765625
1772806392659112700,4.27811279296875,-0.0594635009765625,0.975372314453125,0.1323089599609375
1772806392669043700,4.288043701171875,-0.0847625732421875,0.992401123046875,0.1389312744140625
1772806392678975700,4.297975830078125,-0.0763092041015625,1.0135498046875,0.127655029296875
1772806392688906800,4.30790673828125,-0.0373077392578125,1.01458740234375,0.1233673095703125
1772806392698838800,4.3178388671875,-0.028076171875,1.017242431640625,0.125
1772806392708769800,4.327769775390625,-0.0359039306640625,1.0215606689453125,0.1131744384765625
1772806392718701600,4.33770166015625,-0.035125732421875,1.0050048828125,0.1177520751953125
1772806392728632600,4.347632568359375,-0.0587158203125,0.9865570068359375,0.1257781982421875
1772806392738564600,4.357564697265625,-0.1044158935546875,0.9910125732421875,0.1310882568359375
1772806392748497000,4.367496826171875,-0.135589599609375,1.0357208251953125,0.134124755859375
1772806392758427600,4.377427734375,-0.135345458984375,1.09796142578125,0.144256591796875
1772806392768359700,4.387359619140625,-0.1375885009765625,1.1547088623046875,0.1480865478515625
1772806392778290700,4.397290771484375,-0.1325531005859375,1.1865234375,0.1260528564453125
1772806392788222700,4.40722265625,-0.137908935546875,1.1968231201171875,0.1004486083984375
1772806392798153700,4.41715380859375,-0.136474609375,1.2032012939453125,0.0760650634765625
1772806392808085800,4.427085693359375,-0.11212158203125,1.1919403076171875,0.0688018798828125
1772806392818016800,4.437016845703125,-0.091094970703125,1.16925048828125,0.0800323486328125
1772806392827948800,4.44694873046875,-0.0775299072265625,1.1480255126953125,0.103729248046875
1772806392837879600,4.456879638671875,-0.085235595703125,1.1201324462890625,0.1264190673828125
1772806392847811600,4.4668115234375,-0.1300201416015625,1.13189697265625,0.14398193359375
1772806392857742800,4.476742919921875,-0.1612548828125,1.1351318359375,0.17138671875
1772806392867673600,4.486673583984375,-0.1947021484375,1.1197357177734375,0.18310546875
1772806392877605600,4.496605712890625,-0.3129425048828125,1.0618438720703125,0.2259368896484375
1772806392887536600,4.50653662109375,-0.39788818359375,1.05126953125,0.2103729248046875
1772806392897469000,4.516468994140625,-0.3810882568359375,1.0276031494140625,0.193084716796875
1772806392907399700,4.526399658203125,-0.34710693359375,1.036163330078125,0.2027435302734375
1772806392917331700,4.536331787109375,-0.3227691650390625,1.1059722900390625,0.1979217529296875
1772806392927262700,4.5462626953125,-0.2972259521484375,1.1542816162109375,0.17706298828125
1772806392937194800,4.55619482421875,-0.2871551513671875,1.162384033203125,0.1117095947265625
1772806392947125800,4.566125732421875,-0.2570648193359375,1.1370697021484375,0.032928466796875
1772806392957057800,4.576057861328125,-0.2003173828125,1.0898590087890625,-0.008026123046875
1772806392966988800,4.58598876953125,-0.1719207763671875,1.017303466796875,0.0233306884765625
1772806392976920600,4.595920654296875,-0.1891326904296875,0.960357666015625,0.11065673828125
1772806392986851600,4.6058515625,-0.221435546875,0.969146728515625,0.2058258056640625
1772806392996783600,4.61578369140625,-0.2561798095703125,1.015472412109375,0.2723236083984375
1772806393006715000,4.62571484375,-0.2995452880859375,1.0665740966796875,0.3096923828125
1772806393016646700,4.635646728515625,-0.3308868408203125,1.0791168212890625,0.3066558837890625
1772806393026577700,4.64557763671875,-0.3172607421875,1.04962158203125,0.3002471923828125
1772806393036509700,4.655509765625,-0.2939910888671875,0.956085205078125,0.266143798828125
1772806393046440700,4.665440673828125,-0.2986297607421875,0.855712890625,0.2721099853515625
1772806393056372700,4.675372802734375,-0.31768798828125,0.8032073974609375,0.26885986328125
1772806393066303700,4.6853037109375,-0.31610107421875,0.75201416015625,0.2584991455078125
1772806393076235800,4.69523583984375,-0.3096771240234375,0.693817138671875,0.2506256103515625
1772806393086166500,4.70516650390625,-0.31036376953125,0.670166015625,0.2309722900390625
1772806393096098600,4.7150986328125,-0.2913360595703125,0.67047119140625,0.1968841552734375
1772806393106029800,4.72502978515625,-0.277374267578125,0.6616363525390625,0.161468505859375
1772806393115961900,4.7349619140625,-0.28155517578125,0.65057373046875,0.1459808349609375
1772806393125892600,4.744892578125,-0.2687225341796875,0.6218109130859375,0.148956298828125
1772806393135824600,4.75482470703125,-0.2473602294921875,0.6058197021484375,0.1586456298828125
1772806393145755600,4.764755615234375,-0.26751708984375,0.6192626953125,0.15106201171875
1772806393155688000,4.77468798828125,-0.27349853515625,0.6204071044921875,0.1274566650390625
1772806393165618700,4.78461865234375,-0.2817230224609375,0.633544921875,0.1148681640625
1772806393175549700,4.7945498046875,-0.2921142578125,0.6482086181640625,0.1078033447265625
1772806393185482500,4.804482421875,-0.29425048828125,0.6621551513671875,0.10986328125
1772806393195413200,4.814413330078125,-0.298126220703125,0.6764678955078125,0.1163787841796875
1772806393205345300,4.82434521484375,-0.3027191162109375,0.7004241943359375,0.120025634765625
1772806393215276500,4.834276611328125,-0.3079071044921875,0.7300872802734375,0.12347412109375
1772806393225208600,4.84420849609375,-0.3124847412109375,0.7465362548828125,0.1214599609375
1772806393235139300,4.854139404296875,-0.3197174072265625,0.7479095458984375,0.1184844970703125
1772806393245071400,4.8640712890625,-0.318328857421875,0.7348480224609375,0.095367431640625
1772806393255002600,4.874002685546875,-0.32196044921875,0.7146148681640625,0.082122802734375
1772806393264934700,4.8839345703125,-0.3369293212890625,0.701751708984375,0.0779266357421875
1772806393274865400,4.893865478515625,-0.346527099609375,0.7007598876953125,0.070098876953125
1772806393284797400,4.90379736328125,-0.3549957275390625,0.7309417724609375,0.068878173828125
1772806393294728400,4.913728515625,-0.3601531982421875,0.7714996337890625,0.0768280029296875
1772806393304660500,4.923660400390625,-0.3707733154296875,0.810791015625,0.0897674560546875
1772806393314591500,4.933591552734375,-0.3913421630859375,0.834259033203125,0.100372314453125
1772806393324523500,4.9435234375,-0.4125823974609375,0.8724517822265625,0.0796966552734375
1772806393334454500,4.95345458984375,-0.41778564453125,0.95074462890625,0.046478271484375
1772806393344386300,4.96338623046875,-0.3935394287109375,1.0753326416015625,0.036102294921875
1772806393354317300,4.9733173828125,-0.35992431640625,1.1941986083984375,0.019622802734375
1772806393364249300,4.983249267578125,-0.3482666015625,1.277862548828125,0.0042266845703125
1772806393374180600,4.9931806640625,-0.4005584716796875,1.3171844482421875,0.0232086181640625
1772806393384112400,5.0031123046875,-0.5100250244140625,1.3036651611328125,0.041168212890625
1772806393394043400,5.01304345703125,-0.632568359375,1.2691497802734375,0.0800018310546875
1772806393403975400,5.022975341796875,-0.7125091552734375,1.1970367431640625,0.10565185546875
1772806393413906700,5.03290673828125,-0.67535400390625,1.0904693603515625,0.1082611083984375
1772806393423838500,5.04283837890625,-0.6404876708984375,0.9690399169921875,0.0721893310546875
1772806393433769500,5.05276953125,-0.583251953125,0.9023590087890625,0.0343475341796875
1772806393443701500,5.062701416015625,-0.4785308837890625,0.909942626953125,0.0447998046875
1772806393453632300,5.07263232421875,-0.3807525634765625,0.9750518798828125,0.0753936767578125
1772806393463563500,5.0825634765625,-0.3716278076171875,1.0579376220703125,0.115753173828125
1772806393473495600,5.09249560546875,-0.4188079833984375,1.0814208984375,0.16845703125
1772806393483426600,5.102426513671875,-0.4911651611328125,1.05535888671875,0.2282257080078125
1772806393493358300,5.1123583984375,-0.5507965087890625,1.08740234375,0.2836456298828125
1772806393503289300,5.122289306640625,-0.5185394287109375,1.1210479736328125,0.2846527099609375
1772806393513221400,5.132221435546875,-0.4765625,1.1548919677734375,0.265869140625
1772806393523152400,5.14215234375,-0.53802490234375,1.225128173828125,0.1537017822265625
1772806393533084400,5.15208447265625,-0.6697235107421875,1.2151336669921875,0.0245208740234375
1772806393543015400,5.162015380859375,-0.483428955078125,1.0887908935546875,0.0674285888671875
1772806393552947500,5.171947509765625,-0.1482696533203125,0.9090118408203125,0.3430938720703125
1772806393562878500,5.18187841796875,-0.1922454833984375,0.7007904052734375,0.52685546875
1772806393572810500,5.191810546875,-0.35955810546875,0.5601348876953125,0.451446533203125
1772806393582741500,5.201741455078125,-0.2613983154296875,0.592559814453125,0.2138519287109375
1772806393592673500,5.211673583984375,-0.0310821533203125,0.719818115234375,0.0397796630859375
1772806393602604300,5.221604248046875,0.1459808349609375,0.905364990234375,-0.032257080078125
1772806393612536300,5.231536376953125,0.2399444580078125,1.0678558349609375,0.007843017578125
1772806393622467600,5.241467529296875,0.2155303955078125,1.156524658203125,0.1435546875
1772806393632399600,5.251399658203125,0.053497314453125,1.172515869140625,0.2232818603515625
1772806393642330400,5.261330322265625,-0.0988922119140625,1.1398773193359375,0.2490997314453125
1772806393652262400,5.271262451171875,-0.164215087890625,1.03802490234375,0.230499267578125
1772806393662193700,5.281193603515625,-0.1873931884765625,0.9305572509765625,0.2218475341796875
1772806393672125400,5.29112548828125,-0.186492919921875,0.8535919189453125,0.230560302734375
1772806393682056400,5.301056396484375,-0.1907958984375,0.8310546875,0.20294189453125
1772806393691988500,5.310988525390625,-0.1661224365234375,0.841094970703125,0.181243896484375
1772806393701919500,5.32091943359375,-0.17095947265625,0.894012451171875,0.1654205322265625
1772806393711851300,5.330851318359375,-0.1721649169921875,1.00439453125,0.0913543701171875
1772806393721782500,5.340782470703125,-0.152801513671875,1.1141204833984375,0.0198822021484375
1772806393731714600,5.350714599609375,-0.1567840576171875,1.1499176025390625,-0.0045166015625
1772806393741645600,5.3606455078125,-0.1383056640625,1.1154022216796875,-0.0359954833984375
1772806393751576300,5.370576416015625,-0.102264404296875,1.0529937744140625,-0.0652618408203125
1772806393761508400,5.38050830078125,-0.0815277099609375,0.9902496337890625,-0.0644989013671875
1772806393771439600,5.390439697265625,-0.0954742431640625,0.9362640380859375,-0.0278778076171875
1772806393781371400,5.400371337890625,-0.126556396484375,0.906463623046875,0.0150299072265625
1772806393791302400,5.410302490234375,-0.16424560546875,0.8889617919921875,0.0590667724609375
1772806393801234400,5.420234375,-0.1881103515625,0.8777618408203125,0.1166229248046875
1772806393811165700,5.430165771484375,-0.1859588623046875,0.8670654296875,0.1364898681640625
1772806393821097500,5.440097412109375,-0.145538330078125,0.8495941162109375,0.12310791015625
1772806393831028500,5.450028564453125,-0.12939453125,0.84521484375,0.121490478515625
1772806393840960500,5.45996044921875,-0.1161651611328125,0.8557891845703125,0.1256561279296875
1772806393850891300,5.469891357421875,-0.095794677734375,0.876251220703125,0.1224517822265625
1772806393860823300,5.4798232421875,-0.09674072265625,0.900390625,0.1192779541015625
1772806393870754600,5.489754638671875,-0.0997772216796875,0.923553466796875,0.1010894775390625
1772806393880686600,5.4996865234375,-0.0922088623046875,0.9304046630859375,0.0857391357421875
1772806393890617300,5.509617431640625,-0.0853118896484375,0.9309234619140625,0.0801849365234375
1772806393900549400,5.51954931640625,-0.0956268310546875,0.924163818359375,0.0775299072265625
1772806393910480400,5.52948046875,-0.1109619140625,0.936737060546875,0.090179443359375
1772806393920412400,5.539412353515625,-0.1204681396484375,0.950286865234375,0.0939788818359375
1772806393930343400,5.549343505859375,-0.1245269775390625,0.964111328125,0.09466552734375
1772806393940275500,5.559275390625,-0.1230621337890625,0.9701995849609375,0.0965423583984375
1772806393950206500,5.56920654296875,-0.11102294921875,0.9708251953125,0.0846710205078125
1772806393960138500,5.579138427734375,-0.0957183837890625,0.970428466796875,0.0763702392578125
1772806393970069500,5.589069580078125,-0.105194091796875,0.955596923828125,0.0957183837890625
1772806393980000500,5.59900048828125,-0.11572265625,0.9308929443359375,0.0984649658203125
1772806393989932500,5.6089326171875,-0.1247711181640625,0.9174957275390625,0.104278564453125
1772806393999863300,5.61886328125,-0.1328277587890625,0.912445068359375,0.1265716552734375
1772806394009795300,5.62879541015625,-0.1350250244140625,0.9096527099609375,0.1405181884765625
1772806394019726600,5.6387265625,-0.1504364013671875,0.9317626953125,0.141387939453125
1772806394029658600,5.64865869140625,-0.1618804931640625,0.9772796630859375,0.1363677978515625
1772806394039589400,5.65858935546875,-0.1446685791015625,1.0131683349609375,0.1352996826171875
1772806394049521400,5.668521484375,-0.11029052734375,1.0146026611328125,0.135406494140625
1772806394059452400,5.678452392578125,-0.085693359375,1.0028076171875,0.133453369140625
1772806394069384400,5.688384521484375,-0.0885467529296875,0.9891510009765625,0.135284423828125
1772806394079315500,5.6983154296875,-0.090576171875,0.9730682373046875,0.12640380859375
1772806394089247500,5.70824755859375,-0.08148193359375,0.96734619140625,0.111602783203125
1772806394099178500,5.718178466796875,-0.064605712890625,0.9785003662109375,0.1144866943359375
1772806394109110300,5.7281103515625,-0.0890350341796875,1.015960693359375,0.1120452880859375
1772806394119041500,5.73804150390625,-0.115081787109375,1.0273284912109375,0.0866851806640625
1772806394128973600,5.7479736328125,-0.12347412109375,1.0423431396484375,0.070037841796875
1772806394138904600,5.757904541015625,-0.111114501953125,1.0774383544921875,0.0853424072265625
1772806394148836400,5.76783642578125,-0.103607177734375,1.133056640625,0.1381988525390625
1772806394158767400,5.777767333984375,-0.1047821044921875,1.1807708740234375,0.1623992919921875
1772806394168699400,5.787699462890625,-0.084930419921875,1.1983184814453125,0.155120849609375
1772806394178630400,5.79763037109375,-0.07476806640625,1.18524169921875,0.16094970703125
1772806394188562400,5.8075625,-0.093719482421875,1.16009521484375,0.1691131591796875
1772806394198493400,5.817493408203125,-0.1230010986328125,1.1488189697265625,0.1756591796875
1772806394208425200,5.82742529296875,-0.1482086181640625,1.165374755859375,0.20001220703125
1772806394218356500,5.8373564453125,-0.1624908447265625,1.1869354248046875,0.22637939453125
1772806394228288500,5.84728857421875,-0.1877899169921875,1.2099609375,0.241973876953125
1772806394238219300,5.85721923828125,-0.242218017578125,1.2394256591796875,0.2344818115234375
1772806394248150300,5.867150390625,-0.2711181640625,1.2413177490234375,0.2342376708984375
1772806394258082300,5.877082275390625,-0.2915191650390625,1.2072906494140625,0.2207794189453125
1772806394268013600,5.887013671875,-0.297149658203125,1.1353759765625,0.2068023681640625
1772806394277945300,5.8969453125,-0.2911834716796875,1.0534515380859375,0.1888275146484375
1772806394287876400,5.90687646484375,-0.31689453125,0.9864654541015625,0.182891845703125
1772806394297808400,5.916808349609375,-0.3224029541015625,1.006072998046875,0.165985107421875
1772806394307739100,5.9267392578125,-0.2965087890625,1.05548095703125,0.13409423828125
1772806394317671400,5.93667138671875,-0.278472900390625,1.088653564453125,0.064239501953125
1772806394327602400,5.9466025390625,-0.245697021484375,1.0931396484375,0.021942138671875
1772806394337534500,5.956534423828125,-0.202392578125,1.0709991455078125,0.055572509765625
1772806394347465200,5.96646533203125,-0.1617889404296875,1.0307464599609375,0.086334228515625
1772806394357397200,5.976397216796875,-0.1313018798828125,0.9720306396484375,0.1206207275390625
1772806394367328500,5.98632861328125,-0.144256591796875,0.9329833984375,0.1727142333984375
1772806394377260500,5.996260498046875,-0.1781768798828125,0.956787109375,0.228729248046875
1772806394387191300,6.00619140625,-0.217620849609375,1.0061798095703125,0.238311767578125
1772806394397123300,6.016123291015625,-0.268341064453125,1.0129852294921875,0.1951904296875
1772806394407054300,6.026054443359375,-0.3026885986328125,0.985076904296875,0.1464996337890625
1772806394416986400,6.035986328125,-0.3232421875,0.93914794921875,0.12664794921875
1772806394426917400,6.04591748046875,-0.335968017578125,0.86663818359375,0.13079833984375
1772806394436849400,6.055849365234375,-0.3374176025390625,0.7980499267578125,0.16455078125
1772806394446780400,6.065780517578125,-0.3203582763671875,0.75213623046875,0.214019775390625
1772806394456712400,6.07571240234375,-0.311065673828125,0.7287750244140625,0.24627685546875
1772806394466643500,6.0856435546875,-0.3046112060546875,0.7174530029296875,0.2646484375
1772806394476575500,6.095575439453125,-0.2980194091796875,0.704833984375,0.24566650390625
1772806394486506500,6.105506591796875,-0.2744903564453125,0.699859619140625,0.217376708984375
1772806394496437200,6.115437255859375,-0.2667083740234375,0.7079315185546875,0.2246551513671875
1772806394506369300,6.125369384765625,-0.2445068359375,0.7021942138671875,0.2089080810546875
1772806394516300500,6.135300537109375,-0.217864990234375,0.6934356689453125,0.1862640380859375
1772806394526232600,6.145232666015625,-0.217864990234375,0.7027435302734375,0.1669921875
1772806394536163300,6.155163330078125,-0.2241058349609375,0.7226104736328125,0.1505584716796875
1772806394546095400,6.165095458984375,-0.23724365234375,0.7377471923828125,0.155975341796875
1772806394556026400,6.1750263671875,-0.25677490234375,0.7426605224609375,0.164581298828125
1772806394565958100,6.184958251953125,-0.2785491943359375,0.7440032958984375,0.17120361328125
1772806394575889400,6.194889404296875,-0.294677734375,0.750030517578125,0.172210693359375
1772806394585821400,6.204821533203125,-0.3159637451171875,0.7559051513671875,0.17449951171875
1772806394595752400,6.21475244140625,-0.3370361328125,0.758209228515625,0.174041748046875
1772806394605684200,6.224684326171875,-0.357879638671875,0.7606353759765625,0.1611785888671875
1772806394615615500,6.234615478515625,-0.371612548828125,0.76605224609375,0.1356048583984375
1772806394625547500,6.244547607421875,-0.38623046875,0.774200439453125,0.1119842529296875
1772806394635478300,6.254478271484375,-0.385101318359375,0.7860870361328125,0.0892791748046875
1772806394645410300,6.264410400390625,-0.37445068359375,0.7880096435546875,0.0704803466796875
1772806394655341300,6.27434130859375,-0.3553009033203125,0.79949951171875,0.0709075927734375
1772806394665273300,6.2842734375,-0.3434906005859375,0.8147125244140625,0.0815277099609375
1772806394675204400,6.294204345703125,-0.33489990234375,0.8232421875,0.0906219482421875
1772806394685136400,6.304136474609375,-0.334136962890625,0.8275909423828125,0.1004486083984375
1772806394695067400,6.3140673828125,-0.3345794677734375,0.8331756591796875,0.0991973876953125
1772806394704998400,6.323998291015625,-0.3482666015625,0.8407135009765625,0.0792694091796875
1772806394714930200,6.33393017578125,-0.37994384765625,0.8440704345703125,0.05828857421875
1772806394724861400,6.343861328125,-0.4345550537109375,0.8641815185546875,0.04541015625
1772806394734793500,6.35379345703125,-0.478729248046875,0.9109649658203125,0.0322113037109375
1772806394744724200,6.36372412109375,-0.5093231201171875,0.9729461669921875,0.0412139892578125
1772806394754656300,6.37365625,-0.5090179443359375,1.03814697265625,0.06903076171875
1772806394764587500,6.38358740234375,-0.4830474853515625,1.099517822265625,0.1065673828125
1772806394774519600,6.39351953125,-0.4618377685546875,1.125396728515625,0.1416015625
1772806394784450300,6.4034501953125,-0.453765869140625,1.0906219482421875,0.14727783203125
1772806394794382300,6.41338232421875,-0.4501190185546875,1.042572021484375,0.1329345703125
1772806394804313300,6.423313232421875,-0.45709228515625,1.0130615234375,0.111907958984375
1772806394814245400,6.433245361328125,-0.4728546142578125,0.9878692626953125,0.0863189697265625
1772806394824176400,6.44317626953125,-0.5009002685546875,0.9647369384765625,0.0584869384765625
1772806394834108400,6.4531083984375,-0.5157318115234375,0.965972900390625,0.022216796875
1772806394844039400,6.463039306640625,-0.5171051025390625,0.971527099609375,0.003936767578125
1772806394853971500,6.472971435546875,-0.5092010498046875,0.984527587890625,0.027679443359375
1772806394863902200,6.482902099609375,-0.4761810302734375,1.0117340087890625,0.076019287109375
1772806394873834500,6.49283447265625,-0.450164794921875,1.04559326171875,0.1356353759765625
1772806394883765500,6.502765625,-0.450042724609375,1.080322265625,0.1916656494140625
1772806394893697300,6.512697265625,-0.4463043212890625,1.091949462890625,0.22552490234375
1772806394903628300,6.522628173828125,-0.443756103515625,1.095611572265625,0.22607421875
1772806394913560300,6.532560302734375,-0.4034576416015625,1.1107177734375,0.2301177978515625
1772806394923491600,6.54249169921875,-0.3292694091796875,1.1585235595703125,0.223541259765625
1772806394933422300,6.55242236328125,-0.3322906494140625,1.214752197265625,0.222137451171875
1772806394943354400,6.562354248046875,-0.4546966552734375,1.2724151611328125,0.1956787109375
1772806394953285400,6.572285400390625,-0.6026763916015625,1.3075408935546875,0.1660919189453125
1772806394963217200,6.582217041015625,-0.562835693359375,1.2602691650390625,0.1848602294921875
1772806394973148400,6.5921484375,-0.299713134765625,1.0468292236328125,0.267364501953125
1772806394983080400,6.60208056640625,-0.1522369384765625,0.772186279296875,0.335174560546875
1772806394993011500,6.612011474609375,-0.153228759765625,0.6160430908203125,0.2841033935546875
1772806395002943200,6.621943115234375,-0.068878173828125,0.6029052734375,0.153289794921875
1772806395012874200,6.631874267578125,0.0153961181640625,0.6593017578125,0.0951690673828125
1772806395022806500,6.641806640625,0.02117919921875,0.7537841796875,0.077972412109375
1772806395032737500,6.651737548828125,0.0597991943359375,0.898345947265625,0.056304931640625
1772806395042669300,6.66166943359375,0.1182708740234375,1.0028839111328125,0.06378173828125
1772806395052600300,6.671600341796875,0.0507965087890625,1.1542205810546875,0.0920562744140625
1772806395062532400,6.681532470703125,-0.0232696533203125,1.14129638671875,0.0768280029296875
1772806395072463400,6.69146337890625,-0.0459442138671875,1.024200439453125,0.21417236328125
1772806395082395400,6.7013955078125,-0.08477783203125,0.9726409912109375,0.318878173828125
1772806395092326400,6.711326416015625,-0.1089019775390625,0.9519195556640625,0.2660980224609375
1772806395102258400,6.721258544921875,-0.12298583984375,0.84979248046875,0.2073516845703125
1772806395112189200,6.731189208984375,-0.1295928955078125,0.831024169921875,0.207489013671875
1772806395122121200,6.741121337890625,-0.125396728515625,0.8846435546875,0.2071533203125
1772806395132052500,6.751052490234375,-0.117706298828125,0.9774169921875,0.153411865234375
1772806395141983200,6.760983154296875,-0.109100341796875,1.060394287109375,0.0987548828125
1772806395151915300,6.770915283203125,-0.114501953125,1.0989990234375,0.057098388671875
1772806395161846300,6.78084619140625,-0.1144256591796875,1.1028289794921875,0.020111083984375
1772806395171778600,6.790778564453125,-0.095977783203125,1.0562591552734375,0.0017547607421875
1772806395181709300,6.800709228515625,-0.08489990234375,0.9884033203125,-0.0130767822265625
1772806395191641000,6.81064111328125,-0.0962982177734375,0.934356689453125,0.001190185546875
1772806395201572000,6.820572021484375,-0.1056976318359375,0.898406982421875,0.031585693359375
1772806395211503900,6.83050390625,-0.0988922119140625,0.8807830810546875,0.06744384765625
1772806395221435100,6.84043505859375,-0.08770751953125,0.8661956787109375,0.0975189208984375
1772806395231367200,6.8503671875,-0.0898590087890625,0.8703460693359375,0.1187591552734375
1772806395241298200,6.860298095703125,-0.0956268310546875,0.8898162841796875,0.128173828125
1772806395251230000,6.87022998046875,-0.10797119140625,0.8959808349609375,0.123291015625
1772806395261161200,6.8801611328125,-0.1240692138671875,0.89013671875,0.1075439453125
1772806395271093200,6.89009326171875,-0.1226806640625,0.88604736328125,0.1049346923828125
1772806395281024000,6.90002392578125,-0.1264801025390625,0.8891448974609375,0.1193389892578125
1772806395290956000,6.9099560546875,-0.1307830810546875,0.9098052978515625,0.1333770751953125
1772806395300887000,6.919886962890625,-0.1246337890625,0.92645263671875,0.13775634765625
1772806395310819000,6.929819091796875,-0.1191558837890625,0.9308624267578125,0.1327362060546875
1772806395320750000,6.93975,-0.114044189453125,0.9359283447265625,0.1183624267578125
1772806395330682000,6.94968212890625,-0.1098480224609375,0.9370269775390625,0.09283447265625
1772806395340613000,6.959613037109375,-0.0931396484375,0.948944091796875,0.065582275390625
1772806395350545200,6.969545166015625,-0.0694122314453125,0.9449615478515625,0.0604248046875
1772806395360476000,6.979475830078125,-0.048248291015625,0.946258544921875,0.04425048828125
1772806395370407200,6.9894072265625,-0.037078857421875,0.945404052734375,0.047576904296875
1772806395380339200,6.999339111328125,-0.049163818359375,0.960601806640625,0.0584716796875
1772806395390270000,7.00927001953125,-0.0735931396484375,0.9901580810546875,0.0709228515625
1772806395400202000,7.019201904296875,-0.09637451171875,1.01153564453125,0.0704345703125
1772806395410133200,7.02913330078125,-0.1219329833984375,1.0163421630859375,0.07196044921875
1772806395420065300,7.039065185546875,-0.1456756591796875,1.009368896484375,0.0838775634765625
1772806395429996000,7.04899609375,-0.1521148681640625,1.002655029296875,0.075347900390625
1772806395439928000,7.058927978515625,-0.1298370361328125,1.0012969970703125,0.065338134765625
1772806395449859000,7.068859130859375,-0.0979156494140625,1.017578125,0.0556182861328125
1772806395459791000,7.078791015625,-0.051788330078125,1.030120849609375,0.0634613037109375
1772806395469722000,7.08872216796875,-0.0134735107421875,1.021728515625,0.0793304443359375
1772806395479654100,7.098654052734375,0.01348876953125,1.0337677001953125,0.1086578369140625
1772806395489585200,7.108585205078125,0.0246429443359375,1.0569610595703125,0.1378631591796875
1772806395499517200,7.11851708984375,0.0175018310546875,1.0736846923828125,0.1419830322265625
1772806395509448000,7.128447998046875,-0.0098724365234375,1.080047607421875,0.1313629150390625
1772806395519380000,7.1383798828125,-0.0280914306640625,1.084197998046875,0.108734130859375
1772806395529311200,7.148311279296875,-0.02557373046875,1.1044769287109375,0.0900421142578125
1772806395539243000,7.158242919921875,-0.0469970703125,1.1324310302734375,0.090484619140625
1772806395549174000,7.168174072265625,-0.08367919921875,1.1797637939453125,0.1064453125
1772806395559105300,7.178105224609375,-0.1030120849609375,1.2174224853515625,0.119384765625
1772806395569037300,7.188037353515625,-0.116607666015625,1.209503173828125,0.1110382080078125
1772806395578968000,7.197968017578125,-0.1147918701171875,1.1815338134765625,0.1006317138671875
1772806395588900000,7.207900146484375,-0.11163330078125,1.1700286865234375,0.1048736572265625
1772806395598831000,7.2178310546875,-0.121124267578125,1.1584930419921875,0.1073455810546875
1772806395608763000,7.227762939453125,-0.1302490234375,1.1317596435546875,0.10894775390625
1772806395618694100,7.237694091796875,-0.13446044921875,1.079254150390625,0.118988037109375
1772806395628626200,7.247626220703125,-0.1334686279296875,1.034820556640625,0.1254425048828125
1772806395638557200,7.25755712890625,-0.139434814453125,1.0505218505859375,0.1400146484375
1772806395648489000,7.267489013671875,-0.1402740478515625,1.1075439453125,0.1695556640625
1772806395658420000,7.277419921875,-0.154998779296875,1.129791259765625,0.1725616455078125
1772806395668352000,7.28735205078125,-0.189971923828125,1.0804901123046875,0.1670684814453125
1772806395678283000,7.297282958984375,-0.2676544189453125,1.0487518310546875,0.18707275390625
1772806395688215000,7.307215087890625,-0.2868804931640625,1.0894622802734375,0.194915771484375
1772806395698146000,7.31714599609375,-0.3059844970703125,1.1156005859375,0.1876983642578125
1772806395708078000,7.327078125,-0.3234710693359375,1.1343994140625,0.180938720703125
1772806395718009000,7.337009033203125,-0.301605224609375,1.115631103515625,0.1798553466796875
1772806395727941000,7.346941162109375,-0.2714691162109375,1.0475311279296875,0.1569671630859375
1772806395737872100,7.3568720703125,-0.2328033447265625,0.9834136962890625,0.129730224609375
1772806395747804200,7.36680419921875,-0.2168731689453125,0.9816131591796875,0.1263885498046875
1772806395757735000,7.37673486328125,-0.2108306884765625,1.0283966064453125,0.1615753173828125
1772806395767666200,7.386666259765625,-0.2198333740234375,1.063751220703125,0.182373046875
1772806395777598200,7.39659814453125,-0.2202911376953125,1.0258941650390625,0.1689300537109375
1772806395787529000,7.406529052734375,-0.2281494140625,0.9658966064453125,0.148193359375
1772806395797461000,7.4164609375,-0.238983154296875,0.9094390869140625,0.1271820068359375
1772806395807392000,7.42639208984375,-0.2498626708984375,0.8544158935546875,0.1302490234375
1772806395817324300,7.43632421875,-0.2601470947265625,0.7928619384765625,0.1450347900390625
1772806395827255000,7.446255126953125,-0.2769012451171875,0.75811767578125,0.1602935791015625
1772806395837187000,7.45618701171875,-0.28924560546875,0.75335693359375,0.160247802734375
1772806395847118000,7.4661181640625,-0.2904052734375,0.7620697021484375,0.162445068359375
1772806395857050000,7.476050048828125,-0.3017578125,0.7750091552734375,0.164581298828125
1772806395866981000,7.485981201171875,-0.303192138671875,0.7748565673828125,0.1311798095703125
1772806395876913200,7.4959130859375,-0.2910308837890625,0.765411376953125,0.13275146484375
1772806395886844200,7.50584423828125,-0.2842864990234375,0.7358245849609375,0.1403656005859375
1772806395896776200,7.515776123046875,-0.2588348388671875,0.69561767578125,0.177093505859375
1772806395906707000,7.52570703125,-0.2470550537109375,0.66339111328125,0.201904296875
1772806395916639000,7.535638916015625,-0.24774169921875,0.639923095703125,0.2269287109375
1772806395926570200,7.5455703125,-0.2595977783203125,0.6362457275390625,0.2392730712890625
1772806395936501000,7.5555009765625,-0.276885986328125,0.6641845703125,0.217987060546875
1772806395946433000,7.56543310546875,-0.283172607421875,0.6869049072265625,0.198211669921875
1772806395956364000,7.575364013671875,-0.2940216064453125,0.706268310546875,0.1894989013671875
1772806395966296300,7.58529638671875,-0.3150634765625,0.728485107421875,0.1690826416015625
1772806395976227000,7.59522705078125,-0.3346405029296875,0.7542724609375,0.1492462158203125
1772806395986159000,7.6051591796875,-0.3564300537109375,0.7852935791015625,0.1228790283203125
1772806395996090000,7.615090087890625,-0.3766937255859375,0.8091278076171875,0.104705810546875
1772806396006022000,7.62502197265625,-0.3910675048828125,0.822662353515625,0.1041412353515625
1772806396015953200,7.634953125,-0.3992156982421875,0.8210296630859375,0.1107635498046875
1772806396025885200,7.64488525390625,-0.3933258056640625,0.810089111328125,0.1066741943359375
1772806396035816200,7.654816162109375,-0.370025634765625,0.7983856201171875,0.1050872802734375
1772806396045748000,7.664748046875,-0.356201171875,0.8227386474609375,0.088165283203125
1772806396055679000,7.674678955078125,-0.3498992919921875,0.858428955078125,0.0692596435546875
1772806396065611000,7.684611083984375,-0.34405517578125,0.8741912841796875,0.03082275390625
1772806396075542000,7.6945419921875,-0.3560333251953125,0.86407470703125,0.0096588134765625
1772806396085474000,7.70447412109375,-0.367218017578125,0.879608154296875,-0.0074310302734375
1772806396095405000,7.714405029296875,-0.3828887939453125,0.9129791259765625,-0.0048065185546875
1772806396105337000,7.724337158203125,-0.3981475830078125,0.9326629638671875,0.0098114013671875
1772806396115268000,7.73426806640625,-0.4148406982421875,0.9421234130859375,0.020751953125
1772806396125199000,7.74419921875,-0.4292144775390625,0.9683380126953125,0.0240936279296875
1772806396135131100,7.754131103515625,-0.4372406005859375,1.0242767333984375,0.02813720703125
1772806396145062000,7.764061767578125,-0.457122802734375,1.07452392578125,0.0321807861328125
1772806396154994000,7.773993896484375,-0.4821624755859375,1.0950164794921875,0.030303955078125
1772806396164925200,7.78392529296875,-0.5096588134765625,1.098541259765625,0.045501708984375
1772806396174857200,7.793857177734375,-0.514892578125,1.085845947265625,0.076934814453125
1772806396184788000,7.8037880859375,-0.4982757568359375,1.052032470703125,0.10186767578125
1772806396194720000,7.813719970703125,-0.4771881103515625,1.01458740234375,0.1093902587890625
1772806396204651000,7.823651123046875,-0.448516845703125,0.9766693115234375,0.088836669921875
1772806396214583000,7.8335830078125,-0.4117431640625,0.9452362060546875,0.0625152587890625
1772806396224514000,7.84351416015625,-0.3998260498046875,0.9213409423828125,0.0546417236328125
1772806396234446000,7.853446044921875,-0.4024810791015625,0.9048004150390625,0.0435638427734375
1772806396244377000,7.863377197265625,-0.4189453125,0.8855438232421875,0.02447509765625
1772806396254309000,7.87330908203125,-0.4447174072265625,0.8756561279296875,0.00762939453125
1772806396264240000,7.883240234375,-0.4682769775390625,0.919525146484375,0.006561279296875
1772806396274172200,7.893172119140625,-0.4673919677734375,1.00250244140625,0.0311126708984375
1772806396284103200,7.903103271484375,-0.4662017822265625,1.049102783203125,0.072967529296875
1772806396294035200,7.91303515625,-0.45721435546875,1.060302734375,0.1199951171875
1772806396303966000,7.922966064453125,-0.4451141357421875,1.0392303466796875,0.1676788330078125
1772806396313897200,7.932897216796875,-0.4233245849609375,1.021820068359375,0.206390380859375
1772806396323829200,7.942829345703125,-0.38470458984375,1.039306640625,0.232513427734375
1772806396333760000,7.952760009765625,-0.3553314208984375,1.1124267578125,0.2212982177734375
1772806396343692000,7.962692138671875,-0.415283203125,1.1801605224609375,0.19073486328125
1772806396353623000,7.972623046875,-0.52154541015625,1.210723876953125,0.141448974609375
1772806396363554000,7.982553955078125,-0.537445068359375,1.158905029296875,0.1210784912109375
1772806396373486000,7.992486083984375,-0.421905517578125,1.0418548583984375,0.2368316650390625
1772806396383417000,8.0024169921875,-0.3558502197265625,0.9632415771484375,0.38641357421875
1772806396393349000,8.01234912109375,-0.3353424072265625,0.911102294921875,0.4140625
1772806396403280100,8.022280029296875,-0.272857666015625,0.86981201171875,0.287353515625
1772806396413212200,8.032212158203125,-0.1529388427734375,0.84637451171875,0.118072509765625
1772806396423143200,8.04214306640625,-0.0019073486328125,0.8306732177734375,0.01751708984375
1772806396433075200,8.0520751953125,0.120880126953125,0.8199462890625,-0.0330352783203125
1772806396443006000,8.062005859375,0.16241455078125,0.8729248046875,0.0147552490234375
1772806396452938000,8.07193798828125,0.140380859375,1.0098419189453125,0.0300140380859375
1772806396462869200,8.081869140625,0.0777740478515625,1.0214996337890625,0.0470733642578125
1772806396472801000,8.091801025390625,-0.0138092041015625,1.0716552734375,0.160400390625
1772806396482732000,8.10173193359375,-0.0807342529296875,1.0561370849609375,0.2290191650390625
1772806396492663000,8.1116630859375,-0.1039581298828125,0.98333740234375,0.3063507080078125
1772806396502595000,8.121594970703125,-0.1300201416015625,0.905975341796875,0.345977783203125
1772806396512526000,8.131526123046875,-0.139862060546875,0.8849945068359375,0.3152008056640625
1772806396522458000,8.1414580078125,-0.1283721923828125,0.8597564697265625,0.2686920166015625
1772806396532389000,8.15138916015625,-0.1193084716796875,0.906280517578125,0.275604248046875
1772806396542321000,8.16132080078125,-0.107940673828125,0.979522705078125,0.217498779296875
1772806396552252200,8.171252197265625,-0.06597900390625,1.036865234375,0.1310882568359375
1772806396562184200,8.18118408203125,-0.019805908203125,1.0587310791015625,0.0949554443359375
1772806396572115200,8.191115234375,-0.012451171875,1.0889739990234375,0.080780029296875
1772806396582047000,8.201046875,-0.014373779296875,1.073394775390625,0.0188446044921875
1772806396591978000,8.21097802734375,-0.025726318359375,1.0274810791015625,-0.0036773681640625
1772806396601910000,8.220909912109375,-0.0602569580078125,0.967315673828125,-0.00537109375
1772806396611841300,8.23084130859375,-0.085235595703125,0.9196319580078125,0.0189666748046875
1772806396621773000,8.24077294921875,-0.095306396484375,0.903900146484375,0.050079345703125
1772806396631704000,8.2507041015625,-0.101226806640625,0.9011688232421875,0.0565643310546875
1772806396641636000,8.260635986328126,-0.096343994140625,0.907257080078125,0.0629119873046875
1772806396651567000,8.270567138671876,-0.0805816650390625,0.92022705078125,0.0493011474609375
1772806396661498000,8.280498046875,-0.0791473388671875,0.9282379150390625,0.03802490234375
1772806396671430100,8.29043017578125,-0.0805511474609375,0.9345550537109375,0.040863037109375
1772806396681361200,8.300361083984376,-0.082916259765625,0.9390411376953125,0.044952392578125
1772806396691293000,8.31029296875,-0.0846710205078125,0.936981201171875,0.0528106689453125
1772806396701224200,8.32022412109375,-0.0945281982421875,0.92755126953125,0.0760498046875
1772806396711156200,8.33015625,-0.085723876953125,0.9303436279296875,0.086334228515625
1772806396721087000,8.3400869140625,-0.06219482421875,0.948974609375,0.0719451904296875
1772806396731019000,8.35001904296875,-0.043365478515625,0.9608154296875,0.0517120361328125
1772806396740951000,8.359950927734374,-0.03631591796875,0.958038330078125,0.033233642578125
1772806396750882000,8.369882080078124,-0.0514678955078125,0.9703369140625,0.0155792236328125
1772806396760814000,8.37981396484375,-0.0727081298828125,0.986114501953125,0.0137786865234375
1772806396770745000,8.3897451171875,-0.0817108154296875,0.9980621337890625,0.016998291015625
1772806396780677000,8.399677001953124,-0.074798583984375,1.00067138671875,0.0235748291015625
1772806396790608100,8.409608154296874,-0.0536346435546875,0.993255615234375,0.0245208740234375
1772806396800540000,8.419539794921874,-0.038726806640625,0.98944091796875,0.0208740234375
1772806396810471200,8.42947119140625,-0.034088134765625,0.992584228515625,0.024627685546875
1772806396820402200,8.439402099609374,-0.0297393798828125,0.9927978515625,0.0344696044921875
1772806396830334200,8.449334228515625,-0.041229248046875,0.989593505859375,0.041015625
1772806396840265000,8.459264892578124,-0.0597686767578125,0.985595703125,0.0366363525390625
1772806396850197000,8.469197021484375,-0.079010009765625,0.990478515625,0.0303497314453125
1772806396860128300,8.479128173828125,-0.0936737060546875,1.0003204345703125,0.0187530517578125
1772806396870060000,8.48906005859375,-0.0929718017578125,1.0150299072265625,0.0059967041015625
1772806396879991000,8.498990966796875,-0.0795440673828125,1.0233306884765625,0.0019989013671875
1772806396889923000,8.508923095703125,-0.072265625,1.0236053466796875,0.0135650634765625
1772806396899854000,8.51885400390625,-0.0640869140625,1.01666259765625,0.0328521728515625
1772806396909786000,8.5287861328125,-0.0614471435546875,1.0026092529296875,0.051025390625
1772806396919717000,8.538717041015625,-0.0554046630859375,0.992462158203125,0.064208984375
1772806396929649200,8.548649169921875,-0.0469207763671875,1.001434326171875,0.0748443603515625
1772806396939580200,8.558580078125,-0.06317138671875,1.0178985595703125,0.082794189453125
1772806396949512000,8.568511962890625,-0.0785675048828125,1.01641845703125,0.077789306640625
1772806396959443200,8.578443115234375,-0.083740234375,1.0131378173828125,0.0632171630859375
1772806396969375200,8.588375244140625,-0.08404541015625,1.01959228515625,0.073211669921875
1772806396979306000,8.598305908203125,-0.0853729248046875,1.0103302001953125,0.08880615234375
1772806396989237000,8.608237060546875,-0.0926666259765625,1.0147552490234375,0.098846435546875
1772806396999169000,8.6181689453125,-0.0948638916015625,1.022308349609375,0.1085205078125
1772806397009100300,8.628100341796875,-0.108062744140625,1.0157470703125,0.08453369140625
1772806397019032000,8.638031982421875,-0.09967041015625,1.008392333984375,0.061431884765625
1772806397028963000,8.647963134765625,-0.0777130126953125,1.016937255859375,0.0552825927734375
1772806397038895000,8.65789501953125,-0.0507049560546875,1.036590576171875,0.061920166015625
1772806397048825900,8.667825927734375,-0.058197021484375,1.0523223876953125,0.0639190673828125
1772806397058758100,8.677758056640625,-0.1014862060546875,1.078094482421875,0.066162109375
1772806397068689200,8.687689208984375,-0.10791015625,1.112518310546875,0.042633056640625
1772806397078621200,8.69762109375,-0.1006927490234375,1.1065521240234375,0.0250091552734375
1772806397088552000,8.707552001953125,-0.122528076171875,1.090484619140625,0.031280517578125
1772806397098484000,8.71748388671875,-0.148681640625,1.084228515625,0.051513671875
1772806397108415200,8.727415283203126,-0.1674652099609375,1.0923919677734375,0.0884246826171875
1772806397118347300,8.73734716796875,-0.165557861328125,1.1171722412109375,0.131683349609375
1772806397128278000,8.747278076171876,-0.14398193359375,1.1467742919921875,0.1551055908203125
1772806397138210000,8.7572099609375,-0.102813720703125,1.1758880615234375,0.165313720703125
1772806397148141000,8.76714111328125,-0.0433349609375,1.1645965576171875,0.170623779296875
1772806397158072000,8.777072021484376,-0.0188751220703125,1.164398193359375,0.1813812255859375
1772806397168004000,8.787004150390626,-0.0362091064453125,1.1401214599609375,0.177154541015625
1772806397177935000,8.79693505859375,-0.073577880859375,1.0749053955078125,0.1715850830078125
1772806397187867100,8.8068671875,-0.129119873046875,1.02703857421875,0.1814422607421875
1772806397197798000,8.8167978515625,-0.2003936767578125,1.0217132568359375,0.17327880859375
1772806397207730200,8.826730224609374,-0.2667999267578125,1.0364837646484375,0.160247802734375
1772806397217661200,8.8366611328125,-0.37188720703125,1.0640716552734375,0.165435791015625
1772806397227593200,8.84659326171875,-0.3596954345703125,1.0789947509765625,0.051300048828125
1772806397237524000,8.85652392578125,-0.3140869140625,1.068603515625,-0.0012664794921875
1772806397247456000,8.8664560546875,-0.25531005859375,1.03179931640625,0.0098876953125
1772806397257387300,8.87638720703125,-0.193359375,0.9750823974609375,0.001953125
1772806397267319300,8.8863193359375,-0.17596435546875,0.9336700439453125,0.0218505859375
1772806397277250000,8.89625,-0.1702728271484375,0.914642333984375,0.0887908935546875
1772806397287182000,8.90618212890625,-0.198760986328125,0.9200286865234375,0.141510009765625
1772806397297113000,8.916113037109374,-0.2260589599609375,0.93670654296875,0.1707000732421875
1772806397307045000,8.926045166015625,-0.25146484375,0.9395751953125,0.17376708984375
1772806397316976000,8.93597607421875,-0.262664794921875,0.9194183349609375,0.169586181640625
1772806397326907100,8.9459072265625,-0.2600250244140625,0.8694915771484375,0.164398193359375
1772806397336839200,8.955839111328125,-0.268096923828125,0.8242645263671875,0.166656494140625
1772806397346770200,8.965770263671875,-0.269927978515625,0.7929840087890625,0.171966552734375
1772806397356702200,8.9757021484375,-0.2783966064453125,0.775360107421875,0.1808319091796875
1772806397366633200,8.98563330078125,-0.286163330078125,0.7825927734375,0.1796722412109375
1772806397376565200,8.995565185546875,-0.2879180908203125,0.796661376953125,0.1705322265625
1772806397386496000,9.00549609375,-0.2835235595703125,0.811676025390625,0.1649017333984375
1772806397396428000,9.015427978515625,-0.2692108154296875,0.82232666015625,0.1543121337890625
1772806397406359300,9.025359375,-0.261962890625,0.8144378662109375,0.15057373046875
1772806397416291300,9.035291259765625,-0.259613037109375,0.7993927001953125,0.1553955078125
1772806397426222000,9.04522216796875,-0.264251708984375,0.787384033203125,0.1597747802734375
1772806397436154000,9.055154052734375,-0.2733917236328125,0.788482666015625,0.1703033447265625
1772806397446085000,9.065085205078125,-0.2967071533203125,0.7976837158203125,0.1633758544921875
1772806397456017000,9.075016845703125,-0.3209075927734375,0.80029296875,0.14495849609375
1772806397465948200,9.0849482421875,-0.3254547119140625,0.800750732421875,0.1250762939453125
1772806397475879200,9.094879150390625,-0.322265625,0.819793701171875,0.112884521484375
1772806397485811200,9.104811279296875,-0.339202880859375,0.8397216796875,0.1102142333984375
1772806397495742200,9.1147421875,-0.348907470703125,0.8419342041015625,0.1109619140625
1772806397505674200,9.12467431640625,-0.3563232421875,0.8467254638671875,0.1086273193359375
1772806397515605200,9.134605224609375,-0.3654632568359375,0.85845947265625,0.096527099609375
1772806397525537000,9.144537109375,-0.3690185546875,0.8597564697265625,0.0874786376953125
1772806397535468000,9.154468017578125,-0.378448486328125,0.866058349609375,0.07794189453125
1772806397545400000,9.164400146484375,-0.373565673828125,0.8852386474609375,0.076568603515625
1772806397555331300,9.174331298828125,-0.3646087646484375,0.878814697265625,0.0758056640625
1772806397565263000,9.18426318359375,-0.3651580810546875,0.8805694580078125,0.0750885009765625
1772806397575194000,9.194194091796875,-0.3642730712890625,0.8754730224609375,0.079437255859375
1772806397585126100,9.204126220703126,-0.35992431640625,0.87164306640625,0.0806121826171875
1772806397595057000,9.214056884765625,-0.357147216796875,0.864349365234375,0.08416748046875
1772806397604989000,9.223989013671876,-0.368499755859375,0.859527587890625,0.09197998046875
1772806397614920200,9.233920166015626,-0.37615966796875,0.855743408203125,0.08551025390625
1772806397624852200,9.243852294921876,-0.3749542236328125,0.8426055908203125,0.080413818359375
1772806397634783000,9.253782958984376,-0.3703460693359375,0.836212158203125,0.0773162841796875
1772806397644715000,9.263715087890626,-0.37255859375,0.8499603271484375,0.066436767578125
1772806397654646300,9.273646240234376,-0.3776397705078125,0.878173828125,0.0594024658203125
1772806397664577000,9.283576904296876,-0.387298583984375,0.9075164794921875,0.05780029296875
1772806397674509000,9.293509033203126,-0.394195556640625,0.9302825927734375,0.060760498046875
1772806397684440000,9.303440185546876,-0.404449462890625,0.94598388671875,0.066497802734375
1772806397694372000,9.3133720703125,-0.4078369140625,0.9517822265625,0.071563720703125
1772806397704303000,9.32330322265625,-0.415435791015625,0.9546051025390625,0.071197509765625
1772806397714235100,9.333235107421874,-0.42230224609375,0.965087890625,0.07452392578125
1772806397724166100,9.343166259765624,-0.4253997802734375,0.9766998291015625,0.0831756591796875
1772806397734098200,9.35309814453125,-0.42987060546875,0.9742431640625,0.094879150390625
1772806397744029000,9.36302880859375,-0.431915283203125,0.96466064453125,0.1150665283203125
1772806397753961000,9.3729609375,-0.4260711669921875,0.961334228515625,0.1311798095703125
1772806397763892200,9.382892333984374,-0.4183349609375,0.95941162109375,0.1337432861328125
1772806397773824300,9.39282421875,-0.4167633056640625,0.9511566162109375,0.1378326416015625
1772806397783755000,9.402755126953124,-0.415863037109375,0.9363861083984375,0.150390625
1772806397793687000,9.41268701171875,-0.408966064453125,0.90826416015625,0.15887451171875
1772806397803618300,9.422618408203125,-0.41412353515625,0.878448486328125,0.1505889892578125
1772806397813550300,9.43255029296875,-0.4300994873046875,0.8560943603515625,0.15692138671875
1772806397823481000,9.442481201171875,-0.425384521484375,0.865997314453125,0.17510986328125
1772806397833412000,9.452412109375,-0.41534423828125,0.8970947265625,0.179168701171875
1772806397843344100,9.46234423828125,-0.4498748779296875,0.9226531982421875,0.1578826904296875
1772806397853275100,9.472275146484375,-0.403839111328125,0.958404541015625,0.16461181640625
1772806397863207200,9.482207275390625,-0.333740234375,0.982391357421875,0.1776580810546875
1772806397873138200,9.49213818359375,-0.2891082763671875,0.9917144775390625,0.21514892578125
1772806397883070200,9.5020703125,-0.29315185546875,0.996826171875,0.262908935546875
1772806397893001000,9.5120009765625,-0.34112548828125,1.04071044921875,0.290283203125
1772806397902933200,9.521933349609375,-0.4503936767578125,1.1306610107421875,0.2937469482421875
1772806397912864300,9.5318642578125,-0.5730438232421875,1.23736572265625,0.2854766845703125
1772806397922796000,9.541796142578125,-0.59027099609375,1.312225341796875,0.297637939453125
1772806397932727000,9.55172705078125,-0.45721435546875,1.29345703125,0.347198486328125
1772806397942659000,9.5616591796875,-0.30255126953125,1.1620635986328125,0.34588623046875
1772806397952590300,9.57159033203125,-0.26165771484375,0.95849609375,0.22509765625
1772806397962522000,9.581522216796875,-0.2013397216796875,0.7747039794921875,0.0824432373046875
1772806397972453000,9.591453125,-0.092987060546875,0.6955108642578125,0.0207366943359375
1772806397982385200,9.60138525390625,-0.0732269287109375,0.734954833984375,0.05706787109375
1772806397992316000,9.61131591796875,-0.085845947265625,0.812591552734375,0.0566558837890625
1772806398002248000,9.621248046875,-0.0928802490234375,0.9229583740234375,0.06280517578125
1772806398012179200,9.63117919921875,-0.0933837890625,1.054931640625,0.094696044921875
1772806398022110200,9.641110107421875,-0.0793609619140625,1.1117095947265625,0.1148834228515625
1772806398032042000,9.6510419921875,-0.045928955078125,1.0861053466796875,0.1166534423828125
1772806398041973000,9.660972900390625,-0.03277587890625,1.0137481689453125,0.11138916015625
1772806398051905300,9.6709052734375,-0.0513763427734375,0.925567626953125,0.13909912109375
1772806398061836300,9.680836181640625,-0.084991455078125,0.8664703369140625,0.19622802734375
1772806398071768000,9.69076806640625,-0.11907958984375,0.847015380859375,0.2531280517578125
1772806398081699000,9.700698974609375,-0.136566162109375,0.850982666015625,0.2696685791015625
1772806398091631000,9.710631103515626,-0.153228759765625,0.860137939453125,0.234466552734375
1772806398101562000,9.72056201171875,-0.166778564453125,0.8871307373046875,0.2009124755859375
1772806398111494100,9.730494140625,-0.1614837646484375,0.935211181640625,0.178192138671875
1772806398121425200,9.740425048828126,-0.135772705078125,0.9874725341796875,0.1342010498046875
1772806398131357200,9.750357177734376,-0.111724853515625,1.0379791259765625,0.0660552978515625
1772806398141288000,9.760287841796876,-0.100830078125,1.0699462890625,0.0058135986328125
1772806398151220000,9.770219970703126,-0.0902862548828125,1.0782470703125,-0.0179901123046875
1772806398161151200,9.780151123046876,-0.0723876953125,1.0693359375,-0.023193359375
1772806398171083300,9.790083251953124,-0.0388336181640625,1.0397796630859375,-0.023529052734375
1772806398181014000,9.800013916015626,-0.011077880859375,1.0091552734375,0.0013885498046875
1772806398190946300,9.8099462890625,-0.00311279296875,0.9994354248046875,0.042694091796875
1772806398200877300,9.819877197265624,-0.0122528076171875,1.000640869140625,0.0732879638671875
1772806398210808300,9.829808349609374,-0.03192138671875,0.9866943359375,0.0986785888671875
1772806398220740400,9.839740234375,-0.0631866455078125,0.9747772216796875,0.122039794921875
1772806398230671400,9.84967138671875,-0.0683441162109375,0.962432861328125,0.1361083984375
1772806398240603400,9.859603271484374,-0.0507354736328125,0.9602508544921875,0.1422119140625
1772806398250534400,9.869534423828124,-0.0499267578125,0.9698638916015625,0.1557769775390625
1772806398260466400,9.879466552734375,-0.0571441650390625,0.9786529541015625,0.160980224609375
1772806398270397400,9.8893974609375,-0.0788726806640625,0.9750518798828125,0.1548309326171875
1772806398280329200,9.8993291015625,-0.0991668701171875,0.965911865234375,0.1357269287109375
1772806398290260200,9.90926025390625,-0.100555419921875,0.9674530029296875,0.105987548828125
1772806398300192300,9.919192138671875,-0.104156494140625,0.9788665771484375,0.080291748046875
1772806398310123500,9.92912353515625,-0.1029815673828125,0.9898681640625,0.06915283203125
1772806398320055300,9.93905517578125,-0.1021270751953125,1.001068115234375,0.0643157958984375
1772806398329986300,9.948986328125,-0.10479736328125,1.004547119140625,0.050018310546875
1772806398339918300,9.95891845703125,-0.0974578857421875,0.9912872314453125,0.035125732421875
1772806398349849300,9.968849365234375,-0.0708465576171875,0.9642486572265625,0.0387725830078125
1772806398359781400,9.978781494140625,-0.01513671875,0.9218292236328125,0.0592193603515625
1772806398369712400,9.98871240234375,-0.0591278076171875,0.933746337890625,0.0591278076171875
1772806398379643400,9.998643310546875,-0.098876953125,0.9525146484375,0.0556793212890625
1772806398389575200,10.0085751953125,-0.1270599365234375,0.974212646484375,0.05316162109375
1772806398399506400,10.01850634765625,-0.1384735107421875,1.012298583984375,0.0477142333984375
1772806398409438500,10.0284384765625,-0.1332550048828125,1.040557861328125,0.0520782470703125
1772806398419369200,10.038369140625,-0.1399383544921875,1.049072265625,0.0559539794921875
1772806398429301200,10.04830126953125,-0.155731201171875,1.0352935791015625,0.053802490234375
1772806398439232300,10.058232177734375,-0.1536865234375,1.008026123046875,0.056671142578125
1772806398449164300,10.068164306640625,-0.13922119140625,0.998992919921875,0.05548095703125
1772806398459095300,10.07809521484375,-0.1197052001953125,1.011260986328125,0.0649871826171875
