time,seconds_elapsed,z,y,x
1772806388449401600,0.068401611328125,-0.02872898429632187,-0.35523489117622375,1.0681898593902588
1772806388459333600,0.078333740234375,-0.0601852647960186,-0.34271350502967834,0.973021924495697
1772806388469264400,0.088264404296875,-0.0876038447022438,-0.32936280965805054,0.8882495164871216
1772806388479196700,0.09819677734375,-0.1122557520866394,-0.2749515473842621,0.8043298125267029
1772806388489127700,0.108127685546875,-0.14178194105625153,-0.21794737875461578,0.7239622473716736
1772806388499059700,0.118059814453125,-0.15988700091838837,-0.2009308785200119,0.662562906742096
1772806388508990500,0.127990478515625,-0.17366726696491241,-0.19714093208312988,0.6063156127929688
1772806388518922500,0.137922607421875,-0.19607476890087128,-0.17840725183486938,0.5541692972183228
1772806388528853800,0.147853759765625,-0.21902242302894592,-0.1698577105998993,0.5190762877464294
1772806388538785800,0.157785888671875,-0.23929926753044128,-0.20256686210632324,0.48821786046028137
1772806388548716500,0.167716552734375,-0.24902699887752533,-0.2484171837568283,0.47179415822029114
1772806388558648600,0.177648681640625,-0.2572953402996063,-0.2827450633049011,0.47108522057533264
1772806388568579600,0.18757958984375,-0.2667732536792755,-0.3038618266582489,0.46865347027778625
1772806388578511400,0.197511474609375,-0.2648107707500458,-0.31570667028427124,0.476899653673172
1772806388588442600,0.207442626953125,-0.24471667408943176,-0.3096226751804352,0.49272894859313965
1772806388598374700,0.217374755859375,-0.2082722932100296,-0.2723550796508789,0.5138086676597595
1772806388608305700,0.2273056640625,-0.16458234190940857,-0.2204785794019699,0.5159658193588257
1772806388618237400,0.237237548828125,-0.12260638922452927,-0.11990855634212494,0.4870266318321228
1772806388628168700,0.247168701171875,-0.09313797950744629,-0.011934420093894005,0.4288184344768524
1772806388638100700,0.257100830078125,-0.07995124906301498,0.05601297318935394,0.37141847610473633
1772806388648031500,0.267031494140625,-0.07304114103317261,0.10293174535036087,0.3137352168560028
1772806388657963500,0.276963623046875,-0.07216372340917587,0.11727375537157059,0.2766709327697754
1772806388667894500,0.28689453125,-0.06917991489171982,0.13970503211021423,0.25678831338882446
1772806388677826600,0.29682666015625,-0.07252484560012817,0.13345059752464294,0.2650415599346161
1772806388687757600,0.306757568359375,-0.06581128388643265,0.1164681538939476,0.26608577370643616
1772806388697689600,0.316689697265625,-0.06079477816820145,0.0939793735742569,0.26326194405555725
1772806388707620600,0.32662060546875,-0.04283495247364044,0.12058302760124207,0.26207631826400757
1772806388717552600,0.336552734375,-0.026778308674693108,0.19075022637844086,0.26576170325279236
1772806388727483400,0.3464833984375,-0.006310850381851196,0.2513272762298584,0.2650112211704254
1772806388737415700,0.356415771484375,-0.008439699187874794,0.30016717314720154,0.2659481167793274
1772806388747346700,0.3663466796875,-0.03261907398700714,0.3889881372451782,0.25138357281684875
1772806388757278700,0.37627880859375,-0.12842194736003876,0.359653115272522,0.2081294059753418
1772806388767209500,0.38620947265625,-0.17610903084278107,0.35271504521369934,0.17669078707695007
1772806388777141500,0.3961416015625,-0.20244210958480835,0.33980146050453186,0.15623579919338226
1772806388787072800,0.40607275390625,-0.21079671382904053,0.37628835439682007,0.14063392579555511
1772806388797004800,0.4160048828125,-0.21587392687797546,0.36092475056648254,0.12868675589561462
1772806388806935600,0.425935546875,-0.21660256385803223,0.3857842683792114,0.12238996475934982
1772806388816867600,0.43586767578125,-0.19560684263706207,0.420786589384079,0.1433573067188263
1772806388826798600,0.445798583984375,-0.12277603149414062,0.41389963030815125,0.14513257145881653
1772806388836730400,0.45573046875,-0.0454942062497139,0.42274361848831177,0.1498871147632599
1772806388846661600,0.46566162109375,0.0037692151963710785,0.4367569088935852,0.15759269893169403
1772806388856593700,0.47559375,0.024034185335040092,0.4435083270072937,0.15661761164665222
1772806388866524700,0.485524658203125,0.015519792214035988,0.45874398946762085,0.13359752297401428
1772806388876456400,0.49545654296875,0.0019112159498035908,0.461261123418808,0.10293199121952057
1772806388886387700,0.5053876953125,-0.009987788274884224,0.5069020986557007,0.07682236284017563
1772806388896319700,0.51531982421875,-0.017361372709274292,0.5430840849876404,0.05317247658967972
1772806388906250500,0.52525048828125,-0.04748145490884781,0.48196181654930115,0.013838651590049267
1772806388916182500,0.5351826171875,-0.07577123492956161,0.43487483263015747,-0.02568158321082592
1772806388926113500,0.545113525390625,-0.09407461434602737,0.38744020462036133,-0.04459135979413986
1772806388936045600,0.555045654296875,-0.11097974330186844,0.3866189420223236,-0.03896894305944443
1772806388945976600,0.5649765625,-0.1201692447066307,0.3895185887813568,-0.025314653292298317
1772806388955908600,0.57490869140625,-0.11854897439479828,0.4020722508430481,-0.02724429965019226
1772806388965839600,0.584839599609375,-0.11451508104801178,0.4173244535923004,-0.03559916839003563
1772806388975771600,0.594771728515625,-0.12867343425750732,0.41935721039772034,-0.03596111014485359
1772806388985702400,0.604702392578125,-0.14080625772476196,0.43806910514831543,-0.03009922429919243
1772806388995634400,0.614634521484375,-0.15775629878044128,0.3957871198654175,-0.022412223741412163
1772806389005565700,0.624565673828125,-0.17522290349006653,0.3749302923679352,-0.02353527769446373
1772806389015497700,0.634497802734375,-0.18732775747776031,0.366850346326828,-0.02879905328154564
1772806389025428500,0.644428466796875,-0.19289936125278473,0.3636620044708252,-0.03639625385403633
1772806389035360500,0.654360595703125,-0.18598021566867828,0.3732105493545532,-0.03827926144003868
1772806389045291800,0.664291748046875,-0.17928290367126465,0.39361250400543213,-0.046833332628011703
1772806389055223600,0.6742236328125,-0.17820581793785095,0.4175961911678314,-0.058603256940841675
1772806389065154600,0.684154541015625,-0.17942474782466888,0.4331322908401489,-0.068842314183712
1772806389075086600,0.694086669921875,-0.19010590016841888,0.4435126781463623,-0.06836983561515808
1772806389085017600,0.704017578125,-0.1920313686132431,0.436439573764801,-0.06666328012943268
1772806389094949400,0.713949462890625,-0.21476668119430542,0.4464420676231384,-0.0855455994606018
1772806389104880600,0.723880615234375,-0.2305523008108139,0.48860496282577515,-0.10714942961931229
1772806389114812700,0.733812744140625,-0.23768317699432373,0.5354682207107544,-0.11965358257293701
1772806389124743700,0.74374365234375,-0.22502970695495605,0.5895463824272156,-0.12632691860198975
1772806389134675500,0.753675537109375,-0.2156183421611786,0.6361206769943237,-0.1434101164340973
1772806389144606500,0.7636064453125,-0.20993755757808685,0.6785711646080017,-0.16937780380249023
1772806389154538800,0.773538818359375,-0.22048288583755493,0.7313107252120972,-0.18799588084220886
1772806389164469500,0.783469482421875,-0.24799707531929016,0.797971785068512,-0.18497346341609955
1772806389174401500,0.793401611328125,-0.2880231440067291,0.82093346118927,-0.1571473628282547
1772806389184333600,0.80333349609375,-0.3383750021457672,0.7570322751998901,-0.10936600714921951
1772806389194265300,0.813265380859375,-0.4002407491207123,0.5874440670013428,-0.09869007766246796
1772806389204196400,0.8231962890625,-0.4601789116859436,0.38073083758354187,-0.12466920912265778
1772806389214128400,0.83312841796875,-0.507124125957489,0.2443053275346756,-0.11310677975416183
1772806389224059400,0.843059326171875,-0.5501711964607239,0.14928454160690308,-0.07307227700948715
1772806389233991400,0.852991455078125,-0.5643371343612671,0.07916057854890823,-0.025961991399526596
1772806389243922400,0.86292236328125,-0.5478686690330505,-0.027677714824676514,-0.006631170865148306
1772806389253854500,0.8728544921875,-0.5393555164337158,-0.11224369704723358,-0.017664199694991112
1772806389263785500,0.882785400390625,-0.5871238112449646,-0.09086596965789795,-0.08066499978303909
1772806389273717500,0.892717529296875,-0.42923298478126526,0.10727201402187347,-0.20064085721969604
1772806389283648500,0.9026484375,-0.044941246509552,0.49339786171913147,-0.20718051493167877
1772806389293580500,0.91258056640625,0.300061970949173,0.9348539113998413,-0.13065357506275177
1772806389303511300,0.92251123046875,0.44232508540153503,1.068940281867981,-0.13244667649269104
1772806389313443300,0.932443359375,0.4546242654323578,0.9406658411026001,-0.2898392677307129
1772806389323374600,0.94237451171875,0.4633277654647827,0.668023407459259,-0.5574387311935425
1772806389333306600,0.952306640625,0.4927041232585907,0.5593322515487671,-0.8374812602996826
1772806389343237400,0.9622373046875,0.4098867177963257,0.599689781665802,-0.9504818916320801
1772806389353169400,0.97216943359375,0.21589398384094238,0.3100131154060364,-0.8314076662063599
1772806389363100400,0.982100341796875,-0.045546140521764755,0.03620924800634384,-0.6952338814735413
1772806389373032400,0.992032470703125,-0.23799379169940948,0.04985765367746353,-0.6914919018745422
1772806389382963500,1.00196337890625,-0.29705125093460083,0.1140824407339096,-0.8048118352890015
1772806389392895500,1.0118955078125,-0.26330164074897766,0.09702698886394501,-0.8938473463058472
1772806389402826500,1.021826416015625,-0.21694186329841614,0.023838002234697342,-0.9037614464759827
1772806389412758300,1.03175830078125,-0.20760846138000488,-0.081300750374794,-0.9166039228439331
1772806389422689500,1.041689453125,-0.22422820329666138,-0.23593559861183167,-0.9916480779647827
1772806389432621600,1.05162158203125,-0.2308637946844101,-0.46330150961875916,-1.0253808498382568
1772806389442552600,1.061552490234375,-0.29095858335494995,-0.7218925952911377,-1.02140474319458
1772806389452484400,1.071484375,-0.366402804851532,-0.9415836334228516,-1.043763518333435
1772806389462415400,1.081415283203125,-0.45374783873558044,-1.05215322971344,-1.0755549669265747
1772806389472347400,1.091347412109375,-0.5148469805717468,-0.8650399446487427,-1.0926551818847656
1772806389482278400,1.1012783203125,-0.42086294293403625,-0.5034801363945007,-1.0786464214324951
1772806389492210400,1.11121044921875,-0.2540200650691986,-0.2720291316509247,-1.0165727138519287
1772806389502141400,1.121141357421875,-0.05759356543421745,-0.08585632592439651,-0.9343587160110474
1772806389512073500,1.131073486328125,0.15261851251125336,0.0552876852452755,-0.8245328664779663
1772806389522004500,1.14100439453125,0.3048517405986786,0.11510255187749863,-0.752215564250946
1772806389531936500,1.1509365234375,0.35199251770973206,0.08153495192527771,-0.7460113763809204
1772806389541867500,1.160867431640625,0.2938684821128845,0.03811664506793022,-0.7868334054946899
1772806389551799600,1.170799560546875,0.18203997611999512,0.044130127876996994,-0.8664152026176453
1772806389561730300,1.180730224609375,0.08348437398672104,0.03446684777736664,-0.9434902667999268
1772806389571662300,1.190662353515625,-0.003970996011048555,0.031588658690452576,-1.0074079036712646
1772806389581593600,1.200593505859375,-0.025147920474410057,-0.0690482035279274,-1.0101078748703003
1772806389591525600,1.210525634765625,-0.03737902268767357,-0.23156407475471497,-0.9537329077720642
1772806389601456400,1.220456298828125,-0.007900758646428585,-0.29759690165519714,-0.8537266254425049
1772806389611388400,1.230388427734375,0.07352007180452347,-0.2981160283088684,-0.7646743655204773
1772806389621319400,1.2403193359375,0.15330597758293152,-0.293852299451828,-0.6915309429168701
1772806389631251500,1.25025146484375,0.21722982823848724,-0.2850141227245331,-0.6328109502792358
1772806389641182500,1.260182373046875,0.27393946051597595,-0.26896965503692627,-0.5964622497558594
1772806389651114500,1.270114501953125,0.2972412109375,-0.23077748715877533,-0.5824980735778809
1772806389661045500,1.28004541015625,0.3202035427093506,-0.21357400715351105,-0.5908313989639282
1772806389670977300,1.289977294921875,0.347270131111145,-0.25227248668670654,-0.5969724059104919
1772806389680908500,1.299908447265625,0.3653316795825958,-0.2944689393043518,-0.6125186085700989
1772806389690840600,1.309840576171875,0.37866222858428955,-0.28767019510269165,-0.6265575885772705
1772806389700771600,1.319771484375,0.366374671459198,-0.3483625650405884,-0.6651462912559509
1772806389710703400,1.329703369140625,0.3405906558036804,-0.4661084711551666,-0.7030622363090515
1772806389720634400,1.33963427734375,0.30883297324180603,-0.6527937054634094,-0.738743007183075
1772806389730566400,1.34956640625,0.28182852268218994,-0.756412923336029,-0.7749424576759338
1772806389740497400,1.359497314453125,0.28555402159690857,-0.7645494341850281,-0.7732750773429871
1772806389750429400,1.369429443359375,0.31248238682746887,-0.7300822734832764,-0.7245380282402039
1772806389760360400,1.3793603515625,0.33272799849510193,-0.7152508497238159,-0.6369909048080444
1772806389770292500,1.38929248046875,0.3484189212322235,-0.7335540652275085,-0.5131962299346924
1772806389780223500,1.399223388671875,0.3690919876098633,-0.7635252475738525,-0.37383726239204407
1772806389790155500,1.409155517578125,0.3971937298774719,-0.7443897724151611,-0.2673141360282898
1772806389800086500,1.41908642578125,0.42478328943252563,-0.7535995244979858,-0.16397392749786377
1772806389810018600,1.4290185546875,0.4384155869483948,-0.8077250719070435,-0.07291543483734131
1772806389819949300,1.43894921875,0.44108113646507263,-0.8554121851921082,-0.018657255917787552
1772806389829881300,1.44888134765625,0.4218815863132477,-0.8695387244224548,0.009379326365888119
1772806389839812600,1.4588125,0.4009872376918793,-0.8724405169487,0.03560613468289375
1772806389849744600,1.46874462890625,0.3608098030090332,-0.8734264373779297,0.04897717013955116
1772806389859675400,1.47867529296875,0.3170998692512512,-0.8791684508323669,0.052000656723976135
1772806389869607400,1.488607421875,0.27580738067626953,-0.8672164082527161,0.06722068786621094
1772806389879538400,1.498538330078125,0.25100189447402954,-0.8642347455024719,0.1275322288274765
1772806389889470500,1.508470458984375,0.2359178513288498,-0.856818675994873,0.24106357991695404
1772806389899401500,1.5184013671875,0.19826234877109528,-0.8205205798149109,0.3666720986366272
1772806389909333500,1.52833349609375,0.16790878772735596,-0.6955904960632324,0.5043461322784424
1772806389919264500,1.538264404296875,0.11093179881572723,-0.5390077829360962,0.6960926651954651
1772806389929196300,1.5481962890625,0.08236956596374512,-0.3969014585018158,0.9605551958084106
1772806389939127600,1.55812744140625,0.06469815969467163,-0.38502800464630127,1.213152527809143
1772806389949059600,1.5680595703125,0.02103271335363388,-0.514699399471283,1.3734279870986938
1772806389958990600,1.577990478515625,-0.05077489838004112,-0.6468877792358398,1.405011773109436
1772806389968922400,1.58792236328125,-0.15124283730983734,-0.7659082412719727,1.3328940868377686
1772806389978853400,1.597853271484375,-0.26437443494796753,-0.8844510912895203,1.2281349897384644
1772806389988785400,1.607785400390625,-0.28404098749160767,-0.9726892113685608,1.246300458908081
1772806389998716400,1.61771630859375,-0.28947463631629944,-0.9704170227050781,1.4350179433822632
1772806390008648400,1.6276484375,-0.30835485458374023,-0.9305050373077393,1.7880058288574219
1772806390018579500,1.637579345703125,-0.3751850128173828,-0.9555233120918274,2.1686596870422363
1772806390028511500,1.647511474609375,-0.5839420557022095,-0.7371512651443481,2.304572582244873
1772806390038442500,1.6574423828125,-0.8315659761428833,0.07869533449411392,1.8057979345321655
1772806390048374500,1.66737451171875,-0.8302009105682373,-0.3700838088989258,1.615289568901062
1772806390058305500,1.677305419921875,-0.8523251414299011,-0.8869307041168213,1.5571420192718506
1772806390068237600,1.687237548828125,-0.8292604684829712,-0.9397596716880798,1.525071620941162
1772806390078168300,1.697168212890625,-0.7162132859230042,-0.7478322982788086,1.448095679283142
1772806390088100400,1.707100341796875,-0.5614999532699585,-0.5170579552650452,1.3729040622711182
1772806390098031600,1.717031494140625,-0.40894341468811035,-0.23508219420909882,1.3165234327316284
1772806390107963600,1.726963623046875,-0.30708569288253784,0.013432778418064117,1.2665339708328247
1772806390117894400,1.736894287109375,-0.27799999713897705,0.14900285005569458,1.2195345163345337
1772806390127826400,1.746826416015625,-0.31413987278938293,0.19162435829639435,1.1577163934707642
1772806390137757400,1.75675732421875,-0.3680151104927063,0.18626368045806885,1.0742007493972778
1772806390147689200,1.766689208984375,-0.45208707451820374,0.10984759777784348,0.981660783290863
1772806390157620500,1.776620361328125,-0.5192797183990479,0.1425384283065796,0.8851118683815002
1772806390167552500,1.786552490234375,-0.5708681344985962,0.09438596665859222,0.8009230494499207
1772806390177483500,1.7964833984375,-0.5989527702331543,0.10758407413959503,0.7555185556411743
1772806390187414500,1.80641455078125,-0.5871208906173706,0.1346084326505661,0.7271793484687805
1772806390197345300,1.81634521484375,-0.5682686567306519,0.1944107711315155,0.6799386143684387
1772806390207277300,1.82627734375,-0.5514867901802063,0.33365631103515625,0.6173187494277954
1772806390217208300,1.836208251953125,-0.5385094285011292,0.510453462600708,0.5629998445510864
1772806390227140400,1.846140380859375,-0.532396674156189,0.6374313235282898,0.5242478251457214
1772806390237071400,1.8560712890625,-0.4823918044567108,0.6812940835952759,0.48208120465278625
1772806390247002400,1.86600244140625,-0.40797361731529236,0.737966001033783,0.39855390787124634
1772806390256934400,1.875934326171875,-0.3030780851840973,0.7165523767471313,0.28269892930984497
1772806390266865400,1.885865478515625,-0.21914447844028473,0.6692361235618591,0.1623641848564148
1772806390276797200,1.895797119140625,-0.15045009553432465,0.6438907980918884,0.02382815256714821
1772806390286729200,1.905729248046875,-0.0997643694281578,0.6390427947044373,-0.11565288156270981
1772806390296660500,1.915660400390625,-0.0617607943713665,0.6194371581077576,-0.235177680850029
1772806390306591200,1.92559130859375,-0.04635751619935036,0.6263344287872314,-0.3376496136188507
1772806390316523300,1.935523193359375,-0.022471623495221138,0.608278751373291,-0.43261927366256714
1772806390326454500,1.94545458984375,-0.010811416432261467,0.5873973965644836,-0.5204914808273315
1772806390336386600,1.955386474609375,-0.020199326798319817,0.5962278842926025,-0.5932045578956604
1772806390346317300,1.9653173828125,-0.046359024941921234,0.5475940704345703,-0.6656372547149658
1772806390356249300,1.975249267578125,-0.0774943009018898,0.5249342918395996,-0.7454436421394348
1772806390366180400,1.985180419921875,-0.09806802123785019,0.5044006109237671,-0.8348771929740906
1772806390376112400,1.9951123046875,-0.10683488100767136,0.4761927127838135,-0.8984929323196411
1772806390386043400,2.00504345703125,-0.0665624737739563,0.4633427560329437,-0.9445134401321411
1772806390395975400,2.014975341796875,-0.012250236235558987,0.4477960169315338,-0.9691525101661682
1772806390405906400,2.024906494140625,0.018010379746556282,0.4492339789867401,-0.960305392742157
1772806390415838500,2.03483837890625,0.03460826724767685,0.48242416977882385,-0.9065138101577759
1772806390425769200,2.044769287109375,0.046506717801094055,0.5079965591430664,-0.7993144392967224
1772806390435701200,2.054701171875,0.03333898261189461,0.5700300931930542,-0.6763855814933777
1772806390445632500,2.064632568359375,-0.010205371305346489,0.6739263534545898,-0.5715838074684143
1772806390455564300,2.074564208984375,-0.08488999307155609,0.6853369474411011,-0.4634397327899933
1772806390465495300,2.084495361328125,-0.17455321550369263,0.5942705869674683,-0.3496705889701843
1772806390475427300,2.09442724609375,-0.26281729340553284,0.4675140082836151,-0.22434008121490479
1772806390485358600,2.104358642578125,-0.3573220372200012,0.36771199107170105,-0.06308574229478836
1772806390495290400,2.114290283203125,-0.4658152163028717,0.34659579396247864,0.11729361861944199
1772806390505221400,2.124221435546875,-0.5506755709648132,0.3463234007358551,0.2858565151691437
1772806390515153400,2.1341533203125,-0.5796451568603516,0.3630983829498291,0.3798341453075409
1772806390525084200,2.144084228515625,-0.5643196702003479,0.43271905183792114,0.43686699867248535
1772806390535016200,2.15401611328125,-0.5219860076904297,0.5337859988212585,0.47157785296440125
1772806390544947500,2.163947509765625,-0.4767470061779022,0.6016159057617188,0.5021214485168457
1772806390554879500,2.17387939453125,-0.4007851183414459,0.6324542760848999,0.5027321577072144
1772806390564810200,2.183810302734375,-0.2991568446159363,0.6639401316642761,0.4705854654312134
1772806390574742300,2.1937421875,-0.18771952390670776,0.7423800826072693,0.4145600199699402
1772806390584673300,2.20367333984375,-0.10416810214519501,0.8469498753547668,0.3546251654624939
1772806390594605600,2.21360546875,-0.04267038404941559,0.8895679116249084,0.29276207089424133
1772806390604536300,2.223536376953125,-0.02328300103545189,0.7775095701217651,0.2451835423707962
1772806390614468400,2.23346826171875,-0.07842747867107391,0.617854118347168,0.18965157866477966
1772806390624399400,2.2433994140625,-0.15924741327762604,0.40486010909080505,0.10653186589479446
1772806390634331400,2.253331298828125,-0.19406184554100037,0.25649940967559814,0.013240272179245949
1772806390644262400,2.263262451171875,-0.15528258681297302,0.12191597372293472,-0.007162685506045818
1772806390654194400,2.2731943359375,-0.17587201297283173,-0.020780984312295914,0.10512816905975342
1772806390664125400,2.28312548828125,-0.24045179784297943,0.08595292270183563,0.16455528140068054
1772806390674057500,2.293057373046875,-0.34307563304901123,0.16108548641204834,-0.023258032277226448
1772806390683988200,2.30298828125,-0.40091487765312195,0.20870551466941833,-0.2960306406021118
1772806390693920300,2.312920166015625,-0.22265753149986267,0.29668888449668884,-0.4276786744594574
1772806390703851500,2.3228515625,0.12325192987918854,0.5007917881011963,-0.48444974422454834
1772806390713783300,2.332783203125,0.44237852096557617,0.47107869386672974,-0.6271831393241882
1772806390723714300,2.34271435546875,0.6461634039878845,0.3599487245082855,-0.8748019933700562
1772806390733646300,2.352646240234375,0.7161023020744324,0.48797541856765747,-1.1312373876571655
1772806390743577600,2.36257763671875,0.6822911500930786,0.6973780989646912,-1.2628326416015625
1772806390753509400,2.37250927734375,0.4753448963165283,0.7497989535331726,-1.2116738557815552
1772806390763440400,2.3824404296875,0.1545761227607727,0.35756441950798035,-1.0754863023757935
1772806390773372400,2.392372314453125,-0.12484247237443924,-0.07026682049036026,-1.0290287733078003
1772806390783303200,2.40230322265625,-0.23626533150672913,-0.144697904586792,-1.122509479522705
1772806390793235200,2.412235107421875,-0.21695901453495026,-0.0013806961942464113,-1.3040443658828735
1772806390803166500,2.42216650390625,-0.15326620638370514,0.047136928886175156,-1.4538578987121582
1772806390813098500,2.432098388671875,-0.08120134472846985,-0.023967869579792023,-1.4952127933502197
1772806390823029200,2.442029296875,-0.06698299199342728,-0.1318371444940567,-1.4425166845321655
1772806390832961300,2.451961181640625,-0.12479035556316376,-0.3661032021045685,-1.4014009237289429
1772806390842892300,2.461892333984375,-0.24066734313964844,-0.5984691381454468,-1.4023514986038208
1772806390852824600,2.471824462890625,-0.3679821491241455,-0.8504606485366821,-1.4056063890457153
1772806390862755300,2.48175537109375,-0.4489700198173523,-0.9843277931213379,-1.4277329444885254
1772806390872687400,2.491687255859375,-0.39636194705963135,-0.8749948740005493,-1.4310643672943115
1772806390882618400,2.501618408203125,-0.24952901899814606,-0.5531390309333801,-1.4126707315444946
1772806390892550400,2.51155029296875,-0.08746021240949631,-0.26577726006507874,-1.3146560192108154
1772806390902481400,2.5214814453125,0.08711975812911987,-0.2295856773853302,-1.1217654943466187
1772806390912412400,2.531412353515625,0.2101157158613205,-0.38457950949668884,-0.9060541987419128
1772806390922344400,2.541344482421875,0.27530795335769653,-0.44148558378219604,-0.7140582799911499
1772806390932275200,2.551275146484375,0.31522369384765625,-0.3830033838748932,-0.5939606428146362
1772806390942207200,2.561207275390625,0.29500123858451843,-0.31804725527763367,-0.5175653696060181
1772806390952138500,2.571138427734375,0.2580815553665161,-0.3567344844341278,-0.4975525140762329
1772806390962070500,2.581070556640625,0.2146763950586319,-0.4015274941921234,-0.5300047993659973
1772806390972001300,2.591001220703125,0.15903975069522858,-0.4310217499732971,-0.5787007212638855
1772806390981933300,2.600933349609375,0.10850147157907486,-0.4615685045719147,-0.621392011642456
1772806390991864300,2.6108642578125,0.0823710635304451,-0.45253264904022217,-0.6397532224655151
1772806391001796600,2.620796630859375,0.10017244517803192,-0.4425642490386963,-0.6417195200920105
1772806391011727400,2.630727294921875,0.14993387460708618,-0.4479672610759735,-0.6297531127929688
1772806391021659400,2.640659423828125,0.1881764978170395,-0.4258486330509186,-0.591476559638977
1772806391031590400,2.65059033203125,0.2141883820295334,-0.3677118420600891,-0.5479748845100403
1772806391041522200,2.660522216796875,0.2467692494392395,-0.3324092626571655,-0.5224411487579346
1772806391051453400,2.670453369140625,0.26500391960144043,-0.34120941162109375,-0.5063537955284119
1772806391061385500,2.680385498046875,0.2915714383125305,-0.3462405204772949,-0.5133063197135925
1772806391071316500,2.69031640625,0.2989515960216522,-0.33284294605255127,-0.5501359701156616
1772806391081248300,2.700248291015625,0.28990039229393005,-0.31788086891174316,-0.6133347153663635
1772806391091179300,2.71017919921875,0.28461188077926636,-0.3157338500022888,-0.6726621985435486
1772806391101111300,2.720111328125,0.27525272965431213,-0.34018605947494507,-0.7000821232795715
1772806391111042300,2.730042236328125,0.2715141773223877,-0.39820781350135803,-0.691603422164917
1772806391120974300,2.739974365234375,0.276557594537735,-0.48835819959640503,-0.6452418565750122
1772806391130905300,2.7499052734375,0.27622920274734497,-0.5765151977539062,-0.5890012383460999
1772806391140837400,2.75983740234375,0.273646742105484,-0.6054482460021973,-0.5171862244606018
1772806391150768400,2.769768310546875,0.25471967458724976,-0.580521821975708,-0.4295828938484192
1772806391160700400,2.779700439453125,0.23085162043571472,-0.5605830550193787,-0.32052817940711975
1772806391170631400,2.78963134765625,0.22120511531829834,-0.5901784896850586,-0.19154997169971466
1772806391180564000,2.79956396484375,0.23296092450618744,-0.662796676158905,-0.0746937096118927
1772806391190494700,2.80949462890625,0.2294125258922577,-0.7135837078094482,0.008623821660876274
1772806391200426800,2.8194267578125,0.20131714642047882,-0.7202136516571045,0.03362281620502472
1772806391210358000,2.82935791015625,0.16611576080322266,-0.7025159001350403,0.018948528915643692
1772806391220290000,2.8392900390625,0.14834724366664886,-0.6929431557655334,-0.010123918764293194
1772806391230220800,2.849220703125,0.14662791788578033,-0.7050331234931946,-0.0392565056681633
1772806391240152800,2.85915283203125,0.1300215870141983,-0.7025444507598877,-0.06644488126039505
1772806391250083800,2.869083740234375,0.10735224187374115,-0.7686930894851685,-0.08410269767045975
1772806391260015900,2.879015869140625,0.06830300390720367,-0.7997699975967407,-0.04803919047117233
1772806391269947000,2.88894677734375,0.04619637131690979,-0.8021165132522583,0.06734438985586166
1772806391279879000,2.89887890625,0.026009270921349525,-0.857498824596405,0.22135527431964874
1772806391289810000,2.908809814453125,0.025769053027033806,-0.9773666262626648,0.38707661628723145
1772806391299742000,2.918741943359375,0.014737150631844997,-1.111619234085083,0.5716237425804138
1772806391309673000,2.9286728515625,-0.02187092788517475,-1.1653703451156616,0.7650302648544312
1772806391319605000,2.93860498046875,-0.05418676882982254,-1.1129698753356934,0.9893002510070801
1772806391329536000,2.948535888671875,-0.06085079908370972,-0.9481662511825562,1.2351787090301514
1772806391339467800,2.9584677734375,-0.07258646190166473,-0.6655974388122559,1.4820802211761475
1772806391349398800,2.968398681640625,-0.10235022008419037,-0.2906155586242676,1.7861762046813965
1772806391359330000,2.978330078125,-0.1335010528564453,-0.021840717643499374,2.198422908782959
1772806391369262000,2.988261962890625,-0.16800735890865326,-0.15624220669269562,2.556102752685547
1772806391379193900,2.99819384765625,-0.15948425233364105,-0.6067160367965698,2.7931642532348633
1772806391389124900,3.008124755859375,-0.15761764347553253,-1.0447008609771729,2.9730067253112793
1772806391399056000,3.018055908203125,-0.25130295753479004,-1.2839277982711792,3.0963134765625
1772806391408987600,3.027987548828125,-0.4954130947589874,-0.5546054840087891,2.7517929077148438
1772806391418919000,3.0379189453125,-0.6425597667694092,-0.05743108317255974,2.195821523666382
1772806391428851000,3.047850830078125,-0.6822182536125183,-0.8177798390388489,2.0226619243621826
1772806391438782000,3.057781982421875,-0.7291173934936523,-1.3024119138717651,1.9386498928070068
1772806391448713700,3.067713623046875,-0.7416696548461914,-1.35920250415802,1.8646273612976074
1772806391458645000,3.07764501953125,-0.7269237637519836,-1.1027461290359497,1.807051181793213
1772806391468577000,3.087576904296875,-0.67653888463974,-0.7667294144630432,1.7676737308502197
1772806391478507800,3.0975078125,-0.5639267563819885,-0.40628543496131897,1.737392783164978
1772806391488439800,3.107439697265625,-0.3304753303527832,-0.017324082553386688,1.6749284267425537
1772806391498370800,3.117370849609375,-0.08582247048616409,0.23390457034111023,1.600113868713379
1772806391508302800,3.127302734375,-0.06084201857447624,0.3981776535511017,1.4886544942855835
1772806391518233900,3.13723388671875,-0.0779791995882988,0.5395941138267517,1.347790002822876
1772806391528166000,3.147165771484375,-0.15507905185222626,0.5478326082229614,1.2295935153961182
1772806391538097000,3.157096923828125,-0.25191619992256165,0.3902280628681183,1.137169599533081
1772806391548029000,3.16702880859375,-0.3099001348018646,0.17841942608356476,1.0273653268814087
1772806391557959700,3.176959716796875,-0.3538133502006531,0.013746876269578934,0.8788231611251831
1772806391567891700,3.1868916015625,-0.42436501383781433,-0.09418278187513351,0.7036314010620117
1772806391577823000,3.196822998046875,-0.4923691749572754,-0.11758357286453247,0.5750972032546997
1772806391587755000,3.206755126953125,-0.5435405373573303,-0.07386725395917892,0.5145691633224487
1772806391597685800,3.216685791015625,-0.5944589376449585,0.039719488471746445,0.4711136221885681
1772806391607617800,3.22661767578125,-0.6468643546104431,0.12783123552799225,0.41851431131362915
1772806391617549000,3.236549072265625,-0.6863099336624146,0.21330326795578003,0.3702841103076935
1772806391627481000,3.246481201171875,-0.6824573874473572,0.3140144348144531,0.28454524278640747
1772806391637411800,3.256411865234375,-0.6607982516288757,0.41307932138442993,0.1813403069972992
1772806391647343900,3.26634375,-0.5988949537277222,0.4268215000629425,0.09175529330968857
1772806391657275000,3.27627490234375,-0.4919728934764862,0.38822051882743835,0.00694360863417387
1772806391667206700,3.28620654296875,-0.365788072347641,0.2801119089126587,-0.0598793663084507
1772806391677138000,3.296137939453125,-0.26555439829826355,0.13678020238876343,-0.1253405064344406
1772806391687070000,3.306070068359375,-0.18822552263736725,0.03153740242123604,-0.18712478876113892
1772806391697001000,3.3160009765625,-0.11473134160041809,0.004866440314799547,-0.2562367916107178
1772806391706932700,3.3259326171875,-0.03854948654770851,0.011094508692622185,-0.32907477021217346
1772806391716863700,3.33586376953125,0.028149183839559555,0.0403813011944294,-0.38541048765182495
1772806391726796000,3.345796142578125,0.06924255192279816,0.0720825120806694,-0.44007956981658936
1772806391736726800,3.355726806640625,0.08411455899477005,0.08344302326440811,-0.5073167681694031
1772806391746658800,3.365658935546875,0.0879412516951561,0.051991626620292664,-0.5447035431861877
1772806391756589800,3.37558984375,0.09588536620140076,-0.00283283949829638,-0.5304530262947083
1772806391766521000,3.38552099609375,0.10841634124517441,-0.045672446489334106,-0.4796188473701477
1772806391776452900,3.395452880859375,0.1261925995349884,-0.032612819224596024,-0.4334922134876251
1772806391786384000,3.4053837890625,0.13434532284736633,0.013055600225925446,-0.42144912481307983
1772806391796316000,3.41531591796875,0.13935701549053192,0.08072439581155777,-0.42614951729774475
1772806391806246700,3.42524658203125,0.1407754123210907,0.15039454400539398,-0.450445294380188
1772806391816178700,3.4351787109375,0.12940630316734314,0.24968823790550232,-0.49802735447883606
1772806391826110000,3.44510986328125,0.10572094470262527,0.37012356519699097,-0.5586901307106018
1772806391836042000,3.4550419921875,0.05751408636569977,0.3808683454990387,-0.6048985719680786
1772806391845972700,3.46497265625,-0.03837728872895241,0.3204076588153839,-0.614125669002533
1772806391855904800,3.47490478515625,-0.16845351457595825,0.1871076375246048,-0.5984575748443604
1772806391865836000,3.4848359375,-0.2728651165962219,0.09744007140398026,-0.5608468651771545
1772806391875768000,3.49476806640625,-0.3471815288066864,0.05914758890867233,-0.4659447968006134
1772806391885698800,3.50469873046875,-0.4108918011188507,0.04551833122968674,-0.31960275769233704
1772806391895630800,3.514630859375,-0.4435102045536041,0.06519094854593277,-0.14165599644184113
1772806391905561900,3.524561767578125,-0.44156262278556824,0.1298874020576477,0.028569793328642845
1772806391915494000,3.534493896484375,-0.3974560499191284,0.2717275023460388,0.16968348622322083
1772806391925425000,3.5444248046875,-0.33276015520095825,0.46753108501434326,0.2639833688735962
1772806391935357000,3.55435693359375,-0.2775297462940216,0.6401746273040771,0.28983068466186523
1772806391945288000,3.564287841796875,-0.23499935865402222,0.7084426283836365,0.2513442933559418
1772806391955220000,3.574219970703125,-0.18722659349441528,0.7323247194290161,0.19985470175743103
1772806391965150700,3.584150634765625,-0.13500040769577026,0.7820262312889099,0.16615426540374756
1772806391975082800,3.594082763671875,-0.08221719413995743,0.8730997443199158,0.17990204691886902
1772806391985014000,3.604013916015625,-0.014274626970291138,0.9369264245033264,0.2218790501356125
1772806391994945800,3.61394580078125,0.016712429001927376,0.9685292840003967,0.2309473305940628
1772806392004876800,3.623876708984375,0.02486196719110012,0.9560139775276184,0.21443971991539001
1772806392014808800,3.633808837890625,-0.0037247445434331894,0.897896945476532,0.1766766607761383
1772806392024740000,3.643739990234375,-0.034941788762807846,0.831622838973999,0.13632017374038696
1772806392034671900,3.653671875,-0.07612128555774689,0.7839990258216858,0.10014019161462784
1772806392044603000,3.663602783203125,-0.11508359760046005,0.7336629033088684,0.059806887060403824
1772806392054535000,3.673534912109375,-0.21972131729125977,0.6418209075927734,-0.05429350957274437
1772806392064465700,3.683465576171875,-0.29912930727005005,0.6615040302276611,-0.1090979054570198
1772806392074397700,3.693397705078125,-0.30452561378479004,0.6873703002929688,-0.015366097912192345
1772806392084329000,3.703328857421875,-0.4179472327232361,0.4714867174625397,0.2168612778186798
1772806392094261000,3.713260986328125,-0.5343409776687622,0.028378179296851158,0.41000425815582275
1772806392104191700,3.723191650390625,-0.3664321005344391,-0.08489378541707993,0.2539864480495453
1772806392114123800,3.733123779296875,0.013494092971086502,0.29968422651290894,0.006123303901404142
1772806392124054800,3.7430546875,0.37151697278022766,0.900180459022522,0.05298854783177376
1772806392133985800,3.75298583984375,0.5002931952476501,1.2118593454360962,0.17664554715156555
1772806392143917800,3.762917724609375,0.4210415184497833,1.0341931581497192,0.11840089410543442
1772806392153848800,3.772848876953125,0.2604897618293762,0.6110484004020691,-0.20127642154693604
1772806392163780900,3.78278076171875,0.10553612560033798,0.31872355937957764,-0.5289314985275269
1772806392173712000,3.7927119140625,-0.007119699846953154,0.2390740066766739,-0.636677086353302
1772806392183644000,3.802643798828125,-0.06816201657056808,0.3585945665836334,-0.5739564299583435
1772806392193574700,3.81257470703125,-0.07583579421043396,0.5558852553367615,-0.5047566294670105
1772806392203506700,3.822506591796875,-0.04645047336816788,0.7330827116966248,-0.5106619596481323
1772806392213437700,3.832437744140625,0.009170438162982464,0.8045663833618164,-0.5774561166763306
1772806392223369500,3.842369384765625,0.12319128215312958,0.8001668453216553,-0.635107696056366
1772806392233300700,3.85230078125,0.17260508239269257,0.6690581440925598,-0.6463756561279297
1772806392243232800,3.862232666015625,0.1783444583415985,0.5377928018569946,-0.6564176678657532
1772806392253163800,3.872163818359375,0.29221805930137634,0.4347953200340271,-0.6611210703849792
1772806392263095600,3.882095458984375,0.33968329429626465,0.30075764656066895,-0.686389684677124
1772806392273026800,3.89202685546875,0.1377062052488327,0.14694398641586304,-0.7910997867584229
1772806392282958800,3.901958740234375,-0.026822276413440704,-0.0806332528591156,-0.9270866513252258
1772806392292889600,3.9118896484375,-0.12491945177316666,-0.3097933828830719,-1.0404858589172363
1772806392302821600,3.921821533203125,-0.17722180485725403,-0.46659523248672485,-1.1049351692199707
1772806392312752600,3.931752685546875,-0.21446123719215393,-0.5415590405464172,-1.1067062616348267
1772806392322684700,3.9416845703125,-0.19101370871067047,-0.45668068528175354,-1.049615740776062
1772806392332615700,3.95161572265625,-0.12724712491035461,-0.27272096276283264,-0.9737190008163452
1772806392342547700,3.961547607421875,-0.032505445182323456,-0.09502287209033966,-0.9184890389442444
1772806392352478700,3.971478759765625,0.06484194844961166,0.06802838295698166,-0.9086851477622986
1772806392362409500,3.981409423828125,0.16934385895729065,0.2281900942325592,-0.9241852760314941
1772806392372340700,3.9913408203125,0.2418314665555954,0.3131224513053894,-0.920606791973114
1772806392382272800,4.001272705078125,0.28858089447021484,0.312671035528183,-0.8749508857727051
1772806392392203800,4.011203857421875,0.28218874335289,0.31638303399086,-0.8007373213768005
1772806392402135600,4.021135498046875,0.24154622852802277,0.34389162063598633,-0.7157377600669861
1772806392412066800,4.03106689453125,0.18419480323791504,0.33306005597114563,-0.6585972309112549
1772806392421998800,4.040998779296875,0.15399162471294403,0.26696866750717163,-0.6219364404678345
1772806392431929900,4.050929931640625,0.14791233837604523,0.16536936163902283,-0.5994234681129456
1772806392441861600,4.060861572265625,0.1481855809688568,0.10818570852279663,-0.5836806893348694
1772806392451792600,4.070792724609375,0.16922080516815186,0.10887764394283295,-0.5675351619720459
1772806392461724700,4.080724609375,0.19559940695762634,0.1266811490058899,-0.5399882197380066
1772806392471655700,4.09065576171875,0.21594561636447906,0.11842003464698792,-0.4986736476421356
1772806392481587700,4.100587646484375,0.20731164515018463,0.1505204439163208,-0.4385056495666504
1772806392491518700,4.110518798828125,0.2108219712972641,0.12821049988269806,-0.3910474479198456
1772806392501450800,4.12045068359375,0.20562401413917542,0.06332658231258392,-0.34921184182167053
1772806392511381500,4.130381591796875,0.18828816711902618,0.001256023533642292,-0.3288344144821167
1772806392521313800,4.140313720703125,0.15569773316383362,-0.028000930324196815,-0.33421772718429565
1772806392531244800,4.150244873046875,0.11839670687913895,-0.06755467504262924,-0.36590537428855896
1772806392541176800,4.1601767578125,0.08149195462465286,-0.11863703280687332,-0.3811120092868805
1772806392551107600,4.170107666015625,0.05963946878910065,-0.21933916211128235,-0.40658771991729736
1772806392561038800,4.180038818359375,0.050780996680259705,-0.31998375058174133,-0.4564026892185211
1772806392570971000,4.189970947265625,0.07010985165834427,-0.3116963505744934,-0.5184320211410522
1772806392580901600,4.199901611328125,0.10612697899341583,-0.3095349073410034,-0.5544752478599548
1772806392590833700,4.209833740234375,0.14412416517734528,-0.3197948932647705,-0.557152271270752
1772806392600764700,4.2197646484375,0.17570152878761292,-0.30786874890327454,-0.5141630172729492
1772806392610696700,4.22969677734375,0.1937311291694641,-0.3472769558429718,-0.4559968411922455
1772806392620627700,4.239627685546875,0.19995014369487762,-0.4054052531719208,-0.3999442458152771
1772806392630559700,4.249559814453125,0.19505922496318817,-0.4399506151676178,-0.3351712226867676
1772806392640490800,4.25949072265625,0.180632084608078,-0.484580934047699,-0.26483848690986633
1772806392650422800,4.2694228515625,0.17074565589427948,-0.48651623725891113,-0.1981978565454483
1772806392660353500,4.279353515625,0.17421628534793854,-0.436693012714386,-0.10847409814596176
1772806392670285800,4.289285888671875,0.17936675250530243,-0.41265997290611267,-0.011224539950489998
1772806392680216800,4.299216796875,0.19460588693618774,-0.3818706274032593,0.06533601880073547
1772806392690148600,4.309148681640625,0.24167276918888092,-0.3910881280899048,0.08867926150560379
1772806392700079600,4.31907958984375,0.26031941175460815,-0.40015459060668945,0.07881518453359604
1772806392710011600,4.32901171875,0.2786181569099426,-0.3925773799419403,0.04335901141166687
1772806392719943000,4.33894287109375,0.30372244119644165,-0.39485064148902893,0.006190873216837645
1772806392729874700,4.348874755859375,0.3309010863304138,-0.4175432622432709,-0.005271221045404673
1772806392739805700,4.3588056640625,0.3506351113319397,-0.4884219765663147,0.022842971608042717
1772806392749737700,4.36873779296875,0.3493959903717041,-0.5993598699569702,0.06100602075457573
1772806392759668700,4.378668701171875,0.3263079822063446,-0.6823444962501526,0.09580661356449127
1772806392769600500,4.3886005859375,0.29032790660858154,-0.7775046229362488,0.1188148781657219
1772806392779531800,4.39853173828125,0.2574615776538849,-0.8196632862091064,0.1634201556444168
1772806392789463800,4.4084638671875,0.25158771872520447,-0.8167977929115295,0.25107982754707336
1772806392799394600,4.41839453125,0.24094544351100922,-0.7763766050338745,0.39918380975723267
1772806392809326600,4.42832666015625,0.2306528389453888,-0.7052828669548035,0.597001314163208
1772806392819257900,4.4382578125,0.2214076668024063,-0.6007431149482727,0.8543465733528137
1772806392829190000,4.44818994140625,0.2168360948562622,-0.46902182698249817,1.145396113395691
1772806392839120600,4.45812060546875,0.15867078304290771,-0.3893115520477295,1.4840229749679565
1772806392849052700,4.468052734375,0.08522035926580429,-0.4352148771286011,1.8167626857757568
1772806392858983700,4.477983642578125,-0.016146209090948105,-0.5234220027923584,2.09682559967041
1772806392868914700,4.487914794921875,-0.16556987166404724,-0.3023096024990082,1.8967297077178955
1772806392878846700,4.4978466796875,-0.23513270914554596,-0.46909353137016296,1.6950790882110596
1772806392888777700,4.50777783203125,-0.2343515157699585,-0.9998689889907837,1.6604194641113281
1772806392898709800,4.517709716796875,-0.24297749996185303,-1.337794303894043,1.6678942441940308
1772806392908640500,4.527640625,-0.28043487668037415,-1.2824506759643555,1.6872769594192505
1772806392918572500,4.537572509765625,-0.2811723053455353,-1.047638177871704,1.6775681972503662
1772806392928503800,4.54750390625,-0.23231472074985504,-0.8007077574729919,1.644268274307251
1772806392938435800,4.557435791015625,-0.18592165410518646,-0.5252285003662109,1.5953694581985474
1772806392948366600,4.56736669921875,-0.16349633038043976,-0.23660318553447723,1.5042529106140137
1772806392958298600,4.577298583984375,-0.13527028262615204,0.006092552561312914,1.3670321702957153
1772806392968230000,4.58722998046875,-0.10065974295139313,0.1475168764591217,1.2097620964050293
1772806392978162000,4.597161865234375,-0.06788847595453262,0.2094809114933014,1.048022985458374
1772806392988092700,4.6070927734375,-0.06898580491542816,0.12466394156217575,0.8948334455490112
1772806392998024700,4.617024658203125,-0.12118509411811829,-0.09789855778217316,0.7783718109130859
1772806393007955700,4.626955810546875,-0.22830331325531006,-0.31813955307006836,0.6971631646156311
1772806393017887500,4.636887451171875,-0.342399537563324,-0.4885951578617096,0.6188126802444458
1772806393027818800,4.64681884765625,-0.4927474856376648,-0.6096215844154358,0.5398479700088501
1772806393037750800,4.656750732421875,-0.6123529672622681,-0.6627963781356812,0.4704720973968506
1772806393047681800,4.666681884765625,-0.6792999505996704,-0.6599220037460327,0.4261476993560791
1772806393057613600,4.676613525390625,-0.7127473950386047,-0.6111124157905579,0.39915284514427185
1772806393067544600,4.686544677734375,-0.6932709217071533,-0.5249450206756592,0.3985666036605835
1772806393077476900,4.696476806640625,-0.6237653493881226,-0.38171330094337463,0.41450241208076477
1772806393087407900,4.706407958984375,-0.5423443913459778,-0.22168344259262085,0.4275248348712921
1772806393097339600,4.716339599609375,-0.4589610993862152,-0.03959885984659195,0.4272611737251282
1772806393107270700,4.726270751953125,-0.37673744559288025,0.09616026282310486,0.44100436568260193
1772806393117202700,4.73620263671875,-0.2796947658061981,0.1956983059644699,0.4269085228443146
1772806393127133700,4.7461337890625,-0.1847030073404312,0.2875606119632721,0.33242514729499817
1772806393137065700,4.756065673828125,-0.10340335965156555,0.27903103828430176,0.22090208530426025
1772806393146996700,4.765996826171875,-0.05203719064593315,0.24702009558677673,0.09465350210666656
1772806393156928800,4.7759287109375,-0.0035908310674130917,0.21946224570274353,-0.037081893533468246
1772806393166859500,4.785859619140625,0.031242594122886658,0.18117497861385345,-0.16290892660617828
1772806393176790800,4.795790771484375,0.05597297474741936,0.13768795132637024,-0.27446475625038147
1772806393186723600,4.8057236328125,0.07631352543830872,0.10106707364320755,-0.36179548501968384
1772806393196654600,4.815654541015625,0.08964131027460098,0.06460200995206833,-0.44676631689071655
1772806393206586400,4.82558642578125,0.1227647215127945,0.04690491035580635,-0.535637617111206
1772806393216517400,4.835517333984375,0.14866475760936737,0.04967140033841133,-0.6168158650398254
1772806393226449400,4.845449462890625,0.18282882869243622,0.0722423866391182,-0.6764607429504395
1772806393236380700,4.855380615234375,0.22380715608596802,0.0913979709148407,-0.7350021004676819
1772806393246312400,4.8653125,0.26382070779800415,0.11696403473615646,-0.8116581439971924
1772806393256243500,4.875243408203125,0.30479398369789124,0.1518130898475647,-0.8803013563156128
1772806393266175500,4.885175537109375,0.33188265562057495,0.17371757328510284,-0.9310539960861206
1772806393276106200,4.895106201171875,0.3555121123790741,0.1967368721961975,-0.9704921841621399
1772806393286038300,4.905038330078125,0.3755665123462677,0.26145392656326294,-1.0083552598953247
1772806393295969500,4.914969482421875,0.39194709062576294,0.3723849654197693,-1.0377525091171265
1772806393305901600,4.924901611328125,0.4009380042552948,0.5015408396720886,-1.0650639533996582
1772806393315832300,4.934832275390625,0.3861132562160492,0.5484135746955872,-1.0601592063903809
1772806393325764400,4.944764404296875,0.32389429211616516,0.46304231882095337,-1.0139045715332031
1772806393335695600,4.954695556640625,0.1772792786359787,0.2843570113182068,-0.9397096633911133
1772806393345627600,4.964627685546875,-0.04832235723733902,0.14484842121601105,-0.815314769744873
1772806393355558400,4.974558349609375,-0.3375794589519501,0.04542222246527672,-0.6397061944007874
1772806393365490400,4.984490478515625,-0.5998438596725464,-0.10311190783977509,-0.39006003737449646
1772806393375421400,4.99442138671875,-0.776882529258728,-0.2670590281486511,-0.08454219996929169
1772806393385353500,5.004353515625,-0.8573249578475952,-0.31093427538871765,0.2545619606971741
1772806393395284500,5.014284423828125,-0.8794686198234558,-0.08442576229572296,0.5957992076873779
1772806393405216500,5.024216552734375,-0.8723700642585754,0.2679402530193329,0.717248797416687
1772806393415147500,5.0341474609375,-0.792830765247345,0.6537646055221558,0.5802637934684753
1772806393425079300,5.044079345703125,-0.6709754467010498,0.5726935267448425,0.42277687788009644
1772806393435010600,5.054010498046875,-0.5145429968833923,0.5649770498275757,0.32335469126701355
1772806393444942600,5.063942626953125,-0.2990753948688507,0.7867255806922913,0.30601435899734497
1772806393454873600,5.07387353515625,-0.05992486700415611,0.9126390218734741,0.39965614676475525
1772806393464804400,5.083804443359375,0.12167220562696457,0.8668386936187744,0.5500698685646057
1772806393474736400,5.093736328125,0.1509970724582672,0.7733460664749146,0.6327847242355347
1772806393484667600,5.103667724609375,0.04661647230386734,0.7564511895179749,0.5223190784454346
1772806393494599400,5.113599365234375,-0.11883826553821564,0.6045790910720825,0.35241231322288513
1772806393504530400,5.123530517578125,-0.2812597453594208,0.6626056432723999,0.2861563265323639
1772806393514462500,5.13346240234375,-0.34922707080841064,0.7055466771125793,0.42149364948272705
1772806393524393500,5.1433935546875,-0.5231421589851379,0.4124860167503357,0.7465870976448059
1772806393534325200,5.1533251953125,-0.7384946942329407,-0.13019242882728577,0.8233519196510315
1772806393544256500,5.163256591796875,-0.5923768877983093,-0.34337523579597473,0.2946121096611023
1772806393554188500,5.1731884765625,-0.15665866434574127,0.2784270644187927,-0.08946790546178818
1772806393564119600,5.18311962890625,0.21200917661190033,1.0282485485076904,-0.010685297660529613
1772806393574051300,5.19305126953125,0.41009989380836487,1.2603979110717773,0.04726721718907356
1772806393583982600,5.202982666015625,0.5085415840148926,1.1353073120117188,-0.07509355992078781
1772806393593914600,5.21291455078125,0.4464574456214905,0.9116729497909546,-0.2862534821033478
1772806393603845400,5.222845458984375,0.28421658277511597,0.870782196521759,-0.45529893040657043
1772806393613777400,5.23277734375,0.10353254526853561,0.9593331217765808,-0.5706955790519714
1772806393623708400,5.24270849609375,-0.04210156574845314,0.9462641477584839,-0.609886109828949
1772806393633640400,5.252640380859375,-0.11942458152770996,0.8005764484405518,-0.6227491497993469
1772806393643571500,5.262571533203125,-0.14950650930404663,0.6768233776092529,-0.6848369240760803
1772806393653503500,5.27250341796875,-0.1329142153263092,0.5895792841911316,-0.741642415523529
1772806393663434500,5.2824345703125,-0.06819254159927368,0.4566423296928406,-0.7856411933898926
1772806393673366500,5.292366455078125,0.0036025471054017544,0.30445438623428345,-0.7650061845779419
1772806393683297300,5.30229736328125,0.0738661140203476,0.28849151730537415,-0.7178542017936707
1772806393693229300,5.312229248046875,0.16269320249557495,0.3298509418964386,-0.6619033217430115
1772806393703160600,5.32216064453125,0.19637641310691833,0.237174853682518,-0.6228362917900085
1772806393713092600,5.332092529296875,0.14707864820957184,0.09720125049352646,-0.6960321664810181
1772806393723023400,5.3420234375,0.056513652205467224,-0.10925888270139694,-0.8295024037361145
1772806393732955400,5.351955322265625,-0.044338658452034,-0.3763648569583893,-0.8886222243309021
1772806393742886700,5.36188671875,-0.13437967002391815,-0.5089366436004639,-0.9254368543624878
1772806393752817400,5.3718173828125,-0.1994878351688385,-0.4866103231906891,-0.9637418985366821
1772806393762749400,5.38174951171875,-0.19674056768417358,-0.35414743423461914,-1.0017119646072388
1772806393772680400,5.391680419921875,-0.15192437171936035,-0.20046254992485046,-1.0232558250427246
1772806393782612500,5.401612548828125,-0.07385069876909256,-0.019218485802412033,-0.9963129162788391
1772806393792543500,5.41154345703125,0.04419364780187607,0.08938628435134888,-0.9463163614273071
1772806393802475500,5.4214755859375,0.16892825067043304,0.21055318415164948,-0.8636139035224915
1772806393812406500,5.431406494140625,0.257904976606369,0.33900487422943115,-0.7445719242095947
1772806393822338300,5.44133837890625,0.3100658655166626,0.3763921558856964,-0.601030707359314
1772806393832269300,5.451269287109375,0.3349722921848297,0.36134713888168335,-0.4706953465938568
1772806393842201300,5.461201416015625,0.325673907995224,0.31834983825683594,-0.39752405881881714
1772806393852132600,5.471132568359375,0.26056814193725586,0.222144216299057,-0.4014791250228882
1772806393862064400,5.481064453125,0.22965891659259796,0.14613434672355652,-0.39699387550354004
1772806393871995400,5.490995361328125,0.22735022008419037,0.1178305372595787,-0.3590659499168396
1772806393881927400,5.500927490234375,0.23458915948867798,0.15589341521263123,-0.289227157831192
1772806393891858400,5.5108583984375,0.2072901576757431,0.16454654932022095,-0.2602194845676422
1772806393901790500,5.52079052734375,0.16279014945030212,0.1613996922969818,-0.28121593594551086
1772806393911721500,5.530721435546875,0.1281546652317047,0.1029217317700386,-0.3265503942966461
1772806393921653500,5.540653564453125,0.09821880608797073,0.03152517229318619,-0.3660244941711426
1772806393931584300,5.550584228515625,0.07986483722925186,0.008302407339215279,-0.37636423110961914
1772806393941516300,5.560516357421875,0.0920189693570137,0.011002587154507637,-0.3744611144065857
1772806393951447600,5.570447509765625,0.10623811930418015,0.0279216468334198,-0.3739479184150696
1772806393961379600,5.580379638671875,0.12183811515569687,0.013521935790777206,-0.3673936128616333
1772806393971310300,5.590310302734375,0.1430758237838745,-0.01462491974234581,-0.3689955770969391
1772806393981241300,5.600241455078125,0.17406941950321198,-0.04473328962922096,-0.3665124475955963
1772806393991173600,5.610173583984375,0.19705064594745636,-0.11391714960336685,-0.3506130874156952
1772806394001104400,5.6201044921875,0.24157899618148804,-0.2016134411096573,-0.3503216803073883
1772806394011036400,5.630036376953125,0.3067457675933838,-0.29444724321365356,-0.354981392621994
1772806394020967400,5.639967529296875,0.35552647709846497,-0.42835667729377747,-0.3404883146286011
1772806394030899500,5.6498994140625,0.35611823201179504,-0.561803936958313,-0.2791959345340729
1772806394040830500,5.65983056640625,0.31524041295051575,-0.616674542427063,-0.19021442532539368
1772806394050762500,5.669762451171875,0.28398633003234863,-0.6043635010719299,-0.12645088136196136
1772806394060693500,5.679693603515625,0.2631964683532715,-0.567459225654602,-0.07974270731210709
1772806394070625500,5.68962548828125,0.26675018668174744,-0.5347535014152527,-0.044758617877960205
1772806394080556300,5.699556396484375,0.2703641653060913,-0.4699450731277466,-0.020857367664575577
1772806394090488300,5.70948828125,0.2826765179634094,-0.36368921399116516,-0.0321800634264946
1772806394100419600,5.719419677734375,0.2851976454257965,-0.3777106702327728,-0.06632859259843826
1772806394110351600,5.7293515625,0.2864956557750702,-0.37160536646842957,-0.09922368824481964
1772806394120282400,5.739282470703125,0.29959189891815186,-0.3400573134422302,-0.12682025134563446
1772806394130214400,5.74921435546875,0.31943804025650024,-0.33247265219688416,-0.1320192664861679
1772806394140145700,5.759145751953125,0.318573534488678,-0.3165481686592102,-0.09776691347360611
1772806394150077400,5.769077392578125,0.3092484772205353,-0.3561112880706787,-0.06663642078638077
1772806394160008400,5.779008544921875,0.2889620065689087,-0.46035653352737427,-0.05444156751036644
1772806394169940500,5.7889404296875,0.2552245557308197,-0.5658736824989319,-0.044109564274549484
1772806394179871500,5.79887158203125,0.2323387861251831,-0.6421670317649841,-0.009528396651148796
1772806394189803300,5.80880322265625,0.20258595049381256,-0.7625211477279663,0.08477014303207397
1772806394199734500,5.818734619140625,0.13645422458648682,-0.833626389503479,0.26324835419654846
1772806394209666600,5.82866650390625,0.0544152706861496,-0.8255314826965332,0.5096930265426636
1772806394219597300,5.838597412109375,-0.03489658236503601,-0.7380804419517517,0.8216779232025146
1772806394229529300,5.848529296875,-0.16389983892440796,-0.7087987065315247,1.1844849586486816
1772806394239460400,5.85846044921875,-0.2807976305484772,-0.8293450474739075,1.5591342449188232
1772806394249391400,5.868391357421875,-0.3248540461063385,-0.7455372214317322,1.6974122524261475
1772806394259323400,5.878323486328125,-0.33246421813964844,-0.7678983211517334,1.7582839727401733
1772806394269254400,5.88825439453125,-0.3380102515220642,-0.8988669514656067,1.8210434913635254
1772806394279186400,5.8981865234375,-0.31098222732543945,-1.037665605545044,1.8388314247131348
1772806394289117400,5.908117431640625,-0.2681415379047394,-0.9997331500053406,1.8035533428192139
1772806394299049500,5.918049560546875,-0.23454785346984863,-0.9407652616500854,1.7146797180175781
1772806394308980500,5.92798046875,-0.24661916494369507,-0.8249752521514893,1.607021689414978
1772806394318912300,5.937912353515625,-0.3152063488960266,-0.6376242637634277,1.4843475818634033
1772806394328843300,5.94784326171875,-0.3945770561695099,-0.40732958912849426,1.371899127960205
1772806394338775300,5.957775390625,-0.4711536169052124,-0.21323183178901672,1.2411214113235474
1772806394348706600,5.96770654296875,-0.504510760307312,-0.08413483947515488,1.0690919160842896
1772806394358638300,5.977638427734375,-0.4621306359767914,-0.013770227320492268,0.9052851796150208
1772806394368569300,5.9875693359375,-0.37605488300323486,0.0007623764686286449,0.7821691036224365
1772806394378501400,5.99750146484375,-0.30799201130867004,0.03767886757850647,0.6742841601371765
1772806394388432400,6.007432373046875,-0.2927249073982239,0.005202149972319603,0.5955389738082886
1772806394398364400,6.017364501953125,-0.3409573435783386,-0.08417173475027084,0.5413994789123535
1772806394408295400,6.02729541015625,-0.3939249515533447,-0.1642647087574005,0.5053695440292358
1772806394418227500,6.0372275390625,-0.44559088349342346,-0.2159513235092163,0.49477753043174744
1772806394428158200,6.047158203125,-0.48035526275634766,-0.27320635318756104,0.4939625859260559
1772806394438090200,6.05709033203125,-0.4539707601070404,-0.2637607753276825,0.4674661457538605
1772806394448021500,6.067021484375,-0.4183219373226166,-0.22629062831401825,0.45107918977737427
1772806394457953500,6.07695361328125,-0.3475545346736908,-0.18876738846302032,0.43006813526153564
1772806394467884300,6.08688427734375,-0.26571211218833923,-0.19992364943027496,0.400531530380249
1772806394477816300,6.09681640625,-0.2063228338956833,-0.18183864653110504,0.3452160954475403
1772806394487747300,6.106747314453125,-0.14538784325122833,-0.1261274516582489,0.29221171140670776
1772806394497678300,6.11667822265625,-0.0936167910695076,-0.035514771938323975,0.25468140840530396
1772806394507610400,6.1266103515625,-0.03646189346909523,0.12658119201660156,0.2267368882894516
1772806394517541400,6.136541259765625,0.021644018590450287,0.25007838010787964,0.19184841215610504
1772806394527473400,6.146473388671875,0.06582532823085785,0.33612963557243347,0.12679803371429443
1772806394537404400,6.156404296875,0.10459189116954803,0.39009666442871094,0.04415353015065193
1772806394547336400,6.16633642578125,0.1385703682899475,0.4239654242992401,-0.02968953736126423
1772806394557267500,6.176267333984375,0.1630697101354599,0.4325990378856659,-0.09590935707092285
1772806394567199500,6.186199462890625,0.20013397932052612,0.40723562240600586,-0.15283416211605072
1772806394577130200,6.196130126953125,0.2348879724740982,0.36048758029937744,-0.2103176862001419
1772806394587062300,6.206062255859375,0.26534518599510193,0.33535531163215637,-0.2618762254714966
1772806394596993500,6.21599365234375,0.2894589602947235,0.31596997380256653,-0.30113595724105835
1772806394606925600,6.225925537109375,0.29741939902305603,0.2964586019515991,-0.3464392423629761
1772806394616856300,6.235856201171875,0.2974393963813782,0.2756460905075073,-0.3810199499130249
1772806394626788400,6.245788330078125,0.29153621196746826,0.23685021698474884,-0.40713196992874146
1772806394636719400,6.25571923828125,0.2654418647289276,0.19430114328861237,-0.4325999319553375
1772806394646651400,6.2656513671875,0.2375340610742569,0.18051663041114807,-0.48363834619522095
1772806394656582400,6.27558251953125,0.22937297821044922,0.19660265743732452,-0.5460200309753418
1772806394666514400,6.285514404296875,0.22433029115200043,0.225385844707489,-0.6171762347221375
1772806394676445400,6.295445556640625,0.2381819188594818,0.2554393708705902,-0.6878983974456787
1772806394686377200,6.305377197265625,0.24263952672481537,0.2747246325016022,-0.7696734070777893
1772806394696308500,6.31530859375,0.24045589566230774,0.266389936208725,-0.8531619310379028
1772806394706239500,6.325239501953125,0.19223031401634216,0.25885266065597534,-0.924801230430603
1772806394716171300,6.335171142578125,0.13506944477558136,0.2794516086578369,-0.9588548541069031
1772806394726102300,6.345102294921875,0.06895941495895386,0.30519187450408936,-0.9308562278747559
1772806394736034300,6.355034423828125,-0.024941515177488327,0.3271626830101013,-0.81593257188797
1772806394745965600,6.364965576171875,-0.14166787266731262,0.2969682812690735,-0.6146575212478638
1772806394755897300,6.3748974609375,-0.26571372151374817,0.22570101916790009,-0.39933839440345764
1772806394765828400,6.384828369140625,-0.3708595931529999,0.14656411111354828,-0.21886421740055084
1772806394775760400,6.394760498046875,-0.4313855469226837,0.10646645724773407,-0.08690081536769867
1772806394785691100,6.404691162109375,-0.4666481912136078,0.12944979965686798,-0.01860138587653637
1772806394795623400,6.41462353515625,-0.4743277430534363,0.16292718052864075,0.012532117776572704
1772806394805554400,6.424554443359375,-0.4784899950027466,0.22440572082996368,0.04887920245528221
1772806394815486500,6.434486572265625,-0.4671352505683899,0.33692649006843567,0.11601059138774872
1772806394825417200,6.444417236328125,-0.46791768074035645,0.48255932331085205,0.21188466250896454
1772806394835349200,6.454349365234375,-0.4566408097743988,0.6052960157394409,0.2933807075023651
1772806394845280500,6.464280517578125,-0.4099697172641754,0.7205783724784851,0.33037707209587097
1772806394855212500,6.474212646484375,-0.3336920738220215,0.7757793664932251,0.31540971994400024
1772806394865143300,6.484143310546875,-0.2467915415763855,0.7965421676635742,0.30826500058174133
1772806394875075300,6.494075439453125,-0.17784520983695984,0.7995033264160156,0.3176470100879669
1772806394885006300,6.50400634765625,-0.12113133817911148,0.7326388359069824,0.3366132378578186
1772806394894938400,6.5139384765625,-0.10417062044143677,0.6237633228302002,0.37847551703453064
1772806394904869400,6.523869384765625,-0.12375044822692871,0.4618018567562103,0.39899301528930664
1772806394914801400,6.533801513671875,-0.1873508244752884,0.3472651541233063,0.34587618708610535
1772806394924732400,6.543732421875,-0.262750506401062,0.3307951092720032,0.26268330216407776
1772806394934663200,6.5536630859375,-0.36699357628822327,0.3400779962539673,0.28199100494384766
1772806394944595500,6.563595458984375,-0.5423794984817505,0.2104014903306961,0.43458613753318787
1772806394954526500,6.5735263671875,-0.7389888763427734,-0.09584496170282364,0.5761995315551758
1772806394964458500,6.58345849609375,-0.800364077091217,-0.2672414779663086,0.44195544719696045
1772806394974389200,6.59338916015625,-0.6573039293289185,0.037082746624946594,0.19509336352348328
1772806394984321300,6.6033212890625,-0.43081673979759216,0.5934573411941528,0.10328861325979233
1772806394994252500,6.61325244140625,-0.24785561859607697,0.9692242741584778,0.003239572746679187
1772806395004184600,6.6231845703125,-0.11698921024799347,1.0614339113235474,-0.158970907330513
1772806395014115300,6.633115234375,-0.03580860421061516,1.0272822380065918,-0.22540642321109772
1772806395024047400,6.64304736328125,-0.028504615649580956,0.9016661047935486,-0.2221863865852356
1772806395033978400,6.652978271484375,-0.10291619598865509,1.0024440288543701,-0.25039148330688477
1772806395043910100,6.66291015625,0.031655196100473404,1.0587232112884521,-0.28102022409439087
1772806395053841400,6.67284130859375,0.2227153480052948,0.9399548172950745,-0.3261913061141968
1772806395063773400,6.6827734375,0.04007682576775551,0.7883492708206177,-0.4580118954181671
1772806395073704400,6.692704345703125,-0.20410315692424774,0.5949111580848694,-0.5854786038398743
1772806395083636200,6.70263623046875,-0.15492787957191467,0.39536580443382263,-0.688075840473175
1772806395093567500,6.7125673828125,-0.09974882006645203,0.24740345776081085,-0.7846686244010925
1772806395103499500,6.72249951171875,0.025789933279156685,0.09527037292718887,-0.8301474452018738
1772806395113430300,6.73243017578125,0.14856646955013275,0.04523153975605965,-0.8341736793518066
1772806395123362300,6.7423623046875,0.20049278438091278,0.017853710800409317,-0.8387489914894104
1772806395133293300,6.752293212890625,0.1881084144115448,-0.0024789932649582624,-0.8548500537872314
1772806395143224600,6.762224609375,0.1430503875017166,-0.16859526932239532,-0.8567438125610352
1772806395153156400,6.77215625,0.04923189803957939,-0.29059654474258423,-0.8540187478065491
1772806395163087400,6.78208740234375,-0.04199175536632538,-0.26434922218322754,-0.8662202954292297
1772806395173019400,6.792019287109375,-0.10362816601991653,-0.18761758506298065,-0.8669559359550476
1772806395182950100,6.8019501953125,-0.11866677552461624,-0.10378606617450714,-0.8724555969238281
1772806395192882200,6.811882080078125,-0.09509427100419998,-0.018972748890519142,-0.8870452642440796
1772806395202813200,6.821813232421875,-0.03936123847961426,0.08297865092754364,-0.9090853333473206
1772806395212745200,6.8317451171875,0.01512047927826643,0.12930862605571747,-0.9279778003692627
1772806395222676000,6.841676025390625,0.07183968275785446,0.1549290418624878,-0.9361432790756226
1772806395232608000,6.85160791015625,0.12066352367401123,0.2144552767276764,-0.9494324326515198
1772806395242539300,6.861539306640625,0.16093584895133972,0.24221980571746826,-0.9386202692985535
1772806395252471000,6.871470947265625,0.17817774415016174,0.22444607317447662,-0.8720759749412537
1772806395262402000,6.881402099609375,0.184957355260849,0.18136093020439148,-0.7743251323699951
1772806395272334000,6.891333984375,0.195846289396286,0.1271015852689743,-0.6861860752105713
1772806395282265000,6.90126513671875,0.20644088089466095,0.09532660245895386,-0.6149765849113464
1772806395292196900,6.91119677734375,0.221765398979187,0.08950994163751602,-0.5722603797912598
1772806395302128000,6.921128173828125,0.23192109167575836,0.0655452162027359,-0.5426220893859863
1772806395312060200,6.93106005859375,0.22733983397483826,0.02171279862523079,-0.525140643119812
1772806395321991000,6.940990966796875,0.21036218106746674,-0.051114268600940704,-0.5131420493125916
1772806395331923000,6.9509228515625,0.15789026021957397,-0.06862994283437729,-0.49583908915519714
1772806395341854200,6.960854248046875,0.09216823428869247,-0.08865638077259064,-0.4612584710121155
1772806395351786200,6.9707861328125,0.05185498669743538,-0.094889797270298,-0.4225602447986603
1772806395361717000,6.980717041015625,0.04782668873667717,-0.11370422691106796,-0.427059143781662
1772806395371648000,6.99064794921875,0.07762709259986877,-0.13381485641002655,-0.4724184274673462
1772806395381580000,7.000580078125,0.1356017291545868,-0.1569151133298874,-0.5183960199356079
1772806395391511300,7.01051123046875,0.19803068041801453,-0.2532806396484375,-0.545301616191864
1772806395401443000,7.020443115234375,0.2601683437824249,-0.37023258209228516,-0.5672929286956787
1772806395411374000,7.0303740234375,0.3098301887512207,-0.4507082998752594,-0.5802459120750427
1772806395421306000,7.04030615234375,0.376159131526947,-0.5385217666625977,-0.5630554556846619
1772806395431236900,7.05023681640625,0.4141271114349365,-0.5884949564933777,-0.5387578010559082
1772806395441169000,7.0601689453125,0.3939126431941986,-0.5878901481628418,-0.5004887580871582
1772806395451100200,7.07010009765625,0.3450075387954712,-0.5589725971221924,-0.47186771035194397
1772806395461032200,7.0800322265625,0.28966543078422546,-0.5345697999000549,-0.44706541299819946
1772806395470963000,7.089962890625,0.2471592128276825,-0.542504072189331,-0.4314365088939667
1772806395480895000,7.09989501953125,0.2239913046360016,-0.6102091073989868,-0.42162010073661804
1772806395490826200,7.109826171875,0.2106594294309616,-0.600762128829956,-0.4158557653427124
1772806395500758300,7.11975830078125,0.19912955164909363,-0.5653431415557861,-0.39608234167099
1772806395510689000,7.12968896484375,0.17760144174098969,-0.5567488074302673,-0.34253695607185364
1772806395520621000,7.13962109375,0.15223322808742523,-0.6034843921661377,-0.2622900605201721
1772806395530552000,7.149552001953125,0.1447448879480362,-0.6761491894721985,-0.1652529090642929
1772806395540484000,7.159484130859375,0.1419389843940735,-0.7367350459098816,-0.03673462197184563
1772806395550415000,7.1694150390625,0.13589094579219818,-0.8163071274757385,0.11223571747541428
1772806395560346000,7.17934619140625,0.13694395124912262,-0.8956493735313416,0.26904425024986267
1772806395570278100,7.189278076171875,0.1145966649055481,-1.0049928426742554,0.4181933104991913
1772806395580209000,7.199208984375,0.06825872510671616,-1.0776268243789673,0.5778319835662842
1772806395590141200,7.20914111328125,0.006196395959705114,-0.9982506036758423,0.7455062866210938
1772806395600072200,7.219072265625,-0.07051195949316025,-0.8583337068557739,0.9372280240058899
1772806395610004200,7.229004150390625,-0.15777108073234558,-0.7854284048080444,1.1736232042312622
1772806395619935000,7.23893505859375,-0.23595163226127625,-0.6842685341835022,1.459296464920044
1772806395629867000,7.248866943359375,-0.317358136177063,-0.5793628096580505,1.8098258972167969
1772806395639798300,7.25879833984375,-0.39634591341018677,-0.6285644173622131,2.1568944454193115
1772806395649730000,7.26872998046875,-0.4802314341068268,-0.8158388733863831,2.430325508117676
1772806395659661000,7.2786611328125,-0.5483313798904419,-0.9734676480293274,2.5335237979888916
1772806395669593000,7.288593017578125,-0.5293988585472107,-0.6541475057601929,2.2085254192352295
1772806395679524000,7.298524169921875,-0.502242922782898,-0.7619711756706238,1.9865888357162476
1772806395689455900,7.308455810546875,-0.5365648865699768,-1.0413192510604858,1.851910948753357
1772806395699387100,7.31838720703125,-0.5719149112701416,-1.031814455986023,1.749849796295166
1772806395709319200,7.328319091796875,-0.5716144442558289,-0.8915726542472839,1.6690548658370972
1772806395719250200,7.338250244140625,-0.5431958436965942,-0.6824676394462585,1.596732497215271
1772806395729182000,7.348181884765625,-0.48973506689071655,-0.44270479679107666,1.4765082597732544
1772806395739113200,7.35811328125,-0.4271813929080963,-0.23490126430988312,1.3254361152648926
1772806395749045200,7.368045166015625,-0.35064950585365295,-0.1417766660451889,1.1459139585494995
1772806395758976000,7.37797607421875,-0.30347374081611633,-0.12352868914604187,0.9974812865257263
1772806395768907000,7.387906982421875,-0.30323705077171326,-0.12725700438022614,0.8751333951950073
1772806395778839000,7.397839111328125,-0.3256470263004303,-0.19488345086574554,0.7613045573234558
1772806395788770300,7.407770263671875,-0.36628592014312744,-0.29951995611190796,0.6548337340354919
1772806395798702000,7.4177021484375,-0.40339094400405884,-0.36475273966789246,0.5578637719154358
1772806395808633000,7.427633056640625,-0.4100649952888489,-0.40850508213043213,0.48206907510757446
1772806395818565000,7.437565185546875,-0.33594125509262085,-0.39033594727516174,0.41807544231414795
1772806395828496000,7.447495849609375,-0.24994392693042755,-0.3262529969215393,0.384075403213501
1772806395838428000,7.457427978515625,-0.21130038797855377,-0.19691523909568787,0.38357633352279663
1772806395848359200,7.467359130859375,-0.18306390941143036,-0.06796295940876007,0.4025970697402954
1772806395858291200,7.477291259765625,-0.17644701898097992,0.017480306327342987,0.4011017084121704
1772806395868222000,7.487221923828125,-0.18051667511463165,0.0901617556810379,0.35672688484191895
1772806395878154000,7.497154052734375,-0.192093163728714,0.10876580327749252,0.30577316880226135
1772806395888085200,7.507085205078125,-0.16752630472183228,0.10939506441354752,0.2354188710451126
1772806395898017300,7.517017333984375,-0.13202343881130219,0.11229578405618668,0.15422548353672028
1772806395907948000,7.526947998046875,-0.07473526895046234,0.1317625343799591,0.07630910724401474
1772806395917880000,7.536880126953125,0.012329326942563057,0.16980525851249695,0.000505689182318747
1772806395927811000,7.54681103515625,0.11535165458917618,0.2286091297864914,-0.075323686003685
1772806395937742000,7.5567421875,0.18616510927677155,0.26755332946777344,-0.15770778059959412
1772806395947674000,7.566674072265625,0.24716809391975403,0.319149911403656,-0.2348029613494873
1772806395957605000,7.576605224609375,0.2863466441631317,0.3533656597137451,-0.2980642318725586
1772806395967537200,7.586537109375,0.3080216348171234,0.35369154810905457,-0.3505997657775879
1772806395977468000,7.596468017578125,0.30765971541404724,0.2959347665309906,-0.39325958490371704
1772806395987400000,7.60639990234375,0.2841744124889374,0.247876837849617,-0.41400623321533203
1772806395997331200,7.616331298828125,0.2658446729183197,0.2122032791376114,-0.41825079917907715
1772806396007263200,7.62626318359375,0.2586289048194885,0.20278094708919525,-0.4359084665775299
1772806396017194000,7.636194091796875,0.2592739164829254,0.18682248890399933,-0.45542728900909424
1772806396027126000,7.6461259765625,0.2775382399559021,0.18862920999526978,-0.49474430084228516
1772806396037057300,7.656057373046875,0.28155189752578735,0.17055566608905792,-0.5240563750267029
1772806396046989300,7.6659892578125,0.2693195641040802,0.12943297624588013,-0.566504955291748
1772806396056920000,7.675920166015625,0.219091534614563,0.09186376631259918,-0.6229344010353088
1772806396066852000,7.68585205078125,0.1519421488046646,0.06276392936706543,-0.6593985557556152
1772806396076783000,7.695783203125,0.07191069424152374,0.059120722115039825,-0.6922163963317871
1772806396086715000,7.70571484375,-0.010717594064772129,0.10700999200344086,-0.7255999445915222
1772806396096646100,7.715646240234375,-0.09096236526966095,0.15799488127231598,-0.7401298880577087
1772806396106578200,7.725578125,-0.16889239847660065,0.19064950942993164,-0.7018595933914185
1772806396116509200,7.73550927734375,-0.24539463222026825,0.20356984436511993,-0.6085203289985657
1772806396126440000,7.74543994140625,-0.34231603145599365,0.17945334315299988,-0.48762795329093933
1772806396136372000,7.7553720703125,-0.4474235475063324,0.12419301271438599,-0.3769128620624542
1772806396146303200,7.76530322265625,-0.5479408502578735,0.08476664870977402,-0.304334431886673
1772806396156235000,7.775235107421875,-0.6259081363677979,0.0477798730134964,-0.2550387680530548
1772806396166166000,7.785166015625,-0.675512969493866,0.05262041091918945,-0.20801909267902374
1772806396176098000,7.79509814453125,-0.688809335231781,0.11625824123620987,-0.1442078948020935
1772806396186029300,7.805029296875,-0.6516571640968323,0.23411917686462402,-0.03658540919423103
1772806396195961000,7.814961181640625,-0.5827273726463318,0.4144676625728607,0.10095088928937912
1772806396205892000,7.82489208984375,-0.5156049728393555,0.6014130711555481,0.20747974514961243
1772806396215824100,7.83482421875,-0.40936803817749023,0.7379373908042908,0.2594963312149048
1772806396225755000,7.8447548828125,-0.27670344710350037,0.854222297668457,0.23525270819664001
1772806396235687000,7.85468701171875,-0.15727104246616364,0.9198156595230103,0.17497286200523376
1772806396245618200,7.8646181640625,-0.057166051119565964,0.9195857048034668,0.09900230914354324
1772806396255550200,7.87455029296875,-0.0015448688063770533,0.8441088199615479,0.045940421521663666
1772806396265481000,7.88448095703125,0.010251155123114586,0.7537828683853149,0.013822803273797035
1772806396275413000,7.8944130859375,0.000476821674965322,0.6642490029335022,-0.011335546150803566
1772806396285344000,7.904343994140625,-0.015053530223667622,0.5528667569160461,-0.016007624566555023
1772806396295276300,7.9142763671875,-0.02200358361005783,0.43944835662841797,-0.018355732783675194
1772806396305207000,7.92420703125,-0.03737601637840271,0.32791227102279663,-0.035045135766267776
1772806396315138000,7.934137939453125,-0.03913343697786331,0.2883211672306061,-0.05409632623195648
1772806396325070000,7.944070068359375,-0.059525176882743835,0.3286893665790558,-0.09320101141929626
1772806396335001000,7.9540009765625,-0.1269683986902237,0.40448692440986633,-0.09327797591686249
1772806396344933000,7.96393310546875,-0.26506170630455017,0.34760376811027527,0.00655778544023633
1772806396354864000,7.973864013671875,-0.4379056394100189,0.02361612766981125,0.13867773115634918
1772806396364796200,7.983796142578125,-0.4565775394439697,-0.2964320480823517,0.1743200719356537
1772806396374727000,7.993726806640625,-0.3052617907524109,-0.18064922094345093,0.15817677974700928
1772806396384659000,8.003658935546875,-0.126144140958786,0.35599133372306824,0.19472792744636536
1772806396394590200,8.013590087890625,-0.021522389724850655,0.7459889054298401,0.20293419063091278
1772806396404522200,8.023522216796875,0.016039762645959854,0.776233434677124,0.07224734872579575
1772806396414453000,8.033452880859375,0.0030648428946733475,0.6871805191040039,-0.16326503455638885
1772806396424385000,8.043385009765625,-0.06807638704776764,0.5524954199790955,-0.38213154673576355
1772806396434316000,8.05331591796875,-0.1252904087305069,0.44633620977401733,-0.4982115626335144
1772806396444248300,8.063248291015626,0.10780149698257446,0.4563245475292206,-0.5149711966514587
1772806396454179000,8.073178955078125,0.28886929154396057,0.6392296552658081,-0.4907739460468292
1772806396464110000,8.083110107421875,0.28021320700645447,0.7439866662025452,-0.49406981468200684
1772806396474042000,8.0930419921875,0.13014167547225952,0.7325699329376221,-0.5596848130226135
1772806396483973000,8.10297314453125,-0.04074271395802498,0.6621019244194031,-0.6662277579307556
1772806396493905200,8.1129052734375,-0.16933611035346985,0.49129635095596313,-0.7255270481109619
1772806396503836200,8.122836181640626,-0.05573364719748497,0.22746628522872925,-0.7581307888031006
1772806396513768200,8.132768310546876,0.07373134046792984,0.03700723871588707,-0.816176176071167
1772806396523699000,8.142698974609376,0.22279387712478638,-0.11369840055704117,-0.8661137819290161
1772806396533631000,8.152630859375,0.31243905425071716,-0.3482954800128937,-0.8635672926902771
1772806396543562200,8.162562255859376,0.2915838956832886,-0.5638594031333923,-0.8497872948646545
1772806396553494000,8.172493896484376,0.14262528717517853,-0.7203059792518616,-0.9138213992118835
1772806396563425000,8.182425048828126,-0.03977343440055847,-0.734483003616333,-1.0061770677566528
1772806396573357000,8.192357177734374,-0.11447616666555405,-0.8268209099769592,-1.0309178829193115
1772806396583288300,8.202288330078124,-0.13140715658664703,-0.814716637134552,-1.0173873901367188
1772806396593220000,8.21222021484375,-0.1222088634967804,-0.7746539115905762,-0.9838725328445435
1772806396603151000,8.222151123046874,-0.07481802999973297,-0.6999675035476685,-0.9756912589073181
1772806396613083100,8.232083251953124,-0.023437662050127983,-0.6121875643730164,-0.9871430993080139
1772806396623014000,8.242013916015624,0.004601065069437027,-0.560265064239502,-0.9838550090789795
1772806396632945200,8.251945068359374,0.03174826502799988,-0.5321860313415527,-0.9584894776344299
1772806396642877200,8.261877197265624,0.058251459151506424,-0.4935612380504608,-0.9210972785949707
1772806396652808200,8.27180810546875,0.06231437996029854,-0.5143733024597168,-0.8753793239593506
1772806396662740000,8.281739990234374,0.043133728206157684,-0.5338430404663086,-0.8083021640777588
1772806396672671000,8.2916708984375,0.033515721559524536,-0.5449502468109131,-0.7221565842628479
1772806396682603000,8.30160302734375,0.04221070930361748,-0.576749324798584,-0.6188881397247314
1772806396692534000,8.311533935546874,0.07846485078334808,-0.57965087890625,-0.5194520950317383
1772806396702466000,8.321466064453125,0.11667154729366302,-0.5592939257621765,-0.43468719720840454
1772806396712397000,8.33139697265625,0.1388825923204422,-0.5295421481132507,-0.36004969477653503
1772806396722329000,8.3413291015625,0.15265704691410065,-0.5055696964263916,-0.2891109883785248
1772806396732260000,8.351260009765625,0.16605888307094574,-0.49376794695854187,-0.2530193030834198
1772806396742192000,8.361192138671875,0.18004624545574188,-0.49041634798049927,-0.23119747638702393
1772806396752123100,8.371123046875,0.204096719622612,-0.49204379320144653,-0.23346328735351562
1772806396762055200,8.38105517578125,0.22706840932369232,-0.4830685257911682,-0.27788224816322327
1772806396771986000,8.39098583984375,0.23628507554531097,-0.4749954044818878,-0.3284338414669037
1772806396781918000,8.40091796875,0.2179611325263977,-0.5016692280769348,-0.36433959007263184
1772806396791849200,8.41084912109375,0.2141837179660797,-0.5356005430221558,-0.3900239169597626
1772806396801781200,8.42078125,0.2262319177389145,-0.547113299369812,-0.4126933217048645
1772806396811712000,8.4307119140625,0.2387453019618988,-0.5569912195205688,-0.44023680686950684
1772806396821643000,8.44064306640625,0.24858935177326202,-0.5665621757507324,-0.4579150676727295
1772806396831575000,8.450574951171875,0.2588638365268707,-0.5734086632728577,-0.45018818974494934
1772806396841506000,8.460506103515625,0.2638609707355499,-0.6120014190673828,-0.42333513498306274
1772806396851438000,8.47043798828125,0.24572376906871796,-0.6377786993980408,-0.398504376411438
1772806396861369000,8.480369140625,0.2197149395942688,-0.6640797257423401,-0.39052870869636536
1772806396871301000,8.490301025390625,0.1960972249507904,-0.700999915599823,-0.4038304090499878
1772806396881232100,8.500232177734375,0.18149860203266144,-0.7178943753242493,-0.42333945631980896
1772806396891164200,8.5101640625,0.1893080621957779,-0.7230861783027649,-0.46112731099128723
1772806396901095200,8.52009521484375,0.2058982402086258,-0.6977946758270264,-0.4587624967098236
1772806396911027200,8.530027099609375,0.21383871138095856,-0.6904630064964294,-0.4025524854660034
1772806396920958000,8.5399580078125,0.2034628838300705,-0.7048175930976868,-0.3173361122608185
1772806396930890000,8.549889892578125,0.18201830983161926,-0.7365869879722595,-0.24095529317855835
1772806396940821200,8.5598212890625,0.16577231884002686,-0.8045960664749146,-0.19801495969295502
1772806396950753000,8.5697529296875,0.15788856148719788,-0.8464308977127075,-0.17160092294216156
1772806396960684000,8.57968408203125,0.13846972584724426,-0.8422626852989197,-0.15472091734409332
1772806396970616000,8.589615966796876,0.14252838492393494,-0.8044820427894592,-0.13565081357955933
1772806396980547000,8.599547119140626,0.15142595767974854,-0.7590848207473755,-0.09849701821804047
1772806396990478000,8.60947802734375,0.16002397239208221,-0.7350519299507141,-0.06002339348196983
1772806397000410000,8.61941015625,0.1662820428609848,-0.7246842384338379,-0.010056470520794392
1772806397010341000,8.629341064453126,0.18136219680309296,-0.7681630253791809,0.05226869136095047
1772806397020273000,8.63927294921875,0.1958732008934021,-0.786450207233429,0.10249917954206467
1772806397030204200,8.6492041015625,0.21356938779354095,-0.7682544589042664,0.13119366765022278
1772806397040136200,8.65913623046875,0.23037324845790863,-0.7341365814208984,0.16545389592647552
1772806397050067200,8.669067138671876,0.192635178565979,-0.7375627756118774,0.226760134100914
1772806397059999000,8.6789990234375,0.16116410493850708,-0.7842931747436523,0.3007824718952179
1772806397069930000,8.688929931640626,0.13859140872955322,-0.8087103962898254,0.3695298433303833
1772806397079862000,8.698862060546874,0.11355341225862503,-0.7891537547111511,0.4474930465221405
1772806397089793000,8.70879296875,0.08895512670278549,-0.7657269835472107,0.5517326593399048
1772806397099725000,8.71872509765625,0.059540074318647385,-0.7416818737983704,0.6908912062644958
1772806397109656000,8.728656005859374,0.03428904712200165,-0.5991404056549072,0.8672531843185425
1772806397119588000,8.738588134765624,-0.015335068106651306,-0.4573846757411957,1.0742294788360596
1772806397129519000,8.74851904296875,-0.08595836907625198,-0.4187951982021332,1.3189343214035034
1772806397139451100,8.758451171875,-0.17230643332004547,-0.4479247033596039,1.556315302848816
1772806397149382100,8.768382080078124,-0.24926085770130157,-0.5057448148727417,1.7829865217208862
1772806397159313200,8.778313232421874,-0.2909320890903473,-0.5558661818504333,2.012702226638794
1772806397169245000,8.788244873046875,-0.27144360542297363,-0.6450874209403992,2.2333898544311523
1772806397179176200,8.79817626953125,-0.18654972314834595,-0.7553879618644714,2.3770782947540283
1772806397189108200,8.808108154296875,-0.12885554134845734,-0.7378566265106201,2.397639036178589
1772806397199039200,8.818039306640625,-0.20914043486118317,-0.59357088804245,2.2210469245910645
1772806397208971000,8.827970947265625,-0.27190157771110535,-0.1625252068042755,1.6078474521636963
1772806397218902000,8.837902099609375,-0.21299602091312408,-0.4329991340637207,1.2739920616149902
1772806397228834000,8.847833984375,-0.23396016657352448,-0.5525223612785339,1.1913379430770874
1772806397238765300,8.857765380859375,-0.27965131402015686,-0.3698423206806183,1.099233627319336
1772806397248697000,8.867697021484375,-0.32972729206085205,-0.25283899903297424,0.9890264868736267
1772806397258628000,8.877628173828125,-0.33428487181663513,-0.19623202085494995,0.8904162645339966
1772806397268560100,8.88756005859375,-0.2994464635848999,-0.10716206580400467,0.7863742709159851
1772806397278491100,8.8974912109375,-0.24414421617984772,-0.004560562781989574,0.6729990839958191
1772806397288423200,8.907423095703125,-0.2013339102268219,0.035553835332393646,0.5807058811187744
1772806397298354200,8.917354248046875,-0.17800790071487427,0.036374326795339584,0.5137888193130493
1772806397308286200,8.9272861328125,-0.1789059191942215,0.017846714705228806,0.48590850830078125
1772806397318217000,8.937217041015625,-0.19337961077690125,-0.006200607866048813,0.4701565206050873
1772806397328148200,8.947148193359375,-0.21014660596847534,-0.004506837576627731,0.45083367824554443
1772806397338080300,8.957080322265625,-0.20523782074451447,0.048279836773872375,0.4220655858516693
1772806397348011000,8.967010986328125,-0.18078254163265228,0.0779128223657608,0.40172943472862244
1772806397357943000,8.976943115234375,-0.15672984719276428,0.10820409655570984,0.3810301423072815
1772806397367874000,8.9868740234375,-0.13300427794456482,0.12029325217008591,0.3661169707775116
1772806397377806000,8.99680615234375,-0.1327776163816452,0.1586674004793167,0.3513270616531372
1772806397387737000,9.006737060546875,-0.13918064534664154,0.16499987244606018,0.3416059911251068
1772806397397669000,9.016669189453125,-0.15211640298366547,0.1578216254711151,0.33428969979286194
1772806397407600000,9.02660009765625,-0.1601295918226242,0.16306404769420624,0.3078674376010895
1772806397417532200,9.0365322265625,-0.15661576390266418,0.16432097554206848,0.27599117159843445
1772806397427463200,9.046463134765625,-0.13669238984584808,0.17981071770191193,0.22218120098114014
1772806397437395200,9.056395263671876,-0.11815298348665237,0.20439748466014862,0.16316136717796326
1772806397447326200,9.066326171875,-0.08584138005971909,0.2244875729084015,0.11165103316307068
1772806397457258200,9.07625830078125,-0.05660301446914673,0.2522280216217041,0.06434095650911331
1772806397467189000,9.08618896484375,-0.032090745866298676,0.27337589859962463,0.003364689415320754
1772806397477120300,9.096120361328126,-0.024081628769636154,0.275414377450943,-0.03986681252717972
1772806397487052300,9.10605224609375,-0.01217410247772932,0.2789513170719147,-0.07458537817001343
1772806397496983000,9.115983154296876,0.011565919034183025,0.3017503023147583,-0.12044353783130646
1772806397506915000,9.1259150390625,0.03643665090203285,0.30989930033683777,-0.18250982463359833
1772806397516846000,9.13584619140625,0.06308244168758392,0.31965121626853943,-0.24734967947006226
1772806397526778000,9.145778076171876,0.08123694360256195,0.31575101613998413,-0.29050594568252563
1772806397536709000,9.155709228515626,0.09783849120140076,0.3168392479419708,-0.3175813555717468
1772806397546641200,9.16564111328125,0.10703252255916595,0.34272143244743347,-0.34004005789756775
1772806397556572200,9.175572265625,0.1149032935500145,0.36040690541267395,-0.3470730781555176
1772806397566504200,9.185504150390624,0.11075915396213531,0.3936053216457367,-0.3513527810573578
1772806397576435200,9.195435302734374,0.10324232280254364,0.4230024814605713,-0.3630199730396271
1772806397586367200,9.2053671875,0.09503632038831711,0.44110530614852905,-0.3996909260749817
1772806397596298200,9.21529833984375,0.09688262641429901,0.4663710296154022,-0.4438156485557556
1772806397606230000,9.22522998046875,0.10514135658740997,0.5056535005569458,-0.48154836893081665
1772806397616161000,9.2351611328125,0.10702872276306152,0.5369676351547241,-0.49946796894073486
1772806397626093000,9.245093017578125,0.111662358045578,0.5485886335372925,-0.48802170157432556
1772806397636024300,9.2550244140625,0.11284205317497253,0.5573096871376038,-0.44196027517318726
1772806397645956000,9.2649560546875,0.1093842014670372,0.552345871925354,-0.3860807716846466
1772806397655887000,9.27488720703125,0.09050870686769485,0.5603657364845276,-0.33629152178764343
1772806397665818000,9.284818115234375,0.05434484779834747,0.5796754956245422,-0.2955875098705292
1772806397675750100,9.294750244140625,0.007618567440658808,0.5893096327781677,-0.26273301243782043
1772806397685681200,9.30468115234375,-0.040139101445674896,0.5776979923248291,-0.24844753742218018
1772806397695613200,9.31461328125,-0.08512769639492035,0.5567668676376343,-0.23030592501163483
1772806397705544200,9.324544189453125,-0.13172262907028198,0.5312061309814453,-0.19475804269313812
1772806397715476000,9.33447607421875,-0.17023448646068573,0.5077440142631531,-0.13466885685920715
1772806397725407200,9.3444072265625,-0.20479273796081543,0.51283198595047,-0.04159403592348099
1772806397735339300,9.35433935546875,-0.2376624047756195,0.5526255965232849,0.061654530465602875
1772806397745270000,9.36427001953125,-0.2573077380657196,0.6073522567749023,0.15077055990695953
1772806397755202000,9.3742021484375,-0.2602108120918274,0.6464123725891113,0.21110206842422485
1772806397765133000,9.384133056640625,-0.2674972414970398,0.6532476544380188,0.2562093436717987
1772806397775065000,9.394065185546875,-0.2712631821632385,0.6374908685684204,0.2861485481262207
1772806397784996000,9.40399609375,-0.2533571422100067,0.6372475028038025,0.2801295220851898
1772806397794928000,9.41392822265625,-0.21178433299064636,0.651722252368927,0.252610981464386
1772806397804859100,9.423859130859375,-0.17308621108531952,0.651277482509613,0.23323114216327667
1772806397814791200,9.433791259765625,-0.14001931250095367,0.6469296216964722,0.22331666946411133
1772806397824722200,9.44372216796875,-0.1415349245071411,0.6435612440109253,0.28403887152671814
1772806397834653200,9.453653076171875,-0.12123031169176102,0.5982349514961243,0.17999345064163208
1772806397844585200,9.463585205078125,-0.11372099071741104,0.5533612370491028,0.059757329523563385
1772806397854516000,9.473515869140625,-0.12980803847312927,0.5025304555892944,-0.038961153477430344
1772806397864448000,9.483447998046875,-0.13467682898044586,0.4758639335632324,-0.1119978129863739
1772806397874379300,9.493379150390625,-0.1131165400147438,0.4447159767150879,-0.17786306142807007
1772806397884311300,9.503311279296875,-0.08298074454069138,0.4282650947570801,-0.23979540169239044
1772806397894242000,9.513241943359375,-0.07353299111127853,0.42031610012054443,-0.2274133861064911
1772806397904174000,9.523174072265626,-0.11438988149166107,0.3614833950996399,-0.06837181746959686
1772806397914105000,9.53310498046875,-0.188847616314888,0.2345142811536789,0.1465173214673996
1772806397924037000,9.543037109375,-0.232669398188591,0.18061377108097076,0.302364706993103
1772806397933968100,9.552968017578126,-0.2376163750886917,0.21661201119422913,0.35524848103523254
1772806397943900200,9.562900146484376,-0.19870519638061523,0.26294755935668945,0.31762415170669556
1772806397953831200,9.5728310546875,-0.1272965669631958,0.2337874174118042,0.1792496293783188
1772806397963763200,9.58276318359375,-0.0670875608921051,0.205373615026474,-0.06120480224490166
1772806397973694200,9.592694091796876,0.016826389357447624,0.29134753346443176,-0.24955080449581146
1772806397983626200,9.602626220703126,0.07355146110057831,0.34846967458724976,-0.3833748996257782
1772806397993557200,9.61255712890625,0.09375359863042831,0.34024643898010254,-0.520111083984375
1772806398003489000,9.622489013671874,0.08935166150331497,0.3506580889225006,-0.6592333316802979
1772806398013420000,9.632419921875,0.043100155889987946,0.3784632384777069,-0.7655234932899475
1772806398023351300,9.642351318359376,-0.0179501473903656,0.35948261618614197,-0.8272110819816589
1772806398033283300,9.652283447265624,-0.07129569351673126,0.36514949798583984,-0.8822503089904785
1772806398043214000,9.662214111328124,-0.0750448927283287,0.3355417847633362,-0.924051821231842
1772806398053146000,9.67214599609375,-0.021103793755173683,0.3082050085067749,-0.9005581140518188
1772806398063077000,9.6820771484375,0.06458767503499985,0.30475515127182007,-0.7990347146987915
1772806398073009000,9.6920087890625,0.1402009278535843,0.2770390510559082,-0.6452983617782593
1772806398082940200,9.701940185546874,0.17834271490573883,0.22485654056072235,-0.4858730435371399
1772806398092872200,9.7118720703125,0.19602181017398834,0.10120584815740585,-0.36112362146377563
1772806398102803200,9.72180322265625,0.20605207979679108,-0.043336160480976105,-0.28772422671318054
1772806398112735000,9.73173486328125,0.18260791897773743,-0.14352986216545105,-0.25456637144088745
1772806398122666200,9.741666259765625,0.12039860337972641,-0.19186091423034668,-0.2532219886779785
1772806398132598300,9.751598388671875,0.04105313867330551,-0.21068212389945984,-0.29482924938201904
1772806398142529000,9.761529052734375,-0.02363744005560875,-0.24572798609733582,-0.37029576301574707
1772806398152461000,9.7714609375,-0.08883611857891083,-0.31277671456336975,-0.46541863679885864
1772806398162392000,9.78139208984375,-0.14731861650943756,-0.3302731513977051,-0.5715591907501221
1772806398172324000,9.791323974609375,-0.17609278857707977,-0.2653486430644989,-0.6821668744087219
1772806398182255000,9.801255126953125,-0.1675078123807907,-0.13279858231544495,-0.7835584282875061
1772806398192187400,9.8111875,-0.15254102647304535,0.05643155053257942,-0.8556029796600342
1772806398202118400,9.821118408203125,-0.12381617724895477,0.2219153195619583,-0.8903295397758484
1772806398212049200,9.831049072265625,-0.08855215460062027,0.24583964049816132,-0.8555172681808472
1772806398221981200,9.840981201171875,-0.05801448971033096,0.1755249947309494,-0.751900315284729
1772806398231912400,9.850912353515625,-0.024036256596446037,0.10790662467479706,-0.6317625045776367
1772806398241844500,9.860844482421875,0.02431662753224373,0.061253633350133896,-0.4812398850917816
1772806398251775200,9.870775146484375,0.06275033205747604,0.0006375126540660858,-0.32426899671554565
1772806398261707300,9.880707275390625,0.06990917772054672,-0.0697125494480133,-0.17396631836891174
1772806398271638300,9.89063818359375,0.04355553165078163,-0.11955195665359497,-0.04278731718659401
1772806398281570600,9.900570556640625,-0.0011885062558576465,-0.16598230600357056,0.048151642084121704
1772806398291501300,9.910501220703125,-0.04452316835522652,-0.2233957201242447,0.09414275735616684
1772806398301433300,9.920433349609375,-0.07621078938245773,-0.2544575035572052,0.08912429213523865
1772806398311364400,9.9303642578125,-0.08408082276582718,-0.25441282987594604,0.05429964140057564
1772806398321296100,9.940296142578125,-0.06555747240781784,-0.24621187150478363,0.002839644206687808
1772806398331227400,9.950227294921875,-0.04839879646897316,-0.22896231710910797,-0.032327424734830856
1772806398341159400,9.960159423828125,-0.028344927355647087,-0.17589350044727325,-0.009169375523924828
1772806398351090400,9.97009033203125,-0.01945749670267105,-0.11996999382972717,0.18415147066116333
1772806398361022200,9.980022216796876,0.044777147471904755,-0.1927589774131775,0.2326202094554901
1772806398370953200,9.989953125,0.13514453172683716,-0.1426512897014618,0.19265694916248322
1772806398380884500,9.999884521484375,0.21384918689727783,-0.11967432498931885,0.06455382704734802
1772806398390816500,10.00981640625,0.26884785294532776,-0.1565571278333664,-0.06576070934534073
1772806398400747300,10.019747314453125,0.2922227084636688,-0.2337413877248764,-0.1497754454612732
1772806398410679300,10.02967919921875,0.3110533356666565,-0.32294386625289917,-0.1980491578578949
1772806398420610300,10.0396103515625,0.3349197804927826,-0.40606141090393066,-0.2409771829843521
1772806398430542300,10.049542236328126,0.35691606998443604,-0.461529403924942,-0.26485708355903625
1772806398440473300,10.059473388671876,0.39662274718284607,-0.5206603407859802,-0.268423855304718
1772806398450405400,10.0694052734375,0.4069178104400635,-0.5114840865135193,-0.24120233952999115
1772806398460336400,10.07933642578125,0.3872487545013428,-0.481764554977417,-0.1699574589729309
