time,seconds_elapsed,z,y,x
1772882798119439000,0.073439208984375,-0.04141571397185325,-0.5951107959792018,-0.2562204941689968
1772882798129372200,0.0833720703125,-0.001211129355430603,-0.5401134236395359,-0.33567484689503907
1772882798139304200,0.09330419921875,-0.1147995146125555,-0.49865796217918396,-0.4296472620561719
1772882798149237200,0.1032373046875,-0.1954664579987526,-0.4701169273495674,-0.45631373518556356
1772882798159170000,0.113170166015625,-0.3177110279202461,-0.47325785572379825,-0.38223084636479615
1772882798169102000,0.12310205078125,-0.39414135664999483,-0.5053618437319993,-0.27124855195283887
1772882798179035100,0.13303515625,-0.4648082995474338,-0.4777975449800491,-0.14024433699250222
1772882798188968200,0.14296826171875,-0.5505132371008395,-0.4241448652476072,-0.09601619594842195
1772882798198901200,0.1529013671875,-0.5693325038611888,-0.38613954424113034,-0.052419630806148046
1772882798208833000,0.1628330078125,-0.5454354954451323,-0.3875158010303974,-0.00682224723547697
1772882798218766000,0.17276611328125,-0.45107145061790943,-0.40181875941008327,0.0525698529317975
1772882798228699100,0.18269921875,-0.39781799933612344,-0.4234662353336811,0.047692894545197484
1772882798238631000,0.192630859375,-0.4081891712248325,-0.44564621069878335,-0.031122575755417346
1772882798248564000,0.20256396484375,-0.37523148899674413,-0.461566541147232,-0.0653621144875884
1772882798258497000,0.2124970703125,-0.26045301717221736,-0.5375266220167279,0.023787995083630085
1772882798268429000,0.222428955078125,-0.0819254190146923,-0.6122416712611913,0.1871723846450448
1772882798278362000,0.232362060546875,0.006757073044776916,-0.6704194272026419,0.4126397208929062
1772882798288295000,0.242294921875,-0.0029810616374015804,-0.7113020572111011,0.5914969893962144
1772882798298227000,0.25222705078125,0.06377309173047542,-0.7036959661215544,0.6575000321358442
1772882798308160000,0.262159912109375,0.11799626482725142,-0.6658040423616767,0.672010203525424
1772882798318093000,0.272093017578125,0.1458691911369562,-0.7026303827166557,0.6425023694902658
1772882798328025000,0.282025146484375,0.21695406718552113,-0.7567863357961178,0.6492834079325199
1772882798337958100,0.291958251953125,0.2827589570045471,-0.7744336361676454,0.5738450128495692
1772882798347891200,0.30189111328125,0.3090712098687887,-0.7494710443466901,0.43287148479968307
1772882798357823200,0.3118232421875,0.2935217585593462,-0.6897907748878002,0.20646774448454377
1772882798367756000,0.321756103515625,0.30125264507234095,-0.5891729303628206,0.054631461636722084
1772882798377689000,0.331689208984375,0.3821399532109499,-0.5202835185319185,0.0029509587600827216
1772882798387621000,0.34162109375,0.36949265308380125,-0.49312838510274887,0.01092617542296648
1772882798397554200,0.35155419921875,0.40365211231708525,-0.4669534948825836,0.000009644611179828643
1772882798407487200,0.3614873046875,0.4604910208702087,-0.5002221427559852,-0.0017868834167718887
1772882798417419300,0.371419189453125,0.4754296468049288,-0.5994195990890264,0.014346505260467528
1772882798427352000,0.38135205078125,0.5113397490978241,-0.7000339364826679,-0.0111126379057765
1772882798437285000,0.39128515625,0.5510334615826606,-0.8142612041652202,-0.03747106799930334
1772882798447217000,0.401216796875,0.508430583652854,-0.9917553676217794,0.038647126041352745
1772882798457150000,0.41114990234375,0.520407437172532,-1.1250830570936203,0.07883329821825028
1772882798467083000,0.4210830078125,0.5626157628268003,-1.2412456767529247,0.04107084605693817
1772882798477015000,0.43101513671875,0.6690005003154278,-1.3340151458650826,-0.06892477540522814
1772882798486948000,0.440947998046875,0.854756296160817,-1.4454741178780792,-0.14574848736673593
1772882798496881000,0.450880859375,1.1286346120953559,-1.5286217721641062,-0.27305706267952917
1772882798506814000,0.46081396484375,1.7058324425041675,-1.6854250297695397,-0.47056642468273635
1772882798516746000,0.47074609375,2.3496938253879547,-1.9646336008161305,-0.575872719284892
1772882798526679000,0.480678955078125,2.872528781968355,-2.1700971366941926,-0.7518421573922037
1772882798536612000,0.490612060546875,3.33287776401937,-2.4170932909220455,-0.9267135711297392
1772882798546544000,0.500544189453125,3.7322453308850525,-2.4878999345511197,-0.9923071562856435
1772882798556477200,0.510477294921875,3.7389761004447934,-2.1703011348336934,-1.0110676785960793
1772882798566410000,0.520409912109375,3.2108798623353243,-1.5986586004644632,-0.9780176419094204
1772882798576342000,0.530342041015625,2.5156278994321823,-0.96325700289011,-1.0047016506955027
1772882798586275000,0.540275146484375,1.996705147859454,-0.4197761486440897,-0.9128186090290545
1772882798596208000,0.5502080078125,1.9343775787621735,0.23461598060429095,-0.9260001621633768
1772882798606140200,0.56014013671875,2.064522546544671,1.1076795023500918,-1.2495102317512035
1772882798616073200,0.5700732421875,1.942923873311281,2.0651760420173404,-1.4446442429251969
1772882798626006000,0.580006103515625,1.3361024735331535,2.8313901313722134,-1.4411306818462908
1772882798635938000,0.58993798828125,-0.13332710494995118,3.5959967855304478,-0.6757853381499648
1772882798645871000,0.59987109375,-2.116792832008004,4.2162043211042874,0.4906988198682666
1772882798655804200,0.60980419921875,-4.801204934218526,4.026182684507966,2.1083660721853374
1772882798665736200,0.619736083984375,-7.104075633633136,3.109584556940198,4.219246173018217
1772882798675669200,0.629669189453125,-8.272968021836876,1.766731440103054,6.469167957055569
1772882798685602300,0.639602294921875,-9.74991630538702,0.30384675321877,8.73854029149413
1772882798695534000,0.6495341796875,-11.92684299584031,0.15030278967022895,9.584219547230004
1772882798705467000,0.659466796875,-13.499341319131851,1.5509423250436782,8.155271032217145
1772882798715400000,0.66939990234375,-13.099804240918159,3.331637408569455,5.04152234133482
1772882798725332000,0.67933203125,-11.178236459368467,5.182483886685967,1.806928864326328
1772882798735265000,0.68926513671875,-9.142771665003895,6.829533885353803,-0.41700332292988895
1772882798745198000,0.699197998046875,-7.942302235275506,8.211037343102694,-1.3831674454383551
1772882798755130000,0.709130126953125,-8.054919145151972,9.27006767309606,-2.1417899106204508
1772882798765063200,0.719063232421875,-8.712056773716212,9.557229833495617,-2.6851433390945196
1772882798774996000,0.728995849609375,-9.619012628191708,9.16040727493763,-2.559480192901194
1772882798784929000,0.738928955078125,-10.852717388045788,8.104004955360294,-1.9711738162398338
1772882798794861000,0.748861083984375,-11.327851851296424,6.922452407547831,-1.082272089371085
1772882798804794000,0.758794189453125,-9.803557294681667,6.199924899706244,-0.16116481381580233
1772882798814727200,0.76872705078125,-6.78367989667356,5.8669145958453415,0.2417081308223307
1772882798824659200,0.7786591796875,-3.9280724388897417,5.1246273255229,-0.3313013079859316
1772882798834592000,0.788592041015625,-0.8793594070196151,3.9462960778445004,-1.2225276784099637
1772882798844525000,0.798525146484375,1.851641427886486,2.248784888961911,-2.8685756604284047
1772882798854457000,0.80845703125,3.92013112449646,0.21198563112318514,-4.085186077618599
1772882798864390100,0.81839013671875,6.6499295978754756,-1.7134604531645774,-3.8393458154276012
1772882798874323200,0.8283232421875,10.113874705219269,-3.3538732057750225,-2.910554268980026
1772882798884255200,0.838255126953125,13.06132867205143,-5.354549595353007,-1.6792536476582287
1772882798894188300,0.848188232421875,15.163913530486822,-6.74895286668539,-0.25568865231461824
1772882798904121000,0.85812109375,15.928564023786782,-7.51821289960742,1.3077500931434332
1772882798914053000,0.86805322265625,15.648801325988769,-8.509844933110475,2.356000962708145
1772882798923986200,0.877986083984375,15.23564254965782,-8.623461375418305,2.6316572481006384
1772882798933919200,0.887919189453125,14.932834491837024,-7.681953262999653,1.9810253481686113
1772882798943851000,0.89785107421875,12.9981196439445,-7.155628126215935,1.1557050629157573
1772882798953784000,0.9077841796875,10.20697267563343,-6.784091984605789,0.8812333111327141
1772882798963716900,0.917716796875,7.704138791322707,-6.671372783398628,1.1828764168273658
1772882798973649200,0.927649169921875,5.641060598367452,-7.072087673220038,1.7242720622971652
1772882798983582000,0.93758203125,3.7193893564432856,-7.716191048166156,2.101609145271033
1772882798993515000,0.947514892578125,2.6487814013808966,-8.101949191874265,2.7953616633966565
1772882799003447000,0.957447021484375,2.471818568322062,-8.334205457609892,3.058530661529302
1772882799013380000,0.967380126953125,2.8018945722967383,-7.947022249534726,2.2881001235231757
1772882799023313200,0.977313232421875,3.681192019996047,-7.220998716270923,0.6576379793018102
1772882799033245200,0.9872451171875,4.927691379493474,-6.400332321238517,-1.2566551350697874
1772882799043178000,0.997177978515625,6.060180913451314,-5.902935172775387,-3.047089522321522
1772882799053111000,1.007111083984375,6.799795165172219,-5.580773010665178,-4.40128265607953
1772882799063044000,1.017044189453125,6.924996831333637,-5.439090749824047,-4.977838681453466
1772882799072976100,1.02697607421875,6.654796327129006,-5.4344478924542665,-4.9979216845393175
1772882799082909200,1.0369091796875,6.218038064023852,-5.582704270988702,-4.695732635399699
1772882799092842000,1.046842041015625,5.4946244209975,-5.60027792160213,-4.063250140142441
1772882799102774000,1.05677392578125,4.688944582694768,-5.528765175530314,-3.3829183907344937
1772882799112707000,1.06670703125,3.3313141679644582,-5.458608520242572,-2.5183003335118292
1772882799122640100,1.07664013671875,1.497868321982026,-5.2190112440943714,-1.4752449867635964
1772882799132572200,1.086572265625,-0.7619879960924386,-5.013697930341959,-0.7371785490065813
1772882799142505200,1.096505126953125,-1.6174094781637192,-3.370910849815607,-0.9019343730516731
1772882799152438300,1.106438232421875,-1.3162813362538814,-2.016831990087032,-0.635734921181947
1772882799162370300,1.116370361328125,-1.9076321951776742,-0.7922738287627696,0.6167047881498933
1772882799172303000,1.12630322265625,-2.9083523750215767,2.2131565262198447,0.8053630274385213
1772882799182236200,1.136236083984375,-4.1421226013273,4.9769776807099575,1.0799858781300484
1772882799192168200,1.146168212890625,-5.731393195721506,7.350769005522132,1.4249454168513416
1772882799202101200,1.156101318359375,-6.996483273920417,9.924491951048374,1.0302646926276384
1772882799212034300,1.166034423828125,-9.239266292119027,12.293386151468754,1.3702398670651017
1772882799221966000,1.175966064453125,-12.58766954205036,14.804969159424305,2.1044535749167204
1772882799231899100,1.185899169921875,-16.5016807223618,17.144769367307422,4.020613359943032
1772882799241832000,1.19583203125,-19.86087541542053,17.02590099582076,5.904891567540169
1772882799251764000,1.205763916015625,-20.772467697525023,14.846722727048396,7.1954586168229575
1772882799261697000,1.215697021484375,-19.456468100821972,12.149556357204913,8.959058188641071
1772882799271630000,1.225630126953125,-16.302978351181746,10.000450570613145,10.168267974185943
1772882799281562000,1.23556201171875,-11.48787523999214,8.370523556181787,9.413154540038109
1772882799291495200,1.2454951171875,-7.252725395399332,7.005355731683969,8.022487532624602
1772882799301428000,1.255427978515625,-4.584117596042156,6.326328342872857,7.251902973100543
1772882799311361000,1.265361083984375,-3.232162888860702,6.305569632482528,6.6573167855173345
1772882799321293000,1.27529296875,-3.304773951563239,6.807304517889023,4.736447507625818
1772882799331226000,1.28522607421875,-4.2452930529445405,7.921161832091212,1.9937460057929157
1772882799341159200,1.2951591796875,-5.229754171904921,8.022213391858338,-0.17415157503038645
1772882799351091200,1.30509130859375,-6.096096276441216,6.884840177512168,-1.8244971081122754
1772882799361024300,1.315024169921875,-6.0720467078119515,5.235203084960579,-3.4160692574471234
1772882799370957000,1.32495703125,-4.590739060008525,3.5226252598494288,-4.860331953708827
1772882799380889000,1.33488916015625,-1.7601935627669094,1.542020767441392,-5.656686622044444
1772882799390822100,1.344822265625,1.9564660764515398,-0.4925561381727457,-5.555874716252088
1772882799400755200,1.354755126953125,6.201432966181636,-3.215020030879974,-5.136436421260237
1772882799410687200,1.364687255859375,9.989330626183747,-5.801577323538065,-4.437028507721424
1772882799420620300,1.374620361328125,11.939908229118585,-6.650840867501497,-3.498141391456127
1772882799430553000,1.384552978515625,11.961543722343444,-6.836783710351586,-2.9811481466412544
1772882799440485000,1.394485107421875,11.587197199487685,-6.661126699194312,-2.5686156855151054
1772882799450418200,1.404418212890625,11.344490851408242,-6.08210165335834,-2.0530688401162625
1772882799460351200,1.414351318359375,10.90358949714899,-5.613825969961285,-1.6254674046739934
1772882799470283000,1.424282958984375,10.216495706260204,-5.2051919775784015,-1.326589964300394
1772882799480216000,1.434216064453125,9.152696262168885,-5.094146262541413,-1.1632277865707874
1772882799490149000,1.444149169921875,7.934653181827068,-5.165111311602592,-1.4189929381877182
1772882799500081200,1.4540810546875,6.5886933311462395,-5.845479593628645,-1.8334236341506243
1772882799510014000,1.464013916015625,5.162775562131404,-6.552361788570881,-1.8289213542953133
1772882799519947000,1.473947021484375,3.562405481573939,-7.42514766241908,-0.8736772697299718
1772882799529879000,1.483879150390625,2.2128023059546944,-8.364206043598056,0.3655857087731361
1772882799539812000,1.49381201171875,1.8437106348872183,-8.758978099367022,0.7950754421800375
1772882799549745200,1.5037451171875,2.390924245920777,-8.875983599591255,0.18184183727204797
1772882799559677200,1.51367724609375,3.6066356684446332,-8.533924896878004,-1.015743853713572
1772882799569610200,1.5236103515625,4.8018408940345045,-8.042534295353294,-2.3537603441745043
1772882799579543000,1.53354296875,5.689671776801347,-7.403094236043096,-3.5624475671499964
1772882799589475000,1.54347509765625,5.941475623571872,-6.709454969033598,-4.808782091474533
1772882799599408000,1.553408203125,5.935776535147428,-6.11611907377243,-5.8004047726273535
1772882799609341200,1.563341064453125,5.779838954460621,-5.777482746723294,-6.22111790986061
1772882799619274200,1.573274169921875,5.414412820163369,-5.794575335821509,-6.393703258487582
1772882799629206300,1.583206298828125,5.067006911203265,-6.0511383598178625,-5.967687338671088
1772882799639139000,1.59313916015625,4.995076231980324,-6.267081788656115,-4.856506257940828
1772882799649072000,1.603072021484375,4.498041487088799,-6.342852776694297,-3.524145601284504
1772882799659004200,1.613004150390625,3.9603199270218608,-6.249288942334055,-2.5638097465381025
1772882799668937200,1.622937255859375,3.106882312244177,-6.109762398222088,-1.7433248455524444
1772882799678870300,1.632870361328125,1.705818413978815,-5.498828302428126,-1.0142805031627415
1772882799688802300,1.64280224609375,0.8060247062176465,-3.672517715153098,-1.0605912956997752
1772882799698735400,1.6527353515625,0.9789835643321275,-1.841758916297555,-1.2177087338209152
1772882799708668200,1.662668212890625,0.6004892741471529,-0.329026202660799,-1.1534215550884603
1772882799718600000,1.672599853515625,0.5225567241609096,2.6141724448144434,-1.71660751901865
1772882799728533000,1.682532958984375,0.945951647824049,5.604810888856649,-1.8580892888516187
1772882799738466000,1.692466064453125,1.4874866286993025,8.171611341643333,-0.782323512634635
1772882799748398000,1.702398193359375,-0.022407646641135214,9.333288391640782,1.9983143366217613
1772882799758331100,1.7123310546875,-4.316114309620857,10.068471382915973,4.337123487640917
1772882799768264000,1.722263916015625,-10.347040487015247,11.044760885858535,6.215571381649375
1772882799778196200,1.7321962890625,-16.054253765726088,13.648168775552511,7.742953382885456
1772882799788129000,1.74212890625,-20.489879420912263,15.26794439832568,9.152006526339054
1772882799798062000,1.75206201171875,-22.663674243080614,15.623479837727546,11.924024431288242
1772882799807994000,1.761994140625,-25.20014385501146,15.80728625307083,14.941480739629268
1772882799817927200,1.77192724609375,-26.6661878827095,15.856456234431265,16.532002210867404
1772882799827860200,1.781860107421875,-23.767104271292684,16.321325324255227,15.747398478341102
1772882799837792300,1.791792236328125,-17.60996462034583,16.222177552282808,12.80367493020892
1772882799847725000,1.80172509765625,-11.547565446323155,15.605691667580604,8.867921873688697
1772882799857658000,1.811658203125,-6.545961858400702,13.538686656570434,5.390643237519264
1772882799867591200,1.821591064453125,-2.45067407348454,10.650306809997558,2.9735683590367437
1772882799877523200,1.831523193359375,0.5090542685091495,7.565366864970326,1.6387971341073513
1772882799887456300,1.841456298828125,0.4987117381930351,5.557376937508582,0.18677666332572698
1772882799897389000,1.85138916015625,-1.2913409562647342,4.430573632493615,-2.158813526135683
1772882799907321000,1.861321044921875,-1.4993559301912784,2.588943895533681,-4.59450834941417
1772882799917254100,1.871254150390625,-0.02723988910317421,0.5579056854397059,-5.691238295465707
1772882799927187200,1.881187255859375,2.4474872601419686,-1.4936825607299804,-4.61561952650398
1772882799937119200,1.891119140625,4.933263042145967,-3.878661634510755,-2.6735245052322743
1772882799947052300,1.90105224609375,6.666661536967754,-5.93275104984641,-1.988530901493132
1772882799956985300,1.9109853515625,8.186300376731158,-6.90016692598164,-2.9382714202061293
1772882799966917000,1.920917236328125,9.808972889989613,-7.215678398030996,-4.834389703200757
1772882799976850000,1.930849853515625,11.149643986612558,-7.110802896061539,-5.929222875720262
1772882799986783000,1.940782958984375,11.436622022616863,-6.609250381484627,-6.083830084586143
1772882799996715000,1.950715087890625,12.116307583075761,-5.458659373646975,-6.430924443379044
1772882800006648000,1.96064794921875,12.717708126848935,-4.805286066052317,-6.417032111626863
1772882800016581000,1.9705810546875,12.35670857682228,-4.599275417685509,-5.933998419559002
1772882800026514000,1.980513916015625,10.654509522384405,-4.51525331865251,-4.917660983866453
1772882800036446700,1.99044677734375,8.270855559727549,-4.601302539598942,-3.5994647539019584
1772882800046379800,2.0003798828125,5.946865499916672,-4.988154908284544,-2.4378534626170993
1772882800056311800,2.010311767578125,3.695619189277291,-5.534594612336158,-1.5149343153342605
1772882800066244900,2.020244873046875,1.475848213353753,-6.17613602783978,-0.748682232056558
1772882800076178000,2.030177978515625,-0.2546341017603874,-6.666785455608368,-0.03334522024095058
1772882800086109700,2.040109619140625,-1.2759639389127493,-7.331178169867396,0.5425850744500756
1772882800096042800,2.050042724609375,-0.992367946562171,-7.753589927712082,0.27146979348808525
1772882800105975800,2.059975830078125,0.5190349797755479,-7.604654334741831,-0.8424427580326795
1772882800115907600,2.069907470703125,3.0461575021684166,-7.3266060396462676,-2.497973584797978
1772882800125840600,2.079840576171875,5.454810881525278,-6.922195802438258,-4.188214198155701
1772882800135773700,2.089773681640625,7.369760706239938,-6.602334318485855,-5.676472103488445
1772882800145705700,2.099705810546875,8.72990631866157,-6.562445960211753,-6.424006626814603
1772882800155638800,2.109638671875,9.154355719813704,-6.880207841536402,-6.4146835026741025
1772882800165571600,2.119571533203125,8.68576088746488,-7.3012407122433185,-5.753265420311689
1772882800175503600,2.129503662109375,7.555203198352456,-7.531987742459774,-4.878369130180776
1772882800185436700,2.139436767578125,6.139960552608967,-7.706202153593301,-4.062292108765244
1772882800195369700,2.14936962890625,4.780464344006776,-7.8592492735356085,-3.2631773280665275
1772882800205302800,2.159302734375,3.6675919491887092,-8.039996885830163,-2.4478698297187687
1772882800215234800,2.16923486328125,3.123377519971132,-8.102136238878964,-1.4026120044901966
1772882800225168000,2.17916796875,2.6627888839453457,-7.9601032649040215,-0.7520777197137475
1772882800235100700,2.1891005859375,1.919441875436902,-7.7412296278327695,-0.6406596642330289
1772882800245032700,2.19903271484375,0.8653080853134393,-6.881655702257156,-0.7113581713125109
1772882800254965800,2.2089658203125,0.036389410242438316,-4.117009202858806,-1.922503893356025
1772882800264898800,2.21889892578125,0.3909790932267904,-1.6889859371215104,-3.334272725509107
1772882800274830800,2.228830810546875,0.11432079118490218,0.04769698619842529,-2.5478598977342246
1772882800284764000,2.238763916015625,0.4018880252540111,3.605550211295485,-2.0723320512518284
1772882800294696700,2.24869677734375,0.8472802611917257,7.1385747000843285,-1.6263126233264802
1772882800304628700,2.258628662109375,0.4977098676741123,9.317017640319467,-0.20332769289314745
1772882800314561800,2.268561767578125,-1.9271072954982518,11.172363183420895,1.500554200065136
1772882800324494800,2.278494873046875,-8.134948959678411,12.255621361219882,3.714901105113327
1772882800334426600,2.288426513671875,-19.789173284256456,13.920880970317125,9.3097385892272
1772882800344360000,2.29835986328125,-31.017279982209203,18.015730363816022,14.65392987217307
1772882800354293000,2.30829296875,-33.42567383384704,21.16377470753193,14.47755623717904
1772882800364224800,2.318224853515625,-27.484361876404282,21.88090357120037,10.335689071917534
1772882800374157600,2.328157470703125,-18.91932755551338,21.05410904867649,7.1932964703530065
1772882800384090600,2.338090576171875,-12.047573654067516,18.503195900851487,6.795386116558313
1772882800394022700,2.348022705078125,-7.931185213455557,14.484155489313602,8.210980059957503
1772882800403955700,2.357955810546875,-5.548258396029472,11.448420012438296,9.264224207764864
1772882800413888800,2.367888671875,-4.910288993793726,9.606891397765278,8.9971994109869
1772882800423820800,2.37782080078125,-5.172305022498965,8.265843284523486,7.504836700683832
1772882800433753900,2.38775390625,-5.451306672796607,7.614072151428461,5.121611192572116
1772882800443686700,2.397686767578125,-5.763319196814298,7.398204710435867,1.9149591770648955
1772882800453618700,2.40761865234375,-5.487600805971026,6.819459066063165,-1.1460916505917906
1772882800463551700,2.4175517578125,-3.977977748787403,5.805724506345391,-3.2591224997177717
1772882800473484800,2.42748486328125,-1.7618565275430678,4.095716823983192,-4.510950945283472
1772882800483417900,2.43741796875,0.4828215106219053,2.336770046406984,-5.293151416060328
1772882800493350000,2.447349853515625,2.2463334041565655,0.8125614145100116,-5.275863012129068
1772882800503282700,2.45728271484375,3.468963227766752,-1.2654787852555514,-4.136176844665408
1772882800513215700,2.4672158203125,4.307917559161782,-3.1162948682338,-2.305108249208331
1772882800523147800,2.477147705078125,5.204375400498509,-4.550948316890001,-1.2732669549137352
1772882800533080800,2.487080810546875,6.481302631485462,-5.8994531758785245,-1.0427008342221378
1772882800543014000,2.497013916015625,8.420283320128917,-6.293114055535197,-0.9970309699371457
1772882800552946000,2.50694580078125,10.652614502418041,-6.605000322824716,-1.2261977452248334
1772882800562878700,2.516878662109375,13.014317914551496,-7.18756581774652,-1.2218141233131288
1772882800572811800,2.526811767578125,15.232109699356554,-6.986690194180607,-1.5231006706550716
1772882800582743600,2.53674365234375,16.109357813310623,-6.71226827288866,-2.1732631995096803
1772882800592676600,2.546676513671875,15.54711789805889,-6.527430760931968,-2.887432044328749
1772882800602610000,2.55660986328125,14.008442349392174,-5.939264377263188,-2.9723914242118594
1772882800612541700,2.566541748046875,11.706519159960745,-5.4899833171933885,-2.795930987717211
1772882800622474800,2.576474853515625,8.944277383616566,-5.377690232443809,-2.373503447781503
1772882800632407600,2.586407470703125,5.888990234053135,-5.741751508128643,-1.775013823018968
1772882800642339600,2.596339599609375,2.775468337664008,-6.457057248023152,-1.0487503435194492
1772882800652272600,2.606272705078125,0.44000002150535583,-7.255855510118603,-0.30530455081164837
1772882800662205700,2.616205810546875,-0.7372843474686145,-7.851887220335006,0.2773445307403803
1772882800672137700,2.6261376953125,-0.7158101822853088,-8.087070771694183,0.3939312210306525
1772882800682070800,2.63607080078125,0.26433015086650846,-7.72649500003755,-0.37565818997621536
1772882800692003800,2.64600390625,1.8905255775541066,-6.878842398402094,-1.7164590504586696
1772882800701935900,2.655935791015625,3.525823763629794,-6.425203727644681,-3.1416467516332864
1772882800711868700,2.66586865234375,4.765505844327807,-6.318057358133792,-4.342811762410402
1772882800721801700,2.6758017578125,5.731712344673276,-5.892685581439733,-5.112379253846407
1772882800731733800,2.685733642578125,6.18601970847249,-5.568361857381463,-5.552064802575111
1772882800741666800,2.695666748046875,6.174686413553356,-5.285329344132542,-5.695482508906721
1772882800751599900,2.705599853515625,6.07404518815279,-5.0600394102782005,-5.65011016626358
1772882800761532000,2.715531982421875,5.984447334814071,-4.879208211353421,-5.531764357346296
1772882800771464700,2.725464599609375,5.962459374889731,-4.830516953420639,-5.173256039613485
1772882800781397800,2.735397705078125,6.581132540503144,-4.982482123345136,-4.385406457033753
1772882800791329800,2.745329833984375,7.591219683629274,-5.288739444836974,-3.556036531063914
1772882800801262800,2.755262939453125,8.065975376695395,-5.572927557861805,-2.7253341874465344
1772882800811196000,2.76519580078125,7.451442964148521,-5.5856391553968185,-2.156649626100063
1772882800821129000,2.77512890625,5.619950005799532,-5.037776140543818,-1.7234321043416856
1772882800831060700,2.785060791015625,2.777770184865594,-4.069783341303467,-1.0173509966492653
1772882800840993500,2.79499365234375,-0.02246609883010387,-2.3857196630150077,-0.23904227261394262
1772882800850926600,2.804926513671875,-1.965561237055063,-1.261885729199648,1.4108724678352473
1772882800860858600,2.814858642578125,-3.010457243233919,0.46899932149648665,3.7797444564238187
1772882800870791700,2.824791748046875,-4.04396734752357,4.0824703889191145,4.149799419565499
1772882800880724700,2.834724853515625,-3.988477515491843,7.455688931155204,3.0595284403949976
1772882800890656800,2.84465673828125,-4.6842578861832616,9.465587907108665,3.209977360537648
1772882800900589800,2.85458984375,-6.176085758957266,12.420712554699183,4.10721816894561
1772882800910522600,2.864522705078125,-10.056469979476928,15.260377177941798,5.570803989836573
1772882800920454700,2.87445458984375,-17.35116053942442,17.76815261030793,7.61482033944726
1772882800930387700,2.8843876953125,-24.543767858469486,20.4287127122879,8.673821443346142
1772882800940320800,2.89432080078125,-30.56924395376444,20.139402433943747,9.33623730457425
1772882800950252800,2.904252685546875,-31.42899148234129,18.123095344513654,10.21281088026762
1772882800960185900,2.914185791015625,-26.24343359503746,16.24839335903525,9.827731366473436
1772882800970118700,2.92411865234375,-18.743913705462216,14.326332241010665,7.798468933880328
1772882800980050700,2.93405078125,-12.1606599350214,11.69140576198101,5.743294645917415
1772882800989983700,2.943983642578125,-7.294412327528,9.04949249280393,4.320303285743296
1772882800999916800,2.953916748046875,-4.18546548396945,6.629708647623658,2.7910826709032057
1772882801009848800,2.963848876953125,-2.671608150216937,5.168725994968414,1.2625433163255453
1772882801019782000,2.973781982421875,-2.2408611102253198,5.94351326687932,-0.433134519650042
1772882801029714400,2.98371435546875,-3.9495910277366635,6.262791982507705,-1.9638091326907277
1772882801039646200,2.993646240234375,-5.671918093445897,5.929872864061593,-2.524914198693633
1772882801049579300,3.003579345703125,-5.669000744694471,5.035938403722644,-1.8021932141065597
1772882801059512000,3.013511962890625,-4.2559184918552635,3.222020265030861,-1.2309358796626328
1772882801069445400,3.0234453125,-1.9978373667597769,1.1968138298302888,-1.452731541660428
1772882801079377200,3.033377197265625,0.8684376155108213,-0.524819992917776,-2.237314815920591
1772882801089310200,3.043310302734375,4.120495291408896,-2.4506021772921085,-3.6198543387189503
1772882801099243300,3.0532431640625,8.281908868661523,-4.741277996522188,-4.227168782711029
1772882801109175300,3.06317529296875,11.852938386195897,-7.304927876323461,-3.175124366082251
1772882801119108000,3.073108154296875,13.703638733839988,-8.59431945208609,-1.811637042017281
1772882801129041200,3.083041259765625,14.648305602550506,-8.240861988002061,-1.543689869697392
1772882801138973200,3.09297314453125,15.24534327493906,-7.200411855316162,-2.220910501347482
1772882801148906200,3.10290625,15.786573135387897,-6.2712283869415515,-2.8950016028001904
1772882801158839300,3.11283935546875,16.076437540483475,-5.628087719547748,-2.8586899339690803
1772882801168771300,3.122771240234375,15.268604908061027,-5.289136335200071,-2.170501333580911
1772882801178704400,3.132704345703125,13.778930998450518,-4.914548989325762,-1.9573136331915855
1772882801188637200,3.14263720703125,11.34443941348195,-4.016797601047158,-1.7860054648935795
1772882801198569200,3.1525693359375,7.873978056111931,-4.013077119219303,-1.9469567820891738
1772882801208502300,3.162502197265625,4.04613007851541,-4.415226425758004,-1.7922461128488183
1772882801218435300,3.172435302734375,-0.07795651538372039,-5.42259846470654,-0.6872134717456996
1772882801228367400,3.182367431640625,-3.1237557056337595,-6.767655229067802,0.9680334235116839
1772882801238300400,3.192300537109375,-3.971434610754251,-7.449816239729524,2.0969829467751087
1772882801248233200,3.202233154296875,-2.757793564763665,-7.923378339096903,1.8969620403423904
1772882801258165200,3.212165283203125,0.3308113325119018,-7.848778732925653,0.3736570792868733
1772882801268098300,3.222098388671875,3.9848651702135798,-7.6202388573646545,-1.8037560795091092
1772882801278031400,3.23203125,6.691862613719701,-7.252502692559361,-3.8349206924617287
1772882801287963100,3.241963134765625,8.219439260745048,-6.5948641287356615,-5.18199347282052
1772882801297896200,3.251896240234375,8.703809754374623,-6.091622930419445,-5.849130517351627
1772882801307829200,3.261829345703125,8.412848201692103,-5.893981466469168,-5.85893470300734
1772882801317761300,3.27176123046875,7.663081389269232,-5.876170499968528,-5.345824437105655
1772882801327694000,3.281694091796875,6.604699878573418,-6.005483108580112,-4.694738363665342
1772882801337627100,3.291627197265625,6.022343057966232,-6.348266618436575,-4.0170030604913824
1772882801347560200,3.301560302734375,5.920351587000489,-6.46990971533358,-3.1101217325568196
1772882801357492200,3.3114921875,5.832466967320442,-6.398913102090359,-2.4720401021182536
1772882801367425300,3.32142529296875,5.938979715102911,-6.662119801884889,-2.3631243848472834
1772882801377358000,3.331358154296875,5.69528084885478,-6.873769332921505,-2.011024472852051
1772882801387290000,3.3412900390625,4.580336908459663,-6.993228071516752,-1.3405845873832702
1772882801397223200,3.35122314453125,2.9664906757354736,-6.676790716794133,-0.802851336878538
1772882801407156200,3.36115625,0.784751616564393,-5.630458540332317,-0.34336686270236966
1772882801417088300,3.371088134765625,-1.2032511694014072,-3.310130510160327,-0.48606969876289363
1772882801427021300,3.381021240234375,-1.312154611712694,0.7412064893484115,-2.0779022525995967
1772882801436954400,3.390954345703125,-0.5434779316365719,4.875428108292818,-3.9284064931496974
1772882801446886400,3.400886474609375,1.6754156769305466,7.655802338176965,-3.278751329295337
1772882801456819200,3.410819091796875,1.5294675753384828,10.063388380563259,0.04551934989839792
1772882801466752300,3.420752197265625,-2.2597908516228196,12.917992214262485,3.041332566229999
1772882801476684300,3.430684326171875,-9.573569558399916,14.882121372687816,4.70257387959659
1772882801486617300,3.440617431640625,-20.746276440691947,15.181999806797503,7.343776370155811
1772882801496550400,3.45055029296875,-33.21133900924921,14.622275673758983,13.542995751941204
1772882801506482400,3.460482421875,-35.87798866027593,13.747905745589732,16.5572570636332
1772882801516415200,3.470415283203125,-25.94475226175785,12.065727734917402,13.635012356859445
1772882801526348300,3.480348388671875,-13.71308928375244,11.371503946018219,7.992550075000524
1772882801536280000,3.490280029296875,-6.161728147780895,10.286900198829173,4.251723378252983
1772882801546213000,3.500213134765625,-3.219753489142656,9.40035818682909,3.3718960614606734
1772882801556146200,3.510146240234375,-3.6184219678282736,9.239743846502899,3.835592308112979
1772882801566078200,3.520078125,-5.374202974849939,9.441358305737376,5.4570881788074965
1772882801576011300,3.53001123046875,-8.144614613646269,8.602596282044052,7.537200508671998
1772882801585944000,3.539944091796875,-11.130629489541054,8.797594538009166,7.669311808091401
1772882801595876000,3.5498759765625,-13.2592594743371,8.43829302407205,6.3594181270480155
1772882801605809200,3.55980908203125,-12.670903121054172,7.403437350392341,5.235809234160184
1772882801615742200,3.5697421875,-10.143956539750098,6.559972848096489,4.12355672480613
1772882801625675300,3.57967529296875,-6.821767927527428,5.316176902338862,2.216926692408323
1772882801635607300,3.589607177734375,-2.951668369656801,4.308805447912216,-0.3529316866442561
1772882801645540400,3.599540283203125,0.5907388645052909,2.782517671653628,-2.588083771573007
1772882801655473200,3.60947314453125,3.792948513650894,1.0404723445177078,-4.172888910990953
1772882801665405200,3.6194052734375,6.467806605574488,-0.36477263882458205,-5.151568523940444
1772882801675338200,3.629338134765625,8.378361410200595,-1.827416502690315,-5.706950828382372
1772882801685271300,3.639271240234375,9.723274382176994,-3.3027807319194076,-6.041711775302886
1772882801695203300,3.649203369140625,10.96358716199398,-4.412392079114913,-6.126539930021763
1772882801705136400,3.659136474609375,12.135462365400791,-4.983020468005538,-5.858017588162422
1772882801715069200,3.669069091796875,12.557183218371867,-6.450843195813894,-4.975511115288734
1772882801725001200,3.679001220703125,13.032953641438484,-6.991883086648583,-3.8341570146128534
1772882801734934300,3.688934326171875,13.570306952714919,-6.897830591988563,-3.3009970633730292
1772882801744867300,3.698867431640625,13.752434621191023,-7.0356158453911535,-3.036263884663582
1772882801754799400,3.70879931640625,13.342434601151943,-7.0077125239431854,-2.513528589065373
1772882801764732400,3.718732421875,12.21952012026906,-6.821133721277118,-1.8811153596520422
1772882801774665500,3.72866552734375,10.039840331715345,-6.486309061470627,-1.152194935902953
1772882801784597200,3.73859716796875,7.077058447369932,-6.0576049254834645,-0.5416764351725578
1772882801794530000,3.748530029296875,4.14864995726943,-5.546913411161303,-0.42093233294188975
1772882801804463000,3.758463134765625,2.0281775599658487,-5.201522349154949,-0.7386427763402461
1772882801814395100,3.76839501953125,0.7842606181770563,-5.461475015589595,-0.959663070051372
1772882801824328200,3.778328125,0.3345762380033731,-6.465833259674906,-0.6720707015410066
1772882801834261200,3.78826123046875,0.4878273560851812,-7.166530628502368,-0.039383915883302686
1772882801844193300,3.798193359375,0.6742682115852833,-7.765741553276777,0.2571481304079294
1772882801854126300,3.808126220703125,1.5231623377144337,-7.783332155025005,-0.4763596211314201
1772882801864059100,3.81805908203125,2.9397435385853052,-7.5042451645314685,-1.8829265007272362
1772882801873991200,3.8279912109375,4.249305795717239,-7.307288760235905,-2.954351909652352
1772882801883924200,3.83792431640625,5.16561926112473,-6.886911723089217,-3.757826639126241
1772882801893857300,3.847857177734375,5.49990265366137,-6.251261119189858,-4.832467502966523
1772882801903789300,3.857789306640625,5.528616122448444,-6.094997375288606,-5.647781431055068
1772882801913722400,3.867722412109375,5.8414370402395726,-6.101340022313594,-5.977163023024797
1772882801923655200,3.8776552734375,6.211809983289242,-6.351160586312413,-5.750975263547897
1772882801933587200,3.887587158203125,6.871792479890584,-6.92683807528615,-5.018681563973426
1772882801943520300,3.897520263671875,6.834085557308793,-7.115131865176558,-4.014975938577949
1772882801953453300,3.907453369140625,5.867669213604927,-7.153226910293101,-3.10903919801712
1772882801963386400,3.917386474609375,4.550630921503902,-6.61674278306663,-2.188633202598989
1772882801973318400,3.927318359375,2.626329915598035,-5.721123146119713,-1.866079995344579
1772882801983251500,3.93725146484375,1.9488520943164824,-4.034606813982129,-2.8793761636450883
1772882801993184300,3.947184326171875,3.32500717677474,-1.2518822215795515,-3.79283482414335
1772882802003116300,3.9571162109375,4.206097353109717,2.5918226658403873,-3.968885510793328
1772882802013049300,3.96704931640625,5.134273690268397,6.741799487799406,-2.954604130847752
1772882802022982400,3.976982421875,4.965602884736657,10.018729739147425,0.2316957092434168
1772882802032912400,3.986912353515625,0.8408370764017105,13.154096972119808,3.5595682123214005
1772882802042845400,3.996845458984375,-7.651135515409708,15.631424659252167,6.623131607320905
1772882802052777500,4.006777587890625,-21.569418870449066,15.798618962490558,11.417115358114241
1772882802062710500,4.01671044921875,-35.10951305572986,15.230751270484923,17.61463027406931
1772882802072643600,4.0266435546875,-37.91027540912628,14.498587334769963,19.133519756770134
1772882802082576600,4.03657666015625,-28.483870926892756,13.742006750679016,14.119396294492482
1772882802092508700,4.0465087890625,-15.76959394353628,13.459500307130813,6.486647499644756
1772882802102441500,4.05644140625,-6.509960570693016,11.226077237951754,1.0555404420509933
1772882802112374500,4.06637451171875,-1.4376654899537562,8.216554645219444,-0.43077509704232214
1772882802122306600,4.076306640625,-0.46989656259715556,6.473626105508208,0.8303098371684551
1772882802132239600,4.086239501953125,-3.288275821226835,5.376674917921424,2.7174656460285185
1772882802142172700,4.096172607421875,-8.634035960924624,5.432217356923222,4.216380846714973
1772882802152104700,4.106104736328125,-13.474432503324746,6.707285808300972,5.148338455978036
1772882802162037500,4.11603759765625,-15.668869131505488,7.77429603113234,5.415621026909351
1772882802171970600,4.125970458984375,-15.259000044369696,8.872501018172501,5.00864064695239
1772882802181902600,4.135902587890625,-13.256266722261905,9.575943301793933,3.429794708199799
1772882802191835600,4.145835693359375,-10.654788923847674,10.06332759028673,1.501604001379013
1772882802201768700,4.155768798828125,-7.734380784851312,8.373475976246596,-0.3641270343974232
1772882802211700700,4.16570068359375,-4.538896644568443,6.955607073652744,-1.4455617961615324
1772882802221633800,4.1756337890625,-1.2979092287391423,4.932911744490266,-2.045105313891172
1772882802231566600,4.185566650390625,1.4736697002708912,2.692687763124704,-2.607138308393955
1772882802241498600,4.19549853515625,4.305527449154853,0.9674047702193259,-3.6600019324511286
1772882802251431700,4.205431640625,7.0105509622395035,-1.0213391895025967,-4.5862475938081735
1772882802261364700,4.21536474609375,9.680404962265492,-3.008047259482741,-5.043996037971973
1772882802271296500,4.225296630859375,12.017379591333865,-4.554090706568956,-4.604405181789398
1772882802281229600,4.2352294921875,14.144641794908045,-5.563246121802925,-3.8603155382201075
1772882802291162400,4.245162353515625,15.664621995455025,-6.172802499502897,-3.5769349421858787
1772882802301094700,4.2550947265625,16.561231812483072,-6.384486517331004,-3.5336785687834023
1772882802311027500,4.26502734375,16.726690085709095,-6.743075499084592,-2.7752362824738026
1772882802320960500,4.27496044921875,15.46283919391632,-7.371277540543675,-1.4677403102219104
1772882802330892500,4.284892578125,12.83892510728836,-7.5881842614561315,-0.22060732899606228
1772882802340825600,4.29482568359375,9.619510640841723,-7.439030057299137,1.0033125344246625
1772882802350758700,4.304758544921875,6.31862200627923,-7.292530167043209,2.1008272011131046
1772882802360691500,4.31469140625,3.386860698619485,-6.900009105071425,2.3617554345816374
1772882802370623500,4.32462353515625,1.1586883895754814,-6.42257630175054,1.7882564586907623
1772882802380556500,4.334556640625,0.30272856284379956,-6.021163492792844,0.5521770786598325
1772882802390489600,4.344489501953125,0.8327800266742705,-5.581392603868245,-1.2416431516379116
1772882802400421600,4.354421630859375,2.7601275606691837,-5.617420779582858,-3.232646580724418
1772882802410355500,4.36435546875,4.708834109035134,-5.969368423625826,-4.50693498764038
1772882802420288500,4.37428857421875,5.519688135105371,-6.118136258813738,-4.881782445755601
1772882802430220500,4.384220458984375,5.6058548449516294,-6.349492945361137,-4.936691263028979
1772882802440153600,4.394153564453125,5.233407433715462,-6.413503937500715,-5.136262818259
1772882802450086700,4.404086669921875,4.665261509290337,-6.100835579922795,-5.350826190915703
1772882802460018700,4.414018798828125,3.9603520757257935,-6.354204191792011,-5.118649420157075
1772882802469951700,4.42395166015625,3.8501048175901174,-6.641451692387461,-4.67490758177489
1772882802479884500,4.433884521484375,4.274305796939134,-6.784857123759388,-4.518700244235992
1772882802489816600,4.443816650390625,5.241103248915076,-6.908938845980167,-4.377249454063177
1772882802499749600,4.45374951171875,6.66400313141346,-6.887550605514646,-4.205639380209147
1772882802509682700,4.4636826171875,7.919796973478793,-6.964170903858542,-4.004266913037002
1772882802519614700,4.47361474609375,8.543082601323723,-7.08791769503653,-3.2677669939443468
1772882802529547800,4.4835478515625,8.222995491921901,-7.071304998409747,-2.242307801902294
1772882802539480600,4.49348046875,7.035211356243491,-6.845179782775044,-1.3276684071868656
1772882802549413600,4.50341357421875,5.5415773108303545,-6.710463853815198,-0.4095324025273323
1772882802559345400,4.513345458984375,4.265792820137739,-6.26953561154902,0.5059744226723909
1772882802569278500,4.523278564453125,3.2755817593485115,-5.098891995763778,0.4094479391142726
1772882802579211500,4.53321142578125,3.202502494612336,-2.8315719176799057,-1.595598336111009
1772882802589143600,4.5431435546875,4.528603798612952,-1.204361176469922,-2.491019235615432
1772882802599076600,4.55307666015625,4.878181790915131,1.21859486900568,-1.416072959087789
1772882802609009400,4.563009521484375,4.591191479951143,3.815123520579934,-0.710406861937046
1772882802618941400,4.57294140625,2.64385095924139,6.438896737432479,0.853758809556067
1772882802628874500,4.58287451171875,-2.3408336425840854,10.063624527406692,2.5235554775610565
1772882802638807600,4.5928076171875,-8.517076637929678,14.449998368167876,4.259446081459522
1772882802648739600,4.602739501953125,-15.2156144916296,17.5660027290225,6.377300989741086
1772882802658672600,4.612672607421875,-22.519337083816527,18.56563336006403,11.38815346752405
1772882802668605400,4.62260546875,-29.0667117316246,19.54311528766155,14.989052638143301
1772882802678537700,4.632537841796875,-32.48389216518402,18.504881661981344,13.861418727523088
1772882802688470500,4.642470458984375,-30.96771486405134,17.095491833919287,9.26669439727068
1772882802698403600,4.652403564453125,-24.252935485124585,16.85972843684554,2.9415178547814484
1772882802708335600,4.662335693359375,-15.585662440508603,13.887399556475877,-2.0713534154780207
1772882802718268700,4.6722685546875,-7.4520678180485955,10.523049380350113,-3.658748425258696
1772882802728201700,4.68220166015625,-2.615664729198813,7.1833636898815625,-2.322180380040407
1772882802738133800,4.6921337890625,-2.9696085154950618,5.143180634823441,0.6809476893492042
1772882802748066600,4.702066650390625,-6.795312466800213,5.014630827277898,2.7561855450451374
1772882802757999600,4.71199951171875,-11.40277820520401,6.706212626111507,3.0261674380630255
1772882802767932700,4.7219326171875,-13.978691354250907,8.133949427247046,2.0523123226605353
1772882802777864700,4.73186474609375,-13.966969352275132,8.566040867584944,0.1973528562672436
1772882802787797800,4.7417978515625,-11.587275525420903,8.56936855070293,-1.997372671857476
1772882802797730600,4.75173046875,-8.268778753453493,7.526393867975473,-3.472767588485777
1772882802807662600,4.76166259765625,-4.842250645834207,5.468166622182727,-3.4356115777850147
1772882802817595400,4.771595458984375,-0.6168301680952311,2.6300416295975446,-2.5655437307238578
1772882802827528400,4.781528564453125,3.76134399959743,-0.4768436052560806,-1.854816696921736
1772882802837460500,4.79146044921875,7.22417442369759,-3.023905922871828,-1.2728595431566239
1772882802847393500,4.8013935546875,10.41549969073534,-4.7501896172523494,-0.9927307885251939
1772882802857326600,4.81132666015625,13.727259263402223,-5.928720186895132,-1.0640671551167964
1772882802867258600,4.821258544921875,16.439963394117353,-7.083003034988045,-0.8629339035280048
1772882802877191400,4.83119140625,17.77714606410265,-7.748257334512472,-0.35153234124034644
1772882802887124500,4.84112451171875,17.889694584918022,-7.665687772375345,-0.4588125662639737
1772882802897056500,4.851056396484375,17.0185933031559,-7.499266207075118,-1.0667731992051004
1772882802906989600,4.860989501953125,15.083969640678166,-7.482592135649919,-0.8959336713321506
1772882802916922600,4.870922607421875,12.111762340861558,-7.732320345190167,-0.07802826544567942
1772882802926854700,4.880854736328125,8.948679417967796,-7.622299881547689,0.5504027624636888
1772882802936787700,4.89078759765625,6.034589960598946,-7.337832951581477,0.7741812688417732
1772882802946720500,4.900720458984375,3.595647825962305,-6.971063585981726,0.784689949505031
1772882802956652500,4.910652587890625,1.8067840490281581,-6.541742194879054,0.18058453068733216
1772882802966585600,4.920585693359375,0.8524497727841138,-6.005131226402521,-0.7897061702318489
1772882802976518700,4.9305185546875,0.6223001239389181,-5.5996951532781125,-1.7758358069263398
1772882802986450700,4.94045068359375,1.1587146930605172,-5.465178546282648,-2.3315930821605027
1772882802996383700,4.9503837890625,2.39142284309268,-5.599944159603119,-3.084180651092529
1772882803006316500,4.960316650390625,3.612867256310582,-5.695612857288122,-4.012087523660064
1772882803016248600,4.97024853515625,4.650408223551511,-5.793952820008993,-4.844243865478038
1772882803026182000,4.980181884765625,5.356753827399015,-6.127961487257481,-5.2534191251307725
1772882803036115000,4.990114990234375,5.758268927687406,-6.663611501747369,-5.395577771311998
1772882803046048000,5.000048095703125,6.288944076374173,-7.211793665552139,-5.229452558609843
1772882803055980000,5.00997998046875,6.8502318054676055,-7.48471687271893,-5.141806423860788
1772882803065913000,5.0199130859375,7.227074821314215,-7.4025214045912024,-5.305909775346517
1772882803075846000,5.029845947265625,7.823276042878628,-6.985418859070539,-5.206440516334772
1772882803085778000,5.03977783203125,8.104744375550746,-6.455063443857431,-4.626712290665507
1772882803095711000,5.0497109375,7.939767163839936,-6.150332309019565,-3.807411046506464
1772882803105644000,5.05964404296875,7.779914455536008,-5.774350293916464,-2.8770523968726396
1772882803115576000,5.069576171875,7.142128008651733,-5.399601035478711,-1.9773864071443676
1772882803125509000,5.079509033203125,6.172394503223896,-4.984180743956566,-1.3834215663298963
1772882803135442000,5.08944189453125,5.234178418087959,-4.4651931104540825,-0.7421504922002553
1772882803145374000,5.0993740234375,4.193382248443365,-4.055997977057099,-0.3334177156180143
1772882803155307000,5.10930712890625,3.8776147558063268,-2.8848844056725502,-1.1549968415811658
1772882803165240000,5.119239990234375,5.577526576089858,-1.8550696487694978,-1.6360548496618865
1772882803175172000,5.129172119140625,6.5142193971812725,-0.8334709315478801,0.5107511355549097
1772882803185105200,5.139105224609375,5.201877738463878,1.1158248148828744,2.4829616013661027
1772882803195038200,5.1490380859375,2.375568271356821,3.5723955451905725,4.637923128248751
1772882803204970200,5.15897021484375,-2.6655969271034,6.609587650614976,5.29014521998167
1772882803214903000,5.168903076171875,-7.939480748113989,10.809790100467204,5.025179109299183
1772882803224836000,5.178836181640625,-13.452086231482028,12.88318042860031,5.3410816264927385
1772882803234768000,5.188767822265625,-18.626050711625812,14.926224718308449,6.879397109675407
1772882803244701000,5.198700927734375,-21.611118662059305,17.749398809999228,8.252791495248674
1772882803254634000,5.208634033203125,-23.16837616159916,19.60044285651445,8.203495257160068
1772882803264566000,5.21856591796875,-25.097389582979677,20.412198799860477,8.497916010385751
1772882803274498800,5.228498779296875,-26.48110954773426,19.666454082560538,8.162249639058112
1772882803284432000,5.238431884765625,-24.643877753472328,17.208533691209553,6.66284694711566
1772882803294365000,5.248364990234375,-19.33016811802983,15.041864190876483,4.77297778764367
1772882803304297000,5.258296875,-14.016996242725849,12.52469081556797,3.1708015344470737
1772882803314230000,5.26822998046875,-10.556249054640531,9.808318225473165,2.485665015105903
1772882803324163000,5.2781630859375,-8.897734243628381,7.271165891975164,2.754306307169795
1772882803334095000,5.28809521484375,-8.86177971767187,5.669554286924004,3.321329657305777
1772882803344028000,5.29802783203125,-9.322907282879948,4.578870927560329,2.9356565615326162
1772882803353961000,5.3079609375,-8.446277593085169,3.9880005456298586,1.2981500517576932
1772882803363893000,5.31789306640625,-6.557236701130867,3.663907123196125,-0.7804524580657481
1772882803373826000,5.327825927734375,-4.052046609082818,3.661816288396716,-2.698816182877123
1772882803383759000,5.337759033203125,-1.3754688537597655,3.5063925024509426,-4.1706472695440056
1772882803393691100,5.347691162109375,1.3058832763582466,2.346994503301382,-5.085021875843405
1772882803403624000,5.3576240234375,3.938679757621884,0.3564665827721357,-5.340755463278294
1772882803413557000,5.367556884765625,5.818322706633806,-2.092099704778194,-5.0443163559675215
1772882803423489000,5.377489013671875,7.222693829751014,-4.087120260551572,-4.470254485496878
1772882803433422000,5.387422119140625,8.983786971706152,-5.250649075895548,-4.025293042191863
1772882803443355100,5.397355224609375,10.904341192299126,-5.971185702180862,-3.6212080914154647
1772882803453287200,5.407287109375,12.567967647236586,-7.04720399185419,-2.7152181593626734
1772882803463220200,5.41722021484375,14.453344171464442,-7.692070752388238,-1.3429939866125582
1772882803473153000,5.427153076171875,16.052880139285325,-7.85630036060214,-0.07933627930432557
1772882803483084800,5.437084716796875,16.62815021650195,-8.157248469769954,0.9386432245068251
1772882803493017900,5.447017822265625,15.73507208073139,-8.27230868114531,1.9647334079287946
1772882803502951000,5.456950927734375,13.347286132836341,-8.21865132523775,2.7845149829506872
1772882803512883000,5.466883056640625,10.373679487615822,-7.673121137246489,3.1456378670960663
1772882803522816000,5.47681591796875,7.201150690984726,-6.747462920388579,2.489799338431656
1772882803532749000,5.4867490234375,3.9929017616748808,-6.173723706001043,1.2635107000529766
1772882803542681000,5.49668115234375,1.4191536817073822,-5.823477020657062,0.07479600552618502
1772882803552614000,5.50661376953125,0.38067221874594687,-6.036673196613788,-1.0357932467907667
1772882803562547000,5.516546875,0.8803431573599576,-6.386580859261751,-1.9983704507231712
1772882803572480000,5.52647998046875,2.179412077528238,-6.706882488197087,-2.991048193886876
1772882803582412000,5.536412109375,3.606839082062244,-6.678398151990771,-4.025054557260871
1772882803592345000,5.546344970703125,4.702458728784323,-6.621432402187585,-4.845027124810218
1772882803602278000,5.55627783203125,4.973562903830409,-6.541112664803862,-5.424219343906641
1772882803612210000,5.5662099609375,4.723579258224368,-6.648026979124546,-5.538161949428916
1772882803622143000,5.57614306640625,4.325808605161309,-6.865152311223745,-5.486387338528036
1772882803632076000,5.586075927734375,3.6789264131516215,-7.228720834955572,-5.531933868694305
1772882803642008000,5.596008056640625,3.1629116579800844,-7.201677929729223,-5.448971507847308
1772882803651941000,5.605941162109375,3.195230457782745,-7.445581963160634,-5.0880572980165475
1772882803661874200,5.615874267578125,3.4570874965339895,-7.590329456791281,-4.528677156110108
1772882803671806200,5.62580615234375,3.8229765721678732,-7.546480378192663,-3.7558316659167406
1772882803681739000,5.635739013671875,4.249810822629929,-7.549609908390044,-2.707306363324821
1772882803691672000,5.645672119140625,4.4054912136852735,-7.455442262917757,-1.4211968779727815
1772882803701603800,5.655603759765625,4.181016103345155,-7.326839263880252,-0.0403460389137268
1772882803711537200,5.665537109375,3.677454587033391,-7.03446667535603,1.2903007995620368
1772882803721470200,5.67547021484375,3.0337498560160396,-5.261974772030115,1.5338970822185276
1772882803731402000,5.685402099609375,2.775973949098587,-3.443668042990565,0.08658230490982533
1772882803741335000,5.6953349609375,4.334276573777198,-1.94991943128705,0.19560908133983612
1772882803751267800,5.705267822265625,4.778738250866532,0.28442250630259513,1.3347329387456177
1772882803761199900,5.715199951171875,4.223799014016985,4.047605411764979,1.2132064539656042
1772882803771133000,5.7251328125,3.9694308697164056,6.874824394932389,1.860438774587214
1772882803781066000,5.73506591796875,0.3104167792588472,10.023149893677234,2.9445003777235743
1772882803790998000,5.744998046875,-5.7642292973965406,14.911237577056884,3.6608763771981
1772882803800931000,5.75493115234375,-10.92419740089178,18.25137568746805,3.221719528518617
1772882803810863900,5.76486376953125,-16.333395701277254,18.869051658737657,4.562504314649105
1772882803820796000,5.7747958984375,-24.1418669737339,17.34289890703559,8.979339344647526
1772882803830729000,5.78472900390625,-31.410698285281658,15.553939268511533,12.739832280373573
1772882803840662000,5.794662109375,-31.980211990928648,14.948067132282256,10.554693057370185
1772882803850595000,5.804594970703125,-26.76733355050087,14.63186767796874,4.807243045338988
1772882803860527000,5.814527099609375,-19.75626703995466,13.112270923781395,0.6737170074433088
1772882803870460200,5.824460205078125,-12.646366061168909,11.76548339010477,-1.466774972321093
1772882803880393000,5.83439306640625,-7.059474859884381,10.64675993117094,-2.7005799776792525
1772882803890325000,5.844324951171875,-5.052327812987565,9.478495319476723,-2.874966822770238
1772882803900258000,5.854258056640625,-6.564772941854596,8.35714677273631,-1.5401801080107689
1772882803910191000,5.864191162109375,-9.041686787489056,7.693610967567563,0.3801370889559388
1772882803920123100,5.874123046875,-11.299221969139575,7.220028994455933,1.7635636237218975
1772882803930056200,5.88405615234375,-11.875841122877597,7.030720474565029,1.632282929907739
1772882803939989000,5.893989013671875,-10.845950962650775,6.62315907984972,0.14233195692151784
1772882803949920800,5.903920654296875,-7.8822040326654905,5.649748931735754,-1.1020163620218635
1772882803959853800,5.913853759765625,-3.2923014234811068,4.390748987105488,-1.7802558153256773
1772882803969787100,5.923787109375,1.762937893038988,2.093590235596895,-2.362501869034767
1772882803979719000,5.933718994140625,6.097765670958161,-0.5157721785873174,-2.5481173796266314
1772882803989652000,5.94365185546875,9.557170212262868,-3.1403280702501535,-2.577393158471584
1772882803999585000,5.9535849609375,12.750948717671632,-5.391124883556365,-2.5302117205798624
1772882804009517000,5.96351708984375,16.10704895184636,-6.847254250961542,-2.372223929364979
1772882804019449900,5.973449951171875,18.915875369232893,-8.048318723973631,-1.9264491238504646
1772882804029383400,5.983383544921875,19.849713385415075,-8.74967367992699,-0.9815671510845422
1772882804039315500,5.9933154296875,18.94911362196803,-8.444177405935525,-0.0934565745934844
1772882804049248500,6.00324853515625,16.356499513489005,-8.02400144431889,0.625472616495192
1772882804059181600,6.013181640625,13.327553842884301,-7.639517558330297,1.1728808733180165
1772882804069113600,6.023113525390625,10.2255300765872,-6.932720119062066,1.0989859082847833
1772882804079046400,6.03304638671875,7.080933242976665,-6.233479963305592,0.5624246241688728
1772882804088979500,6.0429794921875,4.103516099557281,-5.903962762257456,-0.051174891442060465
1772882804098911500,6.052911376953125,1.7122838106006384,-5.918164306089282,-0.4543582172036171
1772882804108844500,6.062844482421875,0.42961423656940456,-6.059670625841617,-0.7635135982245206
1772882804118777600,6.072777587890625,0.6245049405068158,-6.135035955688357,-1.471952374958992
1772882804128710400,6.08271044921875,1.682050584900379,-6.108823071545362,-2.3783076331928372
1772882804138642400,6.092642333984375,3.2672154975414274,-5.927661033231019,-2.955644287550449
1772882804148575500,6.102575439453125,4.774814355421066,-6.098350192847848,-3.3881384634703395
1772882804158508500,6.112508544921875,5.553268917667865,-6.4165732619434594,-3.5971646602660416
1772882804168440600,6.122440673828125,5.2709337390333415,-6.838235662725568,-3.654922729490697
1772882804178373600,6.13237353515625,4.391221865314245,-7.347291684800386,-3.398665702703595
1772882804188306700,6.142306640625,3.8672254637390373,-7.794677140381932,-3.1309958860203624
1772882804198238700,6.15223876953125,4.001514107197523,-8.166385715949534,-2.9864053365170955
1772882804208171500,6.162171630859375,4.679931255155801,-8.350307282105089,-2.963645223176479
1772882804218104600,6.1721044921875,5.51347992811501,-8.212505662089585,-3.2593931333526966
1772882804228036400,6.182036376953125,6.243268366870284,-7.810705899640917,-3.7709663989454505
1772882804237969400,6.191969482421875,6.570520545595884,-7.307899001088738,-4.087831039169431
1772882804247902500,6.20190234375,6.51701984155476,-6.873710880732536,-4.056701741412282
1772882804257834500,6.21183447265625,6.189751296216249,-6.850994022011757,-3.531544187103212
1772882804267767600,6.221767578125,5.80359918475449,-7.2002645557999605,-2.3455641782373187
1772882804277700400,6.231700439453125,4.61866810041964,-7.388320445281266,-0.8794374406918882
1772882804287632400,6.24163232421875,2.9237036734104156,-6.635123658409714,-0.009585282208025455
1772882804297565400,6.2515654296875,3.1468530881047245,-4.797975450778007,-1.054919972065091
1772882804307498500,6.26149853515625,4.770718610540032,-3.1901866183966394,-1.268286243891716
1772882804317430500,6.271430419921875,4.589655940946936,-0.7199626257896423,-0.9390139575153589
1772882804327363600,6.281363525390625,4.112673219481111,3.294188260141015,-0.6089367844969034
1772882804337296400,6.29129638671875,3.141325264593959,6.881441767245531,1.3560954602479933
1772882804347228400,6.301228515625,-1.0379624075233935,11.090818872678279,3.5329224897190925
1772882804357161500,6.311161376953125,-9.802863467198609,15.072705903863906,5.618579886490107
1772882804367094500,6.321094482421875,-22.479416576838492,17.689465442562103,8.070838598817586
1772882804377027600,6.331027587890625,-34.434495487082,20.027948138105867,11.337117692291736
1772882804386959600,6.340959716796875,-35.00424767765999,21.929381478643418,11.789684934425352
1772882804396892700,6.350892578125,-26.31681914924383,20.656870310533044,7.969421712869405
1772882804406825500,6.360825439453125,-16.011887619161605,17.97662117322087,4.152446426942944
1772882804416757500,6.370757568359375,-8.94083981038332,14.574814834403991,3.2143633205369113
1772882804426690600,6.380690673828125,-5.889886306110024,11.09540620046854,3.768966165038943
1772882804436623600,6.39062353515625,-5.09547663436234,8.856313853481412,4.118933448919654
1772882804446555600,6.4005556640625,-6.316030820742249,7.889438075572252,3.4392361980229613
1772882804456488700,6.41048876953125,-8.458879300504922,7.68740451414287,2.3527020672932264
1772882804466421500,6.42042138671875,-9.850606046104431,7.815611791861057,1.4077315394610166
1772882804476353300,6.430353271484375,-10.104040708947181,7.915860803073644,0.4472168210163712
1772882804486286300,6.440286376953125,-9.62445686507225,7.9338541404038665,-0.4880336923122406
1772882804496219400,6.450219482421875,-8.74825796791017,8.092369462624191,-1.4598030874818562
1772882804506151400,6.4601513671875,-7.439382523998618,7.939639153546095,-2.3284628213107585
1772882804516084500,6.47008447265625,-5.857719481998681,6.944453226953745,-2.980581160408258
1772882804526017500,6.480017578125,-3.9272102691024537,5.443609104031324,-2.6367832128122446
1772882804535949600,6.489949462890625,-1.0676368302971124,3.476460890045762,-1.7901602464854716
1772882804545882400,6.49988232421875,2.1121885530829427,1.41436469386518,-1.0194900545045733
1772882804555815400,6.5098154296875,5.089513926565647,-0.7280792967498302,-0.5670081525668501
1772882804565747500,6.51974755859375,7.615228335726261,-2.946792872574925,-0.5743453635871411
1772882804575680500,6.529680419921875,9.992095414721966,-4.576459190243482,-0.7788108283385634
1772882804585613600,6.539613525390625,12.464518963199852,-5.663201703026891,-1.102356553761661
1772882804595545600,6.549545654296875,14.624692087250947,-6.760887634629011,-1.6265765349596737
1772882804605478400,6.559478515625,15.767629949986933,-7.607572852537036,-1.6893401573866604
1772882804615411500,6.569411376953125,15.73777724803686,-8.028973972034454,-1.2597902182251215
1772882804625344500,6.579344482421875,14.648268193149566,-8.162304584115743,-0.5586541657194495
1772882804635276500,6.589276611328125,12.77896485184431,-8.034118933707475,0.1557955418676138
1772882804645209600,6.599209716796875,10.647907932162283,-7.931799545961618,0.8698460210040211
1772882804655142700,6.609142578125,8.554860717400908,-7.822569940435886,1.1692924934372306
1772882804665074700,6.61907470703125,6.601015637102723,-7.606853306090831,0.9208496475324034
1772882804675007500,6.629007568359375,4.945919110101461,-7.091985382866859,0.14203414301872253
1772882804684940500,6.6389404296875,3.658967913228273,-6.192680335405469,-1.0724182193547487
1772882804694872600,6.64887255859375,2.951543281972408,-5.313814849382639,-2.4877917980015276
1772882804704805600,6.6588056640625,2.904568180307746,-4.78972726239264,-3.639100890980661
1772882804714738700,6.66873876953125,3.2743677073836324,-4.8912277349710465,-4.334497815312445
1772882804724670500,6.67867041015625,3.5496219878464936,-5.32936663877964,-4.3274481890618794
1772882804734603500,6.688603515625,3.6219016266375776,-5.926396712383627,-4.095141362182796
1772882804744536300,6.698536376953125,3.770679983219504,-6.609957652971148,-3.6473546323239803
1772882804754468400,6.70846826171875,4.2191649244755505,-7.230304889276623,-2.93479205365777
1772882804764401400,6.7184013671875,4.869299980801344,-7.659903928276896,-2.377254324747622
1772882804774334500,6.72833447265625,5.4641468651473515,-7.777921235892176,-2.4188673148572444
1772882804784266500,6.7382666015625,6.212644680547714,-7.501684374132752,-3.120371031631529
1772882804794199600,6.748199462890625,6.840884131407737,-7.072745260345935,-4.1889764146998525
1772882804804132400,6.75813232421875,7.242180035987496,-6.576092208248377,-5.260727986839413
1772882804814064400,6.768064453125,7.310376789379119,-6.0044356453537935,-5.741801777011156
1772882804823997400,6.77799755859375,7.245494859623909,-5.47983426362276,-5.8833799929559225
1772882804833930500,6.787930419921875,6.940204921859502,-5.516827484977245,-5.666387347325682
1772882804843862500,6.797862548828125,6.157801329725981,-5.757022142496704,-4.439578484465182
1772882804853795600,6.807795654296875,5.010621007114649,-5.797498529791832,-2.6473683197125792
1772882804863728600,6.817728759765625,3.881179754811525,-4.899253805038333,-1.397624571466446
1772882804873660700,6.82766064453125,3.8041637351483106,-3.481268582588434,-1.6242770258456467
1772882804883593500,6.837593505859375,4.755397122767567,-1.866128802922368,-0.5391308423429727
1772882804893526500,6.847526611328125,3.790542037031054,1.2557482493579386,0.7059288397401571
1772882804903459600,6.85745947265625,2.9690830303162334,4.635355615848303,1.2052122403413057
1772882804913391600,6.8673916015625,1.7365233488440512,6.960490754041075,3.155556619042158
1772882804923324700,6.87732470703125,-2.1857810280382632,10.030946246641873,4.490912950383127
1772882804933257500,6.887257568359375,-8.065507759183644,12.38759354442954,4.729051552155614
1772882804943189500,6.897189453125,-15.05520414944291,13.061620932996272,5.327205076831579
1772882804953122600,6.90712255859375,-24.703730456888675,12.307540933549403,9.943076240009068
1772882804963055600,6.9170556640625,-31.335152338171003,12.707510557961463,13.493604821306466
1772882804972987400,6.9269873046875,-30.227880832099913,12.860417977172135,12.361672336709498
1772882804982920400,6.93692041015625,-25.700613835048674,12.227152807104586,9.410157111787795
1772882804992853500,6.946853515625,-20.068710356605052,12.757884654414653,5.986175181519985
1772882805002785500,6.95678564453125,-15.512956100738048,12.972841410303115,2.56930629812777
1772882805012718300,6.96671826171875,-12.471396447753905,12.87803429788351,0.2986389554426074
1772882805022651400,6.9766513671875,-11.615132669639587,12.383300815671682,-0.5088131532296538
1772882805032583200,6.986583251953125,-11.92313361992836,10.949905842643975,-0.29334990912377834
1772882805042516200,6.99651611328125,-12.193126618862152,9.27161607158184,0.7253121701240539
1772882805052449300,7.00644921875,-11.982318799346684,7.468210559076071,2.117244375167787
1772882805062381300,7.01638134765625,-11.7346557056427,5.546652714398503,3.7616754235088825
1772882805072314400,7.026314453125,-10.958097332406043,4.1868607377201315,4.625262384118139
1772882805082247200,7.0362470703125,-8.714023105353116,3.501274428784847,4.215763299338519
1772882805092179200,7.04617919921875,-5.497855073481798,3.052797670835256,2.630140998318791
1772882805102112300,7.0561123046875,-2.0000000977516175,3.060260261800885,0.36369565724283454
1772882805112045300,7.06604541015625,1.6100345654815436,2.68292332495749,-1.909781189905107
1772882805121977300,7.075977294921875,5.7277381803452965,1.819253654500842,-3.8797804094076156
1772882805131910400,7.085910400390625,9.234771318787336,0.7581786669373511,-5.471881843313574
1772882805141843200,7.09584326171875,11.545836430573463,-0.43195349317193027,-6.557751080393791
1772882805151775200,7.105775146484375,12.624079410558938,-1.9293559512078762,-6.961016239219903
1772882805161708000,7.1157080078125,13.249497958779335,-2.9681664999932047,-6.381158834213018
1772882805171641000,7.12564111328125,13.800732495892047,-3.948025093594193,-5.4982350127100945
1772882805181574100,7.13557421875,14.359638298285006,-4.739339721935988,-4.156247572791576
1772882805191506200,7.145506103515625,14.546391872996091,-5.451652709755301,-2.411346563963592
1772882805201439200,7.155439208984375,14.137850819593668,-6.138115801525116,-0.42503304625898597
1772882805211372000,7.1653720703125,12.846659500932693,-6.461475648987292,1.0219590749666094
1772882805221304000,7.175303955078125,10.926701492667197,-6.291226634353399,1.559842547596991
1772882805231237000,7.185237060546875,8.818263232028484,-5.7974365704715245,1.50350282073766
1772882805241170200,7.195170166015625,6.887601458919048,-5.568714324080943,1.2201724935859442
1772882805251102200,7.205102294921875,5.453028674283623,-5.667390971410274,0.8361728839829563
1772882805261035300,7.21503515625,4.809207623410225,-5.8222033474594355,0.17361907558888195
1772882805270968300,7.22496826171875,4.7074610671162604,-6.212339560121298,-0.8190347021773458
1772882805280900400,7.234900390625,5.11511598533392,-6.569481850197911,-1.6625430436149238
1772882805290833200,7.244833251953125,5.3976586692392825,-6.903758228471875,-2.494498017641902
1772882805300766200,7.25476611328125,5.39559413792491,-6.992668684068322,-3.3237235667049885
1772882805310698200,7.2646982421875,5.1181087374091145,-7.016540558043122,-3.9761034793481227
1772882805320631300,7.27463134765625,4.770145779088139,-6.976412545794248,-4.196779489666223
1772882805330564400,7.284564453125,4.445102508583664,-7.003705626389384,-4.141816896378994
1772882805340496400,7.294496337890625,4.369456608229875,-7.065380869057774,-4.139193854399025
1772882805350429200,7.30442919921875,4.680522206786275,-6.957737655940652,-4.087620611289143
1772882805360362200,7.3143623046875,4.9153579676210875,-6.784718592071533,-4.029935022778809
1772882805370294300,7.324294189453125,5.269254992166161,-6.593209347265958,-3.99417134321928
1772882805380227300,7.334227294921875,5.492382195028663,-6.35411242185533,-3.9252833926931023
1772882805390160400,7.344160400390625,5.456225424498319,-6.281961377879977,-3.7744130322679874
1772882805400092200,7.354092041015625,5.220747858628631,-6.711880734875797,-3.220492032550275
1772882805410025200,7.364025146484375,5.303876223692297,-7.189257424095272,-2.3164102722063658
1772882805419958000,7.3739580078125,5.3842520751774305,-7.598506333506107,-1.4572478500410913
1772882805429890000,7.38389013671875,4.762553424263,-7.679408254691958,-0.6861307910755277
1772882805439823000,7.393822998046875,3.5247055732548236,-6.740334091421961,-0.2651458511635661
1772882805449756200,7.403756103515625,2.991236994457245,-4.876479078650474,-1.1621689251676202
1772882805459689200,7.413689208984375,3.2936978462755677,-2.9819460190206764,-1.3381687584131956
1772882805469621200,7.423621337890625,2.250869878542423,-0.7706535331070423,-0.5262476876333355
1772882805479554300,7.43355419921875,0.8301374032109975,2.4578192690640686,1.0262091336265207
1772882805489487000,7.443487060546875,-1.2068237671911717,5.837708375105262,2.940940639415383
1772882805499419100,7.453419189453125,-3.764540749812126,9.57777636243999,3.346146410915255
1772882805509352200,7.463352294921875,-6.859550253432989,13.591617451769112,2.2066271244511007
1772882805519285200,7.47328515625,-11.35369122595191,16.712610122430323,1.2299369317531585
1772882805529217300,7.48321728515625,-17.794424531161784,17.39037728204727,2.8897347683131693
1772882805539150300,7.493150390625,-24.48556818295717,17.1337698343873,7.312189976280927
1772882805549083100,7.503083251953125,-25.95982123607397,16.16768023841977,10.012940634351969
1772882805559015200,7.51301513671875,-21.841039178323744,13.934125067293643,9.685464583742618
1772882805568948200,7.5229482421875,-16.63288367476463,11.87637420684099,8.601323777890205
1772882805578881300,7.53288134765625,-12.323247036725283,10.265268212735652,7.089031793758273
1772882805588813300,7.542813232421875,-9.617734278818965,9.284497180464863,5.247060111492872
1772882805598746400,7.552746337890625,-7.855674922180175,9.265107420340179,3.2705139545649287
1772882805608679200,7.56267919921875,-6.726176971253753,9.476994851785898,1.2153463886037468
1772882805618611200,7.572611083984375,-5.958300501644611,9.387556572923064,-0.23565496826320886
1772882805628544300,7.582544189453125,-5.887269401609897,8.777577585896848,-0.8237240290373563
1772882805638477300,7.592477294921875,-6.640231210681796,8.249054646807908,-0.7741480972245335
1772882805648409000,7.6024091796875,-8.076908274120091,7.602993708053231,0.11311229217797517
1772882805658342100,7.612342041015625,-9.073950057712198,6.996298565003276,1.759377570208907
1772882805668275200,7.622275146484375,-8.848881073132157,6.467800175833702,3.4488851931169626
1772882805678208000,7.6322080078125,-6.748699768707156,5.775297219377756,4.142942977799475
1772882805688140000,7.64214013671875,-3.5920460020780562,4.687376894986629,3.611477555517852
1772882805698073000,7.652072998046875,-0.025037995144724844,3.591526362118125,2.992441401810944
1772882805708006100,7.662006103515625,2.9448657039046284,1.9103467148333786,1.871264996767044
1772882805717938200,7.671938232421875,4.919361942565441,0.41152912930250163,0.24867607013881204
1772882805727871200,7.681871337890625,5.855300730419159,-0.985629578217864,-1.4512068163111804
1772882805737804300,7.69180419921875,6.710283236551285,-2.501764209252596,-2.6565117033720016
1772882805747736300,7.701736328125,8.082590411409734,-4.10530765914917,-2.9654794528663158
1772882805757669000,7.711669189453125,9.843262113082409,-5.778262498924136,-2.8909499893218276
1772882805767602200,7.721602294921875,11.232834310996532,-7.408427413764596,-2.288008353586495
1772882805777534200,7.7315341796875,12.439071218210458,-8.44237707851529,-1.590512703409791
1772882805787467300,7.74146728515625,13.357618141758442,-9.074809889411926,-1.4895125815689563
1772882805797400300,7.751400390625,13.422403040879963,-9.011425504738092,-1.799680354502797
1772882805807332400,7.761332275390625,12.459288661330937,-8.006689659512043,-2.585955527372658
1772882805817265200,7.77126513671875,10.719109712588786,-6.846093390488624,-3.3666654673308134
1772882805827198200,7.7811982421875,8.518530343869328,-6.270288475742936,-3.8368145433843135
1772882805837130200,7.791130126953125,6.150723354163765,-6.045919748386741,-3.6775501563623547
1772882805847063300,7.801063232421875,4.182949701756239,-6.371925141921639,-3.07712897901535
1772882805856996400,7.810996337890625,3.126074503970146,-6.54382133924067,-2.607041862282157
1772882805866928000,7.82092822265625,2.6738585594922304,-6.624418724521994,-2.533062141574919
1772882805876861200,7.830861083984375,2.8861294372975825,-6.416580276206135,-2.879278256228566
1772882805886794200,7.840794189453125,3.489849363929033,-6.279117094364762,-3.357550432983041
1772882805896726000,7.85072607421875,4.46433912397325,-6.123115800791979,-3.587146831859648
1772882805906659000,7.8606591796875,5.148259545522928,-6.026544016787409,-3.480307628601789
1772882805916592000,7.870592041015625,5.221834484821557,-5.942267650732398,-3.3240041372120377
1772882805926524200,7.880524169921875,5.334285975003242,-6.0747197264134885,-3.070698945967853
1772882805936457200,7.890457275390625,5.6295151220023625,-6.361595471087098,-2.6767341149285433
1772882805946390300,7.900390380859375,5.844875782516598,-6.645614657285809,-2.5345512110888957
1772882805956322300,7.910322265625,6.252397429743409,-6.923793300762772,-2.6523791336119174
1772882805966255000,7.920255126953125,6.961127882900834,-7.014782316198945,-2.965557194277644
1772882805976188200,7.930188232421875,7.571497915071249,-7.056085217446088,-3.3750852128908035
1772882805986120200,7.9401201171875,8.081590878978371,-7.102004088056087,-3.6711128167912364
1772882805996053200,7.95005322265625,8.13959357061386,-7.162340191075206,-3.7061499356418848
1772882806005986300,7.959986328125,7.444848388189077,-6.738686908736825,-3.51285994489938
1772882806015919000,7.969919189453125,5.919632040554284,-6.08911357794702,-3.342491395539045
1772882806025851100,7.97985107421875,4.146163985672593,-4.889819621738791,-3.1233284201323985
1772882806035782700,7.98978271484375,3.8516526315540074,-3.030688714879751,-3.450333638359606
1772882806045714700,7.999714599609375,4.7946880996704095,-1.4845312860250472,-2.3701094214290377
1772882806055647500,8.0096474609375,3.0750971809267997,0.1163718784958124,0.08475275139510631
1772882806065580500,8.01958056640625,-0.0029518355429172514,2.835707410049438,2.3329539952501652
1772882806075512600,8.0295126953125,-2.5733681407392024,5.757361749714613,3.68945745177716
1772882806085445600,8.039445556640626,-4.36722841078639,9.21887641504109,4.113580105192959
1772882806095378700,8.049378662109374,-7.8713494611740105,12.616901481753587,4.768009936103224
1772882806105310700,8.059310791015625,-13.33852414970994,15.169722509026526,4.313207190002501
1772882806115243800,8.069243896484375,-21.725888366055486,16.040384230327604,6.341364583963156
1772882806125176600,8.079176513671875,-28.274768742251396,15.442970125842093,10.720325518119335
1772882806135109600,8.089109619140626,-26.287660859298704,13.385916015481948,11.375769786769151
1772882806145041700,8.099041748046876,-19.158046295261382,12.055438980615138,9.255719414269924
1772882806154974700,8.108974609375,-12.530077769303322,10.442439135587215,6.267098155269027
1772882806164907800,8.11890771484375,-8.308044595915078,8.862030477562547,3.1408465411663054
1772882806174839600,8.128839599609375,-6.836412538951635,8.07157918805182,1.4823685550332069
1772882806184772600,8.138772705078125,-7.420694190141559,8.225926869198679,0.8832663513302802
1772882806194705400,8.148705322265625,-8.871988392475247,8.506249538967014,0.850382903382182
1772882806204637400,8.158637451171876,-10.05963575003147,8.825240669825673,1.0698521682590245
1772882806214570500,8.168570556640624,-10.667119997632502,9.250475668397545,1.2228189164415002
1772882806224503600,8.178503662109375,-10.131870965158939,9.39502500910759,1.5215043413743377
1772882806234435600,8.188435546875,-8.797779831448198,9.465608365374804,1.934805741046369
1772882806244368600,8.19836865234375,-7.7240154581815,9.08097367273867,1.9891943338379263
1772882806254301400,8.208301513671875,-6.6064218800604335,8.298525656941532,1.8305442793220281
1772882806264233500,8.2182333984375,-4.900418757164478,7.012400974020362,1.7097557534277439
1772882806274166500,8.22816650390625,-2.6487901692092417,5.323395747676491,1.6144959288045764
1772882806284099600,8.238099609375,-0.14302256953418255,3.4502094274580477,1.3263751525059342
1772882806294031600,8.248031494140625,2.544583944803476,1.6102169363111256,0.7451055426135659
1772882806303964700,8.257964599609375,5.346736291253566,-0.34907939513027664,-0.11879326042383909
1772882806313897700,8.267897705078125,7.747025746890902,-2.5572142937958238,-0.972902783113718
1772882806323829800,8.277829833984375,9.585898294097184,-4.595960594049096,-1.7291370379850268
1772882806333762600,8.287762451171876,11.002892751944064,-6.297026845064759,-2.157440776477754
1772882806343695600,8.297695556640624,11.834604272603988,-7.725695958614349,-2.306542665925622
1772882806353627600,8.307627685546874,11.978872458285093,-8.894601206299662,-1.571743121010065
1772882806363560700,8.317560791015625,11.249600736880302,-9.702163789609074,-0.29105127679258586
1772882806373493800,8.32749365234375,10.2327278791368,-9.919261649179457,0.3216393072798848
1772882806383425500,8.337425537109375,9.508819730591773,-9.32441534935534,-0.12289806539416312
1772882806393358600,8.347358642578126,9.115190999639033,-8.176984266853331,-1.3163804127141832
1772882806403291600,8.357291748046874,8.639203134429454,-7.009462582480907,-2.4865710240349173
1772882806413225700,8.367225830078125,7.679709867987036,-6.077897771927714,-3.327825156804919
1772882806423158500,8.377158447265625,6.08521598598659,-5.382307370850444,-3.826586871619522
1772882806433091600,8.387091552734375,4.056118973088264,-4.882553430128097,-4.288629798106849
1772882806443023600,8.397023681640626,2.210300552266836,-4.697947973361611,-4.73009404694587
1772882806452956700,8.406956787109374,1.1749971348196266,-4.709987955245375,-4.831016719636321
1772882806462889700,8.4168896484375,1.4852069933295249,-5.194560693448782,-4.2829026526317
1772882806472821500,8.426821533203125,3.144131554186344,-5.969795709127188,-3.5193364474371074
1772882806482754800,8.4367548828125,5.048299288123846,-6.560261601909994,-2.9957939271092413
1772882806492687600,8.4466875,6.711508394432068,-6.845424112924933,-2.685046600721776
1772882806502619400,8.456619384765625,7.782852847075462,-6.995110232001543,-2.4927976434648036
1772882806512552400,8.466552490234376,8.481534199905395,-7.053301724207401,-2.5101164425343274
1772882806522485500,8.476485595703124,8.834163396471737,-7.086171728152037,-2.4797531607136127
1772882806532417500,8.48641748046875,8.969550356560944,-7.036403780898452,-2.402381167219579
1772882806542350600,8.4963505859375,8.641022166550158,-7.073657699015736,-2.2177152124375104
1772882806552283600,8.50628369140625,7.790418313893675,-6.971219068804383,-1.804788491296768
1772882806562215700,8.516215576171875,6.5692772675365205,-6.908754137063026,-1.4026336318001151
1772882806572148500,8.5261484375,5.604451992416381,-6.635140025022626,-1.1093991657495499
1772882806582081500,8.53608154296875,4.738500348502397,-6.318690979862213,-1.0227464259520171
1772882806592013600,8.546013671875,3.9491362697064876,-5.670544467005134,-1.0915271167114375
1772882806601946600,8.555946533203125,3.592089256697893,-4.22628907726705,-1.8460840860202907
1772882806611879700,8.565879638671875,4.212699527853727,-2.7235937735199927,-2.537976509362459
1772882806621811700,8.575811767578125,4.363544753837585,-0.6266764393270016,-2.30790810905993
1772882806631744500,8.58574462890625,3.157871325725317,1.2133178053855895,-1.4037795869648455
1772882806641677600,8.595677490234374,1.5013023880839347,3.283980754381418,0.8533812084153294
1772882806651610600,8.605610595703125,-0.6549345655620098,5.777727076873183,3.0375811047419905
1772882806661542700,8.615542724609375,-3.507496079778671,8.604808112874627,4.561626070509851
1772882806671475700,8.625475830078125,-7.408172562220692,11.021561212056875,4.545672130052745
1772882806681408800,8.63540869140625,-11.837405301499366,11.407690527164936,4.286461806418002
1772882806691340800,8.6453408203125,-16.289294693744182,8.86254544134736,7.725708818095922
1772882806701273600,8.655273681640624,-18.917358885788918,7.531762117010355,12.574846300834416
1772882806711206700,8.66520654296875,-16.709977435839175,9.328252151039242,11.521536686575413
1772882806721138400,8.675138427734375,-12.062069796931743,10.978312437438964,6.056157649284601
1772882806731071500,8.685071533203125,-10.030086999464034,11.914826394832133,1.278267539680004
1772882806741004800,8.6950048828125,-10.80306576064825,12.255357157325744,-0.6224211199700832
1772882806750936600,8.7049365234375,-12.71365271397829,11.671862857121228,0.2003562758669257
1772882806760869400,8.714869384765626,-14.455107089483738,10.753575461292266,1.4001546744659543
1772882806770802400,8.724802490234374,-15.524060847598314,9.922098918431997,2.4284072966188193
1772882806780734500,8.734734375,-14.994412703871726,9.081444212859868,3.467365144920349
1772882806790667500,8.74466748046875,-12.528338232159614,8.41358002309799,3.9947769078969952
1772882806800600600,8.7546005859375,-8.831338986700773,7.672785621681809,3.3758199569061396
1772882806810532600,8.76453271484375,-5.4603468883424995,6.735149382260442,2.2936118726819754
1772882806820465700,8.774465576171876,-3.4144992316514253,5.90569060896337,1.1497864134564995
1772882806830398500,8.7843984375,-2.25167710327208,5.034824889522791,0.055421735231578347
1772882806840330500,8.79433056640625,-1.2555886748820542,4.688768057084083,-0.5629553700447082
1772882806850263600,8.804263671875,-0.41881110300421714,4.074382944053411,-0.7139446806743741
1772882806860196600,8.814196533203125,0.07404197228848934,3.6642689422458408,-0.6993298798665404
1772882806870129700,8.824129638671875,0.43377720146775245,3.38067762607038,-0.8162596845060587
1772882806880061700,8.834061767578126,0.4237123190492391,2.7152485545009375,-0.5456786565512418
1772882806889994500,8.843994384765624,0.5276128385066986,1.3242355101287364,0.03722761463224888
1772882806899927600,8.853927490234375,1.400647718679905,-0.6292080036312341,0.21846154913902283
1772882806909859600,8.863859619140625,3.2313591712623833,-2.908667432320118,0.001009177042543888
1772882806919792600,8.873792724609375,5.896019694298506,-5.205692912837863,-0.4616100880280137
1772882806929725700,8.8837255859375,8.975040186148881,-7.262265961682796,-1.1961819616675375
1772882806939657700,8.89365771484375,11.54815581343174,-9.068231680065393,-1.687082733848691
1772882806949590800,8.9035908203125,12.139087570160626,-10.139331802558898,-1.5523314413145184
1772882806959523600,8.913523681640624,11.013878256338835,-9.926333195000886,-1.6532441771328448
1772882806969455400,8.923455322265625,9.317750046247243,-8.836351261904834,-2.2918343416154383
1772882806979388400,8.933388427734375,7.653753004431724,-7.772265986609458,-2.7044837071195245
1772882806989321700,8.94332177734375,6.088034550538659,-6.994844274541736,-2.4438231846764684
1772882806999253500,8.95325341796875,4.725936050483584,-6.6169771763443945,-1.9536612481638789
1772882807009186600,8.9631865234375,3.9215526817321775,-6.498185961747169,-1.834554099485278
1772882807019119600,8.97311962890625,3.7372599441766736,-6.4696139472573995,-2.3504192170530556
1772882807029052000,8.983052001953125,4.034662343561649,-6.596304390671849,-3.2317405717954037
1772882807038984700,8.992984619140625,4.961937347966432,-6.817234375751018,-4.031256042249501
1772882807048917800,9.002917724609375,6.034051031416654,-7.113492865797877,-3.9321851349055765
1772882807058849800,9.012849853515625,6.308748847040533,-7.7350202517986295,-3.2997689828827976
1772882807068782800,9.022782958984376,5.937382216778397,-7.927798493626713,-2.662997265999019
1772882807078716000,9.0327158203125,4.951203772506117,-7.504006679600477,-2.4009832831203934
1772882807088648000,9.04264794921875,4.0871757901310914,-6.613906682857871,-2.843971380525827
1772882807098580700,9.052580810546875,3.8751983423143623,-5.732792541125416,-3.7933711229771374
1772882807108513800,9.062513671875,4.189864595711231,-5.232085829722881,-4.505843977533281
1772882807118445800,9.07244580078125,4.3605584315031765,-4.943207513055205,-4.207462211722135
1772882807128379000,9.08237890625,4.184411006480455,-4.906964233285189,-3.671913904041052
1772882807138312000,9.09231201171875,4.173896042206883,-4.266218352073431,-3.9319036876156925
1772882807148244000,9.102243896484374,4.395472508496046,-3.5547383079469204,-4.606692708204687
1772882807158177000,9.112177001953125,5.9068415325641626,-2.5265724872946738,-4.877378657838702
1772882807168109800,9.12210986328125,7.593686366003752,-2.41301917335093,-4.246106415154039
1772882807178043000,9.13204296875,7.827024581757187,-2.816131187441945,-1.516430691371858
1772882807187975000,9.141974853515626,5.490757224175334,-2.3719161785900593,1.6527447031781077
1772882807197908000,9.151907958984374,2.7916496571362015,-0.6647521952211857,3.4677611585006116
1772882807207841000,9.161841064453125,0.5128992534995078,1.2479413749992847,5.4451575025171035
1772882807217772800,9.171772705078125,-0.9536100536227226,3.846582488682866,7.305742115315795
1772882807227705900,9.181705810546875,-1.9212942253053187,7.367602651423216,6.685549777311087
1772882807237639000,9.191638916015625,-4.451853736409545,8.992868688306212,5.474413407617807
1772882807247570700,9.20157080078125,-7.997588653689623,9.297319252637028,5.176161113405227
1772882807257503700,9.211503662109376,-9.810850374299287,8.710802974262833,4.790943067923188
1772882807267436800,9.221436767578124,-9.097876292222738,7.238993807166814,3.9476086217477917
1772882807277368800,9.231368896484375,-8.302834167790412,5.520692343711853,3.3791955708190797
1772882807287302000,9.241302001953125,-8.480714115694164,3.6605782710343595,3.6087425775960087
1772882807297234700,9.251234619140625,-9.882228680336475,2.4798352860391137,4.7659138406068084
1772882807307166700,9.261166748046875,-12.19057576533556,3.0008512104988094,5.715439839786291
1772882807317099800,9.271099853515626,-14.588235456991194,4.391722800573707,5.2561862517565485
1772882807327032800,9.28103271484375,-15.694577573257684,6.645193217003345,3.0636291537120934
1772882807336964900,9.29096484375,-15.10371245202422,8.851443032574654,-0.22367606891691683
1772882807346898000,9.30089794921875,-14.13053611266613,9.77846844613254,-2.670753579214215
1772882807356830700,9.310830810546875,-12.923998761200904,9.97104911956191,-3.737237147822976
1772882807366762800,9.3207626953125,-11.65488717240095,9.474989357182382,-3.2264199612945315
1772882807376695800,9.33069580078125,-10.455311476641892,8.66043589207232,-1.4655182502582669
1772882807386628900,9.34062890625,-9.44554582055509,8.164581881397963,0.542602902367711
1772882807396561000,9.350560791015624,-9.049676617199182,7.884871206048131,2.4855764600396153
1772882807406494000,9.360493896484375,-8.577937641605734,7.444830268010497,3.7985114084750413
1772882807416427000,9.370427001953125,-7.423512170171737,7.1454703048169605,4.808628946739435
1772882807426359800,9.38035986328125,-5.90640080305934,6.132440678498148,4.922641110366582
1772882807436291800,9.390291748046875,-3.9749329742640254,5.055025381508469,4.084879203626513
1772882807446225000,9.400224853515626,-1.6132804155349731,3.9058290428996085,2.824075424444675
1772882807456158000,9.410157958984374,0.750379391363263,2.8744378304600713,1.6331149968177079
1772882807466089700,9.42008984375,2.835392352750897,1.933032009372115,0.4817009821593761
1772882807476023000,9.43002294921875,4.611899921458959,1.1334148321092128,-1.0346227417066693
1772882807485955800,9.439955810546875,5.595872380119562,0.2637333540171385,-2.8517677334904667
1772882807495888000,9.449887939453125,6.438662928676605,-0.9103080875128507,-4.065306195889413
1772882807505820700,9.459820556640626,8.343827272436021,-2.752500719052553,-4.254696256583929
1772882807515753700,9.469753662109374,10.907329268199204,-4.833243163514137,-3.3501281740278004
1772882807525685800,9.479685791015624,13.397828571593761,-6.204979260486364,-2.248921082562208
1772882807535618800,9.489618896484375,14.84658244179487,-6.91257048048079,-1.4189029218167066
1772882807545552000,9.4995517578125,14.458291564738749,-7.345483174073696,-0.36263182740360494
1772882807555484000,9.50948388671875,12.997552657711505,-7.13181938060522,0.27959786262512204
1772882807565416700,9.519416748046876,10.948529878115654,-6.810114314612746,0.3817155903190374
1772882807575349800,9.529349853515624,8.697968042609094,-6.449235176095366,0.5077896554008126
1772882807585281800,9.53928173828125,6.698214613094925,-6.384132881587743,0.6788233906716108
1772882807595214800,9.54921484375,4.941152918612957,-6.365609967425465,0.2851490670114755
1772882807605148000,9.55914794921875,4.375891025191545,-6.321950273919105,-0.9648559625193476
1772882807615080000,9.569079833984375,4.866299629941582,-6.261454596424103,-2.2314421244949103
1772882807625013000,9.579012939453126,5.262874935740232,-6.192731188809871,-3.2570874867588278
1772882807634945800,9.58894580078125,5.964566576302051,-6.285117796084284,-4.161533696500957
1772882807644877800,9.5988779296875,5.8831660579442975,-6.856290374854207,-3.9926553856983777
1772882807654811000,9.608810791015625,4.737120876842737,-7.23323977368474,-3.701527536538243
1772882807664744000,9.618743896484375,4.02951270571351,-7.141137244048714,-3.588459668023884
1772882807674676000,9.628676025390625,3.9872248850822447,-6.92282650155723,-3.749941438834369
1772882807684609000,9.638609130859376,4.146743831387162,-6.594779373061656,-3.909335297454893
1772882807694541800,9.648541748046876,4.271071637323498,-5.840775945982337,-3.9346977022483944
1772882807704473900,9.658473876953124,4.317681997328997,-5.21670179810822,-4.105349160203337
