time,seconds_elapsed,z,y,x
1772882798103299000,0.057299072265625,-0.823974609375,0.4203643798828125,0.328643798828125
1772882798113232100,0.067232177734375,-0.81732177734375,0.4214935302734375,0.3165130615234375
1772882798123164200,0.0771640625,-0.8087005615234375,0.42547607421875,0.3042755126953125
1772882798133097200,0.08709716796875,-0.813629150390625,0.4317626953125,0.29730224609375
1772882798143030300,0.0970302734375,-0.8238525390625,0.4344024658203125,0.2877044677734375
1772882798152962300,0.10696240234375,-0.832305908203125,0.4395751953125,0.2909393310546875
1772882798162895000,0.11689501953125,-0.8443603515625,0.436370849609375,0.3004302978515625
1772882798172828200,0.126828125,-0.84967041015625,0.43695068359375,0.3123016357421875
1772882798182761200,0.13676123046875,-0.8589935302734375,0.4441680908203125,0.3206939697265625
1772882798192693000,0.14669287109375,-0.864532470703125,0.448638916015625,0.3235321044921875
1772882798202626000,0.1566259765625,-0.8635406494140625,0.452239990234375,0.3278045654296875
1772882798212559000,0.16655908203125,-0.8574676513671875,0.451416015625,0.3316802978515625
1772882798222491100,0.1764912109375,-0.84765625,0.450927734375,0.3355865478515625
1772882798232424000,0.186423828125,-0.8463287353515625,0.448822021484375,0.3296051025390625
1772882798242357000,0.19635693359375,-0.8453369140625,0.4472503662109375,0.3232269287109375
1772882798252289000,0.2062890625,-0.83837890625,0.443634033203125,0.3253631591796875
1772882798262222000,0.21622216796875,-0.82220458984375,0.4347381591796875,0.338348388671875
1772882798272155100,0.226155029296875,-0.806121826171875,0.4297027587890625,0.35821533203125
1772882798282087200,0.236087158203125,-0.8052215576171875,0.423980712890625,0.3791351318359375
1772882798292020000,0.24602001953125,-0.802276611328125,0.4226531982421875,0.3901824951171875
1772882798301953000,0.255953125,-0.794830322265625,0.4268951416015625,0.394256591796875
1772882798311885000,0.265885009765625,-0.7920074462890625,0.42791748046875,0.3895416259765625
1772882798321818000,0.275818115234375,-0.78594970703125,0.4248199462890625,0.3883056640625
1772882798331751200,0.285751220703125,-0.778961181640625,0.4221954345703125,0.38482666015625
1772882798341683200,0.29568310546875,-0.7720489501953125,0.42315673828125,0.37225341796875
1772882798351616300,0.3056162109375,-0.771453857421875,0.43060302734375,0.3523712158203125
1772882798361549000,0.315549072265625,-0.772308349609375,0.440399169921875,0.329254150390625
1772882798371481000,0.325481201171875,-0.7655029296875,0.4541168212890625,0.3181304931640625
1772882798381414100,0.3354140625,-0.7612152099609375,0.4600830078125,0.3141632080078125
1772882798391347200,0.34534716796875,-0.7598724365234375,0.4668426513671875,0.3101043701171875
1772882798401279000,0.355279052734375,-0.752593994140625,0.4711761474609375,0.3059539794921875
1772882798411212300,0.36521240234375,-0.7487335205078125,0.46917724609375,0.3022918701171875
1772882798421145000,0.37514501953125,-0.744964599609375,0.4621124267578125,0.2969818115234375
1772882798431077000,0.3850771484375,-0.73876953125,0.4579620361328125,0.2890167236328125
1772882798441010000,0.395010009765625,-0.737335205078125,0.4473724365234375,0.285980224609375
1772882798450943000,0.40494287109375,-0.7398834228515625,0.435699462890625,0.2894287109375
1772882798460875000,0.414875,-0.733367919921875,0.42755126953125,0.2845916748046875
1772882798470808000,0.42480810546875,-0.72723388671875,0.421356201171875,0.2716217041015625
1772882798480741000,0.4347412109375,-0.70947265625,0.415008544921875,0.2568206787109375
1772882798490673200,0.444673095703125,-0.68853759765625,0.40673828125,0.2433013916015625
1772882798500606000,0.45460595703125,-0.64501953125,0.3978424072265625,0.2209625244140625
1772882798510539000,0.4645390625,-0.5782318115234375,0.3754425048828125,0.203826904296875
1772882798520472000,0.47447216796875,-0.5203704833984375,0.349945068359375,0.1887969970703125
1772882798530404000,0.484404052734375,-0.4713287353515625,0.3271942138671875,0.1674957275390625
1772882798540337200,0.494337158203125,-0.4257049560546875,0.3067474365234375,0.1551666259765625
1772882798550270200,0.504270263671875,-0.39752197265625,0.3226318359375,0.15081787109375
1772882798560202200,0.5142021484375,-0.424163818359375,0.37054443359375,0.15460205078125
1772882798570135000,0.524135009765625,-0.489288330078125,0.4397125244140625,0.1597137451171875
1772882798580068000,0.534068115234375,-0.552276611328125,0.500701904296875,0.1577911376953125
1772882798590000000,0.544000244140625,-0.5813140869140625,0.56463623046875,0.17364501953125
1772882798599933200,0.55393310546875,-0.5656585693359375,0.647918701171875,0.1404876708984375
1772882798609866200,0.5638662109375,-0.561279296875,0.7540130615234375,0.107391357421875
1772882798619798300,0.57379833984375,-0.5842132568359375,0.8557281494140625,0.080322265625
1772882798629731000,0.58373095703125,-0.685455322265625,0.9445343017578125,0.1043853759765625
1772882798639664000,0.5936640625,-0.8511199951171875,1.03717041015625,0.2039794921875
1772882798649596000,0.603595947265625,-1.0813751220703125,1.0773773193359375,0.3373870849609375
1772882798659529000,0.613529052734375,-1.3432769775390625,1.02667236328125,0.5358428955078125
1772882798669462300,0.623462158203125,-1.5054931640625,0.920806884765625,0.767486572265625
1772882798679394000,0.63339404296875,-1.6024932861328125,0.77630615234375,1.01275634765625
1772882798689327000,0.6433271484375,-1.793365478515625,0.68426513671875,1.1949005126953125
1772882798699260000,0.653260009765625,-1.99041748046875,0.77325439453125,1.1702117919921875
1772882798709192000,0.66319189453125,-2.059783935546875,0.946014404296875,0.9184722900390625
1772882798719125000,0.673125,-1.9143829345703125,1.1414031982421875,0.57757568359375
1772882798729058000,0.68305810546875,-1.699432373046875,1.324249267578125,0.283966064453125
1772882798738990000,0.692989990234375,-1.5115509033203125,1.4865570068359375,0.1310272216796875
1772882798748923100,0.702923095703125,-1.451904296875,1.621368408203125,0.052520751953125
1772882798758856000,0.71285595703125,-1.4919891357421875,1.7061309814453125,-0.0234222412109375
1772882798768788200,0.722788330078125,-1.5555572509765625,1.7085418701171875,-0.0512847900390625
1772882798778721000,0.732720947265625,-1.659698486328125,1.6471099853515625,-0.0239410400390625
1772882798788654000,0.742654052734375,-1.7600250244140625,1.53082275390625,0.0401763916015625
1772882798798587100,0.752587158203125,-1.71307373046875,1.43505859375,0.1202545166015625
1772882798808519200,0.762519287109375,-1.46295166015625,1.3863067626953125,0.1881561279296875
1772882798818452200,0.7724521484375,-1.16058349609375,1.338836669921875,0.1638336181640625
1772882798828385000,0.782385009765625,-0.8799591064453125,1.2257080078125,0.088104248046875
1772882798838317000,0.792317138671875,-0.5759124755859375,1.076141357421875,-0.0406036376953125
1772882798848250000,0.80225,-0.3599700927734375,0.8651123046875,-0.2068328857421875
1772882798858183200,0.81218310546875,-0.1401214599609375,0.64715576171875,-0.258575439453125
1772882798868115200,0.822115234375,0.1737060546875,0.4581298828125,-0.19036865234375
1772882798878048300,0.83204833984375,0.4977569580078125,0.2639007568359375,-0.093780517578125
1772882798887981000,0.84198095703125,0.7482757568359375,0.064727783203125,0.02838134765625
1772882798897913000,0.8519130859375,0.89117431640625,-0.03118896484375,0.170501708984375
1772882798907846000,0.861845947265625,0.9005126953125,-0.131011962890625,0.30413818359375
1772882798917779200,0.871779296875,0.8507080078125,-0.2045440673828125,0.3703765869140625
1772882798927711000,0.8817109375,0.8348388671875,-0.1411590576171875,0.3522491455078125
1772882798937644000,0.89164404296875,0.736663818359375,-0.0570068359375,0.26239013671875
1772882798947577000,0.9015771484375,0.487274169921875,0.000244140625,0.210906982421875
1772882798957509000,0.911509033203125,0.215179443359375,0.033416748046875,0.212860107421875
1772882798967442000,0.92144189453125,0.0029144287109375,0.0339202880859375,0.2656097412109375
1772882798977375000,0.931375,-0.19451904296875,-0.019561767578125,0.310089111328125
1772882798987307000,0.94130712890625,-0.3509368896484375,-0.06500244140625,0.3586883544921875
1772882798997240000,0.951239990234375,-0.400482177734375,-0.0966796875,0.425750732421875
1772882799007173000,0.961173095703125,-0.3882293701171875,-0.087158203125,0.4007110595703125
1772882799017105200,0.971105224609375,-0.327484130859375,-0.0260009765625,0.2770233154296875
1772882799027038200,0.9810380859375,-0.2130584716796875,0.057708740234375,0.0913238525390625
1772882799036971000,0.990970947265625,-0.0864715576171875,0.1251220703125,-0.0976104736328125
1772882799046904000,1.000904052734375,0.0130615234375,0.1660919189453125,-0.2600555419921875
1772882799056836000,1.010836181640625,0.0590057373046875,0.1891326904296875,-0.3557891845703125
1772882799066769200,1.02076904296875,0.0485687255859375,0.200775146484375,-0.37933349609375
1772882799076702200,1.0307021484375,0.0173187255859375,0.1913604736328125,-0.3643035888671875
1772882799086634200,1.04063427734375,-0.0435791015625,0.184173583984375,-0.3130950927734375
1772882799096567000,1.050567138671875,-0.1132354736328125,0.1907806396484375,-0.246856689453125
1772882799106500000,1.0605,-0.2208709716796875,0.1992340087890625,-0.171966552734375
1772882799116432100,1.07043212890625,-0.3778076171875,0.220489501953125,-0.0696868896484375
1772882799126365200,1.080365234375,-0.5980682373046875,0.231689453125,0.025543212890625
1772882799136298200,1.09029833984375,-0.78582763671875,0.315460205078125,0.066070556640625
1772882799146230300,1.100230224609375,-0.7890167236328125,0.494598388671875,0.0399627685546875
1772882799156163300,1.110163330078125,-0.79547119140625,0.589813232421875,0.1538543701171875
1772882799166096100,1.12009619140625,-0.8968963623046875,0.80108642578125,0.23919677734375
1772882799176028000,1.13002783203125,-1.0008697509765625,1.12896728515625,0.2414093017578125
1772882799185961200,1.139961181640625,-1.1548614501953125,1.36407470703125,0.297943115234375
1772882799195894300,1.149894287109375,-1.294464111328125,1.6310577392578125,0.28155517578125
1772882799205826000,1.159825927734375,-1.4539794921875,1.87890625,0.2825469970703125
1772882799215759000,1.169759033203125,-1.7399749755859375,2.1285400390625,0.3400421142578125
1772882799225692200,1.179692138671875,-2.1109771728515625,2.3957672119140625,0.48455810546875
1772882799235624200,1.189624267578125,-2.5078277587890625,2.529083251953125,0.7152862548828125
1772882799245557000,1.199556884765625,-2.742767333984375,2.38360595703125,0.8735809326171875
1772882799255490000,1.209489990234375,-2.714630126953125,2.109100341796875,1.033172607421875
1772882799265422000,1.219422119140625,-2.5015716552734375,1.84771728515625,1.215484619140625
1772882799275355100,1.229355224609375,-2.0843505859375,1.653167724609375,1.2346343994140625
1772882799285288200,1.2392880859375,-1.602142333984375,1.4929656982421875,1.0990142822265625
1772882799295221000,1.249220947265625,-1.252593994140625,1.3812103271484375,0.986175537109375
1772882799305153000,1.259153076171875,-1.045928955078125,1.35272216796875,0.9416656494140625
1772882799315086000,1.269086181640625,-0.970550537109375,1.3759613037109375,0.837677001953125
1772882799325019100,1.27901904296875,-1.0262603759765625,1.4753875732421875,0.5946807861328125
1772882799334951200,1.288951171875,-1.1098175048828125,1.562896728515625,0.343475341796875
1772882799344884200,1.29888427734375,-1.2016754150390625,1.50982666015625,0.1695556640625
1772882799354817300,1.3088173828125,-1.2450103759765625,1.3629302978515625,0.006103515625
1772882799364749300,1.318749267578125,-1.1708221435546875,1.1929779052734375,-0.148834228515625
1772882799374682000,1.32868212890625,-0.9503326416015625,1.003173828125,-0.277801513671875
1772882799384615200,1.338615234375,-0.6209716796875,0.791900634765625,-0.31158447265625
1772882799394547200,1.348547119140625,-0.214324951171875,0.5552825927734375,-0.2846832275390625
1772882799404480300,1.358480224609375,0.2013397216796875,0.2482757568359375,-0.2345123291015625
1772882799414413300,1.368413330078125,0.511260986328125,0.069061279296875,-0.1434783935546875
1772882799424345000,1.378344970703125,0.5913543701171875,0.0332183837890625,-0.0629119873046875
1772882799434278100,1.388278076171875,0.558319091796875,0.0234527587890625,-0.01898193359375
1772882799444211200,1.398211181640625,0.53045654296875,0.072845458984375,0.033355712890625
1772882799454143000,1.40814306640625,0.5010223388671875,0.124053955078125,0.0892181396484375
1772882799464076000,1.418075927734375,0.4495086669921875,0.176300048828125,0.128448486328125
1772882799474009000,1.428009033203125,0.36627197265625,0.203582763671875,0.1570892333984375
1772882799483941000,1.437941162109375,0.2496337890625,0.2144775390625,0.1577911376953125
1772882799493874200,1.447874267578125,0.1317291259765625,0.1844482421875,0.113739013671875
1772882799503807000,1.457806884765625,-0.0084686279296875,0.1083831787109375,0.0852813720703125
1772882799513739000,1.467739013671875,-0.1500091552734375,0.04559326171875,0.1278076171875
1772882799523672000,1.477672119140625,-0.30780029296875,-0.0531158447265625,0.2561187744140625
1772882799533605000,1.487605224609375,-0.39471435546875,-0.1173095703125,0.34649658203125
1772882799543537200,1.497537109375,-0.3804168701171875,-0.14166259765625,0.3347625732421875
1772882799553470200,1.50747021484375,-0.28662109375,-0.1309356689453125,0.2367401123046875
1772882799563403000,1.517403076171875,-0.15667724609375,-0.087249755859375,0.105194091796875
1772882799573335300,1.527335205078125,-0.0476837158203125,-0.0320281982421875,-0.0193634033203125
1772882799583268000,1.53726806640625,0.0111541748046875,0.0353546142578125,-0.138671875
1772882799593201200,1.547201171875,0.019439697265625,0.102264404296875,-0.25390625
1772882799603133200,1.55713330078125,0.011932373046875,0.1487579345703125,-0.3199310302734375
1772882799613066200,1.567066162109375,-0.0131072998046875,0.1664276123046875,-0.346038818359375
1772882799622999300,1.576999267578125,-0.057281494140625,0.14801025390625,-0.339324951171875
1772882799632932000,1.58693212890625,-0.0734405517578125,0.1237030029296875,-0.2594451904296875
1772882799642864000,1.596864013671875,-0.0988922119140625,0.106414794921875,-0.1300811767578125
1772882799652797200,1.606797119140625,-0.15869140625,0.1105194091796875,-0.0105743408203125
1772882799662730200,1.616730224609375,-0.221466064453125,0.1190185546875,0.0730438232421875
1772882799672662000,1.626662109375,-0.3408203125,0.1493072509765625,0.154449462890625
1772882799682595000,1.636594970703125,-0.4889678955078125,0.26397705078125,0.20599365234375
1772882799692528000,1.646528076171875,-0.5053558349609375,0.4774322509765625,0.164306640625
1772882799702460200,1.656460205078125,-0.522705078125,0.61492919921875,0.1870574951171875
1772882799712393000,1.66639306640625,-0.557098388671875,0.8440704345703125,0.1414031982421875
1772882799722326000,1.676325927734375,-0.55108642578125,1.1569671630859375,0.091705322265625
1772882799732258000,1.686258056640625,-0.47772216796875,1.4612579345703125,0.1053619384765625
1772882799742191000,1.696191162109375,-0.5029449462890625,1.6497650146484375,0.3149871826171875
1772882799752124200,1.706124267578125,-0.7807159423828125,1.75482177734375,0.5976715087890625
1772882799762056200,1.71605615234375,-1.3206787109375,1.825836181640625,0.8194580078125
1772882799771989000,1.725989013671875,-1.902252197265625,2.0269012451171875,1.02728271484375
1772882799781922000,1.735922119140625,-2.4188995361328125,2.2832183837890625,1.1798095703125
1772882799791854000,1.74585400390625,-2.7263946533203125,2.365234375,1.4126129150390625
1772882799801787100,1.755787109375,-2.9205780029296875,2.38958740234375,1.7504119873046875
1772882799811720200,1.76572021484375,-3.1791534423828125,2.39617919921875,2.0114288330078125
1772882799821652200,1.77565234375,-3.123779296875,2.4176483154296875,2.0650787353515625
1772882799831585300,1.785585205078125,-2.6415863037109375,2.4344329833984375,1.8643341064453125
1772882799841518000,1.79551806640625,-2.00103759765625,2.388458251953125,1.5019073486328125
1772882799851450000,1.8054501953125,-1.45574951171875,2.2415618896484375,1.1060943603515625
1772882799861383200,1.815383056640625,-1.006134033203125,1.9657135009765625,0.8156585693359375
1772882799871316200,1.825316162109375,-0.6347808837890625,1.6444244384765625,0.633636474609375
1772882799881249300,1.835249267578125,-0.4609222412109375,1.3621673583984375,0.5269622802734375
1772882799891181300,1.845181396484375,-0.5977630615234375,1.230010986328125,0.3326263427734375
1772882799901114000,1.855114013671875,-0.719482421875,1.083221435546875,0.076202392578125
1772882799911047200,1.865047119140625,-0.6458740234375,0.8721466064453125,-0.1236572265625
1772882799920979000,1.87497900390625,-0.4422607421875,0.66998291015625,-0.119293212890625
1772882799930912000,1.884912109375,-0.1731109619140625,0.4382781982421875,0.059356689453125
1772882799940845000,1.894844970703125,0.03607177734375,0.1959686279296875,0.2135772705078125
1772882799950777000,1.904777099609375,0.18511962890625,0.034332275390625,0.1930694580078125
1772882799960710100,1.914710205078125,0.34027099609375,-0.0264739990234375,0.03253173828125
1772882799970643000,1.924642822265625,0.4947509765625,-0.0452880859375,-0.146575927734375
1772882799980575000,1.934574951171875,0.5651702880859375,-0.0179901123046875,-0.1915283203125
1772882799990508000,1.944508056640625,0.5922698974609375,0.065277099609375,-0.22662353515625
1772882800000441000,1.954441162109375,0.6688232421875,0.174560546875,-0.254730224609375
1772882800010373000,1.964373046875,0.690399169921875,0.2135772705078125,-0.245758056640625
1772882800020306200,1.97430615234375,0.587310791015625,0.2400970458984375,-0.175567626953125
1772882800030239700,1.98423974609375,0.3742828369140625,0.25201416015625,-0.0659332275390625
1772882800040171800,1.994171875,0.1362762451171875,0.2418975830078125,0.057342529296875
1772882800050104800,2.004104736328125,-0.0817718505859375,0.2039642333984375,0.1494598388671875
1772882800060038000,2.014037841796875,-0.30670166015625,0.152679443359375,0.2282867431640625
1772882800069969700,2.0239697265625,-0.5033111572265625,0.102783203125,0.293243408203125
1772882800079902700,2.03390283203125,-0.649871826171875,0.051300048828125,0.3622283935546875
1772882800089835500,2.04383544921875,-0.6911163330078125,-0.014801025390625,0.379547119140625
1772882800099767800,2.053767822265625,-0.6033782958984375,-0.02886962890625,0.3068695068359375
1772882800109700600,2.06370068359375,-0.39813232421875,-0.0106048583984375,0.1611785888671875
1772882800119633700,2.073633544921875,-0.140533447265625,0.0169525146484375,-0.012359619140625
1772882800129565700,2.083565673828125,0.0723876953125,0.051483154296875,-0.176483154296875
1772882800139498800,2.093498779296875,0.2381134033203125,0.066619873046875,-0.2942657470703125
1772882800149431800,2.103431884765625,0.3334503173828125,0.0502777099609375,-0.327362060546875
1772882800159363800,2.11336376953125,0.3273162841796875,0.0092010498046875,-0.2923431396484375
1772882800169296600,2.123296630859375,0.2457427978515625,-0.022705078125,-0.207855224609375
1772882800179229700,2.133229736328125,0.1144256591796875,-0.035003662109375,-0.1256866455078125
1772882800189161700,2.14316162109375,-0.0260009765625,-0.0485382080078125,-0.0488433837890625
1772882800199094800,2.1530947265625,-0.156524658203125,-0.06121826171875,0.025726318359375
1772882800209027800,2.16302783203125,-0.2387847900390625,-0.0753936767578125,0.1190032958984375
1772882800218960600,2.172960693359375,-0.281707763671875,-0.0657958984375,0.210601806640625
1772882800228893000,2.182892822265625,-0.34417724609375,-0.0527191162109375,0.243560791015625
1772882800238825700,2.19282568359375,-0.4338836669921875,-0.009735107421875,0.24444580078125
1772882800248758800,2.2027587890625,-0.5588531494140625,0.1659393310546875,0.2076416015625
1772882800258690800,2.21269091796875,-0.568115234375,0.468994140625,0.01519775390625
1772882800268624000,2.222623779296875,-0.569427490234375,0.641754150390625,0.0045928955078125
1772882800278557000,2.232556884765625,-0.5870513916015625,0.9009246826171875,0.0767822265625
1772882800288489000,2.242489013671875,-0.541015625,1.3074798583984375,0.089202880859375
1772882800298421800,2.252421875,-0.52593994140625,1.5894927978515625,0.1693267822265625
1772882800308354800,2.262354736328125,-0.6363983154296875,1.80804443359375,0.325775146484375
1772882800318286600,2.27228662109375,-1.038330078125,1.9708404541015625,0.4999542236328125
1772882800328219600,2.2822197265625,-1.9264984130859375,2.090545654296875,0.880950927734375
1772882800338152700,2.292152587890625,-3.2144775390625,2.3965606689453125,1.5614013671875
1772882800348084700,2.302084716796875,-3.96026611328125,2.815032958984375,1.85943603515625
1772882800358017800,2.312017822265625,-3.73809814453125,2.983062744140625,1.6068572998046875
1772882800367950600,2.32195068359375,-2.940460205078125,2.9502716064453125,1.1996307373046875
1772882800377882600,2.331882568359375,-2.1373748779296875,2.7636260986328125,1.0345458984375
1772882800387815700,2.341815673828125,-1.59619140625,2.3944549560546875,1.120574951171875
1772882800397748700,2.351748779296875,-1.2831573486328125,1.996185302734375,1.271514892578125
1772882800407680800,2.3616806640625,-1.129913330078125,1.76055908203125,1.31793212890625
1772882800417613800,2.37161376953125,-1.1317596435546875,1.5999603271484375,1.2187957763671875
1772882800427546600,2.381546630859375,-1.1580657958984375,1.495758056640625,1.0200042724609375
1772882800437478700,2.391478759765625,-1.1886749267578125,1.4666595458984375,0.727447509765625
1772882800447411700,2.40141162109375,-1.2027587890625,1.4313812255859375,0.3890228271484375
1772882800457344800,2.4113447265625,-1.11376953125,1.3553314208984375,0.11712646484375
1772882800467277800,2.42127783203125,-0.9177093505859375,1.212432861328125,-0.058074951171875
1772882800477209900,2.4312099609375,-0.6856231689453125,1.0265350341796875,-0.1619110107421875
1772882800487143000,2.441142822265625,-0.482635498046875,0.863433837890625,-0.220916748046875
1772882800497075700,2.45107568359375,-0.3350830078125,0.684906005859375,-0.162628173828125
1772882800507007700,2.4610078125,-0.2402191162109375,0.464508056640625,-0.0039520263671875
1772882800516940800,2.47094091796875,-0.1635284423828125,0.302093505859375,0.153778076171875
1772882800526873900,2.480873779296875,-0.067352294921875,0.145904541015625,0.199981689453125
1772882800536806000,2.490805908203125,0.08544921875,0.0426483154296875,0.21234130859375
1772882800546739000,2.500739013671875,0.2902374267578125,0.0150909423828125,0.1982269287109375
1772882800556671700,2.510671630859375,0.5157928466796875,-0.055084228515625,0.1831817626953125
1772882800566603800,2.520603759765625,0.748291015625,-0.089691162109375,0.1796875
1772882800576536600,2.53053662109375,0.9217681884765625,-0.050628662109375,0.1282501220703125
1772882800586469600,2.5404697265625,0.927215576171875,-0.0379638671875,0.05169677734375
1772882800596401700,2.550401611328125,0.828948974609375,0.0129241943359375,0.0082244873046875
1772882800606334700,2.560334716796875,0.6353759765625,0.0825347900390625,0.016387939453125
1772882800616267800,2.570267822265625,0.3909149169921875,0.1299591064453125,0.0420989990234375
1772882800626199800,2.58019970703125,0.105743408203125,0.132293701171875,0.090667724609375
1772882800636132600,2.590132568359375,-0.2007904052734375,0.0899810791015625,0.152069091796875
1772882800646065700,2.600065673828125,-0.47760009765625,0.021392822265625,0.225555419921875
1772882800655997700,2.609997802734375,-0.651458740234375,-0.0441436767578125,0.29119873046875
1772882800665930800,2.6199306640625,-0.70440673828125,-0.0858612060546875,0.3303070068359375
1772882800675863800,2.62986376953125,-0.652099609375,-0.081573486328125,0.297393798828125
1772882800685795800,2.6397958984375,-0.5169830322265625,-0.0176239013671875,0.18341064453125
1772882800695729000,2.64972900390625,-0.3447418212890625,0.056304931640625,0.0405426025390625
1772882800705661700,2.65966162109375,-0.20556640625,0.0642852783203125,-0.093780517578125
1772882800715593700,2.66959375,-0.095703125,0.0886993408203125,-0.1880645751953125
1772882800725526800,2.67952685546875,-0.0230560302734375,0.1248931884765625,-0.2456817626953125
1772882800735459800,2.6894599609375,-0.010650634765625,0.1478118896484375,-0.2689666748046875
1772882800745391900,2.699391845703125,-0.02154541015625,0.1716461181640625,-0.27044677734375
1772882800755325000,2.709324951171875,-0.0341033935546875,0.1857147216796875,-0.2599029541015625
1772882800765257700,2.7192578125,-0.050811767578125,0.1957855224609375,-0.2397918701171875
1772882800775189800,2.729189697265625,-0.0327606201171875,0.184326171875,-0.181060791015625
1772882800785122800,2.739122802734375,0.055023193359375,0.1547698974609375,-0.0991363525390625
1772882800795055900,2.749055908203125,0.135162353515625,0.117706298828125,-0.0169525146484375
1772882800804989000,2.758989013671875,0.131744384765625,0.098114013671875,0.055084228515625
1772882800814920700,2.768920654296875,0.0030975341796875,0.123504638671875,0.098724365234375
1772882800824853800,2.778853759765625,-0.2398834228515625,0.2037200927734375,0.1513824462890625
1772882800834786600,2.78878662109375,-0.540435791015625,0.3450775146484375,0.2287139892578125
1772882800844718600,2.798718505859375,-0.792510986328125,0.5014801025390625,0.3294525146484375
1772882800854651600,2.808651611328125,-0.930450439453125,0.6185760498046875,0.5465087890625
1772882800864584700,2.818584716796875,-1.0449371337890625,0.9058685302734375,0.703125
1772882800874516700,2.828516845703125,-1.097503662109375,1.2967071533203125,0.6073150634765625
1772882800884449800,2.83844970703125,-1.0986785888671875,1.57012939453125,0.540191650390625
1772882800894382600,2.848382568359375,-1.2173004150390625,1.7941741943359375,0.6130523681640625
1772882800904315000,2.85831494140625,-1.42327880859375,2.1453094482421875,0.7363433837890625
1772882800914247700,2.86824755859375,-2.017425537109375,2.391082763671875,0.9555816650390625
1772882800924180700,2.8781806640625,-2.75250244140625,2.703369140625,1.132354736328125
1772882800934112800,2.88811279296875,-3.453155517578125,2.848358154296875,1.2150115966796875
1772882800944045800,2.8980458984375,-3.8504486083984375,2.7021026611328125,1.2857666015625
1772882800953979000,2.907978759765625,-3.6166534423828125,2.481964111328125,1.32373046875
1772882800963911000,2.917910888671875,-2.9278411865234375,2.300750732421875,1.168609619140625
1772882800973843700,2.92784375,-2.1982574462890625,2.052276611328125,0.927886962890625
1772882800983776800,2.93777685546875,-1.6294097900390625,1.7692718505859375,0.7561492919921875
1772882800993708800,2.947708740234375,-1.224151611328125,1.499847412109375,0.60894775390625
1772882801003641900,2.957641845703125,-1.0011749267578125,1.28131103515625,0.459869384765625
1772882801013575000,2.967574951171875,-0.8865814208984375,1.25244140625,0.304046630859375
1772882801023506200,2.977506103515625,-0.9478302001953125,1.35113525390625,0.1387481689453125
1772882801033439200,2.987439208984375,-1.1523284912109375,1.3390350341796875,0.018310546875
1772882801043372000,2.9973720703125,-1.24224853515625,1.293212890625,0.03717041015625
1772882801053305000,3.00730517578125,-1.158050537109375,1.1491241455078125,0.120819091796875
1772882801063237000,3.017237060546875,-0.9748992919921875,0.93939208984375,0.1397247314453125
1772882801073170200,3.027170166015625,-0.7118377685546875,0.7393951416015625,0.092620849609375
1772882801083103200,3.037103271484375,-0.419403076171875,0.5489654541015625,-0.0171051025390625
1772882801093035300,3.04703515625,-0.050323486328125,0.318206787109375,-0.136688232421875
1772882801102968300,3.05696826171875,0.3635711669921875,0.0511932373046875,-0.1014862060546875
1772882801112901000,3.066901123046875,0.626678466796875,-0.1800079345703125,0.048370361328125
1772882801122833200,3.076833251953125,0.7537078857421875,-0.2227783203125,0.1434783935546875
1772882801132766200,3.08676611328125,0.8203887939453125,-0.14794921875,0.11395263671875
1772882801142699300,3.09669921875,0.8752899169921875,-0.0413055419921875,0.0314483642578125
1772882801152631300,3.10663134765625,0.925537109375,0.038055419921875,-0.0107269287109375
1772882801162564400,3.116564453125,0.909332275390625,0.0993194580078125,0.0308380126953125
1772882801172497200,3.1264970703125,0.790191650390625,0.1293792724609375,0.0768585205078125
1772882801182429400,3.136429443359375,0.611419677734375,0.2222747802734375,0.084503173828125
1772882801192362200,3.1463623046875,0.3151397705078125,0.292816162109375,0.079071044921875
1772882801202295300,3.15629541015625,-0.0475006103515625,0.277923583984375,0.058990478515625
1772882801212227300,3.166227294921875,-0.4422760009765625,0.2342987060546875,0.111846923828125
1772882801222160400,3.176160400390625,-0.8254852294921875,0.10321044921875,0.2588958740234375
1772882801232093400,3.186093505859375,-1.0216827392578125,0.0064849853515625,0.4098358154296875
1772882801242025500,3.196025390625,-1.0048675537109375,-0.0548553466796875,0.460479736328125
1772882801251958300,3.205958251953125,-0.7881317138671875,-0.0836181640625,0.3698577880859375
1772882801261891300,3.215891357421875,-0.42596435546875,-0.0707855224609375,0.1718597412109375
1772882801271823000,3.225822998046875,-0.1024627685546875,-0.055694580078125,-0.043182373046875
1772882801281756200,3.235756103515625,0.1080169677734375,-0.0092926025390625,-0.2116851806640625
1772882801291689200,3.245689208984375,0.203338623046875,0.050689697265625,-0.30621337890625
1772882801301621200,3.255621337890625,0.2090301513671875,0.0794830322265625,-0.333831787109375
1772882801311554300,3.26555419921875,0.15106201171875,0.0878448486328125,-0.3000946044921875
1772882801321487000,3.275487060546875,0.0550384521484375,0.0821380615234375,-0.2340087890625
1772882801331419100,3.285419189453125,-0.0420074462890625,0.0536651611328125,-0.1678009033203125
1772882801341352200,3.295352294921875,-0.069061279296875,0.023651123046875,-0.0913543701171875
1772882801351285200,3.30528515625,-0.082489013671875,0.0255584716796875,-0.003570556640625
1772882801361218300,3.31521826171875,-0.085540771484375,0.015594482421875,0.0261993408203125
1772882801371150300,3.325150390625,-0.08050537109375,-0.0166778564453125,0.041473388671875
1772882801381083100,3.335083251953125,-0.150604248046875,-0.03271484375,0.102935791015625
1772882801391016200,3.34501611328125,-0.29644775390625,-0.033416748046875,0.17657470703125
1772882801400948200,3.3549482421875,-0.4762420654296875,0.0388946533203125,0.223358154296875
1772882801410881300,3.36488134765625,-0.73333740234375,0.182342529296875,0.273101806640625
1772882801420814300,3.374814453125,-0.829986572265625,0.51934814453125,0.1734619140625
1772882801430746400,3.384746337890625,-0.813446044921875,0.94891357421875,-0.0234375
1772882801440679400,3.394679443359375,-0.6495361328125,1.3121185302734375,-0.1341400146484375
1772882801450612200,3.4046123046875,-0.48931884765625,1.5418853759765625,0.09576416015625
1772882801460544300,3.414544189453125,-0.689483642578125,1.84271240234375,0.4487762451171875
1772882801470477300,3.424477294921875,-1.24102783203125,2.1093597412109375,0.690643310546875
1772882801480410400,3.434410400390625,-2.151519775390625,2.243621826171875,0.863800048828125
1772882801490342100,3.444342041015625,-3.4500885009765625,2.213897705078125,1.3574371337890625
1772882801500275500,3.454275390625,-4.363037109375,2.1483612060546875,1.9127655029296875
1772882801510208300,3.464208251953125,-3.9453887939453125,1.98468017578125,1.9036712646484375
1772882801520140300,3.474140380859375,-2.68658447265625,1.8336944580078125,1.3808135986328125
1772882801530073000,3.484072998046875,-1.6721649169921875,1.7476806640625,0.865325927734375
1772882801540006100,3.494006103515625,-1.155609130859375,1.6109771728515625,0.63720703125
1772882801549938200,3.503938232421875,-1.059661865234375,1.551300048828125,0.6563720703125
1772882801559871200,3.513871337890625,-1.168853759765625,1.574371337890625,0.7603759765625
1772882801569804300,3.52380419921875,-1.40643310546875,1.53399658203125,1.0002899169921875
1772882801579736300,3.533736328125,-1.69580078125,1.493408203125,1.1299591064453125
1772882801589669000,3.543669189453125,-1.9793701171875,1.5240020751953125,1.0497894287109375
1772882801599602200,3.553602294921875,-2.0666351318359375,1.42779541015625,0.910125732421875
1772882801609535200,3.56353515625,-1.8876953125,1.339141845703125,0.812225341796875
1772882801619467300,3.57346728515625,-1.5880584716796875,1.2280426025390625,0.656646728515625
1772882801629400300,3.583400390625,-1.2204132080078125,1.0982513427734375,0.4244537353515625
1772882801639333400,3.59333349609375,-0.8397216796875,0.9838104248046875,0.1625518798828125
1772882801649265400,3.603265380859375,-0.501495361328125,0.791168212890625,-0.0301055908203125
1772882801659198200,3.6131982421875,-0.202362060546875,0.6309661865234375,-0.15802001953125
1772882801669131300,3.62313134765625,0.0313262939453125,0.479888916015625,-0.22894287109375
1772882801679063300,3.633063232421875,0.187713623046875,0.3253326416015625,-0.2703704833984375
1772882801688996400,3.642996337890625,0.31048583984375,0.174835205078125,-0.2850189208984375
1772882801698929400,3.652929443359375,0.4453125,0.1065826416015625,-0.2785491943359375
1772882801708861400,3.662861328125,0.5209503173828125,-0.003662109375,-0.21875
1772882801718794200,3.672794189453125,0.55792236328125,-0.1275787353515625,-0.1063995361328125
1772882801728727300,3.682727294921875,0.6172027587890625,-0.1251220703125,-0.0186309814453125
1772882801738659000,3.6926591796875,0.658447265625,-0.12432861328125,0.0031280517578125
1772882801748592000,3.702592041015625,0.6552276611328125,-0.12213134765625,0.03759765625
1772882801758525400,3.712525390625,0.5858306884765625,-0.0970458984375,0.086395263671875
1772882801768457200,3.722457275390625,0.4307861328125,-0.056396484375,0.148956298828125
1772882801778390300,3.732390380859375,0.171173095703125,0.0004730224609375,0.2158660888671875
1772882801788323000,3.742322998046875,-0.130706787109375,0.0636138916015625,0.2502288818359375
1772882801798255000,3.752255126953125,-0.3825836181640625,0.124481201171875,0.2331085205078125
1772882801808188200,3.762188232421875,-0.5452117919921875,0.1455078125,0.189300537109375
1772882801818121200,3.772121337890625,-0.6285247802734375,0.077423095703125,0.188140869140625
1772882801828053200,3.78205322265625,-0.6313018798828125,-0.009613037109375,0.2314453125
1772882801837986300,3.791986328125,-0.615325927734375,-0.07427978515625,0.2899169921875
1772882801847919000,3.801919189453125,-0.5727691650390625,-0.110931396484375,0.26971435546875
1772882801857851400,3.811851318359375,-0.4504852294921875,-0.0933380126953125,0.155059814453125
1772882801867784200,3.8217841796875,-0.30712890625,-0.0745697021484375,0.021575927734375
1772882801877717200,3.83171728515625,-0.19342041015625,-0.05230712890625,-0.056976318359375
1772882801887649300,3.841649169921875,-0.13287353515625,-0.00115966796875,-0.1474609375
1772882801897582300,3.851582275390625,-0.1256866455078125,0.04888916015625,-0.2486724853515625
1772882801907515400,3.861515380859375,-0.1112518310546875,0.0363922119140625,-0.3088531494140625
1772882801917447400,3.871447509765625,-0.07965087890625,0.0370330810546875,-0.31201171875
1772882801927380200,3.881380126953125,-0.02880859375,-0.029083251953125,-0.260894775390625
1772882801937313300,3.891313232421875,0.0167388916015625,-0.0619354248046875,-0.1635894775390625
1772882801947246300,3.901246337890625,-0.0426483154296875,-0.0849151611328125,-0.06500244140625
1772882801957178400,3.911178466796875,-0.1614532470703125,-0.0562591552734375,0.03814697265625
1772882801967111400,3.921111328125,-0.329376220703125,-0.0013885498046875,0.1139984130859375
1772882801977044200,3.931044189453125,-0.504791259765625,0.1349029541015625,0.0933837890625
1772882801986976300,3.940976318359375,-0.4490814208984375,0.343902587890625,-0.04345703125
1772882801996909000,3.950908935546875,-0.3204803466796875,0.6811981201171875,-0.0816802978515625
1772882802006842400,3.96084228515625,-0.249542236328125,1.104827880859375,-0.07891845703125
1772882802016774100,3.970774169921875,-0.15771484375,1.4967498779296875,0.1528472900390625
1772882802026705200,3.980705078125,-0.3529205322265625,1.8247833251953125,0.4966583251953125
1772882802036637400,3.990637451171875,-0.9662322998046875,2.156951904296875,0.8101959228515625
1772882802046570500,4.000570556640625,-2.0885772705078125,2.32476806640625,1.1759490966796875
1772882802056502500,4.01050244140625,-3.61920166015625,2.27947998046875,1.790191650390625
1772882802066435600,4.020435546875,-4.5477447509765625,2.2309417724609375,2.2435455322265625
1772882802076368600,4.03036865234375,-4.1691436767578125,2.1117401123046875,2.0523681640625
1772882802086300700,4.04030078125,-2.92181396484375,2.0649566650390625,1.3328094482421875
1772882802096233700,4.050233642578125,-1.78466796875,1.9332275390625,0.630035400390625
1772882802106166500,4.06016650390625,-1.0695648193359375,1.6187744140625,0.28021240234375
1772882802116098600,4.0700986328125,-0.7563629150390625,1.36492919921875,0.298675537109375
1772882802126031600,4.080031494140625,-0.8570709228515625,1.241790771484375,0.4796142578125
1772882802135964700,4.089964599609375,-1.288848876953125,1.1786651611328125,0.662872314453125
1772882802145896700,4.099896728515625,-1.8406219482421875,1.276641845703125,0.7821502685546875
1772882802155829800,4.109829833984375,-2.2037506103515625,1.405059814453125,0.856781005859375
1772882802165762600,4.119762451171875,-2.2811279296875,1.52105712890625,0.8485260009765625
1772882802175694600,4.129694580078125,-2.141143798828125,1.6096649169921875,0.7603302001953125
1772882802185627600,4.139627685546875,-1.907135009765625,1.687744140625,0.5498046875
1772882802195560700,4.149560791015625,-1.6235504150390625,1.6193695068359375,0.3539276123046875
1772882802205492500,4.159492431640625,-1.3245086669921875,1.4348907470703125,0.1887054443359375
1772882802215425500,4.169425537109375,-0.988006591796875,1.2760009765625,0.10968017578125
1772882802225358600,4.179358642578125,-0.6962127685546875,1.02606201171875,0.0576629638671875
1772882802235290600,4.18929052734375,-0.413299560546875,0.8211669921875,-0.0147857666015625
1772882802245223400,4.199223388671875,-0.1434326171875,0.62713623046875,-0.1158599853515625
1772882802255156500,4.209156494140625,0.1322021484375,0.4041595458984375,-0.1835479736328125
1772882802265088500,4.219088623046875,0.3780670166015625,0.21075439453125,-0.18731689453125
1772882802275021600,4.229021484375,0.601043701171875,0.0764312744140625,-0.108062744140625
1772882802284954600,4.23895458984375,0.78863525390625,-0.0148773193359375,-0.0590057373046875
1772882802294887400,4.248887451171875,0.9039764404296875,-0.050384521484375,-0.0519866943359375
1772882802304819500,4.2588193359375,0.967254638671875,-0.0736236572265625,-0.024505615234375
1772882802314752500,4.26875244140625,0.92425537109375,-0.11883544921875,0.090484619140625
1772882802324685600,4.278685546875,0.7244873046875,-0.16265869140625,0.2236480712890625
1772882802334617600,4.28861767578125,0.4296112060546875,-0.1436767578125,0.34967041015625
1772882802344550700,4.298550537109375,0.100677490234375,-0.1198883056640625,0.4722900390625
1772882802354483700,4.308483642578125,-0.2102508544921875,-0.0801544189453125,0.5477752685546875
1772882802364415700,4.318415771484375,-0.4745635986328125,-0.0240325927734375,0.5245208740234375
1772882802374348500,4.3283486328125,-0.6341094970703125,0.02459716796875,0.4265289306640625
1772882802384281600,4.338281494140625,-0.6495361328125,0.0715789794921875,0.2672119140625
1772882802394213600,4.348213623046875,-0.522216796875,0.0979766845703125,0.0602874755859375
1772882802404148500,4.3581484375,-0.301361083984375,0.0666351318359375,-0.11700439453125
1772882802414080500,4.36808056640625,-0.160430908203125,0.0404052734375,-0.197784423828125
1772882802424013600,4.378013671875,-0.1216278076171875,0.0230255126953125,-0.20867919921875
1772882802433946600,4.387946533203125,-0.1392059326171875,-0.0022125244140625,-0.2177886962890625
1772882802443878700,4.397878662109375,-0.1894073486328125,0.0191497802734375,-0.2421722412109375
1772882802453811700,4.407811767578125,-0.25726318359375,0.0237274169921875,-0.2430419921875
1772882802463744800,4.417744873046875,-0.3135986328125,-0.0177459716796875,-0.19793701171875
1772882802473676800,4.4276767578125,-0.295318603515625,-0.03973388671875,-0.17156982421875
1772882802483609600,4.437609619140625,-0.236419677734375,-0.0630950927734375,-0.1594696044921875
1772882802493542700,4.447542724609375,-0.11187744140625,-0.072113037109375,-0.145721435546875
1772882802503475700,4.457475830078125,0.0233306884765625,-0.079437255859375,-0.1323394775390625
1772882802513407700,4.46740771484375,0.1222076416015625,-0.0955657958984375,-0.0900421142578125
1772882802523340800,4.4773408203125,0.1364898681640625,-0.1078948974609375,0.0090484619140625
1772882802533273600,4.487273681640625,0.055084228515625,-0.0937042236328125,0.1112823486328125
1772882802543205400,4.497205322265625,-0.09185791015625,-0.0765380859375,0.2063140869140625
1772882802553138400,4.507138427734375,-0.2376251220703125,-0.0578155517578125,0.3067626953125
1772882802563071500,4.517071533203125,-0.354736328125,0.0076751708984375,0.3695220947265625
1772882802573003500,4.52700341796875,-0.432830810546875,0.198089599609375,0.2655029296875
1772882802582936600,4.5369365234375,-0.35650634765625,0.3842926025390625,0.0490875244140625
1772882802592869600,4.54686962890625,-0.2521820068359375,0.5740966796875,0.11187744140625
1772882802602801700,4.5568017578125,-0.263763427734375,0.855377197265625,0.176239013671875
1772882802612734500,4.566734375,-0.336456298828125,1.1086578369140625,0.295196533203125
1772882802622667500,4.57666748046875,-0.6940765380859375,1.4513702392578125,0.44610595703125
1772882802632599600,4.586599609375,-1.268035888671875,1.8728179931640625,0.6240386962890625
1772882802642532600,4.59653271484375,-1.914154052734375,2.326751708984375,0.784393310546875
1772882802652465700,4.606465576171875,-2.610137939453125,2.5165863037109375,1.142181396484375
1772882802662397700,4.616397705078125,-3.3438568115234375,2.634246826171875,1.653076171875
1772882802672330500,4.62633056640625,-3.8677520751953125,2.6679229736328125,1.7692108154296875
1772882802682263600,4.636263671875,-3.9980316162109375,2.4694976806640625,1.45269775390625
1772882802692195600,4.646195556640625,-3.5601806640625,2.4334869384765625,0.8602294921875
1772882802702128600,4.656128662109375,-2.7476806640625,2.2565765380859375,0.2303466796875
1772882802712061700,4.666061767578125,-1.8737945556640625,1.90057373046875,-0.1132049560546875
1772882802721993700,4.67599365234375,-1.1765594482421875,1.551910400390625,-0.1211395263671875
1772882802731926800,4.6859267578125,-0.9415130615234375,1.2635040283203125,0.1291656494140625
1772882802741859600,4.695859619140625,-1.1759796142578125,1.163909912109375,0.424560546875
1772882802751792600,4.705792724609375,-1.636993408203125,1.2626190185546875,0.54376220703125
1772882802761724400,4.715724365234375,-2.0120086669921875,1.4637451171875,0.5086669921875
1772882802771657700,4.72565771484375,-2.1402587890625,1.5466766357421875,0.364776611328125
1772882802781590800,4.7355908203125,-2.0088653564453125,1.5726776123046875,0.1464385986328125
1772882802791522600,4.7455224609375,-1.7031097412109375,1.52032470703125,-0.0503082275390625
1772882802801455600,4.75545556640625,-1.372589111328125,1.3451080322265625,-0.1348724365234375
1772882802811388400,4.765388427734375,-0.99884033203125,1.0853271484375,-0.063751220703125
1772882802821320400,4.775320556640625,-0.5542755126953125,0.7544708251953125,0.0140533447265625
1772882802831253500,4.78525341796875,-0.1640777587890625,0.4464263916015625,0.0851287841796875
1772882802841186600,4.7951865234375,0.153045654296875,0.2159271240234375,0.1289520263671875
1772882802851118600,4.80511865234375,0.47540283203125,0.062591552734375,0.138824462890625
1772882802861051600,4.8150517578125,0.788421630859375,-0.0632781982421875,0.130584716796875
1772882802870984400,4.824984375,0.9961395263671875,-0.17071533203125,0.1773681640625
1772882802880916500,4.83491650390625,1.0620269775390625,-0.1968994140625,0.20709228515625
1772882802890849500,4.844849609375,1.02740478515625,-0.1761627197265625,0.1598358154296875
1772882802900782600,4.854782470703125,0.894744873046875,-0.15185546875,0.1274261474609375
1772882802910714600,4.864714599609375,0.647125244140625,-0.16046142578125,0.1894989013671875
1772882802920647700,4.874647705078125,0.3362274169921875,-0.153045654296875,0.271331787109375
1772882802930580700,4.884580810546875,0.034759521484375,-0.117950439453125,0.3064117431640625
1772882802940512800,4.8945126953125,-0.2300567626953125,-0.069061279296875,0.32086181640625
1772882802950445600,4.904445556640625,-0.4391632080078125,-0.0208892822265625,0.2893524169921875
1772882802960378600,4.914378662109375,-0.573638916015625,0.0376739501953125,0.205078125
1772882802970310700,4.924310546875,-0.626708984375,0.09130859375,0.097991943359375
1772882802980243700,4.93424365234375,-0.6154022216796875,0.1215057373046875,0.02313232421875
1772882802990176800,4.9441767578125,-0.5156402587890625,0.1161651611328125,-0.0319061279296875
1772882803000108500,4.954108642578125,-0.387359619140625,0.0993499755859375,-0.119232177734375
1772882803010041600,4.96404150390625,-0.2721099853515625,0.089202880859375,-0.2094573974609375
1772882803019974700,4.973974609375,-0.185546875,0.0650634765625,-0.2720947265625
1772882803029907000,4.983906982421875,-0.1345977783203125,0.015838623046875,-0.2988128662109375
1772882803039840000,4.993840087890625,-0.0968017578125,-0.0448455810546875,-0.299835205078125
1772882803049773000,5.00377294921875,-0.0397491455078125,-0.096099853515625,-0.278106689453125
1772882803059705900,5.013705810546875,0.001739501953125,-0.108734130859375,-0.289398193359375
1772882803069638000,5.023637939453125,0.0449676513671875,-0.0883331298828125,-0.29644775390625
1772882803079571000,5.033571044921875,0.0980072021484375,-0.037841796875,-0.2617034912109375
1772882803089504000,5.04350390625,0.0935516357421875,0.001617431640625,-0.1858062744140625
1772882803099436000,5.05343603515625,0.07415771484375,0.0288848876953125,-0.0941162109375
1772882803109369000,5.063369140625,0.0408935546875,0.069366455078125,0.00341796875
1772882803119302100,5.07330224609375,-0.052337646484375,0.103973388671875,0.0849761962890625
1772882803129234200,5.083234130859375,-0.1493988037109375,0.1501922607421875,0.1441192626953125
1772882803139167000,5.0931669921875,-0.2528228759765625,0.190765380859375,0.2154541015625
1772882803149100000,5.10310009765625,-0.3491973876953125,0.2574920654296875,0.2092132568359375
1772882803159032000,5.113031982421875,-0.27911376953125,0.377227783203125,0.08587646484375
1772882803168965000,5.122965087890625,-0.094390869140625,0.468475341796875,0.1931915283203125
1772882803178898200,5.132898193359375,-0.1298980712890625,0.6186981201171875,0.4169921875
1772882803188830000,5.142829833984375,-0.3221435546875,0.8639068603515625,0.6164093017578125
1772882803198763000,5.152762939453125,-0.7220458984375,1.1344757080078125,0.785614013671875
1772882803208695800,5.16269580078125,-1.2602996826171875,1.55267333984375,0.780609130859375
1772882803218627800,5.1726279296875,-1.7806549072265625,1.898773193359375,0.7752838134765625
1772882803228561000,5.182560791015625,-2.3406982421875,2.0798797607421875,0.874053955078125
1772882803238494000,5.192493896484375,-2.756683349609375,2.35992431640625,1.048858642578125
1772882803248426000,5.202426025390625,-2.9542388916015625,2.621124267578125,1.09857177734375
1772882803258359000,5.212359130859375,-3.1165924072265625,2.76080322265625,1.08477783203125
1772882803268291800,5.222291748046875,-3.313690185546875,2.78546142578125,1.1047515869140625
1772882803278225000,5.232224853515625,-3.323211669921875,2.6001434326171875,0.9965362548828125
1772882803288157000,5.242156982421875,-2.9340667724609375,2.3478546142578125,0.8163604736328125
1772882803298090000,5.252090087890625,-2.349822998046875,2.1182098388671875,0.631011962890625
1772882803308022000,5.26202197265625,-1.9010162353515625,1.8379364013671875,0.51513671875
1772882803317955000,5.271955078125,-1.6390380859375,1.5655059814453125,0.503265380859375
1772882803327888100,5.28188818359375,-1.548858642578125,1.351776123046875,0.567138671875
1772882803337821000,5.291821044921875,-1.5960235595703125,1.225433349609375,0.5936126708984375
1772882803347753000,5.3017529296875,-1.578826904296875,1.1406707763671875,0.4859619140625
1772882803357686000,5.31168603515625,-1.4297943115234375,1.097869873046875,0.2826080322265625
1772882803367619000,5.321619140625,-1.2057647705078125,1.0766143798828125,0.0716552734375
1772882803377551000,5.331551025390625,-0.9405670166015625,1.0813751220703125,-0.10858154296875
1772882803387484200,5.341484130859375,-0.675201416015625,1.0106201171875,-0.2325439453125
1772882803397417000,5.3514169921875,-0.4061431884765625,0.841522216796875,-0.2945098876953125
1772882803407349000,5.361348876953125,-0.1717987060546875,0.5966644287109375,-0.2902069091796875
1772882803417282000,5.371281982421875,-0.028717041015625,0.3556060791015625,-0.23248291015625
1772882803427215000,5.381215087890625,0.1242523193359375,0.183441162109375,-0.1815185546875
1772882803437147000,5.39114697265625,0.30963134765625,0.091796875,-0.1362457275390625
1772882803447080000,5.401079833984375,0.4839935302734375,-0.008514404296875,-0.0809783935546875
1772882803457013000,5.411012939453125,0.654571533203125,-0.1148223876953125,0.0442962646484375
1772882803466945000,5.420945068359375,0.83984375,-0.1502685546875,0.17877197265625
1772882803476877800,5.4308779296875,0.958526611328125,-0.1731719970703125,0.29473876953125
1772882803486811000,5.440810791015625,0.950225830078125,-0.191131591796875,0.39337158203125
1772882803496743000,5.450742919921875,0.78875732421875,-0.181915283203125,0.495635986328125
1772882803506676000,5.460676025390625,0.5150299072265625,-0.1480712890625,0.5610198974609375
1772882803516609000,5.470609130859375,0.21728515625,-0.046905517578125,0.5563812255859375
1772882803526541000,5.480541015625,-0.0999908447265625,0.04217529296875,0.453125
1772882803536474000,5.49047412109375,-0.39404296875,0.1009979248046875,0.326934814453125
1772882803546407000,5.500406982421875,-0.5798797607421875,0.11572265625,0.21124267578125
1772882803556339000,5.5103388671875,-0.5955047607421875,0.084075927734375,0.10186767578125
1772882803566272000,5.52027197265625,-0.4936065673828125,0.0514984130859375,0.0059814453125
1772882803576205000,5.530205078125,-0.346649169921875,0.036102294921875,-0.1090240478515625
1772882803586138000,5.54013818359375,-0.2122039794921875,0.0472259521484375,-0.2059783935546875
1772882803596070100,5.550070068359375,-0.1364898681640625,0.05560302734375,-0.2833709716796875
1772882803606003000,5.5600029296875,-0.144500732421875,0.05950927734375,-0.319091796875
1772882803615936000,5.56993603515625,-0.1715240478515625,0.0411224365234375,-0.3159332275390625
1772882803625868000,5.579867919921875,-0.22650146484375,0.013916015625,-0.313629150390625
1772882803635801000,5.589801025390625,-0.2921295166015625,-0.0104522705078125,-0.316009521484375
1772882803645734100,5.599734130859375,-0.31939697265625,-0.0106658935546875,-0.2891082763671875
1772882803655666200,5.609666259765625,-0.3028106689453125,-0.0485687255859375,-0.242340087890625
1772882803665599200,5.61959912109375,-0.2751007080078125,-0.04766845703125,-0.1732940673828125
1772882803675532000,5.629531982421875,-0.2385406494140625,-0.054595947265625,-0.0830230712890625
1772882803685463800,5.6394638671875,-0.2086639404296875,-0.0543060302734375,0.041015625
1772882803695396900,5.64939697265625,-0.219268798828125,-0.0481109619140625,0.177886962890625
1772882803705330000,5.659329833984375,-0.2636871337890625,-0.0411834716796875,0.3228912353515625
1772882803715262000,5.669261962890625,-0.3243865966796875,0.0513763427734375,0.43145751953125
1772882803725195000,5.679195068359375,-0.4070892333984375,0.246795654296875,0.34417724609375
1772882803735127800,5.6891279296875,-0.333831787109375,0.406341552734375,0.240936279296875
1772882803745059800,5.699059814453125,-0.2024688720703125,0.5612640380859375,0.3481292724609375
1772882803754993000,5.708992919921875,-0.241485595703125,0.89373779296875,0.3845977783203125
1772882803764926000,5.718926025390625,-0.26324462890625,1.2481536865234375,0.398529052734375
1772882803774858000,5.72885791015625,-0.402557373046875,1.517730712890625,0.4940643310546875
1772882803784791000,5.738791015625,-0.9504852294921875,1.966766357421875,0.6115570068359375
1772882803794724000,5.74872412109375,-1.5179443359375,2.4326934814453125,0.6133575439453125
1772882803804656000,5.75865625,-2.0134735107421875,2.648590087890625,0.6081085205078125
1772882803814589000,5.7685888671875,-2.6559295654296875,2.6053619384765625,0.9094696044921875
1772882803824522000,5.77852197265625,-3.5072021484375,2.417449951171875,1.38897705078125
1772882803834455000,5.788455078125,-3.949462890625,2.2918548583984375,1.4920196533203125
1772882803844387000,5.798386962890625,-3.6584930419921875,2.27362060546875,1.0096282958984375
1772882803854320000,5.808320068359375,-3.0168609619140625,2.1622467041015625,0.4659271240234375
1772882803864253000,5.8182529296875,-2.2845916748046875,1.993438720703125,0.1761627197265625
1772882803874185000,5.82818505859375,-1.62213134765625,1.8655548095703125,0.0157012939453125
1772882803884118000,5.838117919921875,-1.2096099853515625,1.7469024658203125,-0.0570068359375
1772882803894051000,5.848051025390625,-1.209320068359375,1.6287689208984375,0.011322021484375
1772882803903983000,5.857983154296875,-1.4281005859375,1.539276123046875,0.1930084228515625
1772882803913916200,5.867916259765625,-1.6826171875,1.4923248291015625,0.37738037109375
1772882803923849200,5.87784912109375,-1.8343353271484375,1.4566802978515625,0.4512481689453125
1772882803933781000,5.887781005859375,-1.810699462890625,1.436309814453125,0.3529205322265625
1772882803943713800,5.8977138671875,-1.621978759765625,1.3515625,0.1993255615234375
1772882803953646800,5.907646728515625,-1.2384185791015625,1.2327117919921875,0.1079254150390625
1772882803963579000,5.917578857421875,-0.7428131103515625,1.0393218994140625,0.0416107177734375
1772882803973512000,5.927511962890625,-0.2713623046875,0.7623291015625,0.0011444091796875
1772882803983445000,5.937445068359375,0.1086883544921875,0.483734130859375,-0.0083770751953125
1772882803993377000,5.947376953125,0.4253082275390625,0.2127685546875,-0.0123748779296875
1772882804003310000,5.95731005859375,0.74566650390625,0.0107269287109375,0.0019683837890625
1772882804013243000,5.967242919921875,1.074981689453125,-0.1232452392578125,0.021881103515625
1772882804023175000,5.9771748046875,1.269073486328125,-0.2379302978515625,0.103973388671875
1772882804033108500,5.9871083984375,1.271026611328125,-0.2503662109375,0.2042236328125
1772882804043041500,5.99704150390625,1.093292236328125,-0.197357177734375,0.2890472412109375
1772882804052973600,6.0069736328125,0.7994232177734375,-0.1505889892578125,0.3585662841796875
1772882804062906600,6.01690673828125,0.50286865234375,-0.0832366943359375,0.388427734375
1772882804072839400,6.02683935546875,0.1934661865234375,0.0106658935546875,0.349365234375
1772882804082772500,6.0367724609375,-0.110382080078125,0.073577880859375,0.285736083984375
1772882804092704500,6.04670458984375,-0.3791961669921875,0.1027984619140625,0.22735595703125
1772882804102637600,6.056637451171875,-0.5684051513671875,0.0968170166015625,0.1968231201171875
1772882804112570600,6.066570556640625,-0.615875244140625,0.090362548828125,0.1416168212890625
1772882804122502700,6.076502685546875,-0.5435028076171875,0.0877532958984375,0.0533294677734375
1772882804132435500,6.086435546875,-0.4040374755859375,0.1035919189453125,-0.0278472900390625
1772882804142368500,6.096368408203125,-0.236541748046875,0.10888671875,-0.0753936767578125
1772882804152300500,6.106300537109375,-0.111907958984375,0.077392578125,-0.1092529296875
1772882804162233600,6.116233642578125,-0.087310791015625,0.0428314208984375,-0.1201629638671875
1772882804172166700,6.126166748046875,-0.1552581787109375,-0.0080718994140625,-0.1111297607421875
1772882804182098400,6.136098388671875,-0.2378692626953125,-0.0564422607421875,-0.0753936767578125
1772882804192031700,6.14603173828125,-0.2589111328125,-0.1024932861328125,-0.0574798583984375
1772882804201964500,6.155964599609375,-0.2176513671875,-0.13372802734375,-0.0461273193359375
1772882804211896300,6.165896240234375,-0.138702392578125,-0.1414031982421875,-0.055633544921875
1772882804221829400,6.175829345703125,-0.0593109130859375,-0.11474609375,-0.1018829345703125
1772882804231762400,6.185762451171875,-0.005462646484375,-0.0706939697265625,-0.1417236328125
1772882804241694500,6.195694580078125,0.0053253173828125,-0.0240325927734375,-0.1558074951171875
1772882804251627500,6.20562744140625,-0.018157958984375,0.001617431640625,-0.1242828369140625
1772882804261560300,6.215560302734375,-0.0523834228515625,-0.022216796875,-0.0338897705078125
1772882804271492600,6.22549267578125,-0.1258087158203125,-0.063079833984375,0.114776611328125
1772882804281425400,6.23542529296875,-0.28765869140625,-0.041168212890625,0.252410888671875
1772882804291358500,6.2453583984375,-0.409149169921875,0.0853118896484375,0.247589111328125
1772882804301290500,6.25529052734375,-0.2621917724609375,0.2788543701171875,0.14141845703125
1772882804311223600,6.2652236328125,-0.183563232421875,0.4422149658203125,0.185791015625
1772882804321156600,6.275156494140625,-0.2440338134765625,0.8054962158203125,0.1864166259765625
1772882804331088600,6.285088623046875,-0.2786407470703125,1.20513916015625,0.31500244140625
1772882804341021400,6.295021484375,-0.499786376953125,1.597991943359375,0.528533935546875
1772882804350954500,6.30495458984375,-1.133819580078125,2.0727691650390625,0.75347900390625
1772882804360886500,6.314886474609375,-2.2314910888671875,2.40557861328125,0.9504241943359375
1772882804370819600,6.324819580078125,-3.5955352783203125,2.671630859375,1.2688140869140625
1772882804380752600,6.334752685546875,-4.3368072509765625,2.8946380615234375,1.495269775390625
1772882804390685400,6.344685546875,-3.81976318359375,2.9455108642578125,1.3025360107421875
1772882804400617500,6.354617431640625,-2.801513671875,2.679962158203125,0.8415679931640625
1772882804410550500,6.364550537109375,-1.881195068359375,2.3621978759765625,0.611724853515625
1772882804420483600,6.374483642578125,-1.3973846435546875,1.9817657470703125,0.623565673828125
1772882804430415400,6.384415283203125,-1.217010498046875,1.67340087890625,0.690277099609375
1772882804440348700,6.3943486328125,-1.23736572265625,1.5218963623046875,0.674835205078125
1772882804450281700,6.40428173828125,-1.430908203125,1.468048095703125,0.5703582763671875
1772882804460213500,6.414213623046875,-1.6219329833984375,1.4764556884765625,0.467742919921875
1772882804470146300,6.424146240234375,-1.6993865966796875,1.4918670654296875,0.37115478515625
1772882804480079400,6.434079345703125,-1.6810455322265625,1.496795654296875,0.2772979736328125
1772882804490011400,6.444011474609375,-1.608428955078125,1.5067291259765625,0.1789398193359375
1772882804499944400,6.4539443359375,-1.498260498046875,1.515899658203125,0.0889892578125
1772882804509877500,6.46387744140625,-1.349151611328125,1.4537353515625,0.0042724609375
1772882804519809500,6.4738095703125,-1.18316650390625,1.3200836181640625,-0.0146331787109375
1772882804529742600,6.48374267578125,-0.946014404296875,1.1340179443359375,0.0549468994140625
1772882804539675400,6.49367529296875,-0.6360931396484375,0.915496826171875,0.14202880859375
1772882804549607400,6.503607421875,-0.326568603515625,0.6963043212890625,0.20501708984375
1772882804559540500,6.51354052734375,-0.054412841796875,0.4572906494140625,0.22735595703125
1772882804569473500,6.5234736328125,0.1789703369140625,0.245452880859375,0.2089691162109375
1772882804579405600,6.533405517578125,0.4202423095703125,0.1060638427734375,0.183868408203125
1772882804589338600,6.543338623046875,0.6601715087890625,-0.007568359375,0.1338653564453125
1772882804599271400,6.553271484375,0.832763671875,-0.1167449951171875,0.0999755859375
1772882804609203500,6.563203369140625,0.889404296875,-0.178863525390625,0.1221466064453125
1772882804619136500,6.573136474609375,0.8351593017578125,-0.203765869140625,0.1904144287109375
1772882804629069600,6.583069580078125,0.685882568359375,-0.1954193115234375,0.2645263671875
1772882804639002600,6.593002685546875,0.481842041015625,-0.1717987060546875,0.341827392578125
1772882804648934700,6.6029345703125,0.274871826171875,-0.1548309326171875,0.400238037109375
1772882804658867700,6.61286767578125,0.076171875,-0.13067626953125,0.3996124267578125
1772882804668800500,6.622800537109375,-0.1043701171875,-0.0874786376953125,0.34869384765625
1772882804678732300,6.632732177734375,-0.2474212646484375,-0.006195068359375,0.243896484375
1772882804688665300,6.642665283203125,-0.34814453125,0.094146728515625,0.1030426025390625
1772882804698598700,6.6525986328125,-0.3822479248046875,0.1737518310546875,-0.031524658203125
1772882804708530400,6.662530517578125,-0.3595428466796875,0.196533203125,-0.1304473876953125
1772882804718463500,6.67246337890625,-0.319244384765625,0.1651458740234375,-0.1628875732421875
1772882804728396300,6.682396240234375,-0.3054351806640625,0.1120452880859375,-0.1436767578125
1772882804738328600,6.69232861328125,-0.2982635498046875,0.0444488525390625,-0.11285400390625
1772882804748261400,6.702261474609375,-0.270660400390625,-0.0253753662109375,-0.04998779296875
1772882804758194400,6.7121943359375,-0.2110137939453125,-0.0821533203125,0.021484375
1772882804768126500,6.72212646484375,-0.152069091796875,-0.11712646484375,0.05377197265625
1772882804778059500,6.7320595703125,-0.08575439453125,-0.1100921630859375,0.0149078369140625
1772882804787992600,6.74199267578125,-0.0146942138671875,-0.07623291015625,-0.0744476318359375
1772882804797924600,6.751924560546875,0.0359649658203125,-0.0330810546875,-0.1881866455078125
1772882804807857400,6.761857421875,0.057159423828125,0.01702880859375,-0.26708984375
1772882804817790500,6.77179052734375,0.0556488037109375,0.07574462890625,-0.2864990234375
1772882804827722500,6.781722412109375,0.0377960205078125,0.100830078125,-0.288909912109375
1772882804837655600,6.791655517578125,-0.0135498046875,0.0766143798828125,-0.2140655517578125
1772882804847588600,6.801588623046875,-0.121185302734375,0.0582733154296875,-0.0474090576171875
1772882804857520600,6.811520751953125,-0.23370361328125,0.0892181396484375,0.1258392333984375
1772882804867453700,6.82145361328125,-0.3323211669921875,0.222503662109375,0.1749114990234375
1772882804877386500,6.831386474609375,-0.2413787841796875,0.3621978759765625,0.1768035888671875
1772882804887318500,6.841318603515625,-0.2404937744140625,0.5931396484375,0.34832763671875
1772882804897251600,6.85125146484375,-0.35943603515625,0.9678192138671875,0.3960418701171875
1772882804907184600,6.8611845703125,-0.41766357421875,1.2493438720703125,0.528564453125
1772882804917117700,6.87111767578125,-0.660247802734375,1.5307769775390625,0.718994140625
1772882804927049500,6.881049560546875,-1.1640625,1.8477783203125,0.7976226806640625
1772882804936982300,6.890982177734375,-1.79486083984375,2.027008056640625,0.7919464111328125
1772882804946915300,6.900915283203125,-2.6247711181640625,2.0143280029296875,1.0387420654296875
1772882804956847400,6.910847412109375,-3.5759429931640625,1.9840240478515625,1.55078125
1772882804966780400,6.920780517578125,-3.836456298828125,2.05841064453125,1.64501953125
1772882804976713500,6.93071337890625,-3.50897216796875,1.990509033203125,1.395477294921875
1772882804986645500,6.9406455078125,-2.9722747802734375,1.9807891845703125,1.07025146484375
1772882804996578600,6.95057861328125,-2.4495086669921875,2.0234527587890625,0.7147979736328125
1772882805006511400,6.960511474609375,-2.0588531494140625,2.011322021484375,0.426055908203125
1772882805016443400,6.970443359375,-1.862762451171875,1.9809417724609375,0.2830963134765625
1772882805026376400,6.98037646484375,-1.8577423095703125,1.879791259765625,0.265472412109375
1772882805036309200,6.990309326171875,-1.8976593017578125,1.7067718505859375,0.3328094482421875
1772882805046241300,7.0002412109375,-1.90228271484375,1.5338592529296875,0.4567413330078125
1772882805056174300,7.01017431640625,-1.8763427734375,1.3356475830078125,0.6107177734375
1772882805066107400,7.020107421875,-1.846099853515625,1.1588592529296875,0.7498321533203125
1772882805076039400,7.030039306640625,-1.703033447265625,1.0540618896484375,0.7672119140625
1772882805085972200,7.03997216796875,-1.4220733642578125,0.9879913330078125,0.66473388671875
1772882805095905300,7.0499052734375,-1.0826873779296875,0.9541168212890625,0.4571380615234375
1772882805105837000,7.059837158203125,-0.73797607421875,0.93695068359375,0.2268829345703125
1772882805115770000,7.06977001953125,-0.3489990234375,0.8508758544921875,0.0088348388671875
1772882805125703200,7.079703125,0.0455780029296875,0.7397003173828125,-0.170562744140625
1772882805135635200,7.08963525390625,0.3396453857421875,0.618804931640625,-0.3070526123046875
1772882805145568300,7.099568359375,0.498565673828125,0.4638214111328125,-0.382965087890625
1772882805155501000,7.1095009765625,0.5751190185546875,0.3300933837890625,-0.37030029296875
1772882805165434000,7.11943408203125,0.628997802734375,0.225982666015625,-0.2874908447265625
1772882805175366100,7.1293662109375,0.6866607666015625,0.1331329345703125,-0.183441162109375
1772882805185299200,7.13929931640625,0.7296142578125,0.0635986328125,-0.0275421142578125
1772882805195232300,7.149232177734375,0.723724365234375,-0.0058441162109375,0.1637115478515625
1772882805205164300,7.159164306640625,0.6421356201171875,-0.0542449951171875,0.34979248046875
1772882805215097000,7.16909716796875,0.4801788330078125,-0.0547637939453125,0.4486236572265625
1772882805225030100,7.179030029296875,0.276153564453125,-0.004791259765625,0.471343994140625
1772882805234962200,7.188962158203125,0.07818603515625,0.047271728515625,0.4502716064453125
1772882805244895200,7.198895263671875,-0.0957183837890625,0.0575714111328125,0.4141845703125
1772882805254828300,7.208828369140625,-0.19061279296875,0.05328369140625,0.3662261962890625
1772882805264760300,7.21876025390625,-0.22674560546875,0.0303192138671875,0.2707061767578125
1772882805274693400,7.228693359375,-0.1990203857421875,-0.0009918212890625,0.1715545654296875
1772882805284626200,7.238626220703125,-0.1572418212890625,-0.035308837890625,0.084564208984375
1772882805294558200,7.24855810546875,-0.134521484375,-0.0492706298828125,-0.0048065185546875
1772882805304491300,7.2584912109375,-0.15118408203125,-0.051727294921875,-0.08453369140625
1772882805314424300,7.26842431640625,-0.178619384765625,-0.044342041015625,-0.1284942626953125
1772882805324356400,7.2783564453125,-0.21246337890625,-0.0428009033203125,-0.1310272216796875
1772882805334289400,7.288289306640625,-0.2355499267578125,-0.045654296875,-0.1221771240234375
1772882805344222200,7.29822216796875,-0.216522216796875,-0.04693603515625,-0.122314453125
1772882805354154000,7.308154052734375,-0.190704345703125,-0.0287322998046875,-0.1121673583984375
1772882805364087000,7.318087158203125,-0.158416748046875,-0.0122222900390625,-0.11334228515625
1772882805374020000,7.32802001953125,-0.1287689208984375,0.0113983154296875,-0.1046905517578125
1772882805383952100,7.3379521484375,-0.116058349609375,0.03045654296875,-0.1013946533203125
1772882805393885200,7.34788525390625,-0.1380767822265625,0.0133056640625,-0.06549072265625
1772882805403818200,7.357818359375,-0.15020751953125,-0.0423126220703125,0.0110015869140625
1772882805413750300,7.367750244140625,-0.1322174072265625,-0.0867919921875,0.104705810546875
1772882805423683000,7.37768310546875,-0.1577911376953125,-0.1212615966796875,0.18865966796875
1772882805433616100,7.3876162109375,-0.257049560546875,-0.0893096923828125,0.2585601806640625
1772882805443549200,7.397549072265625,-0.3797607421875,0.06524658203125,0.2414703369140625
1772882805453481200,7.407481201171875,-0.359222412109375,0.259552001953125,0.15460205078125
1772882805463414300,7.417414306640625,-0.393157958984375,0.4532623291015625,0.196136474609375
1772882805473347000,7.42734716796875,-0.5303955078125,0.7368316650390625,0.320220947265625
1772882805483279000,7.437279052734375,-0.6909637451171875,1.0864105224609375,0.5060882568359375
1772882805493212200,7.447212158203125,-0.9327392578125,1.4464263916015625,0.65411376953125
1772882805503145200,7.457145263671875,-1.197265625,1.859649658203125,0.5955047607421875
1772882805513077200,7.4670771484375,-1.5760345458984375,2.2486419677734375,0.4671630859375
1772882805523010300,7.47701025390625,-2.113983154296875,2.4588775634765625,0.45947265625
1772882805532943400,7.486943359375,-2.845489501953125,2.456329345703125,0.8036651611328125
1772882805542875400,7.49687548828125,-3.3214263916015625,2.4156951904296875,1.2050933837890625
1772882805552808200,7.50680810546875,-3.149200439453125,2.232666015625,1.2974700927734375
1772882805562741200,7.5167412109375,-2.63995361328125,1.9895477294921875,1.2039947509765625
1772882805572673300,7.52667333984375,-2.1487884521484375,1.7899932861328125,1.077789306640625
1772882805582606300,7.5366064453125,-1.801910400390625,1.642303466796875,0.91162109375
1772882805592539400,7.546539306640625,-1.586029052734375,1.5842132568359375,0.722320556640625
1772882805602471200,7.55647119140625,-1.446685791015625,1.601837158203125,0.5191650390625
1772882805612404200,7.566404296875,-1.3458251953125,1.6092681884765625,0.334075927734375
1772882805622337000,7.5763369140625,-1.300201416015625,1.5748291015625,0.238677978515625
1772882805632269000,7.58626904296875,-1.3242034912109375,1.51226806640625,0.210113525390625
1772882805642202000,7.5962021484375,-1.4432220458984375,1.4688720703125,0.2537384033203125
1772882805652135200,7.60613525390625,-1.57489013671875,1.4015350341796875,0.38116455078125
1772882805662067200,7.616067138671875,-1.625457763671875,1.3529510498046875,0.556243896484375
1772882805672000300,7.626000244140625,-1.506317138671875,1.3001251220703125,0.68365478515625
1772882805681933000,7.63593310546875,-1.2312774658203125,1.1977996826171875,0.6723175048828125
1772882805691866000,7.6458662109375,-0.882232666015625,1.0917205810546875,0.60321044921875
1772882805701798100,7.655798095703125,-0.545654296875,0.9421234130859375,0.5222930908203125
1772882805711731200,7.665731201171875,-0.2920074462890625,0.765228271484375,0.3819427490234375
1772882805721664300,7.675664306640625,-0.1553802490234375,0.616729736328125,0.2144775390625
1772882805731596300,7.68559619140625,-0.0791015625,0.4613189697265625,0.0638580322265625
1772882805741529300,7.695529296875,0.0254364013671875,0.292510986328125,-0.006072998046875
1772882805751462100,7.705462158203125,0.190216064453125,0.123016357421875,-0.0094451904296875
1772882805761394200,7.715394287109375,0.35064697265625,-0.0571441650390625,0.01727294921875
1772882805771327200,7.7253271484375,0.4757843017578125,-0.197296142578125,0.094024658203125
1772882805781260300,7.73526025390625,0.58856201171875,-0.28057861328125,0.135101318359375
1772882805791192300,7.7451923828125,0.6500091552734375,-0.3123321533203125,0.1219024658203125
1772882805801125400,7.75512548828125,0.606292724609375,-0.25665283203125,0.07415771484375
1772882805811058200,7.76505810546875,0.473419189453125,-0.1163482666015625,-0.009185791015625
1772882805820990200,7.774990234375,0.27630615234375,-0.0276641845703125,-0.0714111328125
1772882805830923300,7.78492333984375,0.04986572265625,0.0298309326171875,-0.090667724609375
1772882805840856300,7.794856201171875,-0.177093505859375,0.02490234375,-0.047576904296875
1772882805850788000,7.8047880859375,-0.324371337890625,0.0025787353515625,0.009490966796875
1772882805860721200,7.81472119140625,-0.396759033203125,-0.0059051513671875,0.03350830078125
1772882805870654200,7.824654296875,-0.407501220703125,0.0052947998046875,0.01336669921875
1772882805880586200,7.834586181640625,-0.36334228515625,0.0261688232421875,-0.0361328125
1772882805890519000,7.84451904296875,-0.2810211181640625,0.0406494140625,-0.077606201171875
1772882805900452000,7.8544521484375,-0.1854400634765625,0.052825927734375,-0.0822296142578125
1772882805910384000,7.864384033203125,-0.152557373046875,0.06298828125,-0.0647125244140625
1772882805920317200,7.874317138671875,-0.1517333984375,0.0607452392578125,-0.046295166015625
1772882805930250200,7.884250244140625,-0.128387451171875,0.0362396240234375,-0.0094146728515625
1772882805940182300,7.894182373046875,-0.1033172607421875,0.0040740966796875,0.0224609375
1772882805950115300,7.904115234375,-0.0794219970703125,-0.02825927734375,0.022125244140625
1772882805960048000,7.914048095703125,-0.0190582275390625,-0.050506591796875,0.001434326171875
1772882805969980200,7.923980224609375,0.047088623046875,-0.058868408203125,-0.0368499755859375
1772882805979913200,7.933913330078125,0.1047210693359375,-0.06427001953125,-0.07470703125
1772882805989846300,7.94384619140625,0.1385650634765625,-0.0732879638671875,-0.0893402099609375
1772882805999779300,7.953779296875,0.1101226806640625,-0.06011962890625,-0.0773773193359375
1772882806009711400,7.96371142578125,-0.0044097900390625,0.0026092529296875,-0.053558349609375
1772882806019644200,7.97364404296875,-0.1851959228515625,0.083404541015625,-0.034637451171875
1772882806029575200,7.9835751953125,-0.3201446533203125,0.250885009765625,-0.034912109375
1772882806039506700,7.993506591796875,-0.2393646240234375,0.4345550537109375,-0.0332183837890625
1772882806049439700,8.003439697265625,-0.254058837890625,0.573211669921875,0.1764373779296875
1772882806059372500,8.01337255859375,-0.5299835205078125,0.81036376953125,0.419830322265625
1772882806069304800,8.023304931640626,-0.8305206298828125,1.1000823974609375,0.62091064453125
1772882806079237600,8.033237548828126,-1.02471923828125,1.4388275146484375,0.6843719482421875
1772882806089170700,8.043170654296874,-1.265838623046875,1.7976837158203125,0.756622314453125
1772882806099103700,8.053103759765625,-1.7067413330078125,2.1318817138671875,0.7595367431640625
1772882806109035500,8.063035400390625,-2.4129638671875,2.30657958984375,0.7802276611328125
1772882806118968600,8.072968505859375,-3.2760009765625,2.339874267578125,1.1628265380859375
1772882806128901400,8.0829013671875,-3.5634307861328125,2.1644134521484375,1.458404541015625
1772882806138833400,8.09283349609375,-3.00457763671875,1.9853057861328125,1.32281494140625
1772882806148766500,8.102766357421874,-2.2848052978515625,1.828033447265625,1.0614166259765625
1772882806158699500,8.112699462890625,-1.72113037109375,1.650146484375,0.72198486328125
1772882806168631600,8.122631591796875,-1.4422149658203125,1.5121612548828125,0.4774627685546875
1772882806178564600,8.132564697265625,-1.408935546875,1.485687255859375,0.373291015625
1772882806188497700,8.14249755859375,-1.5267791748046875,1.5177764892578125,0.349090576171875
1772882806198429700,8.1524296875,-1.66876220703125,1.5447235107421875,0.36859130859375
1772882806208362500,8.162362548828124,-1.7581787109375,1.5911712646484375,0.3936309814453125
1772882806218295600,8.172295654296875,-1.76806640625,1.6207733154296875,0.414642333984375
1772882806228227600,8.1822275390625,-1.6561737060546875,1.6323699951171875,0.4591064453125
1772882806238160600,8.19216064453125,-1.5262908935546875,1.6221771240234375,0.486480712890625
1772882806248093700,8.20209375,-1.42303466796875,1.5605010986328125,0.4759674072265625
1772882806258025700,8.212025634765626,-1.2853240966796875,1.456329345703125,0.4573822021484375
1772882806267958500,8.22195849609375,-1.082733154296875,1.298187255859375,0.4495697021484375
1772882806277891600,8.2318916015625,-0.841644287109375,1.1103057861328125,0.427520751953125
1772882806287823600,8.24182373046875,-0.5849609375,0.9141387939453125,0.3841094970703125
1772882806297756700,8.251756591796875,-0.3043670654296875,0.718048095703125,0.304718017578125
1772882806307689700,8.261689697265625,-0.0382843017578125,0.4976959228515625,0.218353271484375
1772882806317622800,8.271622802734376,0.16937255859375,0.26910400390625,0.134674072265625
1772882806327554800,8.281554931640626,0.3357391357421875,0.0744171142578125,0.077484130859375
1772882806337487600,8.291487548828124,0.4468841552734375,-0.087677001953125,0.045867919921875
1772882806347420700,8.301420654296875,0.503265380859375,-0.2192535400390625,0.0685882568359375
1772882806357352400,8.3113525390625,0.47247314453125,-0.3203887939453125,0.1885833740234375
1772882806367285500,8.321285400390625,0.3744964599609375,-0.3755645751953125,0.2946319580078125
1772882806377218600,8.331218505859376,0.2866058349609375,-0.3497467041015625,0.3062744140625
1772882806387150600,8.341150634765626,0.2359466552734375,-0.2537078857421875,0.2120513916015625
1772882806397083600,8.351083740234374,0.2022552490234375,-0.1226959228515625,0.08770751953125
1772882806407016400,8.361016357421875,0.1388092041015625,-0.009368896484375,-0.01708984375
1772882806416948500,8.370948486328125,0.0164337158203125,0.0782623291015625,-0.0797271728515625
1772882806426881500,8.380881591796875,-0.1690521240234375,0.1471405029296875,-0.126312255859375
1772882806436814600,8.390814697265625,-0.371826171875,0.1865386962890625,-0.1741943359375
1772882806446746600,8.40074658203125,-0.522003173828125,0.1968231201171875,-0.207733154296875
1772882806456679700,8.4106796875,-0.5693206787109375,0.174102783203125,-0.18719482421875
1772882806466612500,8.420612548828124,-0.4599456787109375,0.1004486083984375,-0.11102294921875
1772882806476544500,8.43054443359375,-0.27398681640625,0.021087646484375,-0.0450592041015625
1772882806486477600,8.4404775390625,-0.088287353515625,-0.026611328125,-0.004608154296875
1772882806496410600,8.45041064453125,0.0452728271484375,-0.0512847900390625,0.0240936279296875
1772882806506342700,8.4603427734375,0.131195068359375,-0.0662689208984375,0.0326080322265625
1772882806516275700,8.470275634765626,0.182098388671875,-0.07305908203125,0.033416748046875
1772882806526208500,8.48020849609375,0.2068023681640625,-0.07440185546875,0.0421600341796875
1772882806536140800,8.490140869140625,0.1992340087890625,-0.0732269287109375,0.0525054931640625
1772882806546073600,8.500073486328125,0.141937255859375,-0.070037841796875,0.085296630859375
1772882806556006700,8.510006591796875,0.0279998779296875,-0.0590362548828125,0.12896728515625
1772882806565938400,8.5199384765625,-0.0826873779296875,-0.0439300537109375,0.1664886474609375
1772882806575871700,8.529871826171876,-0.1743011474609375,-0.0093841552734375,0.18914794921875
1772882806585804800,8.5398046875,-0.2589263916015625,0.026763916015625,0.1923370361328125
1772882806595736600,8.549736572265624,-0.325775146484375,0.1396942138671875,0.1660003662109375
1772882806605669400,8.55966943359375,-0.3108978271484375,0.28521728515625,0.061004638671875
1772882806615602400,8.5696025390625,-0.243316650390625,0.4720001220703125,0.0593414306640625
1772882806625534500,8.579534423828125,-0.303558349609375,0.6775970458984375,0.0992431640625
1772882806635467500,8.589467529296876,-0.452880859375,0.8748626708984375,0.2755889892578125
1772882806645400600,8.599400634765624,-0.635284423828125,1.111968994140625,0.511871337890625
1772882806655333600,8.609333740234375,-0.880645751953125,1.39892578125,0.7110443115234375
1772882806665265700,8.619265625,-1.2138519287109375,1.6891937255859375,0.788909912109375
1772882806675198500,8.629198486328125,-1.6456451416015625,1.866241455078125,0.733184814453125
1772882806685131500,8.639131591796875,-2.09765625,1.744781494140625,0.8492431640625
1772882806695063600,8.6490634765625,-2.50506591796875,1.47772216796875,1.3649139404296875
1772882806704996600,8.65899658203125,-2.54876708984375,1.5303802490234375,1.6036224365234375
1772882806714929700,8.6689296875,-2.13140869140625,1.7318267822265625,1.1925811767578125
1772882806724861700,8.67886181640625,-1.7569427490234375,1.8556976318359375,0.6287689208984375
1772882806734794500,8.68879443359375,-1.711334228515625,1.924468994140625,0.2685699462890625
1772882806744727600,8.6987275390625,-1.866119384765625,1.9168548583984375,0.2414093017578125
1772882806754659600,8.70865966796875,-2.0603179931640625,1.8296661376953125,0.3664703369140625
1772882806764592600,8.718592529296876,-2.2082977294921875,1.7454071044921875,0.475311279296875
1772882806774525700,8.728525634765624,-2.248138427734375,1.6577301025390625,0.58343505859375
1772882806784457700,8.738457763671875,-2.0945587158203125,1.575958251953125,0.6803131103515625
1772882806794390800,8.748390869140625,-1.76763916015625,1.504974365234375,0.6775054931640625
1772882806804323600,8.758323486328125,-1.390380859375,1.4091644287109375,0.5866851806640625
1772882806814255400,8.76825537109375,-1.113006591796875,1.319000244140625,0.4737396240234375
1772882806824188400,8.7781884765625,-0.961883544921875,1.220977783203125,0.3581695556640625
1772882806834121700,8.788121826171874,-0.8575897216796875,1.1653900146484375,0.2685546875
1772882806844053500,8.798053466796874,-0.7568511962890625,1.120391845703125,0.2309112548828125
1772882806853986600,8.807986572265625,-0.69036865234375,1.0625457763671875,0.2322235107421875
1772882806863919600,8.817919677734375,-0.64154052734375,1.0367431640625,0.2246551513671875
1772882806873852400,8.827852294921875,-0.6212005615234375,0.996978759765625,0.229339599609375
1772882806883784400,8.837784423828126,-0.6248931884765625,0.893463134765625,0.27862548828125
1772882806893717500,8.847717529296874,-0.58392333984375,0.717926025390625,0.3279266357421875
1772882806903650600,8.857650634765625,-0.4488372802734375,0.4969482421875,0.314178466796875
1772882806913582600,8.86758251953125,-0.2215576171875,0.2544403076171875,0.280548095703125
1772882806923515600,8.877515625,0.0707550048828125,0.0283355712890625,0.213958740234375
1772882806933448400,8.887448486328125,0.37469482421875,-0.1734619140625,0.138031005859375
1772882806943380500,8.89738037109375,0.55059814453125,-0.3301239013671875,0.12457275390625
1772882806953313500,8.9073134765625,0.5069427490234375,-0.3757171630859375,0.14239501953125
1772882806963246600,8.91724658203125,0.358062744140625,-0.294464111328125,0.1020355224609375
1772882806973178600,8.9271787109375,0.18426513671875,-0.175323486328125,0.0433502197265625
1772882806983111700,8.937111572265625,0.026153564453125,-0.0774078369140625,0.038543701171875
1772882806993044700,8.947044677734375,-0.125640869140625,-0.017242431640625,0.0876007080078125
1772882807002976800,8.956976806640625,-0.23785400390625,0.0052337646484375,0.12615966796875
1772882807012909600,8.96690966796875,-0.2887725830078125,0.0123291015625,0.1033172607421875
1772882807022842600,8.976842529296874,-0.283111572265625,0.007232666015625,0.02740478515625
1772882807032775000,8.98677490234375,-0.2255096435546875,-0.0140228271484375,-0.0707855224609375
1772882807042708000,8.9967080078125,-0.1118927001953125,-0.0398712158203125,-0.1128082275390625
1772882807052641000,9.00664111328125,-0.0391998291015625,-0.0911865234375,-0.062591552734375
1772882807062573000,9.016572998046875,-0.04840087890625,-0.142120361328125,0.005218505859375
1772882807072505900,9.026505859375,-0.1213226318359375,-0.1307525634765625,0.057952880859375
1772882807082439000,9.03643896484375,-0.2294769287109375,-0.06103515625,0.0518951416015625
1772882807092370700,9.04637060546875,-0.28704833984375,0.0336456298828125,-0.025604248046875
1772882807102303700,9.0563037109375,-0.2814483642578125,0.099945068359375,-0.1212615966796875
1772882807112236800,9.06623681640625,-0.248809814453125,0.135223388671875,-0.14154052734375
1772882807122168800,9.0761689453125,-0.257537841796875,0.1433258056640625,-0.080780029296875
1772882807132102000,9.086101806640626,-0.27557373046875,0.1635894775390625,-0.054656982421875
1772882807142034700,9.09603466796875,-0.277496337890625,0.2319488525390625,-0.1102294921875
1772882807151966700,9.105966796875,-0.195556640625,0.3133544921875,-0.157623291015625
1772882807161899800,9.115899658203125,-0.017608642578125,0.3769378662109375,-0.14227294921875
1772882807171832800,9.125832763671875,0.1049957275390625,0.3408660888671875,0.0205535888671875
1772882807181766000,9.135765869140625,-0.012908935546875,0.328704833984375,0.36529541015625
1772882807191698000,9.145697998046876,-0.2968902587890625,0.45037841796875,0.6121978759765625
1772882807201630700,9.155630615234376,-0.548431396484375,0.6451873779296875,0.77691650390625
1772882807211563800,9.165563720703124,-0.7484893798828125,0.860687255859375,1.0060577392578125
1772882807221495800,9.175495849609375,-0.84527587890625,1.2035980224609375,1.0802001953125
1772882807231428900,9.185428955078125,-1.0005950927734375,1.4908905029296875,0.9358062744140625
1772882807241362000,9.19536181640625,-1.3385467529296875,1.571014404296875,0.871002197265625
1772882807251294000,9.2052939453125,-1.64678955078125,1.5740814208984375,0.8397369384765625
1772882807261227000,9.21522705078125,-1.6798858642578125,1.45355224609375,0.768310546875
1772882807271159800,9.225159912109374,-1.5792999267578125,1.2972259521484375,0.6784210205078125
1772882807281091800,9.235091796875,-1.539520263671875,1.11309814453125,0.649322509765625
1772882807291025000,9.24502490234375,-1.616424560546875,0.947174072265625,0.71893310546875
1772882807300958000,9.2549580078125,-1.80938720703125,0.9219818115234375,0.8427581787109375
1772882807310889700,9.2648896484375,-2.0564117431640625,1.0329132080078125,0.8751220703125
1772882807320823000,9.274822998046876,-2.2548675537109375,1.2175140380859375,0.742034912109375
1772882807330755800,9.284755859375,-2.2648468017578125,1.4702911376953125,0.444671630859375
1772882807340688000,9.29468798828125,-2.1766510009765625,1.6259307861328125,0.1354827880859375
1772882807350620700,9.30462060546875,-2.0683135986328125,1.677001953125,-0.03863525390625
1772882807360553700,9.3145537109375,-1.9404754638671875,1.655487060546875,-0.074066162109375
1772882807370485800,9.32448583984375,-1.8187255859375,1.5817108154296875,0.0579376220703125
1772882807380418800,9.334418701171876,-1.699981689453125,1.5001678466796875,0.2534637451171875
1772882807390352000,9.344351806640624,-1.63446044921875,1.4753265380859375,0.4648895263671875
1772882807400284000,9.354283935546874,-1.602203369140625,1.427581787109375,0.6250762939453125
1772882807410216700,9.364216796875,-1.5256805419921875,1.39849853515625,0.73956298828125
1772882807420149800,9.374149658203125,-1.389678955078125,1.3300933837890625,0.800048828125
1772882807430082800,9.384082763671875,-1.2212982177734375,1.21240234375,0.7528076171875
1772882807440014800,9.394014892578125,-1.004791259765625,1.097686767578125,0.6305084228515625
1772882807449948000,9.403947998046876,-0.7622222900390625,0.9799346923828125,0.49859619140625
1772882807459880700,9.413880615234374,-0.5428924560546875,0.8734893798828125,0.3772430419921875
1772882807469813000,9.42381298828125,-0.346099853515625,0.780914306640625,0.2504119873046875
1772882807479745800,9.433745849609375,-0.206451416015625,0.6896514892578125,0.0722503662109375
1772882807489678800,9.443678955078125,-0.1396942138671875,0.5835113525390625,-0.08331298828125
1772882807499611000,9.45361083984375,-0.0092315673828125,0.419708251953125,-0.1616363525390625
1772882807509544000,9.4635439453125,0.2228240966796875,0.2045135498046875,-0.116485595703125
1772882807519477000,9.47347705078125,0.4848480224609375,0.01019287109375,-0.007232666015625
1772882807529409000,9.483408935546874,0.6984710693359375,-0.083831787109375,0.0860595703125
1772882807539341800,9.493341796875,0.7525482177734375,-0.1470184326171875,0.177398681640625
1772882807549275000,9.50327490234375,0.6469879150390625,-0.1520843505859375,0.27508544921875
1772882807559206700,9.51320654296875,0.4720916748046875,-0.1150054931640625,0.3087921142578125
1772882807569140000,9.523139892578126,0.2486114501953125,-0.0731201171875,0.3175506591796875
1772882807579073000,9.533072998046874,0.038482666015625,-0.0418548583984375,0.3388824462890625
1772882807589004800,9.5430048828125,-0.15765380859375,-0.041473388671875,0.3384552001953125
1772882807598937900,9.552937744140625,-0.282073974609375,-0.03009033203125,0.2479248046875
1772882807608870700,9.56287060546875,-0.273284912109375,-0.0255584716796875,0.1067047119140625
1772882807618802700,9.572802734375,-0.2104949951171875,-0.017425537109375,-0.0060272216796875
1772882807628735700,9.58273583984375,-0.178009033203125,-0.0112152099609375,-0.116485595703125
1772882807638668800,9.592668701171876,-0.10284423828125,-0.04571533203125,-0.1488800048828125
1772882807648600800,9.602600830078124,-0.1932830810546875,-0.1046600341796875,-0.113677978515625
1772882807658534000,9.612533935546875,-0.293609619140625,-0.113800048828125,-0.091827392578125
1772882807668466700,9.622466796875,-0.3314208984375,-0.0962982177734375,-0.0942230224609375
1772882807678398700,9.632398681640625,-0.318267822265625,-0.0720062255859375,-0.1167755126953125
1772882807688331800,9.642331787109375,-0.30499267578125,-0.017578125,-0.1253204345703125
1772882807698264800,9.652264892578126,-0.2989044189453125,0.06060791015625,-0.1368560791015625
1772882807708196900,9.66219677734375,-0.2920989990234375,0.107818603515625,-0.1507568359375
