time,seconds_elapsed,z,y,x
1772882798103299000,0.057299072265625,0.19522355496883392,-0.1620197892189026,-0.13210929930210114
1772882798113232100,0.067232177734375,0.19350741803646088,-0.14852236211299896,-0.15073837339878082
1772882798123164200,0.0771640625,0.18636400997638702,-0.13599272072315216,-0.16892696917057037
1772882798133097200,0.08709716796875,0.16568297147750854,-0.1216484010219574,-0.17802992463111877
1772882798143030300,0.0970302734375,0.14369352161884308,-0.12652571499347687,-0.18207313120365143
1772882798152962300,0.10696240234375,0.11588984727859497,-0.1356414556503296,-0.17928826808929443
1772882798162895000,0.11689501953125,0.09882617741823196,-0.15955664217472076,-0.17954738438129425
1772882798172828200,0.126828125,0.08520064502954483,-0.16803614795207977,-0.17340721189975739
1772882798182761200,0.13676123046875,0.07503616064786911,-0.16185015439987183,-0.15313655138015747
1772882798192693000,0.14669287109375,0.06531109660863876,-0.14031237363815308,-0.1346004158258438
1772882798202626000,0.1566259765625,0.06592442095279694,-0.10165418684482574,-0.1161993071436882
1772882798212559000,0.16655908203125,0.06859903782606125,-0.080153688788414,-0.10782233625650406
1772882798222491100,0.1764912109375,0.066647469997406,-0.06338855624198914,-0.09986720979213715
1772882798232424000,0.186423828125,0.05407921224832535,-0.04380793496966362,-0.08323629945516586
1772882798242357000,0.19635693359375,0.03885472193360329,-0.042027343064546585,-0.0649678111076355
1772882798252289000,0.2062890625,0.023869646713137627,-0.05752667412161827,-0.06011127308011055
1772882798262222000,0.21622216796875,0.026445722207427025,-0.09065267443656921,-0.07153410464525223
1772882798272155100,0.226155029296875,0.047330230474472046,-0.11701609939336777,-0.09155521541833878
1772882798282087200,0.236087158203125,0.07614829391241074,-0.14600354433059692,-0.10715308785438538
1772882798292020000,0.24602001953125,0.1025756448507309,-0.1923055350780487,-0.12972258031368256
1772882798301953000,0.255953125,0.12189474701881409,-0.2119780331850052,-0.16088874638080597
1772882798311885000,0.265885009765625,0.1362537145614624,-0.22298754751682281,-0.1911662220954895
1772882798321818000,0.275818115234375,0.16341662406921387,-0.240083709359169,-0.2316902130842209
1772882798331751200,0.285751220703125,0.185371994972229,-0.2547665238380432,-0.27534714341163635
1772882798341683200,0.29568310546875,0.2024838626384735,-0.2708650529384613,-0.3145904242992401
1772882798351616300,0.3056162109375,0.20120768249034882,-0.2812167704105377,-0.34777209162712097
1772882798361549000,0.315549072265625,0.18559356033802032,-0.2957261800765991,-0.37375733256340027
1772882798371481000,0.325481201171875,0.15616297721862793,-0.3398241400718689,-0.41804519295692444
1772882798381414100,0.3354140625,0.11625363677740097,-0.4082045257091522,-0.45956653356552124
1772882798391347200,0.34534716796875,0.07273199409246445,-0.4810241460800171,-0.4970097839832306
1772882798401279000,0.355279052734375,0.02707263082265854,-0.5388941168785095,-0.5366402864456177
1772882798411212300,0.36521240234375,-0.022071747109293938,-0.5680391788482666,-0.5730672478675842
1772882798421145000,0.37514501953125,-0.06482240557670593,-0.5845273733139038,-0.6033686995506287
1772882798431077000,0.3850771484375,-0.10278043895959854,-0.5713117122650146,-0.61574786901474
1772882798441010000,0.395010009765625,-0.11828536540269852,-0.5336226224899292,-0.5983909964561462
1772882798450943000,0.40494287109375,-0.12987864017486572,-0.5067675709724426,-0.5650191903114319
1772882798460875000,0.414875,-0.1371685117483139,-0.492799311876297,-0.5182740688323975
1772882798470808000,0.42480810546875,-0.1509178727865219,-0.4923825263977051,-0.4435116648674011
1772882798480741000,0.4347412109375,-0.16282859444618225,-0.46939653158187866,-0.3417048752307892
1772882798490673200,0.444673095703125,-0.16714665293693542,-0.40333041548728943,-0.20519976317882538
1772882798500606000,0.45460595703125,-0.16687341034412384,-0.29627320170402527,-0.09512678533792496
1772882798510539000,0.4645390625,-0.1403682976961136,-0.1981881856918335,-0.021890385076403618
1772882798520472000,0.47447216796875,-0.1138855591416359,-0.10803458839654922,0.017642909660935402
1772882798530404000,0.484404052734375,-0.10192130506038666,-0.01738431677222252,-0.0052016861736774445
1772882798540337200,0.494337158203125,-0.0985148549079895,0.07707827538251877,-0.10326460003852844
1772882798550270200,0.504270263671875,-0.12189048528671265,0.21982796490192413,-0.2032756209373474
1772882798560202200,0.5142021484375,-0.1685085892677307,0.3780423700809479,-0.2596355676651001
1772882798570135000,0.524135009765625,-0.23865465819835663,0.4364452362060547,-0.28522348403930664
1772882798580068000,0.534068115234375,-0.307420939207077,0.34189581871032715,-0.3430929183959961
1772882798590000000,0.544000244140625,-0.38849979639053345,0.0008069378091022372,-0.5033954977989197
1772882798599933200,0.55393310546875,-0.5164609551429749,-0.43624070286750793,-0.7689629793167114
1772882798609866200,0.5638662109375,-0.7064160108566284,-0.7673363089561462,-1.1116454601287842
1772882798619798300,0.57379833984375,-0.9126788973808289,-0.842150092124939,-1.4523091316223145
1772882798629731000,0.58373095703125,-0.992165207862854,-0.5684205889701843,-1.6646125316619873
1772882798639664000,0.5936640625,-0.9248023629188538,-0.023257119581103325,-1.68605637550354
1772882798649596000,0.603595947265625,-0.7095862030982971,0.6976408958435059,-1.5110278129577637
1772882798659529000,0.613529052734375,-0.3519151508808136,1.1584582328796387,-1.3025661706924438
1772882798669462300,0.623462158203125,0.10006561130285263,0.9807207584381104,-1.4400321245193481
1772882798679394000,0.63339404296875,0.6101586818695068,0.23130379617214203,-1.7595113515853882
1772882798689327000,0.6433271484375,1.086599588394165,-0.6777436137199402,-1.8427146673202515
1772882798699260000,0.653260009765625,1.4070286750793457,-1.347375512123108,-1.5184129476547241
1772882798709192000,0.66319189453125,1.4812904596328735,-1.6435669660568237,-1.1798051595687866
1772882798719125000,0.673125,1.332525372505188,-1.7139737606048584,-1.0307402610778809
1772882798729058000,0.68305810546875,1.1734920740127563,-1.4971321821212769,-1.1554204225540161
1772882798738990000,0.692989990234375,1.1267520189285278,-1.1955816745758057,-1.5052173137664795
1772882798748923100,0.702923095703125,1.0437047481536865,-1.1496951580047607,-1.8105801343917847
1772882798758856000,0.71285595703125,0.811206579208374,-1.3951371908187866,-2.058154582977295
1772882798768788200,0.722788330078125,0.43874141573905945,-1.835343837738037,-2.1883575916290283
1772882798778721000,0.732720947265625,0.06495130062103271,-2.2328989505767822,-1.9563690423965454
1772882798788654000,0.742654052734375,-0.16219156980514526,-2.3864407539367676,-1.2640869617462158
1772882798798587100,0.752587158203125,-0.1436394602060318,-2.2542479038238525,-0.41189488768577576
1772882798808519200,0.762519287109375,0.07975315302610397,-1.8068830966949463,0.3040139377117157
1772882798818452200,0.7724521484375,0.26775023341178894,-1.2371150255203247,0.9091525673866272
1772882798828385000,0.782385009765625,0.40189310908317566,-0.6007542610168457,1.2587896585464478
1772882798838317000,0.792317138671875,0.3007102906703949,0.008921323344111443,1.5183488130569458
1772882798848250000,0.80225,-0.02905934862792492,0.29256075620651245,1.8255982398986816
1772882798858183200,0.81218310546875,-0.4732344150543213,0.16039766371250153,2.0137293338775635
1772882798868115200,0.822115234375,-0.9358329176902771,-0.30105385184288025,1.9404089450836182
1772882798878048300,0.83204833984375,-1.2593854665756226,-0.7161487936973572,1.6405376195907593
1772882798887981000,0.84198095703125,-1.3597956895828247,-0.8567298650741577,1.2095680236816406
1772882798897913000,0.8519130859375,-1.1687554121017456,-0.6219612956047058,0.8204101920127869
1772882798907846000,0.861845947265625,-0.7525395154953003,-0.139517143368721,0.480434775352478
1772882798917779200,0.871779296875,-0.39096829295158386,0.3407546579837799,0.05264589935541153
1772882798927711000,0.8817109375,-0.1973399668931961,0.5500743389129639,-0.5766928791999817
1772882798937644000,0.89164404296875,-0.047205861657857895,0.5189225077629089,-1.1058166027069092
1772882798947577000,0.9015771484375,0.010266485624015331,0.4571739435195923,-1.3853387832641602
1772882798957509000,0.911509033203125,-0.011446266435086727,0.26219406723976135,-1.5080958604812622
1772882798967442000,0.92144189453125,-0.03073927015066147,-0.001859419047832489,-1.508166790008545
1772882798977375000,0.931375,-0.060508351773023605,-0.09461332112550735,-1.2816067934036255
1772882798987307000,0.94130712890625,0.06028224900364876,-0.11999218165874481,-0.9469055533409119
1772882798997240000,0.951239990234375,0.31156107783317566,-0.20885707437992096,-0.6119840145111084
1772882799007173000,0.961173095703125,0.5676421523094177,-0.32211387157440186,-0.32320788502693176
1772882799017105200,0.971105224609375,0.7236173748970032,-0.4137857258319855,-0.12895318865776062
1772882799027038200,0.9810380859375,0.7452446222305298,-0.3728252351284027,-0.03929600864648819
1772882799036971000,0.990970947265625,0.6427350044250488,-0.20081806182861328,-0.038603316992521286
1772882799046904000,1.000904052734375,0.4666081964969635,0.07192932069301605,-0.10282597690820694
1772882799056836000,1.010836181640625,0.26772624254226685,0.21345661580562592,-0.18894195556640625
1772882799066769200,1.02076904296875,0.10146377235651016,0.18815791606903076,-0.2904163897037506
1772882799076702200,1.0307021484375,-0.01787487044930458,0.07747188955545425,-0.38166746497154236
1772882799086634200,1.04063427734375,-0.1004784032702446,-0.014450578019022942,-0.3991636335849762
1772882799096567000,1.050567138671875,-0.14920972287654877,-0.014786669053137302,-0.39037415385246277
1772882799106500000,1.0605,-0.1601603776216507,0.04181056469678879,-0.34916040301322937
1772882799116432100,1.07043212890625,-0.12732359766960144,0.12086223810911179,-0.1966555416584015
1772882799126365200,1.080365234375,-0.0806967094540596,0.3221532702445984,0.21981118619441986
1772882799136298200,1.09029833984375,0.002910302486270666,0.6706289649009705,0.7552317380905151
1772882799146230300,1.100230224609375,0.08993414789438248,0.933441162109375,0.8461509943008423
1772882799156163300,1.110163330078125,0.1506827175617218,0.8304747939109802,0.6431424617767334
1772882799166096100,1.12009619140625,0.2674628496170044,0.37338876724243164,0.3761070668697357
1772882799176028000,1.13002783203125,0.4773348569869995,-0.18090054392814636,0.01672198809683323
1772882799185961200,1.139961181640625,0.6814360618591309,-0.5582686066627502,-0.22727549076080322
1772882799195894300,1.149894287109375,0.7709294557571411,-0.4499698281288147,-0.44251057505607605
1772882799205826000,1.159825927734375,0.678879976272583,0.2071436047554016,-0.5980029702186584
1772882799215759000,1.169759033203125,0.4468986690044403,1.0202630758285522,-0.5740190744400024
1772882799225692200,1.179692138671875,0.3284972012042999,1.466044545173645,-0.15303641557693481
1772882799235624200,1.189624267578125,0.2624896764755249,1.591863989830017,0.5567173361778259
1772882799245557000,1.199556884765625,0.15549984574317932,1.4643633365631104,1.0825560092926025
1772882799255490000,1.209489990234375,0.043112050741910934,0.8495409488677979,1.245015025138855
1772882799265422000,1.219422119140625,0.061171479523181915,-0.06193660572171211,1.198099970817566
1772882799275355100,1.229355224609375,0.2787877023220062,-0.6699559688568115,0.9264865517616272
1772882799285288200,1.2392880859375,0.5807299613952637,-0.7354915738105774,0.4831101894378662
1772882799295221000,1.249220947265625,0.9556614756584167,-0.40869641304016113,-0.09595076739788055
1772882799305153000,1.259153076171875,1.4851735830307007,-0.08301179856061935,-0.8120571970939636
1772882799315086000,1.269086181640625,1.9219884872436523,0.04487932473421097,-1.464066982269287
1772882799325019100,1.27901904296875,2.053723096847534,-0.063041552901268,-1.869115948677063
1772882799334951200,1.288951171875,1.9146943092346191,-0.38522306084632874,-2.02921199798584
1772882799344884200,1.29888427734375,1.60868239402771,-0.7897255420684814,-1.801742434501648
1772882799354817300,1.3088173828125,1.1963404417037964,-1.1017087697982788,-1.1722779273986816
1772882799364749300,1.318749267578125,0.7428179383277893,-1.2342859506607056,-0.34302499890327454
1772882799374682000,1.32868212890625,0.3579285740852356,-1.156625747680664,0.4103552997112274
1772882799384615200,1.338615234375,0.0054845139384269714,-0.8822107315063477,0.949510931968689
1772882799394547200,1.348547119140625,-0.24918213486671448,-0.37350353598594666,1.0886282920837402
1772882799404480300,1.358480224609375,-0.36935487389564514,0.14765258133411407,0.8264822363853455
1772882799414413300,1.368413330078125,-0.3790961802005768,0.5634018182754517,0.5127890110015869
1772882799424345000,1.378344970703125,-0.3412156403064728,0.8223311305046082,0.3321225643157959
1772882799434278100,1.388278076171875,-0.2734496593475342,0.95054692029953,0.20981422066688538
1772882799444211200,1.398211181640625,-0.19371408224105835,0.9692188501358032,0.055629175156354904
1772882799454143000,1.40814306640625,-0.11171241849660873,0.8526067733764648,-0.15605910122394562
1772882799464076000,1.418075927734375,-0.033001091331243515,0.6141211986541748,-0.4168403744697571
1772882799474009000,1.428009033203125,0.043955206871032715,0.32034817337989807,-0.6671380996704102
1772882799483941000,1.437941162109375,0.06807918846607208,0.07299084961414337,-0.8800857663154602
1772882799493874200,1.447874267578125,0.00833809096366167,-0.05114893615245819,-1.021536111831665
1772882799503807000,1.457806884765625,-0.17748530209064484,-0.07994410395622253,-1.0914603471755981
1772882799513739000,1.467739013671875,-0.2797256410121918,-0.13060781359672546,-1.0136792659759521
1772882799523672000,1.477672119140625,-0.2072908729314804,-0.20064574480056763,-0.785279393196106
1772882799533605000,1.487605224609375,0.0009209210984408855,-0.24162514507770538,-0.45054054260253906
1772882799543537200,1.497537109375,0.2137349247932434,-0.23623117804527283,-0.1396058350801468
1772882799553470200,1.50747021484375,0.38783854246139526,-0.15249446034431458,0.05401849374175072
1772882799563403000,1.517403076171875,0.4957141578197479,0.02556501515209675,0.13689419627189636
1772882799573335300,1.527335205078125,0.5457245707511902,0.22663554549217224,0.13410986959934235
1772882799583268000,1.53726806640625,0.49371251463890076,0.38953897356987,0.10544493049383163
1772882799593201200,1.547201171875,0.34881019592285156,0.4357088506221771,0.07118070125579834
1772882799603133200,1.55713330078125,0.16831284761428833,0.40055593848228455,0.04555203765630722
1772882799613066200,1.567066162109375,-0.044800762087106705,0.34251394867897034,0.06424450129270554
1772882799622999300,1.576999267578125,-0.26676031947135925,0.2542296051979065,0.1159399151802063
1772882799632932000,1.58693212890625,-0.418599396944046,0.1612863540649414,0.13862206041812897
1772882799642864000,1.596864013671875,-0.486223965883255,0.14396250247955322,0.17757637798786163
1772882799652797200,1.606797119140625,-0.46966150403022766,0.21249201893806458,0.23342420160770416
1772882799662730200,1.616730224609375,-0.399360716342926,0.378855437040329,0.30965933203697205
1772882799672662000,1.626662109375,-0.3316141664981842,0.5246224999427795,0.457232803106308
1772882799682595000,1.636594970703125,-0.22577054798603058,0.5584137439727783,0.7744714617729187
1772882799692528000,1.646528076171875,-0.1994534581899643,0.536465048789978,0.7924501895904541
1772882799702460200,1.656460205078125,-0.3231274485588074,0.08116436004638672,0.7188670635223389
1772882799712393000,1.66639306640625,-0.6127699017524719,-0.45565512776374817,0.6018581390380859
1772882799722326000,1.676325927734375,-0.9458991289138794,-0.8063668012619019,0.29248857498168945
1772882799732258000,1.686258056640625,-0.8863245248794556,-0.8412025570869446,-0.44565656781196594
1772882799742191000,1.696191162109375,-0.34523916244506836,-0.30856263637542725,-1.3273080587387085
1772882799752124200,1.706124267578125,0.4689192771911621,0.8819883465766907,-1.982331395149231
1772882799762056200,1.71605615234375,1.172528624534607,2.1020007133483887,-2.3020834922790527
1772882799771989000,1.725989013671875,1.420900583267212,2.8540613651275635,-2.158485174179077
1772882799781922000,1.735922119140625,1.204688310623169,2.978578567504883,-1.5419046878814697
1772882799791854000,1.74585400390625,0.9810233116149902,2.5114171504974365,-1.036912202835083
1772882799801787100,1.755787109375,0.9188930988311768,1.681735634803772,-0.6219794154167175
1772882799811720200,1.76572021484375,0.9583012461662292,0.22766564786434174,-0.021801436319947243
1772882799821652200,1.77565234375,1.0924690961837769,-1.0646897554397583,0.7413398623466492
1772882799831585300,1.785585205078125,1.2437307834625244,-1.579542875289917,1.4225679636001587
1772882799841518000,1.79551806640625,1.3183656930923462,-1.4521151781082153,1.7589987516403198
1772882799851450000,1.8054501953125,1.2644904851913452,-0.8257016539573669,1.6660839319229126
1772882799861383200,1.815383056640625,1.2221860885620117,-0.11032570898532867,1.1117666959762573
1772882799871316200,1.825316162109375,1.2837536334991455,0.21977576613426208,0.09797103703022003
1772882799881249300,1.835249267578125,1.1333401203155518,-0.013526194728910923,-0.6555677056312561
1772882799891181300,1.845181396484375,0.8144719004631042,-0.32992303371429443,-0.6836081743240356
1772882799901114000,1.855114013671875,0.436458021402359,-0.3654845058917999,-0.2509198486804962
1772882799911047200,1.865047119140625,0.06359761953353882,-0.10593628883361816,0.2350332885980606
1772882799920979000,1.87497900390625,-0.1706838607788086,0.13934537768363953,0.5078701376914978
1772882799930912000,1.884912109375,-0.10887029021978378,0.10914433002471924,0.5803978443145752
1772882799940845000,1.894844970703125,0.09897372126579285,-0.14599210023880005,0.6174600124359131
1772882799950777000,1.904777099609375,0.2782060503959656,-0.4480251967906952,0.6900729537010193
1772882799960710100,1.914710205078125,0.3040539026260376,-0.621501088142395,0.7496476173400879
1772882799970643000,1.924642822265625,0.27623531222343445,-0.7477676868438721,0.6721970438957214
1772882799980575000,1.934574951171875,0.18128803372383118,-1.007253646850586,0.5563567280769348
1772882799990508000,1.944508056640625,-0.10962556302547455,-1.1845993995666504,0.27677035331726074
1772882800000441000,1.954441162109375,-0.45323699712753296,-1.1163965463638306,-0.20892685651779175
1772882800010373000,1.964373046875,-0.7325807213783264,-0.992911696434021,-0.7755772471427917
1772882800020306200,1.97430615234375,-0.8894230723381042,-0.8837617635726929,-1.2569353580474854
1772882800030239700,1.98423974609375,-0.9236774444580078,-0.8199684023857117,-1.563591718673706
1772882800040171800,1.994171875,-0.8899160623550415,-0.7158342599868774,-1.6802687644958496
1772882800050104800,2.004104736328125,-0.8002551198005676,-0.5713719129562378,-1.6121588945388794
1772882800060038000,2.014037841796875,-0.6756905913352966,-0.4637753963470459,-1.353293776512146
1772882800069969700,2.0239697265625,-0.564346194267273,-0.43586277961730957,-0.8869362473487854
1772882800079902700,2.03390283203125,-0.3396188020706177,-0.3552907109260559,-0.2842727303504944
1772882800089835500,2.04383544921875,-0.07672993093729019,-0.23693691194057465,0.3456897437572479
1772882800099767800,2.053767822265625,0.13738103210926056,-0.07594509422779083,0.8674091100692749
1772882800109700600,2.06370068359375,0.26045742630958557,0.04945516586303711,1.1201121807098389
1772882800119633700,2.073633544921875,0.25512656569480896,0.147660031914711,1.1303586959838867
1772882800129565700,2.083565673828125,0.10127628594636917,0.25979748368263245,0.9503346681594849
1772882800139498800,2.093498779296875,-0.09691189974546432,0.40135088562965393,0.6307092308998108
1772882800149431800,2.103431884765625,-0.27701401710510254,0.49147891998291016,0.23320741951465607
1772882800159363800,2.11336376953125,-0.43661805987358093,0.39724457263946533,-0.1334560662508011
1772882800169296600,2.123296630859375,-0.542141854763031,0.18713633716106415,-0.3888697326183319
1772882800179229700,2.133229736328125,-0.6006277799606323,-0.017789116129279137,-0.4812838137149811
1772882800189161700,2.14316162109375,-0.5871572494506836,-0.12305961549282074,-0.4166358411312103
1772882800199094800,2.1530947265625,-0.4973652958869934,-0.18589583039283752,-0.25722914934158325
1772882800209027800,2.16302783203125,-0.3450133204460144,-0.24126721918582916,-0.12297865003347397
1772882800218960600,2.172960693359375,-0.15035514533519745,-0.2896011769771576,-0.030878286808729172
1772882800228893000,2.182892822265625,0.06598088145256042,-0.1967191845178604,0.08105490356683731
1772882800238825700,2.19282568359375,0.2030646950006485,0.0346091091632843,0.2793605327606201
1772882800248758800,2.2027587890625,0.23316214978694916,0.16335803270339966,0.689204752445221
1772882800258690800,2.21269091796875,0.04434642568230629,0.150819331407547,0.8045401573181152
1772882800268624000,2.222623779296875,-0.3300359547138214,-0.35450854897499084,0.6851868629455566
1772882800278557000,2.232556884765625,-0.7610834836959839,-1.0802668333053589,0.4574413299560547
1772882800288489000,2.242489013671875,-1.055737018585205,-1.550006628036499,-0.050815243273973465
1772882800298421800,2.252421875,-0.9537432193756104,-1.5631312131881714,-0.8553959131240845
1772882800308354800,2.262354736328125,-0.6188666820526123,-0.7671176791191101,-1.7058415412902832
1772882800318286600,2.27228662109375,-0.2625008523464203,0.7440930604934692,-2.3579394817352295
1772882800328219600,2.2822197265625,0.22137020528316498,1.9177281856536865,-2.2217636108398438
1772882800338152700,2.292152587890625,0.8220765590667725,2.3065178394317627,-0.7660409808158875
1772882800348084700,2.302084716796875,1.1954442262649536,2.0539960861206055,1.4154256582260132
1772882800358017800,2.312017822265625,1.115222454071045,1.958858847618103,3.019897699356079
1772882800367950600,2.32195068359375,0.8181670308113098,1.8937748670578003,3.4216160774230957
1772882800377882600,2.331882568359375,0.6314511895179749,1.362980842590332,2.842543601989746
1772882800387815700,2.341815673828125,0.6800011396408081,0.3962914049625397,1.7794456481933594
1772882800397748700,2.351748779296875,0.8017206788063049,-0.590711236000061,0.6040483117103577
1772882800407680800,2.3616806640625,0.9485324621200562,-1.2433068752288818,-0.3543684780597687
1772882800417613800,2.37161376953125,1.1588705778121948,-1.5936046838760376,-0.9234716296195984
1772882800427546600,2.381546630859375,1.3074920177459717,-1.6756728887557983,-1.173966407775879
1772882800437478700,2.391478759765625,1.2307665348052979,-1.6613123416900635,-1.112993597984314
1772882800447411700,2.40141162109375,0.9070100784301758,-1.667455792427063,-0.798500120639801
1772882800457344800,2.4113447265625,0.4895997941493988,-1.58774995803833,-0.4044111371040344
1772882800467277800,2.42127783203125,0.1351809948682785,-1.314867615699768,-0.07247979193925858
1772882800477209900,2.4312099609375,-0.19206185638904572,-0.8082848191261292,0.19612076878547668
1772882800487143000,2.441142822265625,-0.5297150015830994,-0.28741979598999023,0.43364277482032776
1772882800497075700,2.45107568359375,-0.7670990228652954,0.03762194514274597,0.6494573950767517
1772882800507007700,2.4610078125,-0.7829949259757996,0.09973271936178207,0.9004805088043213
1772882800516940800,2.47094091796875,-0.6679170727729797,0.020379573106765747,1.2153849601745605
1772882800526873900,2.480873779296875,-0.5091383457183838,-0.06881900876760483,1.5260107517242432
1772882800536806000,2.490805908203125,-0.36115899682044983,-0.09152112901210785,1.7812305688858032
1772882800546739000,2.500739013671875,-0.2551950216293335,0.06936576217412949,1.8888545036315918
1772882800556671700,2.510671630859375,-0.10556504130363464,0.27901726961135864,1.681796908378601
1772882800566603800,2.520603759765625,-0.055743955075740814,0.2946087419986725,1.0694000720977783
1772882800576536600,2.53053662109375,-0.09542825073003769,0.22940656542778015,0.2537984549999237
1772882800586469600,2.5404697265625,-0.15471340715885162,0.21082913875579834,-0.5700693130493164
1772882800596401700,2.550401611328125,-0.1980385184288025,0.1061144545674324,-1.3012375831604004
1772882800606334700,2.560334716796875,-0.26179540157318115,-0.10224727541208267,-1.8777588605880737
1772882800616267800,2.570267822265625,-0.3364541828632355,-0.29369792342185974,-2.2520737648010254
1772882800626199800,2.58019970703125,-0.40873822569847107,-0.40543776750564575,-2.3289504051208496
1772882800636132600,2.590132568359375,-0.44532474875450134,-0.3655678629875183,-2.0526788234710693
1772882800646065700,2.600065673828125,-0.42329028248786926,-0.24130423367023468,-1.522228479385376
1772882800655997700,2.609997802734375,-0.31980594992637634,-0.14804458618164062,-0.8926939964294434
1772882800665930800,2.6199306640625,-0.12108994275331497,-0.16484221816062927,-0.2777431905269623
1772882800675863800,2.62986376953125,0.07627426832914352,-0.17776013910770416,0.23984907567501068
1772882800685795800,2.6397958984375,0.18395279347896576,-0.018995262682437897,0.6081221699714661
1772882800695729000,2.64972900390625,0.24752724170684814,0.23968583345413208,0.7971045970916748
1772882800705661700,2.65966162109375,0.2597213089466095,0.4372561573982239,0.8655664920806885
1772882800715593700,2.66959375,0.2026849389076233,0.5785379409790039,0.8258832693099976
1772882800725526800,2.67952685546875,0.09830979257822037,0.6400526762008667,0.7468196153640747
1772882800735459800,2.6894599609375,-0.03849306330084801,0.6398151516914368,0.7223315834999084
1772882800745391900,2.699391845703125,-0.18650703132152557,0.6058251857757568,0.7706311941146851
1772882800755325000,2.709324951171875,-0.3332802355289459,0.5417929291725159,0.8839836120605469
1772882800765257700,2.7192578125,-0.47018855810165405,0.36736470460891724,1.042475700378418
1772882800775189800,2.729189697265625,-0.49716636538505554,0.13204991817474365,1.104782223701477
1772882800785122800,2.739122802734375,-0.4283635914325714,-0.08960152417421341,0.9326297044754028
1772882800795055900,2.749055908203125,-0.29474136233329773,-0.23133841156959534,0.558437168598175
1772882800804989000,2.758989013671875,-0.1352188140153885,-0.23875026404857635,0.13078464567661285
1772882800814920700,2.768920654296875,-0.04027658328413963,-0.19272524118423462,-0.23254749178886414
1772882800824853800,2.778853759765625,0.01429238636046648,-0.28087881207466125,-0.36269110441207886
1772882800834786600,2.78878662109375,-0.00018109494703821838,-0.47287219762802124,-0.2793879806995392
1772882800844718600,2.798718505859375,-0.1927950233221054,-0.9023010730743408,-0.28511056303977966
1772882800854651600,2.808651611328125,-0.3640197515487671,-1.6997612714767456,-0.4974108338356018
1772882800864584700,2.818584716796875,-0.3756442070007324,-2.125709056854248,-0.5418057441711426
1772882800874516700,2.828516845703125,-0.12876276671886444,-1.8499294519424438,-0.6385469436645508
1772882800884449800,2.83844970703125,0.3526235520839691,-0.8241897821426392,-0.8234302401542664
1772882800894382600,2.848382568359375,0.8169414401054382,0.5373198986053467,-1.3090150356292725
1772882800904315000,2.85831494140625,1.023995041847229,1.579829216003418,-2.0280961990356445
1772882800914247700,2.86824755859375,1.0548120737075806,1.8067283630371094,-2.2188127040863037
1772882800924180700,2.8781806640625,0.7797631621360779,1.1015148162841797,-1.8378314971923828
1772882800934112800,2.88811279296875,0.14596199989318848,-0.18543244898319244,-0.9866636395454407
1772882800944045800,2.8980458984375,-0.3256300389766693,-1.5125750303268433,0.1374332308769226
1772882800953979000,2.907978759765625,-0.5239718556404114,-2.024157762527466,1.065688967704773
1772882800963911000,2.917910888671875,-0.393538236618042,-1.8756099939346313,1.5403728485107422
1772882800973843700,2.92784375,-0.03334410861134529,-1.2887673377990723,1.5376404523849487
1772882800983776800,2.93777685546875,0.4381248950958252,-0.6517122387886047,1.1384263038635254
1772882800993708800,2.947708740234375,0.8158122301101685,-0.17217177152633667,0.524818480014801
1772882801003641900,2.957641845703125,1.014908790588379,0.1556529700756073,-0.1626456379890442
1772882801013575000,2.967574951171875,0.8544773459434509,0.18849854171276093,-0.8610715866088867
1772882801023506200,2.977506103515625,0.5171118378639221,0.04055355116724968,-1.139523983001709
1772882801033439200,2.987439208984375,0.11241655796766281,-0.08864491432905197,-0.9457787871360779
1772882801043372000,2.9973720703125,-0.13817198574543,-0.06640086323022842,-0.4217784106731415
1772882801053305000,3.00730517578125,-0.18400844931602478,0.19952349364757538,0.25832051038742065
1772882801063237000,3.017237060546875,-0.12057488411664963,0.5858666896820068,0.9794778823852539
1772882801073170200,3.027170166015625,-0.08221151679754257,0.9480211734771729,1.6847233772277832
1772882801083103200,3.037103271484375,-0.21109439432621002,1.2852766513824463,2.2397055625915527
1772882801093035300,3.04703515625,-0.43528568744659424,1.4560878276824951,2.3353028297424316
1772882801102968300,3.05696826171875,-0.6127148270606995,1.3498780727386475,2.009263753890991
1772882801112901000,3.066901123046875,-0.6495252847671509,1.0645719766616821,1.6070618629455566
1772882801122833200,3.076833251953125,-0.5889295935630798,0.8179201483726501,1.2774038314819336
1772882801132766200,3.08676611328125,-0.5491054654121399,0.6376848816871643,0.9286871552467346
1772882801142699300,3.09669921875,-0.5771639943122864,0.3263874351978302,0.4099707305431366
1772882801152631300,3.10663134765625,-0.5667204260826111,-0.17610125243663788,-0.2862964868545532
1772882801162564400,3.116564453125,-0.41057315468788147,-0.5869846940040588,-1.0052423477172852
1772882801172497200,3.1264970703125,-0.24913844466209412,-0.8472445011138916,-1.6793217658996582
1772882801182429400,3.136429443359375,-0.10261852294206619,-0.9693701267242432,-2.1845672130584717
1772882801192362200,3.1463623046875,-0.08048631995916367,-0.9517335891723633,-2.4434823989868164
1772882801202295300,3.15629541015625,-0.23273204267024994,-0.8816088438034058,-2.4214179515838623
1772882801212227300,3.166227294921875,-0.3628312051296234,-0.7555902004241943,-1.97745680809021
1772882801222160400,3.176160400390625,-0.33687496185302734,-0.5996338725090027,-1.1779342889785767
1772882801232093400,3.186093505859375,-0.15737684071063995,-0.4160342216491699,-0.21193382143974304
1772882801242025500,3.196025390625,0.11272335052490234,-0.23359224200248718,0.670437216758728
1772882801251958300,3.205958251953125,0.3234308063983917,-0.010855310596525669,1.2350540161132812
1772882801261891300,3.215891357421875,0.4375232756137848,0.31433582305908203,1.4048722982406616
1772882801271823000,3.225822998046875,0.4147929251194,0.6190328598022461,1.2814185619354248
1772882801281756200,3.235756103515625,0.2985813617706299,0.851999819278717,1.0118036270141602
1772882801291689200,3.245689208984375,0.1359085589647293,0.9458799958229065,0.7336923480033875
1772882801301621200,3.255621337890625,-0.02161341719329357,0.8953057527542114,0.5092182159423828
1772882801311554300,3.26555419921875,-0.15609559416770935,0.744412899017334,0.36488476395606995
1772882801321487000,3.275487060546875,-0.26485297083854675,0.49421051144599915,0.3353034257888794
1772882801331419100,3.285419189453125,-0.34629881381988525,0.13004614412784576,0.35646650195121765
1772882801341352200,3.295352294921875,-0.35308215022087097,-0.12164893746376038,0.36450472474098206
1772882801351285200,3.30528515625,-0.2803938388824463,-0.16866810619831085,0.3741205930709839
1772882801361218300,3.31521826171875,-0.16786836087703705,0.05086637660861015,0.34043294191360474
1772882801371150300,3.325150390625,-0.0024852619972079992,0.3597206175327301,0.23753266036510468
1772882801381083100,3.335083251953125,0.20062844455242157,0.5568102598190308,0.140859916806221
1772882801391016200,3.34501611328125,0.3302615284919739,0.5946471095085144,0.08093373477458954
1772882801400948200,3.3549482421875,0.37626445293426514,0.4647684693336487,0.21489259600639343
1772882801410881300,3.36488134765625,0.38165441155433655,0.21042434871196747,0.6151049733161926
1772882801420814300,3.374814453125,0.11159763485193253,-0.08846541494131088,1.0005903244018555
1772882801430746400,3.384746337890625,-0.517048716545105,-0.2412584275007248,1.1544781923294067
1772882801440679400,3.394679443359375,-0.8136705160140991,-0.34747275710105896,0.47031691670417786
1772882801450612200,3.4046123046875,-0.7318339943885803,-0.21970146894454956,-0.6123643517494202
1772882801460544300,3.414544189453125,-0.09047583490610123,0.33332470059394836,-1.556572675704956
1772882801470477300,3.424477294921875,0.5219689011573792,1.284535527229309,-2.14109468460083
1772882801480410400,3.434410400390625,0.4225730895996094,1.702514886856079,-1.9720611572265625
1772882801490342100,3.444342041015625,0.03701953589916229,0.7418056726455688,-0.379753977060318
1772882801500275500,3.454275390625,-0.11378036439418793,-0.8952146768569946,1.8889378309249878
1772882801510208300,3.464208251953125,0.04548945277929306,-1.6031556129455566,3.0307071208953857
1772882801520140300,3.474140380859375,-0.04978140443563461,-1.3516767024993896,2.9241409301757812
1772882801530073000,3.484072998046875,-0.03189801052212715,-0.4785202443599701,2.186116933822632
1772882801540006100,3.494006103515625,0.40144702792167664,0.7101137638092041,1.3335381746292114
1772882801549938200,3.503938232421875,0.715188205242157,1.5951703786849976,0.5125181674957275
1772882801559871200,3.513871337890625,0.8046821355819702,1.5018622875213623,-0.3829934597015381
1772882801569804300,3.52380419921875,0.8473888039588928,0.5667456984519958,-1.1017515659332275
1772882801579736300,3.533736328125,0.8766968846321106,-0.3497244417667389,-1.2727997303009033
1772882801589669000,3.543669189453125,0.8959798216819763,-0.7925876379013062,-0.9324914813041687
1772882801599602200,3.553602294921875,0.9459028840065002,-0.9512494206428528,-0.45045480132102966
1772882801609535200,3.56353515625,1.0212982892990112,-1.031715750694275,-0.051056526601314545
1772882801619467300,3.57346728515625,1.0290457010269165,-0.9996814131736755,0.26581624150276184
1772882801629400300,3.583400390625,0.6937364339828491,-0.7915886640548706,0.4408591389656067
1772882801639333400,3.59333349609375,0.4828034043312073,-0.5567455291748047,0.5813475847244263
1772882801649265400,3.603265380859375,0.3496813178062439,-0.18941999971866608,0.6429075598716736
1772882801659198200,3.6131982421875,0.22652262449264526,0.17717210948467255,0.6444852352142334
1772882801669131300,3.62313134765625,0.12788473069667816,0.43936750292778015,0.6393336057662964
1772882801679063300,3.633063232421875,0.07361137121915817,0.5701396465301514,0.6616746187210083
1772882801688996400,3.642996337890625,-0.048588309437036514,0.6540071368217468,0.6699173450469971
1772882801698929400,3.652929443359375,-0.29029279947280884,0.5703508257865906,0.5278358459472656
1772882801708861400,3.662861328125,-0.4830404222011566,0.4128861129283905,0.34179407358169556
1772882801718794200,3.672794189453125,-0.6157827377319336,0.16280809044837952,0.08780068904161453
1772882801728727300,3.682727294921875,-0.6992459893226624,-0.14372894167900085,-0.26480183005332947
1772882801738659000,3.6926591796875,-0.762416422367096,-0.3816392421722412,-0.7056042551994324
1772882801748592000,3.702592041015625,-0.778636634349823,-0.5257002711296082,-1.1947494745254517
1772882801758525400,3.712525390625,-0.7494246959686279,-0.538045346736908,-1.6619653701782227
1772882801768457200,3.722457275390625,-0.6342741250991821,-0.4918970465660095,-1.9866403341293335
1772882801778390300,3.732390380859375,-0.4567933678627014,-0.4371514916419983,-2.057100296020508
1772882801788323000,3.742322998046875,-0.31231769919395447,-0.41393619775772095,-1.8578206300735474
1772882801798255000,3.752255126953125,-0.29700955748558044,-0.4473535418510437,-1.5196760892868042
1772882801808188200,3.762188232421875,-0.31981900334358215,-0.5504969358444214,-1.1603970527648926
1772882801818121200,3.772121337890625,-0.2756664752960205,-0.6129467487335205,-0.8029183149337769
1772882801828053200,3.78205322265625,-0.11329539865255356,-0.581153392791748,-0.48641517758369446
1772882801837986300,3.791986328125,0.17362985014915466,-0.45728978514671326,-0.13109037280082703
1772882801847919000,3.801919189453125,0.45602238178253174,-0.2077188342809677,0.20408442616462708
1772882801857851400,3.811851318359375,0.6630858182907104,0.05862389877438545,0.411059707403183
1772882801867784200,3.8217841796875,0.7687315344810486,0.12891431152820587,0.4515797197818756
1772882801877717200,3.83171728515625,0.7901476621627808,0.059061989188194275,0.3991553783416748
1772882801887649300,3.841649169921875,0.6034722924232483,-0.0614154227077961,0.34995216131210327
1772882801897582300,3.851582275390625,0.45529642701148987,-0.14332067966461182,0.36055710911750793
1772882801907515400,3.861515380859375,0.2678849697113037,-0.15295971930027008,0.43286168575286865
1772882801917447400,3.871447509765625,0.17190225422382355,-0.010005496442317963,0.5181939005851746
1772882801927380200,3.881380126953125,0.0924614891409874,0.1803647130727768,0.46106934547424316
1772882801937313300,3.891313232421875,0.07574136555194855,0.3124753534793854,0.33804967999458313
1772882801947246300,3.901246337890625,0.12783971428871155,0.4408402442932129,0.2762467563152313
1772882801957178400,3.911178466796875,0.19850189983844757,0.5721103549003601,0.325135737657547
1772882801967111400,3.921111328125,0.17062419652938843,0.6370416879653931,0.6693224310874939
1772882801977044200,3.931044189453125,0.05127277597784996,0.5157131552696228,1.07539701461792
1772882801986976300,3.940976318359375,-0.2620430588722229,0.2865963578224182,1.0700418949127197
1772882801996909000,3.950908935546875,-0.7744794487953186,0.15004995465278625,0.8769392371177673
1772882802006842400,3.96084228515625,-1.140121579170227,0.17223913967609406,0.210683211684227
1772882802016774100,3.970774169921875,-1.0678223371505737,0.13969504833221436,-0.9413440823554993
1772882802026705200,3.980705078125,-0.7749436497688293,0.17011554539203644,-2.2889437675476074
1772882802036637400,3.990637451171875,-0.49488189816474915,0.1873571127653122,-3.333963632583618
1772882802046570500,4.000570556640625,-0.32011622190475464,-0.05694131180644035,-3.0859456062316895
1772882802056502500,4.01050244140625,0.009677927009761333,-0.6923936605453491,-1.2482472658157349
1772882802066435600,4.020435546875,0.5042809844017029,-1.1364467144012451,1.1041902303695679
1772882802076368600,4.03036865234375,0.9328504800796509,-0.8389215469360352,2.479678153991699
1772882802086300700,4.04030078125,0.9081312417984009,-0.28828904032707214,2.7446706295013428
1772882802096233700,4.050233642578125,0.7471516728401184,0.027815917506814003,2.135223388671875
1772882802106166500,4.06016650390625,0.5551082491874695,-0.006304501090198755,0.8996642827987671
1772882802116098600,4.0700986328125,0.35630059242248535,-0.16178037226200104,-0.44269245862960815
1772882802126031600,4.080031494140625,0.30162614583969116,-0.24685612320899963,-1.4618957042694092
1772882802135964700,4.089964599609375,0.39687517285346985,-0.1603129804134369,-1.7580631971359253
1772882802145896700,4.099896728515625,0.6228896975517273,-0.0661739632487297,-1.4508728981018066
1772882802155829800,4.109829833984375,0.7484002113342285,-0.15753796696662903,-0.9552569389343262
1772882802165762600,4.119762451171875,0.8021819591522217,-0.4671299159526825,-0.51151043176651
1772882802175694600,4.129694580078125,0.5861524343490601,-0.7855533957481384,-0.12292858213186264
1772882802185627600,4.139627685546875,0.42864322662353516,-1.158544898033142,0.12736274302005768
1772882802195560700,4.149560791015625,0.2497539073228836,-1.2567952871322632,0.32482630014419556
1772882802205492500,4.159492431640625,0.041853174567222595,-0.8997310996055603,0.594220757484436
1772882802215425500,4.169425537109375,0.03772260993719101,-0.18083982169628143,0.8865734934806824
1772882802225358600,4.179358642578125,0.21331174671649933,0.6022821068763733,1.2364555597305298
1772882802235290600,4.18929052734375,0.1247243583202362,1.1336463689804077,1.542860507965088
1772882802245223400,4.199223388671875,-0.054240334779024124,1.223925232887268,1.6332218647003174
1772882802255156500,4.209156494140625,-0.29208511114120483,0.9627087712287903,1.5725595951080322
1772882802265088500,4.219088623046875,-0.49433863162994385,0.6518912315368652,1.441007375717163
1772882802275021600,4.229021484375,-0.642424464225769,0.366082102060318,1.2054657936096191
1772882802284954600,4.23895458984375,-0.7770105600357056,0.2185552418231964,0.8825159072875977
1772882802294887400,4.248887451171875,-0.8929960131645203,0.25656360387802124,0.3929363787174225
1772882802304819500,4.2588193359375,-0.8543540835380554,0.36237233877182007,-0.2497778832912445
1772882802314752500,4.26875244140625,-0.6336935758590698,0.45077329874038696,-0.8872081637382507
1772882802324685600,4.278685546875,-0.4477676451206207,0.441390722990036,-1.3477586507797241
1772882802334617600,4.28861767578125,-0.3022346794605255,0.3411264419555664,-1.6284081935882568
1772882802344550700,4.298550537109375,-0.11643873155117035,0.014486530795693398,-1.7013518810272217
1772882802354483700,4.308483642578125,0.04554378241300583,-0.40533125400543213,-1.5673965215682983
1772882802364415700,4.318415771484375,0.24594531953334808,-0.7553888559341431,-1.2000949382781982
1772882802374348500,4.3283486328125,0.42035573720932007,-0.9872673749923706,-0.7148499488830566
1772882802384281600,4.338281494140625,0.47777482867240906,-1.0349560976028442,-0.2476942241191864
1772882802394213600,4.348213623046875,0.3973116874694824,-0.7942707538604736,0.0279805026948452
1772882802404148500,4.3581484375,0.3154098689556122,-0.451481431722641,0.07608118653297424
1772882802414080500,4.36808056640625,0.30804571509361267,-0.22852106392383575,0.013971742242574692
1772882802424013600,4.378013671875,0.37859711050987244,-0.12480398267507553,-0.043111782521009445
1772882802433946600,4.387946533203125,0.39922034740448,-0.0272073857486248,-0.020501812919974327
1772882802443878700,4.397878662109375,0.29599252343177795,0.04349474608898163,0.10598129034042358
1772882802453811700,4.407811767578125,0.18692834675312042,0.04370860010385513,0.3043194115161896
1772882802463744800,4.417744873046875,0.07835552841424942,-0.12728312611579895,0.5442034006118774
1772882802473676800,4.4276767578125,-0.0346653014421463,-0.232949361205101,0.7780949473381042
1772882802483609600,4.437609619140625,-0.15456454455852509,-0.2280677855014801,0.952865719795227
1772882802493542700,4.447542724609375,-0.26135995984077454,-0.09848396480083466,1.004808783531189
1772882802503475700,4.457475830078125,-0.35300251841545105,0.10022833198308945,0.909754753112793
1772882802513407700,4.46740771484375,-0.36239150166511536,0.3028559982776642,0.6923909783363342
1772882802523340800,4.4773408203125,-0.29503270983695984,0.4546721577644348,0.4657064378261566
1772882802533273600,4.487273681640625,-0.16882523894309998,0.5367177724838257,0.3341585397720337
1772882802543205400,4.497205322265625,0.002698581200093031,0.4492800533771515,0.3410550653934479
1772882802553138400,4.507138427734375,0.23093654215335846,0.23966531455516815,0.4164177179336548
1772882802563071500,4.517071533203125,0.38351303339004517,0.05721748247742653,0.6741238236427307
1772882802573003500,4.52700341796875,0.3660717308521271,0.036490101367235184,0.9199423789978027
1772882802582936600,4.5369365234375,0.17778651416301727,-0.13480041921138763,0.684718668460846
1772882802592869600,4.54686962890625,-0.09233924746513367,-0.41118621826171875,0.2661006450653076
1772882802602801700,4.5568017578125,-0.30942124128341675,-0.6640458703041077,-0.5800090432167053
1772882802612734500,4.566734375,-0.44287195801734924,-0.9785827994346619,-1.5472960472106934
1772882802622667500,4.57666748046875,-0.17046894133090973,-1.0081206560134888,-2.2242534160614014
1772882802632599600,4.586599609375,0.038368161767721176,-0.6744236946105957,-2.4905505180358887
1772882802642532600,4.59653271484375,-0.03945872560143471,-0.5959216952323914,-2.6804885864257812
1772882802652465700,4.606465576171875,0.049038115888834,-1.2368279695510864,-2.556694507598877
1772882802662397700,4.616397705078125,0.4608456492424011,-1.9573333263397217,-1.83730149269104
1772882802672330500,4.62633056640625,0.9108474254608154,-1.9936833381652832,-0.7110301852226257
1772882802682263600,4.636263671875,0.8483172059059143,-1.6499446630477905,0.5137836933135986
1772882802692195600,4.646195556640625,0.41092947125434875,-1.2473266124725342,1.4663138389587402
1772882802702128600,4.656128662109375,-0.027336815372109413,-0.8419786095619202,1.7391600608825684
1772882802712061700,4.666061767578125,-0.3384869694709778,-0.3980688154697418,1.1696810722351074
1772882802721993700,4.67599365234375,-0.37549957633018494,0.10647397488355637,0.0010937602492049336
1772882802731926800,4.6859267578125,-0.08184586465358734,0.46316471695899963,-1.133617877960205
1772882802741859600,4.695859619140625,0.3393557071685791,0.6254695057868958,-1.7530529499053955
1772882802751792600,4.705792724609375,0.5928065776824951,0.44577133655548096,-1.637730598449707
1772882802761724400,4.715724365234375,0.7420666813850403,0.006120476871728897,-1.0835462808609009
1772882802771657700,4.72565771484375,0.745903730392456,-0.34859499335289,-0.37700986862182617
1772882802781590800,4.7355908203125,0.5635227560997009,-0.455218106508255,0.3193553686141968
1772882802791522600,4.7455224609375,0.2630563974380493,-0.3052043914794922,0.9591835141181946
1772882802801455600,4.75545556640625,-0.11101946234703064,-0.02682868391275406,1.5766313076019287
1772882802811388400,4.765388427734375,-0.3825726807117462,0.24238760769367218,1.955945372581482
1772882802821320400,4.775320556640625,-0.5829771161079407,0.5092800259590149,2.0868568420410156
1772882802831253500,4.78525341796875,-0.6845133304595947,0.6851197481155396,2.0958306789398193
1772882802841186600,4.7951865234375,-0.696369469165802,0.6230963468551636,2.00543212890625
1772882802851118600,4.80511865234375,-0.6758615374565125,0.3915456533432007,1.6902880668640137
1772882802861051600,4.8150517578125,-0.591901421546936,0.19025009870529175,1.1489641666412354
1772882802870984400,4.824984375,-0.42322954535484314,0.21643775701522827,0.5836479663848877
1772882802880916500,4.83491650390625,-0.26626309752464294,0.43745431303977966,0.02684572897851467
1772882802890849500,4.844849609375,-0.26908713579177856,0.5621485710144043,-0.5812059044837952
1772882802900782600,4.854782470703125,-0.30831682682037354,0.4796134829521179,-1.2330219745635986
1772882802910714600,4.864714599609375,-0.2825256884098053,0.21141424775123596,-1.7158429622650146
1772882802920647700,4.874647705078125,-0.2027435153722763,-0.12963256239891052,-1.9388108253479004
1772882802930580700,4.884580810546875,-0.06178320571780205,-0.36544933915138245,-1.939145565032959
1772882802940512800,4.8945126953125,0.12781281769275665,-0.47232386469841003,-1.7169265747070312
1772882802950445600,4.904445556640625,0.2969352602958679,-0.4506121873855591,-1.3507715463638306
1772882802960378600,4.914378662109375,0.405824214220047,-0.357037216424942,-0.9247480630874634
1772882802970310700,4.924310546875,0.43697094917297363,-0.22580915689468384,-0.48887914419174194
1772882802980243700,4.93424365234375,0.47151824831962585,-0.09245695918798447,-0.1123875305056572
1772882802990176800,4.9441767578125,0.5014399290084839,0.012045211158692837,0.1391480416059494
1772882803000108500,4.954108642578125,0.49257692694664,0.02346457913517952,0.282357394695282
1772882803010041600,4.96404150390625,0.437732070684433,-0.03284130245447159,0.3392273187637329
1772882803019974700,4.973974609375,0.3239985704421997,-0.1450328230857849,0.3732505440711975
1772882803029907000,4.983906982421875,0.20152725279331207,-0.2284504771232605,0.44263362884521484
1772882803039840000,4.993840087890625,0.09206973761320114,-0.24734348058700562,0.5145149827003479
1772882803049773000,5.00377294921875,-0.023443274199962616,-0.14484986662864685,0.5961704254150391
1772882803059705900,5.013705810546875,-0.1760202944278717,0.1212281584739685,0.6905803084373474
1772882803069638000,5.023637939453125,-0.3415123224258423,0.38703426718711853,0.7213259935379028
1772882803079571000,5.033571044921875,-0.47757136821746826,0.5276880264282227,0.6918721795082092
1772882803089504000,5.04350390625,-0.5681787729263306,0.5786955952644348,0.6354590058326721
1772882803099436000,5.05343603515625,-0.5572832226753235,0.6704667806625366,0.5090914964675903
1772882803109369000,5.063369140625,-0.43883249163627625,0.7375099658966064,0.4381837248802185
1772882803119302100,5.07330224609375,-0.31749221682548523,0.7909196615219116,0.48306334018707275
1772882803129234200,5.083234130859375,-0.26473313570022583,0.8463035821914673,0.6006655693054199
1772882803139167000,5.0931669921875,-0.2443157285451889,0.811133861541748,0.8373103737831116
1772882803149100000,5.10310009765625,-0.30046555399894714,0.6467795372009277,1.1413147449493408
1772882803159032000,5.113031982421875,-0.5028799176216125,0.40852224826812744,0.8571362495422363
1772882803168965000,5.122965087890625,-0.6423667073249817,0.13208027184009552,0.2038647085428238
1772882803178898200,5.132898193359375,-0.59834223985672,-0.18355464935302734,-0.6787617206573486
1772882803188830000,5.142829833984375,-0.1509048193693161,-0.47277846932411194,-1.5369012355804443
1772882803198763000,5.152762939453125,0.26098763942718506,-0.22166500985622406,-1.9371615648269653
1772882803208695800,5.16269580078125,0.44681316614151,0.29479196667671204,-2.0915894508361816
1772882803218627800,5.1726279296875,0.27656954526901245,0.49388349056243896,-2.0713601112365723
1772882803228561000,5.182560791015625,-0.047389619052410126,0.08012545853853226,-1.8340985774993896
1772882803238494000,5.192493896484375,-0.17921370267868042,-0.7617436647415161,-1.5154927968978882
1772882803248426000,5.202426025390625,-0.25842568278312683,-1.113571286201477,-1.3270896673202515
1772882803258359000,5.212359130859375,-0.3435634970664978,-0.9266018867492676,-1.0146734714508057
1772882803268291800,5.222291748046875,-0.31258612871170044,-0.5487043857574463,-0.30178436636924744
1772882803278225000,5.232224853515625,-0.1762104481458664,-0.11702142655849457,0.4845496416091919
1772882803288157000,5.242156982421875,-0.12860430777072906,0.3705730140209198,0.8111748695373535
1772882803298090000,5.252090087890625,-0.11287142336368561,0.7821195125579834,0.6894447207450867
1772882803308022000,5.26202197265625,-0.05825744569301605,0.9634858965873718,0.26580610871315
1772882803317955000,5.271955078125,0.09846745431423187,0.8135792016983032,-0.2721971571445465
1772882803327888100,5.28188818359375,0.2784753143787384,0.5542107224464417,-0.6288071870803833
1772882803337821000,5.291821044921875,0.3800341486930847,0.11976634711027145,-0.6375756859779358
1772882803347753000,5.3017529296875,0.38317134976387024,-0.40230482816696167,-0.40230298042297363
1772882803357686000,5.31168603515625,0.3384949564933777,-0.7690274119377136,-0.07173970341682434
1772882803367619000,5.321619140625,0.23610147833824158,-0.8431141972541809,0.277124285697937
1772882803377551000,5.331551025390625,0.10470457375049591,-0.6620634198188782,0.6242460012435913
1772882803387484200,5.341484130859375,-0.0222626943141222,-0.3044677674770355,0.8828791975975037
1772882803397417000,5.3514169921875,-0.2079918086528778,0.2628856897354126,1.05963933467865
1772882803407349000,5.361348876953125,-0.4821557104587555,0.829878568649292,1.2279574871063232
1772882803417282000,5.371281982421875,-0.6879538893699646,1.1001206636428833,1.4177263975143433
1772882803427215000,5.381215087890625,-0.8734028339385986,1.1282931566238403,1.5645275115966797
1772882803437147000,5.39114697265625,-1.0852000713348389,1.0879795551300049,1.606121301651001
1772882803447080000,5.401079833984375,-1.2153851985931396,0.9970774054527283,1.5637637376785278
1772882803457013000,5.411012939453125,-1.1939454078674316,0.8863940238952637,1.281721591949463
1772882803466945000,5.420945068359375,-1.0599730014801025,0.6810919642448425,0.6826291680335999
1772882803476877800,5.4308779296875,-0.8538028001785278,0.48257356882095337,-0.12188036739826202
1772882803486811000,5.440810791015625,-0.5362029671669006,0.43015056848526,-0.9356672763824463
1772882803496743000,5.450742919921875,-0.08825422823429108,0.39413878321647644,-1.579519271850586
1772882803506676000,5.460676025390625,0.2936694324016571,0.29601433873176575,-1.9749395847320557
1772882803516609000,5.470609130859375,0.5369340181350708,0.11457664519548416,-2.1274402141571045
1772882803526541000,5.480541015625,0.5750843286514282,-0.12994149327278137,-1.9827351570129395
1772882803536474000,5.49047412109375,0.5487978458404541,-0.3877836763858795,-1.5764573812484741
1772882803546407000,5.500406982421875,0.47951680421829224,-0.6089773178100586,-1.0729010105133057
1772882803556339000,5.5103388671875,0.3978922367095947,-0.7753271460533142,-0.6492384672164917
1772882803566272000,5.52027197265625,0.2546218931674957,-0.8538733720779419,-0.37867701053619385
1772882803576205000,5.530205078125,0.10583189129829407,-0.7994255423545837,-0.2923740744590759
1772882803586138000,5.54013818359375,0.06041434034705162,-0.6235378980636597,-0.3428098261356354
1772882803596070100,5.550070068359375,0.027803935110569,-0.3465443551540375,-0.3640437424182892
1772882803606003000,5.5600029296875,0.04320366308093071,-0.08298090100288391,-0.3477526307106018
1772882803615936000,5.56993603515625,0.08971869945526123,0.0913618728518486,-0.26984933018684387
1772882803625868000,5.579867919921875,0.09853696078062057,0.23388811945915222,-0.07962451875209808
1772882803635801000,5.589801025390625,-0.03779851272702217,0.32248616218566895,0.1968398243188858
1772882803645734100,5.599734130859375,-0.17636224627494812,0.36826059222221375,0.4459889233112335
1772882803655666200,5.609666259765625,-0.320318341255188,0.42241302132606506,0.6725648045539856
1772882803665599200,5.61959912109375,-0.4545336961746216,0.5265114903450012,0.8492109775543213
1772882803675532000,5.629531982421875,-0.5353667736053467,0.6580783128738403,0.9601308107376099
1772882803685463800,5.6394638671875,-0.5306492447853088,0.7738701105117798,1.0180000066757202
1772882803695396900,5.64939697265625,-0.4470667243003845,0.7962118983268738,1.0343384742736816
1772882803705330000,5.659329833984375,-0.30889737606048584,0.7051451206207275,1.0453513860702515
1772882803715262000,5.669261962890625,-0.13584385812282562,0.4869115948677063,1.1679226160049438
1772882803725195000,5.679195068359375,-0.21742713451385498,0.2907620668411255,1.3777698278427124
1772882803735127800,5.6891279296875,-0.32140225172042847,0.03630634397268295,1.008380651473999
1772882803745059800,5.699059814453125,-0.3857778012752533,-0.1109883040189743,0.6016637682914734
1772882803754993000,5.708992919921875,-0.4012880325317383,0.06748796254396439,0.07470965385437012
1772882803764926000,5.718926025390625,-0.05392980948090553,0.08423765003681183,-0.8649054765701294
1772882803774858000,5.72885791015625,0.22741158306598663,0.12580586969852448,-1.610304832458496
1772882803784791000,5.738791015625,0.5306966304779053,-0.04173998907208443,-1.9393538236618042
1772882803794724000,5.74872412109375,0.5177139639854431,-0.4365059435367584,-2.118565082550049
1772882803804656000,5.75865625,0.06352118402719498,-1.0389398336410522,-2.463047504425049
1772882803814589000,5.7685888671875,-0.23030591011047363,-1.8550807237625122,-2.4333322048187256
1772882803824522000,5.77852197265625,0.1672947257757187,-2.2066245079040527,-1.5171029567718506
1772882803834455000,5.788455078125,0.4564216136932373,-1.6429674625396729,-0.25171613693237305
1772882803844387000,5.798386962890625,0.38101711869239807,-0.5446286797523499,0.8663670420646667
1772882803854320000,5.808320068359375,0.2844056189060211,0.5195401310920715,1.5558876991271973
1772882803864253000,5.8182529296875,0.2844546437263489,1.0020753145217896,1.594607949256897
1772882803874185000,5.82818505859375,0.22532527148723602,1.0350325107574463,0.9294986128807068
1772882803884118000,5.838117919921875,0.057083260267972946,0.930012047290802,0.029884129762649536
1772882803894051000,5.848051025390625,-0.05585101619362831,0.6934237480163574,-0.6245962381362915
1772882803903983000,5.857983154296875,-0.08217982202768326,0.3274998366832733,-0.8861860036849976
1772882803913916200,5.867916259765625,0.05950114503502846,0.023316774517297745,-0.6553463935852051
1772882803923849200,5.87784912109375,0.2221505045890808,-0.06262210011482239,-0.0756865069270134
1772882803933781000,5.887781005859375,0.19666005671024323,-0.014572817832231522,0.6897728443145752
1772882803943713800,5.8977138671875,0.04489263892173767,0.0540832094848156,1.4708420038223267
1772882803953646800,5.907646728515625,-0.14469006657600403,0.15907327830791473,2.0671465396881104
1772882803963579000,5.917578857421875,-0.3895123302936554,0.29809054732322693,2.3324828147888184
1772882803973512000,5.927511962890625,-0.6597254276275635,0.39656198024749756,2.338505983352661
1772882803983445000,5.937445068359375,-0.8300114274024963,0.48975637555122375,2.2750658988952637
1772882803993377000,5.947376953125,-0.9027714133262634,0.5926318764686584,2.180109977722168
1772882804003310000,5.95731005859375,-0.9222326874732971,0.7458869814872742,1.846034049987793
1772882804013243000,5.967242919921875,-0.8795275688171387,0.9334217309951782,1.2541933059692383
1772882804023175000,5.9771748046875,-0.792068600654602,1.1230823993682861,0.5237042307853699
1772882804033108500,5.9871083984375,-0.6873405575752258,1.1428852081298828,-0.25306636095046997
1772882804043041500,5.99704150390625,-0.5431471467018127,0.9256215691566467,-0.9585153460502625
1772882804052973600,6.0069736328125,-0.3425253927707672,0.4618358016014099,-1.5201810598373413
1772882804062906600,6.01690673828125,-0.10568435490131378,0.04454749450087547,-1.877935767173767
1772882804072839400,6.02683935546875,0.05378493294119835,-0.18864235281944275,-1.989719271659851
1772882804082772500,6.0367724609375,0.0722009614109993,-0.32240280508995056,-1.8428232669830322
1772882804092704500,6.04670458984375,0.04525749385356903,-0.4466927945613861,-1.5040644407272339
1772882804102637600,6.056637451171875,0.012349343858659267,-0.5389431118965149,-1.0425420999526978
1772882804112570600,6.066570556640625,-0.011150655336678028,-0.44522035121917725,-0.5871585607528687
1772882804122502700,6.076502685546875,-0.018812570720911026,-0.22654445469379425,-0.2066197544336319
1772882804132435500,6.086435546875,-0.0016381103778257966,-0.07306835055351257,-0.005268265027552843
1772882804142368500,6.096368408203125,0.05705556273460388,0.025202559307217598,0.002846652874723077
1772882804152300500,6.106300537109375,0.1259472817182541,0.13782763481140137,-0.07715150713920593
1772882804162233600,6.116233642578125,0.15706364810466766,0.11150069534778595,-0.13289786875247955
1772882804172166700,6.126166748046875,0.17603068053722382,-0.011361044831573963,-0.06982861459255219
1772882804182098400,6.136098388671875,0.18628491461277008,-0.12770070135593414,0.09190968424081802
1772882804192031700,6.14603173828125,0.19044823944568634,-0.14757241308689117,0.2804311215877533
1772882804201964500,6.155964599609375,0.1909041702747345,-0.09241621941328049,0.42487192153930664
1772882804211896300,6.165896240234375,0.15838085114955902,0.06380028277635574,0.49231967329978943
1772882804221829400,6.175829345703125,0.08818232268095016,0.28462693095207214,0.5112329125404358
1772882804231762400,6.185762451171875,0.001981125446036458,0.5580249428749084,0.5080075860023499
1772882804241694500,6.195694580078125,-0.08617988973855972,0.7164813876152039,0.49859488010406494
1772882804251627500,6.20562744140625,-0.14299017190933228,0.7890560030937195,0.48660293221473694
1772882804261560300,6.215560302734375,-0.11082105338573456,0.7490561008453369,0.416473925113678
1772882804271492600,6.22549267578125,-0.050871435552835464,0.6500557661056519,0.3953942060470581
1772882804281425400,6.23542529296875,0.06429509818553925,0.4343906044960022,0.6484637260437012
1772882804291358500,6.2453583984375,0.11454655230045319,0.3568265736103058,0.844444990158081
1772882804301290500,6.25529052734375,0.044382110238075256,0.20378215610980988,0.5414539575576782
1772882804311223600,6.2652236328125,-0.09627966582775116,-0.002688460983335972,0.18931452929973602
1772882804321156600,6.275156494140625,-0.19922016561031342,0.0006530070677399635,-0.43613043427467346
1772882804331088600,6.285088623046875,0.016826650127768517,-0.1559634953737259,-1.4610724449157715
1772882804341021400,6.295021484375,0.32314130663871765,-0.6737973093986511,-2.6291663646698
1772882804350954500,6.30495458984375,0.6613643765449524,-1.3788695335388184,-3.252885341644287
1772882804360886500,6.314886474609375,0.8097716569900513,-1.8527936935424805,-2.8835501670837402
1772882804370819600,6.324819580078125,0.48881736397743225,-1.7931021451950073,-1.2918530702590942
1772882804380752600,6.334752685546875,0.1860223263502121,-1.5473309755325317,0.941962718963623
1772882804390685400,6.344685546875,0.24586249887943268,-0.4558173418045044,2.500765562057495
1772882804400617500,6.354617431640625,0.2812868058681488,0.7137516736984253,2.859503746032715
1772882804410550500,6.364550537109375,0.28901341557502747,1.0288406610488892,2.197831392288208
1772882804420483600,6.374483642578125,0.33150017261505127,0.4975477159023285,1.0922571420669556
1772882804430415400,6.384415283203125,0.393351286649704,-0.20415979623794556,0.016658339649438858
1772882804440348700,6.3943486328125,0.3943614363670349,-0.5671291947364807,-0.6481233835220337
1772882804450281700,6.40428173828125,0.41739004850387573,-0.5269402265548706,-0.7836742997169495
1772882804460213500,6.414213623046875,0.46223872900009155,-0.33730027079582214,-0.6392319202423096
1772882804470146300,6.424146240234375,0.4485458433628082,-0.24697943031787872,-0.4675440192222595
1772882804480079400,6.434079345703125,0.3554273545742035,-0.16849634051322937,-0.2851089835166931
1772882804490011400,6.444011474609375,0.21742713451385498,-0.008204400539398193,-0.04121215268969536
1772882804499944400,6.4539443359375,0.04531661421060562,0.28349828720092773,0.2535308003425598
1772882804509877500,6.46387744140625,-0.29898136854171753,0.5517246723175049,0.6395429372787476
1772882804519809500,6.4738095703125,-0.6331798434257507,0.6472828984260559,1.0664430856704712
1772882804529742600,6.48374267578125,-0.8601717352867126,0.6723267436027527,1.4175910949707031
1772882804539675400,6.49367529296875,-0.9406329989433289,0.7460853457450867,1.6445866823196411
1772882804549607400,6.503607421875,-0.9205676913261414,0.7653123140335083,1.7225589752197266
1772882804559540500,6.51354052734375,-0.8815861940383911,0.6089909076690674,1.6818466186523438
1772882804569473500,6.5234736328125,-0.8284505605697632,0.40314799547195435,1.5371102094650269
1772882804579405600,6.533405517578125,-0.7252493500709534,0.3492192327976227,1.2998524904251099
1772882804589338600,6.543338623046875,-0.6507772207260132,0.5428294539451599,0.9346758127212524
1772882804599271400,6.553271484375,-0.5864970684051514,0.8173180222511292,0.4979858100414276
1772882804609203500,6.563203369140625,-0.5037750005722046,0.9489309191703796,0.015688681975007057
1772882804619136500,6.573136474609375,-0.41053640842437744,0.8493813872337341,-0.48263829946517944
1772882804629069600,6.583069580078125,-0.2799634635448456,0.58967125415802,-0.9081816077232361
1772882804639002600,6.593002685546875,-0.09847038239240646,0.23621545732021332,-1.2050102949142456
1772882804648934700,6.6029345703125,0.10831129550933838,-0.07773473858833313,-1.3684616088867188
1772882804658867700,6.61286767578125,0.2906387448310852,-0.3264737129211426,-1.4110612869262695
1772882804668800500,6.622800537109375,0.4452861249446869,-0.5494098663330078,-1.3357683420181274
1772882804678732300,6.632732177734375,0.5198847055435181,-0.6629758477210999,-1.1297334432601929
1772882804688665300,6.642665283203125,0.5120092034339905,-0.6465681195259094,-0.8462668061256409
1772882804698598700,6.6525986328125,0.4539041221141815,-0.5061113834381104,-0.5478550791740417
1772882804708530400,6.662530517578125,0.3801116347312927,-0.3041045069694519,-0.3257083296775818
1772882804718463500,6.67246337890625,0.3139803111553192,-0.18107230961322784,-0.1712108999490738
1772882804728396300,6.682396240234375,0.24744680523872375,-0.16450825333595276,-0.048533447086811066
1772882804738328600,6.69232861328125,0.2201688587665558,-0.16590188443660736,0.07135114818811417
1772882804748261400,6.702261474609375,0.24652962386608124,-0.16183896362781525,0.1654512733221054
1772882804758194400,6.7121943359375,0.34345030784606934,-0.19568534195423126,0.2379225492477417
1772882804768126500,6.72212646484375,0.4726905822753906,-0.21051383018493652,0.31239306926727295
1772882804778059500,6.7320595703125,0.5627645254135132,-0.1959194391965866,0.3513476550579071
1772882804787992600,6.74199267578125,0.560598611831665,-0.06767651438713074,0.36911439895629883
1772882804797924600,6.751924560546875,0.46136337518692017,0.1544247269630432,0.38431039452552795
1772882804807857400,6.761857421875,0.30365443229675293,0.3556806147098541,0.3955795466899872
1772882804817790500,6.77179052734375,0.09762908518314362,0.4920642673969269,0.3791113793849945
1772882804827722500,6.781722412109375,-0.11566321551799774,0.5946287512779236,0.34226545691490173
1772882804837655600,6.791655517578125,-0.273802787065506,0.6682209372520447,0.3058403432369232
1772882804847588600,6.801588623046875,-0.3359932005405426,0.6299470663070679,0.30644407868385315
1772882804857520600,6.811520751953125,-0.30483660101890564,0.5224770307540894,0.5090307593345642
1772882804867453700,6.82145361328125,-0.32372426986694336,0.39424851536750793,0.5485789775848389
1772882804877386500,6.831386474609375,-0.3787446618080139,0.18558184802532196,0.2058141529560089
1772882804887318500,6.841318603515625,-0.4141460359096527,0.13936668634414673,-0.0477648600935936
1772882804897251600,6.85125146484375,-0.37968286871910095,0.14561232924461365,-0.5470257997512817
1772882804907184600,6.8611845703125,-0.1072809174656868,0.02094735950231552,-1.3563697338104248
1772882804917117700,6.87111767578125,0.2508806884288788,-0.13687050342559814,-2.1771297454833984
1772882804927049500,6.881049560546875,0.45641812682151794,-0.36726856231689453,-2.6419737339019775
1772882804936982300,6.890982177734375,0.1715153008699417,-0.7150115966796875,-2.925326347351074
1772882804946915300,6.900915283203125,-0.06404928863048553,-1.5397495031356812,-2.382657289505005
1772882804956847400,6.910847412109375,0.16076678037643433,-2.255751371383667,-1.0058386325836182
1772882804966780400,6.920780517578125,0.5054423809051514,-1.9924445152282715,0.21164913475513458
1772882804976713500,6.93071337890625,0.7004073858261108,-1.2001665830612183,0.9086463451385498
1772882804986645500,6.9406455078125,0.8602425456047058,-0.3585563004016876,1.2978487014770508
1772882804996578600,6.95057861328125,1.0379718542099,0.44466346502304077,1.344909906387329
1772882805006511400,6.960511474609375,0.9828861951828003,0.8841228485107422,1.0606414079666138
1772882805016443400,6.970443359375,0.6875317692756653,0.833551824092865,0.680156409740448
1772882805026376400,6.98037646484375,0.30226773023605347,0.43284302949905396,0.39998576045036316
1772882805036309200,6.990309326171875,-0.022548718377947807,-0.04270405322313309,0.2401430904865265
1772882805046241300,7.0002412109375,-0.17288069427013397,-0.4493626356124878,0.1591060310602188
1772882805056174300,7.01017431640625,-0.1371874213218689,-0.7223781943321228,0.2382117658853531
1772882805066107400,7.020107421875,0.009572998620569706,-0.8040583729743958,0.5374072790145874
1772882805076039400,7.030039306640625,0.2838250696659088,-0.6289877891540527,0.9166877269744873
1772882805085972200,7.03997216796875,0.5588350296020508,-0.33732691407203674,1.271994709968567
1772882805095905300,7.0499052734375,0.5618100762367249,-0.11558305472135544,1.5745519399642944
1772882805105837000,7.059837158203125,0.44973626732826233,-0.03609515354037285,1.760130524635315
1772882805115770000,7.06977001953125,0.25896018743515015,0.10731207579374313,1.7633154392242432
1772882805125703200,7.079703125,0.013848171569406986,0.39684030413627625,1.6126124858856201
1772882805135635200,7.08963525390625,-0.26437199115753174,0.7102954387664795,1.3965781927108765
1772882805145568300,7.099568359375,-0.5931261777877808,0.9169138669967651,1.2003923654556274
1772882805155501000,7.1095009765625,-0.9187703132629395,0.9208468198776245,1.016237735748291
1772882805165434000,7.11943408203125,-1.2093946933746338,0.7522876262664795,0.7957474589347839
1772882805175366100,7.1293662109375,-1.4127949476242065,0.5478455424308777,0.47992798686027527
1772882805185299200,7.13929931640625,-1.4077587127685547,0.43617385625839233,0.0931435227394104
1772882805195232300,7.149232177734375,-1.1840025186538696,0.5156082510948181,-0.29685884714126587
1772882805205164300,7.159164306640625,-0.8446487188339233,0.6204392910003662,-0.6551054120063782
1772882805215097000,7.16909716796875,-0.502251148223877,0.6204688549041748,-0.9478174448013306
1772882805225030100,7.179030029296875,-0.25052863359451294,0.44574230909347534,-1.1408803462982178
1772882805234962200,7.188962158203125,-0.11065700650215149,0.15381886065006256,-1.2092080116271973
1772882805244895200,7.198895263671875,0.004712729714810848,-0.16996240615844727,-1.1808751821517944
1772882805254828300,7.208828369140625,0.07933956384658813,-0.45416057109832764,-1.0829081535339355
1772882805264760300,7.21876025390625,0.11120028793811798,-0.625236451625824,-0.9776983857154846
1772882805274693400,7.228693359375,0.12876996397972107,-0.6992731094360352,-0.9097965359687805
1772882805284626200,7.238626220703125,0.14278538525104523,-0.6558196544647217,-0.860000729560852
1772882805294558200,7.24855810546875,0.17033524811267853,-0.4357930123806,-0.7890344262123108
1772882805304491300,7.2584912109375,0.18726283311843872,-0.12555339932441711,-0.6607465147972107
1772882805314424300,7.26842431640625,0.17522907257080078,0.11323068290948868,-0.4924147427082062
1772882805324356400,7.2783564453125,0.1322304755449295,0.196205735206604,-0.31227800250053406
1772882805334289400,7.288289306640625,0.0759379044175148,0.16317933797836304,-0.1497037410736084
1772882805344222200,7.29822216796875,0.018444787710905075,0.10293996334075928,-0.04144437983632088
1772882805354154000,7.308154052734375,-0.041067007929086685,0.004172108136117458,0.02420174330472946
1772882805364087000,7.318087158203125,-0.08795329183340073,-0.08855649828910828,0.06216004490852356
1772882805374020000,7.32802001953125,-0.11925981193780899,-0.056003082543611526,0.07641834020614624
1772882805383952100,7.3379521484375,-0.1523573100566864,0.02906866930425167,0.12846103310585022
1772882805393885200,7.34788525390625,-0.15740613639354706,0.0716097354888916,0.21881330013275146
1772882805403818200,7.357818359375,-0.1081022322177887,0.08717431873083115,0.2525017559528351
1772882805413750300,7.367750244140625,-0.00609277980402112,0.08835356682538986,0.21011701226234436
1772882805423683000,7.37768310546875,0.10422787070274353,0.12156771123409271,0.16882283985614777
1772882805433616100,7.3876162109375,0.22566507756710052,0.062188539654016495,0.3103458881378174
1772882805443549200,7.397549072265625,0.28272756934165955,0.04416612908244133,0.3904537558555603
1772882805453481200,7.407481201171875,0.1839141696691513,0.01721653714776039,0.1678454577922821
1772882805463414300,7.417414306640625,0.06245671957731247,-0.07403401285409927,-0.07878349721431732
1772882805473347000,7.42734716796875,0.04951934888958931,-0.08343550562858582,-0.3922191858291626
1772882805483279000,7.437279052734375,0.29946446418762207,-0.235472172498703,-0.7943083047866821
1772882805493212200,7.447212158203125,0.7111020684242249,-0.4931788146495819,-1.174166202545166
1772882805503145200,7.457145263671875,0.9073581695556641,-0.6538950204849243,-1.3648601770401
1772882805513077200,7.4670771484375,0.6620948910713196,-0.6817061305046082,-1.4155747890472412
1772882805523010300,7.47701025390625,-0.02413969114422798,-0.9065099358558655,-1.2829631567001343
1772882805532943400,7.486943359375,-0.5862852931022644,-1.369806170463562,-0.611107587814331
1772882805542875400,7.49687548828125,-0.571593701839447,-1.3555282354354858,0.5578446388244629
1772882805552808200,7.50680810546875,-0.2637597322463989,-0.6220006942749023,1.4497431516647339
1772882805562741200,7.5167412109375,0.0551612563431263,0.16127437353134155,1.7936969995498657
1772882805572673300,7.52667333984375,0.35177746415138245,0.5183102488517761,1.6188101768493652
1772882805582606300,7.5366064453125,0.5870217084884644,0.5231968760490417,1.1804813146591187
1772882805592539400,7.546539306640625,0.7134376764297485,0.324274480342865,0.6989594101905823
1772882805602471200,7.55647119140625,0.6877334117889404,0.17469698190689087,0.282247930765152
1772882805612404200,7.566404296875,0.5543692111968994,0.15746526420116425,-0.1302054077386856
1772882805622337000,7.5763369140625,0.3673465847969055,0.09514009952545166,-0.5405785441398621
1772882805632269000,7.58626904296875,0.021820077672600746,-0.1097017303109169,-0.881439208984375
1772882805642202000,7.5962021484375,-0.27940288186073303,-0.3696874976158142,-0.9736412763595581
1772882805652135200,7.60613525390625,-0.438630074262619,-0.5365683436393738,-0.7678122520446777
1772882805662067200,7.616067138671875,-0.43521004915237427,-0.7262927889823914,-0.3198365867137909
1772882805672000300,7.626000244140625,-0.27288106083869934,-0.8850376605987549,0.0788668543100357
1772882805681933000,7.63593310546875,-0.16823002696037292,-0.8145933151245117,0.4303891956806183
1772882805691866000,7.6458662109375,-0.01587483659386635,-0.4390473961830139,0.6321069002151489
1772882805701798100,7.655798095703125,0.1603180319070816,0.11699026823043823,0.7382583618164062
1772882805711731200,7.665731201171875,0.2533060312271118,0.6603009700775146,0.8136093020439148
1772882805721664300,7.675664306640625,0.18381723761558533,0.9653327465057373,0.9428397417068481
1772882805731596300,7.68559619140625,-0.01630893163383007,1.0009887218475342,1.057987093925476
1772882805741529300,7.695529296875,-0.2163272351026535,0.7214404940605164,1.055842399597168
1772882805751462100,7.705462158203125,-0.34997159242630005,0.3093469440937042,0.8968506455421448
1772882805761394200,7.715394287109375,-0.41879644989967346,-0.030781082808971405,0.6288666129112244
1772882805771327200,7.7253271484375,-0.35120248794555664,-0.17847706377506256,0.29101452231407166
1772882805781260300,7.73526025390625,-0.10578182339668274,-0.006343649700284004,-0.08749256283044815
1772882805791192300,7.7451923828125,0.25677186250686646,0.3472551703453064,-0.4718934893608093
1772882805801125400,7.75512548828125,0.4120866358280182,0.5182160139083862,-0.855588436126709
1772882805811058200,7.76505810546875,0.39100024104118347,0.39039838314056396,-1.189892053604126
1772882805820990200,7.774990234375,0.2757016122341156,0.08836368471384048,-1.383477807044983
1772882805830923300,7.78492333984375,0.13102273643016815,-0.23146571218967438,-1.3625938892364502
1772882805840856300,7.794856201171875,0.036250147968530655,-0.5007064938545227,-1.177839994430542
1772882805850788000,7.8047880859375,-0.01569826900959015,-0.6858334541320801,-0.9194129705429077
1772882805860721200,7.81472119140625,-0.03044046275317669,-0.6816000938415527,-0.612088143825531
1772882805870654200,7.824654296875,-0.037751372903585434,-0.5567021369934082,-0.31191369891166687
1772882805880586200,7.834586181640625,-0.03845950961112976,-0.343022882938385,-0.07209470123052597
1772882805890519000,7.84451904296875,-0.03381122648715973,-0.08272683620452881,0.04929085075855255
1772882805900452000,7.8544521484375,-0.030371753498911858,0.11464322358369827,0.08864650875329971
1772882805910384000,7.864384033203125,-0.04326518252491951,0.16373780369758606,0.1438586413860321
1772882805920317200,7.874317138671875,-0.038962312042713165,0.13583852350711823,0.20625196397304535
1772882805930250200,7.884250244140625,-0.0013440974289551377,0.11357609927654266,0.24648354947566986
1772882805940182300,7.894182373046875,0.05578683316707611,0.05860019475221634,0.2914624810218811
1772882805950115300,7.904115234375,0.12304816395044327,-0.011323494836688042,0.329429566860199
1772882805960048000,7.914048095703125,0.17622563242912292,-0.0286412313580513,0.32155725359916687
1772882805969980200,7.923980224609375,0.197944775223732,0.016111059114336967,0.28235098719596863
1772882805979913200,7.933913330078125,0.17694707214832306,0.08544299751520157,0.18331655859947205
1772882805989846300,7.94384619140625,0.14054326713085175,0.166508287191391,0.03217151761054993
1772882805999779300,7.953779296875,0.08757884800434113,0.2220921814441681,-0.09385166317224503
1772882806009711400,7.96371142578125,-0.028236964717507362,0.24139077961444855,-0.10220573097467422
1772882806019644200,7.97364404296875,-0.14083461463451385,0.26504072546958923,0.14804884791374207
1772882806029575200,7.9835751953125,-0.26029178500175476,0.3226856291294098,0.31867119669914246
1772882806039506700,7.993506591796875,-0.38904789090156555,0.32978108525276184,-0.028149612247943878
1772882806049439700,8.003439697265625,-0.46607422828674316,0.26687589287757874,-0.3904303312301636
1772882806059372500,8.01337255859375,-0.32911956310272217,0.10842474550008774,-0.6334954500198364
1772882806069304800,8.023304931640626,-0.021453093737363815,-0.1218223050236702,-0.8596851825714111
1772882806079237600,8.033237548828126,0.29053542017936707,-0.24434874951839447,-1.2463515996932983
1772882806089170700,8.043170654296874,0.6546249389648438,-0.36350950598716736,-1.4419379234313965
1772882806099103700,8.053103759765625,0.607226550579071,-0.3904455006122589,-1.6120824813842773
1772882806109035500,8.063035400390625,-0.020560935139656067,-0.8725426197052002,-1.2080389261245728
1772882806118968600,8.072968505859375,-0.21703031659126282,-1.752939224243164,-0.024561801925301552
1772882806128901400,8.0829013671875,-0.028503546491265297,-1.8235561847686768,1.152449369430542
1772882806138833400,8.09283349609375,0.17093420028686523,-1.2649857997894287,1.6081615686416626
1772882806148766500,8.102766357421874,0.35097241401672363,-0.6114141345024109,1.4918240308761597
1772882806158699500,8.112699462890625,0.49048155546188354,-0.12843307852745056,1.0270347595214844
1772882806168631600,8.122631591796875,0.4788600504398346,0.054295994341373444,0.3972618579864502
1772882806178564600,8.132564697265625,0.3247296214103699,0.15244387090206146,-0.11943584680557251
1772882806188497700,8.14249755859375,0.1904895156621933,0.35592561960220337,-0.341086745262146
1772882806198429700,8.1524296875,0.11392123997211456,0.551646888256073,-0.32673096656799316
1772882806208362500,8.162362548828124,0.005730323493480682,0.6323961019515991,-0.17020155489444733
1772882806218295600,8.172295654296875,-0.11206768453121185,0.495718389749527,-0.06229399889707565
1772882806228227600,8.1822275390625,-0.18511046469211578,0.3357852101325989,-0.059610333293676376
1772882806238160600,8.19216064453125,-0.2678666114807129,0.2552964687347412,-0.0030594393610954285
1772882806248093700,8.20209375,-0.36372122168540955,0.23585860431194305,0.1789284646511078
1772882806258025700,8.212025634765626,-0.46799036860466003,0.259674996137619,0.4118008613586426
1772882806267958500,8.22195849609375,-0.5262821912765503,0.23750177025794983,0.6454573273658752
1772882806277891600,8.2318916015625,-0.5202130675315857,0.20349426567554474,0.8422579765319824
1772882806287823600,8.24182373046875,-0.4846700131893158,0.2332705408334732,0.999565839767456
1772882806297756700,8.251756591796875,-0.43751049041748047,0.41120272874832153,1.0834556818008423
1772882806307689700,8.261689697265625,-0.3914548456668854,0.619475245475769,1.0603660345077515
1772882806317622800,8.271622802734376,-0.3801683783531189,0.7048649787902832,0.937636137008667
1772882806327554800,8.281554931640626,-0.3776490092277527,0.6515175700187683,0.7112008929252625
1772882806337487600,8.291487548828124,-0.42303940653800964,0.5259615182876587,0.392564594745636
1772882806347420700,8.301420654296875,-0.42651963233947754,0.402545303106308,0.011129350401461124
1772882806357352400,8.3113525390625,-0.2792894244194031,0.22297635674476624,-0.2934744954109192
1772882806367285500,8.321285400390625,-0.014365890063345432,0.0495731458067894,-0.47023195028305054
1772882806377218600,8.331218505859376,0.2400195151567459,-0.09153657406568527,-0.5901674032211304
1772882806387150600,8.341150634765626,0.42028409242630005,-0.20067425072193146,-0.7424392104148865
1772882806397083600,8.351083740234374,0.4995515048503876,-0.24855682253837585,-0.9096410274505615
1772882806407016400,8.361016357421875,0.5111151933670044,-0.22508931159973145,-1.0604270696640015
1772882806416948500,8.370948486328125,0.4677581489086151,-0.2492779940366745,-1.118577241897583
1772882806426881500,8.380881591796875,0.3608657717704773,-0.29214558005332947,-1.006910800933838
1772882806436814600,8.390814697265625,0.1828846037387848,-0.24607901275157928,-0.6587446331977844
1772882806446746600,8.40074658203125,-0.03320535644888878,-0.09186041355133057,-0.13174816966056824
1772882806456679700,8.4106796875,-0.20495820045471191,0.06796041131019592,0.374746710062027
1772882806466612500,8.420612548828124,-0.291096031665802,0.14652526378631592,0.6943622827529907
1772882806476544500,8.43054443359375,-0.2949346899986267,0.19410794973373413,0.812412440776825
1772882806486477600,8.4404775390625,-0.24836160242557526,0.2690439820289612,0.7925397157669067
1772882806496410600,8.45041064453125,-0.15784555673599243,0.3813958168029785,0.7102218866348267
1772882806506342700,8.4603427734375,-0.07224410027265549,0.4348297417163849,0.5769895315170288
1772882806516275700,8.470275634765626,-0.02888837270438671,0.3545825779438019,0.38201048970222473
1772882806526208500,8.48020849609375,0.0009020126308314502,0.16237080097198486,0.142801895737648
1772882806536140800,8.490140869140625,0.022847525775432587,0.006645918358117342,-0.08856981247663498
1772882806546073600,8.500073486328125,0.07868815213441849,-0.06583227962255478,-0.22951628267765045
1772882806556006700,8.510006591796875,0.16689364612102509,-0.09792842715978622,-0.24810701608657837
1772882806565938400,8.5199384765625,0.2764078974723816,-0.05501558259129524,-0.2255295217037201
1772882806575871700,8.529871826171876,0.3821716010570526,0.01956011913716793,-0.1612357646226883
1772882806585804800,8.5398046875,0.4829046130180359,0.04581382870674133,-0.04596562683582306
1772882806595736600,8.549736572265624,0.5013163685798645,-0.003599794814363122,0.10655041038990021
1772882806605669400,8.55966943359375,0.4194750189781189,0.034084465354681015,0.06810448318719864
1772882806615602400,8.5696025390625,0.2517342269420624,0.1719568520784378,-0.0879540890455246
1772882806625534500,8.579534423828125,0.06506528705358505,0.2668314278125763,-0.31779366731643677
1772882806635467500,8.589467529296876,-0.0830453485250473,0.14280802011489868,-0.6780184507369995
1772882806645400600,8.599400634765624,-0.05430158972740173,-0.16873735189437866,-1.153930425643921
1772882806655333600,8.609333740234375,0.245728000998497,-0.626366138458252,-1.5714993476867676
1772882806665265700,8.619265625,0.5339704751968384,-0.8433866500854492,-1.5548967123031616
1772882806675198500,8.629198486328125,0.3885922133922577,-0.7663125991821289,-1.197563648223877
1772882806685131500,8.639131591796875,0.22824008762836456,-1.0309959650039673,-0.8286356329917908
1772882806695063600,8.6490634765625,0.5199142694473267,-1.787003993988037,-0.3311513066291809
1772882806704996600,8.65899658203125,0.8976738452911377,-1.9199436902999878,0.1756005883216858
1772882806714929700,8.6689296875,1.0448890924453735,-1.349980354309082,0.16530054807662964
1772882806724861700,8.67886181640625,0.7997629642486572,-0.6652759909629822,-0.15355120599269867
1772882806734794500,8.68879443359375,0.43942156434059143,-0.3302660584449768,-0.4369056820869446
1772882806744727600,8.6987275390625,0.20630763471126556,-0.23924534022808075,-0.5674911141395569
1772882806754659600,8.70865966796875,0.03731514886021614,-0.1545426994562149,-0.510166585445404
1772882806764592600,8.718592529296876,-0.06992795318365097,0.0885935127735138,-0.18854966759681702
1772882806774525700,8.728525634765624,-0.04080388695001602,0.43440043926239014,0.2951866388320923
1772882806784457700,8.738457763671875,0.12179327756166458,0.5825150609016418,0.6857352256774902
1772882806794390800,8.748390869140625,0.27608299255371094,0.4711001515388489,0.7537265419960022
1772882806804323600,8.758323486328125,0.3044877350330353,0.27256283164024353,0.5396096706390381
1772882806814255400,8.76825537109375,0.31109076738357544,0.08881402760744095,0.28164684772491455
1772882806824188400,8.7781884765625,0.2258235365152359,0.0436132587492466,0.09130168706178665
1772882806834121700,8.788121826171874,0.05853627994656563,0.09058582782745361,-0.05721402168273926
1772882806844053500,8.798053466796874,-0.13927480578422546,0.19999460875988007,-0.17271637916564941
1772882806853986600,8.807986572265625,-0.3279531002044678,0.4006984233856201,-0.22292709350585938
1772882806863919600,8.817919677734375,-0.4768397808074951,0.617246150970459,-0.189911350607872
1772882806873852400,8.827852294921875,-0.5532389283180237,0.7529028058052063,-0.01571717858314514
1772882806883784400,8.837784423828126,-0.5644931793212891,0.6557744145393372,0.2549547851085663
1772882806893717500,8.847717529296874,-0.57831209897995,0.4214407205581665,0.5585743188858032
1772882806903650600,8.857650634765625,-0.5838807821273804,0.19846035540103912,0.8108459711074829
1772882806913582600,8.86758251953125,-0.5725969672203064,0.023853667080402374,0.92313551902771
1772882806923515600,8.877515625,-0.5128659605979919,0.050329484045505524,0.7987746596336365
1772882806933448400,8.887448486328125,-0.39979639649391174,0.2076040506362915,0.41297104954719543
1772882806943380500,8.89738037109375,-0.2140505015850067,0.3714792728424072,0.014171212911605835
1772882806953313500,8.9073134765625,0.009696036577224731,0.5442361235618591,-0.2365827113389969
1772882806963246600,8.91724658203125,0.145346537232399,0.5930414795875549,-0.33877086639404297
1772882806973178600,8.9271787109375,0.1797090470790863,0.47226181626319885,-0.39775481820106506
1772882806983111700,8.937111572265625,0.17882460355758667,0.2120872288942337,-0.39850929379463196
1772882806993044700,8.947044677734375,0.19238169491291046,-0.059906743466854095,-0.3113645315170288
1772882807002976800,8.956976806640625,0.2349318116903305,-0.26692143082618713,-0.17515982687473297
1772882807012909600,8.96690966796875,0.2590789794921875,-0.4131276607513428,-0.024344220757484436
1772882807022842600,8.976842529296874,0.21638156473636627,-0.467954158782959,0.13784335553646088
1772882807032775000,8.98677490234375,0.1259816288948059,-0.3180203139781952,0.2555433511734009
1772882807042708000,8.9967080078125,0.07372402399778366,-0.06709940731525421,0.26741573214530945
1772882807052641000,9.00664111328125,0.057740792632102966,0.028773324564099312,0.19541902840137482
1772882807062573000,9.016572998046875,0.10256152600049973,-0.018067684024572372,0.08641211688518524
1772882807072505900,9.026505859375,0.18461911380290985,-0.04881494492292404,0.09013734757900238
1772882807082439000,9.03643896484375,0.24888864159584045,-0.07237806171178818,0.2064564973115921
1772882807092370700,9.04637060546875,0.2460142970085144,-0.04429582506418228,0.3750590980052948
1772882807102303700,9.0563037109375,0.18123210966587067,0.0500546433031559,0.49162647128105164
1772882807112236800,9.06623681640625,0.13679885864257812,0.18242067098617554,0.565912663936615
1772882807122168800,9.0761689453125,0.1679471880197525,0.323118656873703,0.7027243375778198
1772882807132102000,9.086101806640626,0.14637185633182526,0.5954828262329102,0.9250900149345398
1772882807142034700,9.09603466796875,0.07930387556552887,0.9628570675849915,1.3318359851837158
1772882807151966700,9.105966796875,-0.03705921769142151,1.0949368476867676,1.3940646648406982
1772882807161899800,9.115899658203125,-0.24092499911785126,0.854763925075531,1.0288968086242676
1772882807171832800,9.125832763671875,-0.389314740896225,0.45407214760780334,0.38597193360328674
1772882807181766000,9.135765869140625,-0.3893754482269287,0.08289328217506409,-0.06606689840555191
1772882807191698000,9.145697998046876,-0.303684264421463,-0.18236660957336426,-0.29899707436561584
1772882807201630700,9.155630615234376,-0.10524439811706543,-0.294979453086853,-0.4306003749370575
1772882807211563800,9.165563720703124,0.28611138463020325,-0.4224247634410858,-0.5531947612762451
1772882807221495800,9.175495849609375,0.5551550984382629,-0.4949743151664734,-0.8317776322364807
1772882807231428900,9.185428955078125,0.537365198135376,-0.6050411462783813,-1.0251034498214722
1772882807241362000,9.19536181640625,0.37002333998680115,-0.8438311219215393,-0.8344314694404602
1772882807251294000,9.2052939453125,0.29484042525291443,-1.0212846994400024,-0.4896447956562042
1772882807261227000,9.21522705078125,0.18066911399364471,-1.103644847869873,-0.37965065240859985
1772882807271159800,9.225159912109374,0.06631270796060562,-1.0900163650512695,-0.5493425130844116
1772882807281091800,9.235091796875,0.07327474653720856,-1.0622169971466064,-0.8602846264839172
1772882807291025000,9.24502490234375,0.1953662931919098,-1.009867787361145,-1.098101258277893
1772882807300958000,9.2549580078125,0.4651455879211426,-0.8853870630264282,-1.1288706064224243
1772882807310889700,9.2648896484375,0.7938558459281921,-0.7692519426345825,-0.9119084477424622
1772882807320823000,9.274822998046876,1.0064594745635986,-0.6273954510688782,-0.5271588563919067
1772882807330755800,9.284755859375,0.9540151357650757,-0.38637247681617737,-0.18631874024868011
1772882807340688000,9.29468798828125,0.6644176840782166,-0.22589199244976044,0.09976840764284134
1772882807350620700,9.30462060546875,0.23591212928295135,-0.07563483715057373,0.32680368423461914
1772882807360553700,9.3145537109375,-0.1740514189004898,0.20150195062160492,0.48933106660842896
1772882807370485800,9.32448583984375,-0.35646358132362366,0.411878377199173,0.5700056552886963
1772882807380418800,9.334418701171876,-0.5758923292160034,0.49383553862571716,0.5083383321762085
1772882807390352000,9.344351806640624,-0.6943497657775879,0.29830625653266907,0.4526766538619995
1772882807400284000,9.354283935546874,-0.7213568687438965,0.06292223930358887,0.4918980896472931
1772882807410216700,9.364216796875,-0.6509212851524353,-0.11146287620067596,0.5413037538528442
1772882807420149800,9.374149658203125,-0.5284361243247986,-0.2727484405040741,0.6040765643119812
1772882807430082800,9.384082763671875,-0.46459510922431946,-0.42044469714164734,0.6485558748245239
1772882807440014800,9.394014892578125,-0.47967925667762756,-0.45819365978240967,0.6943284273147583
1772882807449948000,9.403947998046876,-0.47937431931495667,-0.24656957387924194,0.7847347855567932
1772882807459880700,9.413880615234374,-0.393762469291687,0.16419453918933868,0.9249704480171204
1772882807469813000,9.42381298828125,-0.3182871639728546,0.6266681551933289,1.0528749227523804
1772882807479745800,9.433745849609375,-0.3651505410671234,0.9383392333984375,1.2030973434448242
1772882807489678800,9.443678955078125,-0.5392637252807617,0.942633867263794,1.3635374307632446
1772882807499611000,9.45361083984375,-0.7347400188446045,0.716615617275238,1.3801445960998535
1772882807509544000,9.4635439453125,-0.8432771563529968,0.3838137090206146,1.1746774911880493
1772882807519477000,9.47347705078125,-0.8348708748817444,0.13326723873615265,0.7970824837684631
1772882807529409000,9.483408935546874,-0.7284243702888489,0.09329026937484741,0.3023952841758728
1772882807539341800,9.493341796875,-0.48118260502815247,0.1569901555776596,-0.12619495391845703
1772882807549275000,9.50327490234375,-0.20053549110889435,0.26672330498695374,-0.46421799063682556
1772882807559206700,9.51320654296875,0.030530478805303574,0.3002658188343048,-0.6894311308860779
1772882807569140000,9.523139892578126,0.19980739057064056,0.19882121682167053,-0.8237687349319458
1772882807579073000,9.533072998046874,0.34653931856155396,-0.027222566306591034,-0.8497302532196045
1772882807589004800,9.5430048828125,0.43018919229507446,-0.333763062953949,-0.7268075346946716
1772882807598937900,9.552937744140625,0.42489615082740784,-0.5572131872177124,-0.5589461326599121
1772882807608870700,9.56287060546875,0.3665276765823364,-0.6073395013809204,-0.4386617839336395
1772882807618802700,9.572802734375,0.3232691287994385,-0.32710516452789307,-0.20227640867233276
1772882807628735700,9.58273583984375,0.29725217819213867,0.0028514466248452663,-0.17419496178627014
1772882807638668800,9.592668701171876,0.2546144425868988,-0.0013321131700649858,-0.2576051652431488
1772882807648600800,9.602600830078124,0.2437809705734253,-0.11550742387771606,-0.2533843219280243
1772882807658534000,9.612533935546875,0.21547050774097443,-0.08905557543039322,-0.11264132708311081
1772882807668466700,9.622466796875,0.14920306205749512,-0.12509693205356598,-0.00011930961773032323
1772882807678398700,9.632398681640625,0.07041957229375839,-0.2313764989376068,0.06478512287139893
1772882807688331800,9.642331787109375,-0.014762966893613338,-0.32411256432533264,0.1294032633304596
1772882807698264800,9.652264892578126,-0.09296136349439621,-0.2689872682094574,0.2735516428947449
1772882807708196900,9.66219677734375,-0.14800117909908295,-0.042217228561639786,0.46559566259384155
