time,seconds_elapsed,z,y,x
1772807455737806300,0.063806396484375,-0.1278787764161825,-0.06112754565775394,0.03859232711419463
1772807455747738400,0.07373828125,-0.1198538388600573,-0.05864274310469627,0.05381868394911289
1772807455757669000,0.083669189453125,-0.13727843639161436,-0.03690963472425937,0.0824526577591896
1772807455767601200,0.09360107421875,-0.13615319522134958,-0.049147185006737704,0.10157134585753083
1772807455777533200,0.103533203125,-0.09022446080446243,-0.06674772362709044,0.07932531951889395
1772807455787465200,0.11346533203125,-0.07136661559939383,-0.04274024057388305,0.0856168208785355
1772807455797397200,0.123397216796875,-0.0721919605076313,-0.050449499776959415,0.09829261644780635
1772807455807329300,0.133329345703125,-0.09462528957929461,-0.08020166396200656,0.08627864578813314
1772807455817260300,0.14326025390625,-0.08295943823754787,-0.06522679767012596,0.0907953925602138
1772807455827192300,0.1531923828125,-0.07487601195983588,-0.043992870983481404,0.12009455228075384
1772807455837124400,0.163124267578125,-0.08105097426772118,-0.06271159997880459,0.1130213990241289
1772807455847056400,0.173056396484375,-0.09066453272216021,-0.08038637287914753,0.09328472515791654
1772807455856988200,0.18298828125,-0.07142331422269343,-0.06519757157564163,0.06126417764946818
1772807455866920200,0.192920166015625,-0.07945811558570712,-0.04287994130551815,0.0506364006511867
1772807455876851200,0.202851318359375,-0.06275361248962581,-0.0690595077008009,0.0712570177450776
1772807455886783500,0.212783447265625,-0.07532726285867393,-0.0775420893639326,0.08562120479270816
1772807455896715500,0.222715576171875,-0.061219242529198525,-0.043889410609006876,0.10605565166473388
1772807455906647300,0.232647216796875,-0.07975037653055042,-0.04204465952515602,0.10523454454019665
1772807455916579300,0.242579345703125,-0.08522153795063495,-0.08290040152668952,0.10236994888931512
1772807455926511400,0.252511474609375,-0.10464403130114078,-0.09189677793085575,0.11909706567600369
1772807455936443400,0.262443359375,-0.09299977073669433,-0.0901473039150238,0.12313508902043103
1772807455946374100,0.2723740234375,-0.06543952710535376,-0.0727490098685026,0.10613280855417251
1772807455956306200,0.28230615234375,-0.09992862015180289,-0.07387421450614928,0.1108326568081975
1772807455966238200,0.29223828125,-0.12897764103617518,-0.08306815930902957,0.07856354136615991
1772807455976170200,0.302170166015625,-0.12379702352788298,-0.05267360556721687,0.07251184011176227
1772807455986102300,0.312102294921875,-0.09405651324801147,-0.03399053240716457,0.08962956365123391
1772807455996034600,0.32203466796875,-0.05720715734362602,-0.05383738864958286,0.11289923394918441
1772807456005965800,0.3319658203125,-0.04380520292427391,-0.06611527094244957,0.08551730602681637
1772807456015897900,0.34189794921875,-0.02340951716005802,-0.04476794700920581,0.07663914917483926
1772807456025829600,0.35182958984375,-0.016333879685401915,-0.03617372166514397,0.06804477770030498
1772807456035761700,0.36176171875,-0.04098082968592644,-0.06427110438048839,0.0946953226082027
1772807456045693700,0.371693603515625,-0.08214293422289193,-0.0783002142548561,0.11733765478804707
1772807456055625700,0.381625732421875,-0.09053900664635002,-0.09636077160239219,0.08276186983883381
1772807456065557800,0.391557861328125,-0.10234401073046027,-0.11015607272088528,0.08222250226512551
1772807456075488500,0.401488525390625,-0.1072965916365385,-0.10814239481091499,0.07740750319883227
1772807456085420500,0.411420654296875,-0.09869301394224167,-0.0864700767070055,0.08046352976858616
1772807456095352600,0.4213525390625,-0.09243621856980025,-0.07702478749155998,0.07550707640498876
1772807456105284600,0.43128466796875,-0.05561199710667133,-0.09678045831918716,0.08979615238979459
1772807456115216600,0.441216552734375,-0.02271685872077942,-0.13569441860318182,0.12764189892038702
1772807456125148700,0.451148681640625,-0.011293547430634498,-0.17864567157924174,0.1641457293227315
1772807456135079700,0.46107958984375,-0.05707089067809283,-0.14102642728090287,0.15385843632519244
1772807456145011700,0.47101171875,-0.09944295552670955,-0.0382025971442461,0.1145335571527481
1772807456154943700,0.48094384765625,-0.1513110899299383,-0.015939327409863473,0.12934811831638215
1772807456164875800,0.490875732421875,-0.1561527578074485,-0.02553016257584095,0.10768149930089711
1772807456174807800,0.500807861328125,-0.14636018952429294,-0.027597616499662397,0.06159910869225859
1772807456184739600,0.510739501953125,-0.16440785085763782,-0.0340939927816391,0.013308394384384154
1772807456194670600,0.520670654296875,-0.19501403805613515,-0.03539455398619175,-0.028106004413217305
1772807456204602600,0.5306025390625,-0.16991766378767786,0.0009773205995559692,-0.022024492542445658
1772807456214534700,0.54053466796875,-0.15522804417796432,0.025220950496196746,0.004370762430131435
1772807456224466700,0.550466796875,-0.1637029539912939,0.00857727420926094,0.010431231512874364
1772807456234398700,0.560398681640625,-0.1335440356362611,-0.007050503033399581,0.04585764194205403
1772807456244330800,0.570330810546875,-0.14960603957772253,-0.05953238542079925,0.08546499131768942
1772807456254262800,0.5802626953125,-0.20295893264599144,-0.11386194150149821,0.10145721795856952
1772807456264193800,0.59019384765625,-0.20306297754235564,-0.11951719078421592,0.058318479586392635
1772807456274125600,0.60012548828125,-0.17678977804686874,-0.04462532366812229,-0.002424304537475109
1772807456284057600,0.6100576171875,-0.13498480902910232,0.009784896433353424,-0.09642097735702991
1772807456293989600,0.61998974609375,-0.08217848046030848,0.003611760756373405,-0.09828735575079918
1772807456303921700,0.629921630859375,-0.07022504434883595,-0.022387188374996186,-0.102598643078655
1772807456313853700,0.639853759765625,-0.09386727428622543,-0.036539632368087764,-0.059573886474967
1772807456323784700,0.64978466796875,-0.08980006137993186,-0.042813890331983566,-0.019544804555922744
1772807456333716700,0.659716796875,-0.08782266035974025,-0.041591655060648915,0.01667173333764076
1772807456343648800,0.669648681640625,-0.08615041629858315,-0.028078678014874455,0.048271717346459624
1772807456353580800,0.679580810546875,-0.07926124130673706,-0.042647886115312575,0.09871025733798741
1772807456363512800,0.689512939453125,-0.07995799139924346,-0.08585866681039332,0.1151006895162165
1772807456373444600,0.699444580078125,-0.07988543761968613,-0.0957984615445137,0.1343845050483942
1772807456383376600,0.709376708984375,-0.09054887045323848,-0.09912088396549225,0.12866758870631456
1772807456393307600,0.7193076171875,-0.08016542360484599,-0.13290566466748713,0.14498992408439515
1772807456403239700,0.72923974609375,-0.05480594142079353,-0.12531915506124497,0.1419482183009386
1772807456413171700,0.739171630859375,-0.060634209182858466,-0.09847440275549887,0.14785232777819038
1772807456423103500,0.749103515625,-0.07499123583734035,-0.06050093819200992,0.14093641090989112
1772807456433035500,0.759035400390625,-0.09468958698716014,-0.03490180203318596,0.14386457331627606
1772807456442967600,0.768967529296875,-0.03391626159455627,-0.08616670984625815,0.10820113926082849
1772807456452898800,0.77889892578125,-0.049608957299590105,-0.1032183824121952,0.0818275115981698
1772807456462830800,0.788830810546875,-0.07628649981226772,-0.10666355443000793,0.0851597247608006
1772807456472762600,0.7987626953125,-0.1023690721064806,-0.0867746126115322,0.10500205095857382
1772807456482694700,0.808694580078125,-0.08770166432857512,-0.10292495242357254,0.14172098541632294
1772807456492626700,0.818626708984375,-0.0820030873607844,-0.11103636268675326,0.14438348262384534
1772807456502558700,0.828558837890625,-0.09405596525873988,-0.10687456683218478,0.139010119022429
1772807456512490800,0.83849072265625,-0.09601473464369774,-0.08110942645668982,0.1297007311463356
1772807456522421500,0.84842138671875,-0.1115847172845155,-0.06890987009704112,0.15246668970584867
1772807456532353500,0.858353515625,-0.094744641642645,-0.04811550387144088,0.18707286979332566
1772807456542285600,0.86828564453125,-0.059035541814565655,-0.03044832975566387,0.20689897550866007
1772807456552217600,0.878217529296875,-0.04241875353455543,-0.022637363743782044,0.22266908383145928
1772807456562150000,0.88814990234375,-0.009003975188732147,-0.03701367962062359,0.2166914707265794
1772807456572081700,0.89808154296875,0.028292539961263536,-0.04383446555137634,0.2377737139828503
1772807456582012700,0.9080126953125,0.004906403676792979,-0.05924363160729408,0.22999694250151514
1772807456591944700,0.91794482421875,-0.07664072007741779,-0.047104281002283095,0.2083573576234281
1772807456601876700,0.927876708984375,-0.09022212271690368,-0.033738603472709655,0.18429975181818006
1772807456611808800,0.937808837890625,-0.03824475578553974,-0.05238076010048389,0.1040622858904302
1772807456621740500,0.947740478515625,-0.014838088169693946,-0.041437925803661346,0.06821487357020378
1772807456631672600,0.957672607421875,0.005243197883106768,-0.06104980424642562,0.02087079246267676
1772807456641603600,0.967603515625,0.02044018249306828,-0.061416299471259116,-0.06014730244874954
1772807456651536000,0.977535888671875,-0.028522330129146574,-0.07910802350640296,-0.09060279259756207
1772807456661467600,0.987467529296875,-0.09156652306318283,-0.09304302535653114,-0.14318755083754658
1772807456671399700,0.997399658203125,-0.11289514229595661,-0.0773766696691513,-0.1791942453727126
1772807456681331700,1.007331787109375,-0.11660568725168705,-0.04516717545986175,-0.16370602273121476
1772807456691263700,1.017263671875,-0.09942425082623958,-0.02981120089590549,-0.12825564690455793
1772807456701195800,1.02719580078125,-0.05300802515335381,-0.04325052818357944,-0.11815452412888407
1772807456711126500,1.03712646484375,-0.04341127170324325,-0.049826399442553515,-0.0412513171903789
1772807456721058600,1.04705859375,-0.065146060584113,-0.050831777092814445,-0.021347031672298906
1772807456730990600,1.056990478515625,-0.06429273169040679,-0.06851297973394394,0.008767536084353923
1772807456740922600,1.066922607421875,-0.05756430021822452,-0.06105740303099155,0.0057607554838061325
1772807456750854700,1.076854736328125,-0.05674242590870708,-0.04465922593772411,-0.0005677168853580951
1772807456760786700,1.08678662109375,-0.06448036321699618,-0.020734160470962524,0.02590396432429552
1772807456770717700,1.0967177734375,-0.050832946136593816,-0.022145780834555626,0.03726619307696819
1772807456780649700,1.106649658203125,-0.053068157842755315,-0.023928572598099707,0.018976795409619808
1772807456790581800,1.116581787109375,-0.04747603692412376,-0.017280220624804495,0.0489959399677813
1772807456800513800,1.126513671875,-0.055256607797741886,0.004640519282221794,0.05561375067234039
1772807456810445800,1.13644580078125,-0.06856975142247974,-0.03134089468121529,0.06579363777264952
1772807456820377600,1.146377685546875,-0.07939334325380623,-0.06914309433102607,0.05733852863833308
1772807456830309600,1.1563095703125,-0.10306231506764889,-0.07153261981606483,0.04376052353233099
1772807456840240600,1.16624072265625,-0.14067344912476837,-0.09637421560585498,0.028195436262339352
1772807456850172700,1.176172607421875,-0.1558165481230244,-0.09681962128579616,0.022552754200249908
1772807456860104400,1.1861044921875,-0.13682261891551314,-0.07503858211040497,0.02048252379745245
1772807456870036500,1.196036376953125,-0.1697288632173091,-0.06793313401937484,0.07156126138865947
1772807456879968800,1.20596875,-0.1638502535074949,-0.0664449412882328,0.12873159385323524
1772807456889900800,1.21590087890625,-0.14643033215105533,-0.06297288126349448,0.16487682007625698
1772807456899831800,1.225831787109375,-0.12494564557373523,-0.056680503121018404,0.1901880792044103
1772807456909763600,1.235763671875,-0.09638590604364872,-0.0338280353218317,0.20767375927343965
1772807456919695600,1.245695556640625,-0.08394435762166977,-0.042300095590949056,0.20555925133749842
1772807456929627600,1.255627685546875,-0.06271043093502521,-0.03792728733420372,0.17740633904263375
1772807456939559700,1.2655595703125,-0.1065910737156868,-0.0388081618219614,0.1783949116885662
1772807456949491700,1.27549169921875,-0.12823007407188414,-0.041937107497453684,0.19487536023780702
1772807456959423700,1.285423828125,-0.11850947504639625,-0.024487375524640084,0.20010595436766743
1772807456969354800,1.295354736328125,-0.1283288582712412,-0.05002104523181915,0.18888634895607828
1772807456979286800,1.305286865234375,-0.14875614475011825,-0.0708417149424553,0.1842953679040074
1772807456989218800,1.31521875,-0.1396306620735675,-0.06973053883016109,0.1508734291650355
1772807456999149800,1.32514990234375,-0.12632628627717493,-0.07233399932682513,0.14368220248669386
1772807457009081900,1.335081787109375,-0.09739888247847557,-0.10932955876886843,0.12243176305666566
1772807457019014000,1.345013916015625,-0.09869009133279323,-0.1349596745878458,0.13448197407349943
1772807457028944600,1.354944580078125,-0.10520751040279865,-0.11413140609264373,0.12530688010156155
1772807457038876700,1.364876708984375,-0.08389408873915671,-0.07069616899192332,0.13170739479362964
1772807457048808700,1.37480859375,-0.07658767471592873,-0.05894084926843643,0.12316826063767075
1772807457058740700,1.38474072265625,-0.07913896663393825,-0.07144377248883246,0.1022159273713827
1772807457068672800,1.3946728515625,-0.11476261666826904,-0.09836977333724498,0.07482508549019694
1772807457078605000,1.40460498046875,-0.12100246090590953,-0.1242757834881544,0.03632467444315553
1772807457088535800,1.414535888671875,-0.11633907220475374,-0.11148936715126037,0.04284194738268852
1772807457098467800,1.4244677734375,-0.09434643610529601,-0.08628010709285736,0.051207332406938075
1772807457108399900,1.43439990234375,-0.08730239934530108,-0.08817103540599346,0.05487111561149358
1772807457118332000,1.444331787109375,-0.10432835294809192,-0.0674427201539278,0.0747350691191852
1772807457128264000,1.454263916015625,-0.07993811765499413,-0.05556874248683452,0.1263679334618151
1772807457138195700,1.46419580078125,-0.06184307351596653,-0.0622404753357172,0.17230711620748043
1772807457148127700,1.474127685546875,-0.1039899513065815,-0.08432312780618667,0.17852438328713177
1772807457158059000,1.48405908203125,-0.16094642182476818,-0.08076163593232631,0.18208076059445738
1772807457167991000,1.493990966796875,-0.1868734747637063,-0.07432897253632545,0.16957579154744742
1772807457177922800,1.5039228515625,-0.13311843063533305,-0.03869885622859001,0.145987995211035
1772807457187854800,1.513854736328125,-0.08149236135967075,-0.01910685153007507,0.08616802502050995
1772807457197787000,1.523786865234375,-0.02863335275556892,0.025752280893921852,0.049761663643270726
1772807457207719000,1.533718994140625,-0.032211211242340505,0.0017769465446472166,0.025515549528598785
1772807457217650000,1.54364990234375,-0.027812793620303273,-0.046912557822465895,0.029611294409632682
1772807457227581700,1.553581787109375,-0.025223873105645177,-0.04135843082666397,0.035106530825048686
1772807457237513700,1.563513671875,-0.06018478491492569,-0.03095511023402214,0.06039060968533158
1772807457247445800,1.57344580078125,-0.04836451019644737,-0.0004161795854568481,0.09772270760536193
1772807457257377800,1.583377685546875,-0.036612186147645116,-0.008967734831571579,0.11700228535383939
1772807457267309800,1.593309814453125,-0.041861704173684115,-0.0749503193050623,0.11748919208794832
1772807457277241900,1.603241943359375,-0.0747884067416191,-0.09719546886086464,0.09214987590909003
1772807457287172900,1.6131728515625,-0.07631225530803203,-0.093968323507905,0.08220803534835576
1772807457297105000,1.62310498046875,-0.09119940678384154,-0.10879647480547427,0.05909618596062064
1772807457307037000,1.633036865234375,-0.09799801741540431,-0.0969353566199541,0.04083499147444963
1772807457316969000,1.642968994140625,-0.06204115337133407,-0.08983984540104865,0.04620017176941037
1772807457326900700,1.652900634765625,-0.034790742874145505,-0.08945347643196583,0.009877543152868748
1772807457336832800,1.662832763671875,0.01106733745932579,-0.08782149131596088,-0.001722293747961521
1772807457346763800,1.672763671875,0.028743900457955895,-0.0809410841524601,0.02860445545464754
1772807457356695800,1.68269580078125,0.0007488090733066201,-0.0612730916082859,0.07174158639162778
1772807457366627800,1.6926279296875,-0.028577786643430587,-0.06376198581457138,0.07586670349761843
1772807457376559600,1.7025595703125,-0.028879399938508868,-0.06372340736985206,0.0834383077956736
1772807457386491600,1.71249169921875,-0.04404653739947825,-0.07171382160186768,0.0726679074563086
1772807457396424000,1.722423828125,-0.05642031781487167,-0.08055354613959789,0.07616174092143774
1772807457406355000,1.73235498046875,-0.06886595789007842,-0.08293547284007072,0.06500014930739999
1772807457416287000,1.742286865234375,-0.07831128363814205,-0.10817278994917869,0.07373918994963169
1772807457426218800,1.75221875,-0.09101473439931869,-0.10926116970777511,0.07796703677773476
1772807457436150800,1.76215087890625,-0.08799567883908749,-0.10709434706270694,0.08129530441761017
1772807457446082800,1.772082763671875,-0.07167582767903805,-0.08049860108196735,0.07373612120971083
1772807457456014800,1.782014892578125,-0.0881301188737154,-0.044637598627805704,0.06550137682780623
1772807457465947000,1.79194677734375,-0.09557283609509468,-0.04286941991150379,0.03083002254962921
1772807457475878000,1.8018779296875,-0.07185059972405433,-0.04158931697309017,0.0393191800840199
1772807457485810000,1.811809814453125,-0.04684584926180541,-0.029287469282746312,0.04536942003369331
1772807457495742000,1.821741943359375,-0.030851649859547612,-0.03964110551476478,0.04505860051885247
1772807457505674000,1.831674072265625,-0.02173077029287815,-0.059766194176673886,0.04419117003455758
1772807457515606000,1.84160595703125,-0.056183148058131335,-0.05806991165280342,0.04425619809478521
1772807457525537800,1.851537841796875,-0.07593355818875133,-0.06930442237257957,0.05494418084770441
1772807457535468800,1.86146875,-0.10147950285561382,-0.058068742609024046,0.02053615368083119
1772807457545400800,1.87140087890625,-0.13814064271152018,-0.01942716952562332,0.01012450365126133
1772807457555332900,1.881332763671875,-0.11845219190120697,-0.01736030012369156,0.004021948992460966
1772807457565265000,1.891264892578125,-0.10742748800721019,-0.018050620475411415,0.036338702968508
1772807457575196700,1.90119677734375,-0.06108662912547588,-0.023780104038119313,0.021854542803019284
1772807457585128700,1.911128662109375,-0.049593832795694466,-0.023783026647567748,0.008660130187124013
1772807457595060000,1.92106005859375,-0.046593993392586706,-0.06121347037553787,0.04801379706263542
1772807457604992000,1.930991943359375,-0.031577041524648665,-0.08152560604214668,0.06561141307353972
1772807457614924000,1.940924072265625,-0.052393619582056995,-0.08794424091279505,0.09261062528863549
1772807457624855800,1.950855712890625,-0.050235637830570334,-0.08362287058234215,0.10833747899159789
1772807457634787800,1.960787841796875,-0.07819850744605064,-0.08798106579184532,0.09567819616571069
1772807457644719900,1.970719970703125,-0.06818915460705757,-0.07082534832954407,0.07897241442799567
1772807457654652000,1.98065185546875,-0.04441898744106292,-0.06151040749549865,0.024295798475295304
1772807457664582700,1.990582763671875,-0.021013561934232712,-0.07474690568745136,0.01576952380090952
1772807457674514700,2.0005146484375,-0.0001555558878928423,-0.07065759054720401,0.020160159975290297
1772807457684446700,2.01044677734375,-0.023348799948766825,-0.07425532277822494,0.027400340361893174
1772807457694378800,2.020378662109375,-0.03181724348869174,-0.06861702463030815,0.028685703997313974
1772807457704310800,2.030310791015625,-0.04281622841954231,-0.07693360207676887,0.04969181327745318
1772807457714242800,2.040242919921875,-0.08716047012396157,-0.08152677508592605,0.06570858983770013
1772807457724173800,2.050173828125,-0.10355981626100838,-0.10701719017326831,0.06330883521959185
1772807457734105900,2.06010595703125,-0.09865626212842762,-0.08524725691378116,0.07417568167075514
1772807457744038000,2.070037841796875,-0.11499825205504893,-0.07996200998723506,0.0831412245452404
1772807457753970000,2.079969970703125,-0.12526888617873191,-0.08862053273916244,0.07221110359951853
1772807457763902000,2.08990185546875,-0.11501344962418078,-0.07305354577302932,0.03674859894365072
1772807457773833700,2.099833740234375,-0.09020926323533057,-0.081114687153697,0.017232582090795038
1772807457783765800,2.109765869140625,-0.10404555395133792,-0.0761392368286848,0.010561872155219316
1772807457793696800,2.11969677734375,-0.10016783573515713,-0.05794482396841049,0.0453287957623601
1772807457803628800,2.12962890625,-0.11529409319646655,-0.05791910500526428,0.03764598617479205
1772807457813560800,2.139560791015625,-0.134838094034791,-0.033846155500411985,0.03806464997828007
1772807457823492900,2.149492919921875,-0.14422960723638534,-0.004457563930749893,0.05410626871883869
1772807457833425000,2.1594248046875,-0.13321947985701263,-0.00803308432996273,0.054301352899521586
1772807457843357000,2.16935693359375,-0.11961772854924202,0.012653145346045494,0.061409577469527715
1772807457853288000,2.179287841796875,-0.11045016029663383,-0.02529927642941475,0.06922375835180282
1772807457863219700,2.1892197265625,-0.13179806875176728,-0.06069149232804775,0.07531725292131304
1772807457873151700,2.19915185546875,-0.14119707114007324,-0.06719663643836975,0.08099675986245274
1772807457883083800,2.209083740234375,-0.10687511482145637,-0.00789104551076889,0.0691682287722826
1772807457893015800,2.219015869140625,-0.1147333905737847,0.003533434823155403,0.07390227155685425
1772807457902947800,2.22894775390625,-0.12445048246793448,-0.03293547039628029,0.03429448378980159
1772807457912879900,2.2388798828125,-0.1244067163914442,-0.058171033939719195,0.019415332957357166
1772807457922811000,2.248810791015625,-0.1238753859937191,-0.05752864438295364,0.03844575825035572
1772807457932743000,2.258742919921875,-0.08177983653154224,-0.022632687568664548,0.0468329167149961
1772807457942675000,2.268675048828125,-0.12809095786213873,-0.02011690535545349,0.08978226999491452
1772807457952607000,2.27860693359375,-0.1466137989591807,-0.043052959784865376,0.06694967593997717
1772807457962538800,2.288538818359375,-0.15507829697635023,-0.05807166521847248,0.07883315208777784
1772807457972470800,2.298470703125,-0.1425807440508157,-0.04851239423453808,0.08504165133908391
1772807457982401800,2.30840185546875,-0.1358873108267784,-0.049015667581558224,0.06809197784289717
1772807457992333800,2.318333740234375,-0.13260346685051919,-0.062198389759659765,0.09180793060362338
1772807458002265900,2.328265869140625,-0.1347497946968302,-0.0788929194509983,0.09993030065223574
1772807458012198000,2.338197998046875,-0.13573650417923927,-0.07443301743268967,0.06982976142093539
1772807458022130000,2.3481298828125,-0.12276596344709395,-0.07024316452741622,0.04057458697259426
1772807458032061700,2.358061767578125,-0.12379179936349391,-0.019935119047760963,0.03483341297209263
1772807458041994000,2.367993896484375,-0.10326218502130359,-0.025747604718804357,0.03436871806979179
1772807458051925000,2.377925048828125,-0.09084646516032517,-0.02936345712840557,0.03734948744624853
1772807458061857000,2.38785693359375,-0.0706014764457941,-0.04984218153357506,0.023755115727335213
1772807458071789000,2.3977890625,-0.04871821900494396,-0.06292611951231956,0.021212153246253727
1772807458081720800,2.407720947265625,-0.06371580858528614,-0.07529752530753613,0.03613587387278676
1772807458091652900,2.41765283203125,-0.11146313673146069,-0.08926818299293518,0.0308610022097826
1772807458101585000,2.4275849609375,-0.1226292583901435,-0.04841828621029853,0.015011837301403283
1772807458111516000,2.437515869140625,-0.1260358519632369,-0.033228315863013266,0.04863967387601733
1772807458121448000,2.447447998046875,-0.14470840372927485,-0.042401802399754523,0.06911518341079353
1772807458131380000,2.4573798828125,-0.12965104678571224,-0.09269757291972637,0.07173954056501389
1772807458141312000,2.46731201171875,-0.09282967486679554,-0.08204056982696056,0.06017930502220988
1772807458151244000,2.477244140625,-0.0586760608524084,-0.017995675417780875,0.058251697960495945
1772807458161176000,2.487176025390625,-0.09744089498929678,-0.013373860836029051,0.04727130813226103
1772807458171108000,2.497108154296875,-0.10824523413088172,-0.06401508379280567,0.03173047852069139
1772807458181038800,2.507038818359375,-0.08039861130621284,-0.0797428142786026,0.06519713318422436
1772807458190971000,2.516970947265625,-0.05256835509445518,-0.06631751551628112,0.09575798340365291
1772807458200903000,2.52690283203125,-0.03445398520044982,-0.06695698246359824,0.10873100835382937
1772807458210835000,2.5368349609375,-0.023320669832825658,-0.0861561884522438,0.12110519062802194
1772807458220767000,2.54676708984375,-0.03423369351327419,-0.07408055073320866,0.1352627491876483
1772807458230698800,2.55669873046875,-0.03569214869327843,-0.03494388760924339,0.1245538697771728
1772807458240630000,2.566630126953125,-0.03691029231138527,-0.04727145426273346,0.1165399285390973
1772807458250562000,2.57656201171875,-0.03437861840929836,-0.05897767414748668,0.10110971969515084
1772807458260494000,2.586494140625,-0.07434533914923667,-0.06455868915021419,0.09654884152039885
1772807458270426000,2.596426025390625,-0.07781674158684909,-0.06936930430233477,0.09153905053436756
1772807458280358000,2.60635791015625,-0.06393792690336704,-0.07593933034241199,0.09884893515631556
1772807458290290000,2.6162900390625,-0.05963580926265567,-0.0648544572263956,0.10759440553933382
1772807458300222000,2.626221923828125,-0.06396481491029263,-0.0648456893980503,0.09618103112131357
1772807458310153000,2.636153076171875,-0.020382862815260885,-0.04198971446752548,0.10080372248589992
1772807458320084700,2.646084716796875,-0.027358547046780583,-0.06854103678464889,0.10949833946451544
1772807458330016800,2.656016845703125,-0.056309916242957114,-0.10500818843841551,0.09744009127169848
1772807458339948800,2.66594873046875,-0.09841953076310456,-0.11364333031475543,0.08376213292255998
1772807458349880800,2.675880859375,-0.12808452812135218,-0.05125146380960941,0.07873466014936566
1772807458359812900,2.685812744140625,-0.11118366220295428,-0.01502045899927616,0.035599136647582054
1772807458369744000,2.695743896484375,-0.08399762217886746,-0.02663549346923828,0.018476006280630827
1772807458379676000,2.705676025390625,-0.06322532165460289,-0.04862871409058571,0.009648848963528871
1772807458389608000,2.71560791015625,-0.061467737397551535,-0.050748774984478946,-0.0025235271282494066
1772807458399540000,2.7255400390625,-0.05407886925525963,-0.048044776722788805,-0.015087532886117696
1772807458409472000,2.735471923828125,-0.07861534461863338,-0.0653951399743557,0.021837007146328687
1772807458419404000,2.745404052734375,-0.08451890610661357,-0.11375205138623713,0.03434533719420433
1772807458429335800,2.755335693359375,-0.08544540983438491,-0.09924129547476768,0.04340586487576365
1772807458439266800,2.765266845703125,-0.046970315891690546,-0.08508534435033797,0.06343363064303993
1772807458449198800,2.77519873046875,-0.012200067816302179,-0.10504209070801734,0.09863090849146246
1772807458459131000,2.785130859375,-0.025257263918593523,-0.0961643722474575,0.13563947354555128
1772807458469063000,2.79506298828125,-0.02517243517935276,-0.09202361918091774,0.14537746209725735
1772807458478995000,2.804994873046875,-0.048349970214441415,-0.08078910846114158,0.12595584552958608
1772807458488927000,2.814927001953125,-0.06756079357564448,-0.07068214046657086,0.13072174475714562
1772807458498858000,2.82485791015625,-0.0894850406140089,-0.07520400180518627,0.10837898004576563
1772807458508790000,2.8347900390625,-0.0692897727927193,-0.06008183599710464,0.10358604668080806
1772807458518721800,2.8447216796875,-0.03664543083012104,-0.023068156376481054,0.08675473886728287
1772807458528653800,2.85465380859375,-0.05645436621494591,-0.04212415450215339,0.09041472267955541
1772807458538585900,2.8645859375,-0.06298756737597286,-0.058036593905091284,0.08733400005996227
1772807458548518000,2.874517822265625,-0.06714461399018765,-0.03539046233296394,0.10750058977603912
1772807458558450000,2.884449951171875,-0.05561375067234039,-0.011882160973548888,0.11127470148727298
1772807458568381000,2.894380859375,-0.07310962334182113,-0.026973347121477125,0.12485285272374748
1772807458578313000,2.90431298828125,-0.0839735837161541,-0.06394727925360202,0.11029957284480332
1772807458588245000,2.914244873046875,-0.07177168926894664,-0.07069675351381302,0.10335706023052334
1772807458598177000,2.924177001953125,-0.05375263297557831,-0.04516483737230301,0.06910495427772402
1772807458608109000,2.934109130859375,-0.08278700428009032,-0.06273556537628174,0.03976327058970928
1772807458618041000,2.944041015625,-0.09554777471907436,-0.07685995231866836,0.00789206842407584
1772807458627971800,2.953971923828125,-0.12273553177621215,-0.03884674026668072,0.015048662180453538
1772807458637904000,2.96390380859375,-0.08399104630760848,-0.033356326156854625,0.027945553154498336
1772807458647836000,2.9738359375,-0.10525025356598197,-0.04058452384471893,0.049547144109755754
1772807458657768000,2.983767822265625,-0.11339724659919738,-0.04186111965179443,0.04348813633173704
1772807458667699700,2.99369970703125,-0.12380228422489016,-0.0476093079149723,0.02559314480945468
1772807458677631700,3.0036318359375,-0.11150854677576572,-0.051372459840774536,-0.009581336685270071
1772807458687563800,3.013563720703125,-0.07293839496076107,-0.04241057022809982,-0.023424276337772606
1772807458697495000,3.0234951171875,-0.03941898719668388,-0.05471183339655399,-0.037550562976300716
1772807458707427000,3.033427001953125,-0.044254115735553205,-0.06476444085538387,-0.0022875264152884484
1772807458717358800,3.04335888671875,-0.046090098991058766,-0.08241524835824966,0.02671265035867691
1772807458727291000,3.053290771484375,-0.04425228910464793,-0.0742266812056303,0.06694310006871819
1772807458737223000,3.063222900390625,-0.04175345802623778,-0.0704144294410944,0.08574906895607709
1772807458747155000,3.073155029296875,-0.06568856996297837,-0.05593991388678551,0.11795037985891103
1772807458757086000,3.0830859375,-0.0830622410248965,-0.04908405664265156,0.09972001890242099
1772807458767017700,3.093017822265625,-0.0899643485635519,-0.06738485248684883,0.05958236204236746
1772807458776949800,3.10294970703125,-0.08605795224215834,-0.05289280127584934,0.0433656789958477
1772807458786882000,3.112882080078125,-0.07678334341850131,-0.041249709755182266,0.026577041280269623
1772807458796814000,3.12281396484375,-0.04072535708751529,-0.03692775490283966,0.029631314284354445
1772807458806746000,3.13274609375,-0.062280807346105575,-0.047674189844727516,0.04165332212001085
1772807458816678000,3.142677978515625,-0.07362630415968596,-0.04684183067381382,0.05530220050513744
1772807458826609000,3.15260888671875,-0.06653028148412704,-0.024929858595132828,0.08626607856750487
1772807458836541000,3.162541015625,-0.08920037845373154,-0.011231003588438034,0.09962006565928458
1772807458846473000,3.172472900390625,-0.09948628321178257,-0.053225394231081004,0.11125877326577902
1772807458856405000,3.182405029296875,-0.07220664662010967,-0.06633622021675109,0.11924845684543252
1772807458866336800,3.192336669921875,-0.07950783647894859,-0.08140051835775375,0.11414704205319284
1772807458876268800,3.202268798828125,-0.09288337781541049,-0.109688455209136,0.0742699358254671
1772807458886200000,3.212199951171875,-0.08542612061202526,-0.10826631345152854,0.06123319798931479
1772807458896132000,3.222132080078125,-0.09696049106121063,-0.10477964037954807,0.04570245138034224
1772807458906064100,3.232064208984375,-0.09481478426940738,-0.09365794238448143,0.047318216013908385
1772807458915996000,3.241995849609375,-0.09624452481158077,-0.10993979962170124,0.06503317479416727
1772807458925928000,3.251927978515625,-0.09740005152225494,-0.06756663879454136,0.06894201880097389
1772807458935860000,3.26185986328125,-0.09099486065506934,-0.01809212152957916,0.08420724634155631
1772807458945792000,3.2717919921875,-0.06616027912795543,0.0030880291432142256,0.092774729809165
1772807458955722800,3.28172265625,-0.07414484814107418,-0.026027006182074545,0.11697656639069318
1772807458965654800,3.29165478515625,-0.09608429274857044,-0.06889116539657116,0.13017083287611603
1772807458975586800,3.3015869140625,-0.09397007707357406,-0.0887830298244953,0.1596820279121399
1772807458985518800,3.311518798828125,-0.05929740762114524,-0.08225158222913742,0.15223697260320185
1772807458995450600,3.32145068359375,-0.05261515337824821,-0.0747322926402092,0.16887801854163406
1772807459005382700,3.331382568359375,-0.06967150211930274,-0.07593640773296356,0.14248057161197064
1772807459015313400,3.3413134765625,-0.06687854693252593,-0.06411854416728019,0.10536050900742411
1772807459025245400,3.351245361328125,-0.06363105291128159,-0.06667348934710025,0.10842647244930266
1772807459035177500,3.361177490234375,-0.06344868208169936,-0.061144496792554855,0.09522855270206927
1772807459045109500,3.371109619140625,-0.07423837164342403,-0.05383738864958286,0.0748605951949954
1772807459055041500,3.38104150390625,-0.0522458086092025,-0.06980477311015129,0.05379340337738395
1772807459064973300,3.390973388671875,0.003972337697073817,-0.03243336609303951,0.06645560881271959
1772807459074905300,3.4009052734375,-0.022476035702228545,-0.013732172754406928,0.08440174600034951
1772807459084836600,3.410836669921875,0.006225158125162124,-0.044758010137081146,0.07604571332633495
1772807459094768600,3.4207685546875,0.016250914109684527,-0.09202128109335898,0.10359028446450828
1772807459104700700,3.43070068359375,0.012120718969777226,-0.09204583101272583,0.13868001028522847
1772807459114632400,3.440632568359375,-0.005310929357074201,-0.08891805438101291,0.13255202892422677
1772807459124564500,3.450564453125,-0.07279982674028725,-0.08736264163255691,0.10542056863158941
1772807459134496500,3.46049658203125,-0.13187456805408,-0.0732856009632349,0.09016425504982471
1772807459144427500,3.470427490234375,-0.06604695494659245,-0.07438041046261787,0.05816694228649139
1772807459154359600,3.480359619140625,-0.10351415048837662,-0.050853988924622534,0.0459222316108644
1772807459164291300,3.490291259765625,-0.08543718999531119,-0.00857201351225376,0.04634776354655623
1772807459174223400,3.500223388671875,-0.04039919387307018,-0.05079086056053638,-0.016351561472564936
1772807459184155400,3.5101552734375,-0.06349434785433113,-0.05893208144009113,-0.014838380430638788
1772807459194087400,3.52008740234375,-0.08582366856224835,-0.03655599898099899,-0.02261690547764301
1772807459204019500,3.53001953125,-0.0636778146624565,-0.01524140827357769,-0.011484393827617168
1772807459213950500,3.539950439453125,-0.06254384219646454,-0.0009077624946832656,-0.0024922552071511743
1772807459223882500,3.549882568359375,-0.05456278031468391,-0.035007015973329544,0.012311200040578842
1772807459233814500,3.559814453125,-0.05487604751493781,-0.045421442481875414,0.01189998889118433
1772807459243746600,3.56974658203125,-0.0679781056722626,-0.042835517641901966,0.013721359099447727
1772807459253678600,3.5796787109375,-0.07357135910205542,-0.05075988090038299,-0.01157499472051859
1772807459263610400,3.5896103515625,-0.08021799404229968,-0.05785071594417095,-0.006150777714699507
1772807459273542400,3.59954248046875,-0.07956095490567386,-0.052096682462096214,0.002297901678830385
1772807459283473400,3.609473388671875,-0.06051321315169334,-0.05832827032804489,0.03041282005086541
1772807459293405400,3.619405517578125,-0.06979889135863632,-0.06512742894887924,0.06791779031977058
1772807459303337500,3.62933740234375,-0.07276409783978015,-0.09197802647352218,0.0564792814604938
1772807459313269500,3.63926953125,-0.0653992316275835,-0.071586395829916,0.04894231008440256
1772807459323201500,3.649201416015625,-0.06733860219232737,-0.06635609396100044,0.04822334816008806
1772807459333133600,3.659133544921875,-0.06679503336753696,-0.0744704268336296,0.05985343406870961
1772807459343064600,3.669064697265625,-0.0598310761064291,-0.08692892639040946,0.06872004661336541
1772807459352996400,3.678996337890625,-0.039514191199466586,-0.07597440165579318,0.05764321067333221
1772807459362928400,3.688928466796875,-0.027072788907960055,-0.05987666881382465,0.03886529883667826
1772807459372860400,3.6988603515625,-0.04066876806207001,-0.02335457210242748,0.025628362253308296
1772807459382792400,3.70879248046875,-0.05879479186125099,-0.027547347617149352,0.02612535199001431
1772807459392724500,3.718724365234375,-0.06948153250515461,-0.02612403681576252,0.01457490718886256
1772807459402656500,3.728656494140625,-0.07138298221230506,-0.01722936722040176,-0.001557604705542326
1772807459412587500,3.73858740234375,-0.09235497002713382,-0.036816111221909524,0.011343962443619966
1772807459422519600,3.74851953125,-0.12424297719709575,-0.06928513315021992,-0.005804448495060205
1772807459432451600,3.75845166015625,-0.09333360580094158,-0.08496610188484191,-0.03287000394463539
1772807459442383600,3.768383544921875,-0.08093823460824787,-0.05878010574877262,-0.0275321500480175
1772807459452315600,3.778315673828125,-0.07593523868918418,-0.044670331853628155,-0.04379179545342922
1772807459462247400,3.788247314453125,-0.07592292719688266,-0.0444680872797966,-0.04057093371078372
1772807459472179500,3.798179443359375,-0.05546875271108001,-0.04279284754395485,-0.009863953018933534
1772807459482110500,3.8081103515625,-0.045405148934200404,-0.043347558817267415,-0.01584872651696205
1772807459492042500,3.81804248046875,-0.06531513354070484,-0.061138651573657984,0.010420271727442742
1772807459501974300,3.827974365234375,-0.07426467512845993,-0.04319733669161796,0.007083820781111717
1772807459511906300,3.83790625,-0.08567041422929614,-0.037515783923864364,0.025160598611086604
1772807459521838300,3.84783837890625,-0.07378006994929165,-0.03766366796195507,0.03523921729400754
1772807459531770400,3.857770263671875,-0.1069745200753212,-0.029372809478640554,0.022156594489514826
1772807459541702400,3.867702392578125,-0.12597389264293013,-0.031926585614681244,0.023078239379078148
1772807459551633400,3.87763330078125,-0.09184365950413048,-0.023884733456373212,0.019850801765173672
1772807459561565400,3.8875654296875,-0.08645195652842522,-0.012574234890937805,0.055474926723539826
1772807459571497500,3.89749755859375,-0.06888707374334335,-0.025106968727707863,0.057855830510705704
1772807459581429500,3.907429443359375,-0.028463877940177917,-0.043623453149199486,0.07729790534451604
1772807459591361500,3.917361572265625,-0.04506846432574093,-0.0835375303864479,0.09429419446140527
1772807459601293600,3.92729345703125,-0.07001695455610751,-0.08092997823655605,0.08701952728331089
1772807459611224300,3.937224365234375,-0.10129117720928042,-0.06378536669015884,0.09262260798737407
1772807459621156400,3.94715625,-0.13240071082003413,-0.09647007719576359,0.12480828292965888
1772807459631088400,3.95708837890625,-0.10805888124592601,-0.09817571206986904,0.11892989241555332
1772807459641020400,3.9670205078125,-0.10388298380076885,-0.09923486573398113,0.12902312414571643
1772807459650952700,3.97695263671875,-0.08098726138174533,-0.09219956026971339,0.10583484852090477
1772807459660882400,3.98688232421875,-0.07023439669907093,-0.06360182681679726,0.06851604847386479
1772807459670814500,3.996814453125,-0.04096267297472805,-0.04059855237007141,0.030792320887744425
1772807459680746500,4.00674658203125,-0.058383142320439216,-0.02229717200398445,0.004522299730032682
1772807459690678300,4.01667822265625,-0.040652328383922576,-0.031518589335680004,0.055110038933902976
1772807459700610300,4.0266103515625,-0.04181603840105235,-0.04336158734261989,0.07725479685515164
1772807459710541600,4.03654150390625,-0.053283261898159975,-0.04489420373737812,0.11989362288117408
1772807459720473600,4.0464736328125,-0.06061258187294006,-0.06468845300972462,0.08967164922729134
1772807459730405600,4.056405517578125,-0.07719488336145877,-0.07042027465999126,0.10396554751768708
1772807459740337400,4.06633740234375,-0.04865673460867256,-0.07014613389372826,0.10546060838103294
1772807459750269400,4.07626953125,-0.036720213099382816,-0.09437105908989905,0.11342033521384
1772807459760201500,4.086201416015625,-0.059463411837816234,-0.11089607743322849,0.09085062987878918
1772807459770133500,4.096133544921875,-0.05988134498894214,-0.10278875882327557,0.06961027345135808
1772807459780064300,4.106064208984375,-0.06062602587640285,-0.08570143042206764,0.07059957674965261
1772807459789996300,4.115996337890625,-0.06007306816875934,-0.09161620742380619,0.08324278522357344
1772807459799928300,4.12592822265625,-0.07071428917050361,-0.07225801148116588,0.06741334792897105
1772807459809860400,4.1358603515625,-0.06347615461051463,-0.056229252222180365,0.09308949484676123
1772807459819792400,4.14579248046875,-0.03880578720178455,-0.048617023652791976,0.08342296409606934
1772807459829724700,4.155724609375,-0.03008296704199165,-0.04793079495429992,0.08178557215258479
1772807459839656400,4.165656494140625,-0.043988706265017385,-0.07753156796991825,0.09791296948045491
1772807459849587500,4.17558740234375,-0.03224405406601727,-0.07381985397040844,0.08817103540599346
1772807459859519500,4.18551953125,-0.04345215170290321,-0.06830722802877426,0.0869163591697812
1772807459869451500,4.195451416015625,-0.04920848673991859,-0.07262450670599938,0.08140665583759546
1772807459879383600,4.205383544921875,-0.07486077785808593,-0.08049334038496017,0.10890592652931809
1772807459889315300,4.2153154296875,-0.07887710082735866,-0.08590952021479606,0.09937091320380569
1772807459899247400,4.225247314453125,-0.07166998246014118,-0.07650923918485641,0.10115107461884618
1772807459909179400,4.235179443359375,-0.08636661633253097,-0.0612380202949047,0.09160203276798129
1772807459919110700,4.245110595703125,-0.05589022952616214,-0.049877837368845934,0.07455225989818573
1772807459929042700,4.255042724609375,-0.051034533123299475,-0.04241699996888637,0.06611176381111145
1772807459938974500,4.264974365234375,-0.05559044286198914,-0.036620296388864514,0.05787058968842029
1772807459948906500,4.274906494140625,-0.05013853413164615,-0.04088263000845909,0.039271395419538016
1772807459958838500,4.284838623046875,-0.039606691788509486,-0.03305646642744541,0.03925400589331984
1772807459968770600,4.2947705078125,-0.046543687977455554,-0.02582242352068424,0.05906695986613631
1772807459978701300,4.304701416015625,-0.05200779860224575,-0.008943184912204742,0.05679273132383823
1772807459988633300,4.31463330078125,-0.046674657413363456,-0.042187282866239545,0.07369798115640878
1772807459998565400,4.3245654296875,-0.06063534169401973,-0.04117898260653019,0.10120090510994195
1772807460008498400,4.33449853515625,-0.056660044854879375,-0.0502367338091135,0.0789117702819407
1772807460018430200,4.34443017578125,-0.06570727466344833,-0.06766366942822932,0.07326996500268577
1772807460028363300,4.35436328125,-0.05783259576559067,-0.08957739507257938,0.08991904811710119
1772807460038295300,4.36429541015625,-0.05550977884121239,-0.08558920221924782,0.059806380056589836
1772807460048227300,4.374227294921875,-0.06966214976906776,-0.058982934844493864,0.042630496589094395
1772807460058159400,4.384159423828125,-0.0510563065636903,-0.03977671459317207,0.03962459277138114
1772807460068091400,4.39409130859375,-0.05063486628122627,-0.04392506644427776,0.06233911340460181
1772807460078023400,4.4040234375,-0.046486441364884376,-0.06544891598820686,0.058797641405463216
1772807460087954200,4.4139541015625,-0.06045768357217311,-0.061436173215508455,0.07067804881334304
1772807460097886200,4.42388623046875,-0.0594733121773228,-0.05206394923627376,0.07839768327996134
1772807460107818200,4.433818359375,-0.06626498161144555,-0.04028700220286846,0.06093143856376409
1772807460117750500,4.44375048828125,-0.07275134795606136,-0.043077509704232214,0.038843233135342596
1772807460127682600,4.4536826171875,-0.049186421038582916,-0.052044075492024416,0.06051306702122092
1772807460137614300,4.4636142578125,-0.04868712974693626,-0.0717687666594982,0.06812909498289227
1772807460147545300,4.47354541015625,-0.0624187179794535,-0.08829612309038638,0.06324161520227789
1772807460157477400,4.483477294921875,-0.049463374816440045,-0.08108955271244049,0.09082315734997391
1772807460167409400,4.493409423828125,-0.06559267184045166,-0.07797580460608006,0.12192965875342487
1772807460177341200,4.503341064453125,-0.057913223253749306,-0.07109422839879989,0.10171981441751123
1772807460187273200,4.513273193359375,-0.033994550995156164,-0.045110476836562156,0.1118731057718396
1772807460197205200,4.523205322265625,-0.02529335814528167,-0.0380108739644289,0.12159779645055532
1772807460207137300,4.53313720703125,-0.018071005676314235,-0.042136429461836815,0.09871537190452218
1772807460217068500,4.543068603515625,-0.04522851372566074,-0.054955579024553294,0.10136588641330599
1772807460227000300,4.553000244140625,-0.06698266489412635,-0.07303893272578715,0.05373918897211551
1772807460236932400,4.562932373046875,-0.07152085631303488,-0.07507014629244804,0.01877995766326785
1772807460246864400,4.572864501953125,-0.07303422001805156,-0.05778232688307762,0.0019156243629753589
1772807460256796400,4.58279638671875,-0.060572834384441374,-0.04643383439481258,-0.020608634395152328
1772807460266728400,4.592728515625,-0.0564191853037104,-0.06198679283559322,-0.04417801829203963
1772807460276660500,4.602660400390625,-0.056738955309987064,-0.07869593557417393,-0.032887393470853565
1772807460286591200,4.61259130859375,-0.0894026960927993,-0.029427754536271094,-0.04133198121115565
1772807460296523300,4.622523193359375,-0.10217438978459685,-0.013317162212729453,-0.06474003706648945
1772807460306455300,4.632455322265625,-0.12496961097121238,-0.003925649011135101,-0.07123977434933185
1772807460316387300,4.64238720703125,-0.1361754435857758,-0.001679331389069557,-0.07262246087938547
1772807460326319400,4.6523193359375,-0.11335570901241153,-0.017094927185773847,-0.0345132411070168
1772807460336251100,4.662251220703125,-0.09440488829426467,-0.038272739771008486,-0.002769464713335037
1772807460346183400,4.672183349609375,-0.08481178810596465,-0.053988195297121996,0.01972527568936348
1772807460356114400,4.682114501953125,-0.08398235154449939,-0.033203181421756746,0.019708032293617724
1772807460366046500,4.69204638671875,-0.07052848427481949,-0.03143558722734451,0.02861088519543409
1772807460375978200,4.701978271484375,-0.06907127120383083,-0.04346855484843254,0.032787001836299894
1772807460385910300,4.71191015625,-0.05779350586421787,-0.05970423485636711,0.03906476693153381
1772807460395842300,4.72184228515625,-0.038900589345768094,-0.024793080472946167,0.04423793178573251
1772807460405774300,4.7317744140625,-0.022782398237660526,-0.012702829706668852,0.038434067812561985
1772807460415705300,4.741705322265625,-0.045707346751168366,-0.023776596906781196,0.010890519587695598
1772807460425637000,4.75163720703125,-0.053432972567155956,-0.023352234014868734,0.000950140331685543
1772807460435569400,4.7615693359375,-0.07726568357534706,-0.0517617514193058,0.010589198553562164
1772807460445501400,4.77150146484375,-0.04149937366731465,-0.07944061646163462,0.03055398208722472
1772807460455433500,4.78143359375,-0.01618599564731121,-0.0765010558784008,0.01645765219554305
1772807460465365500,4.791365478515625,-0.021575214404985308,-0.07669920879900455,0.033406010517477984
1772807460475297500,4.801297607421875,-0.0015383885484188794,-0.07524784094691277,0.047087475997954605
1772807460485228300,4.811228271484375,-0.009430603102967143,-0.07183189502358436,0.051719081321358676
1772807460495160300,4.821160400390625,-0.04474515065550804,-0.06389291871786117,0.05062821734473109
1772807460505092400,4.83109228515625,-0.04596731286160648,-0.06685819826424122,0.022096680995821953
1772807460515024400,4.8410244140625,-0.057356721882149575,-0.055583940055966376,-0.007501753932237625
1772807460524956200,4.8509560546875,-0.08415303193628787,-0.05476093323528766,-0.02583908239454031
1772807460534888200,4.86088818359375,-0.07135368305258452,-0.03146422879993915,-0.06952770973443985
1772807460544820200,4.8708203125,-0.06574051934592426,-0.02998772650659084,-0.07769041179344058
1772807460554751500,4.88075146484375,-0.06507599102258682,-0.02008651021718979,-0.08249532785713672
1772807460564683500,4.89068359375,-0.07362228557169437,-0.006080196696519852,-0.07418810276091098
1772807460574615300,4.900615234375,-0.07325162562839686,0.013199088791012763,-0.07461202726140617
1772807460584547300,4.91054736328125,-0.06905015535056591,-0.003791793498396873,-0.04732873740792274
1772807460594479400,4.920479248046875,-0.051519101769849654,-0.025347207224369048,-0.01337912153303623
1772807460604411400,4.930411376953125,-0.04668408282883465,-0.039569209322333335,0.037744770374149084
1772807460614343400,4.940343505859375,-0.04519757059812546,-0.07155483164787292,0.038808746343851085
1772807460624274200,4.950274169921875,-0.05202361722588539,-0.05852466968297958,0.02336494736596942
1772807460634206200,4.960206298828125,-0.05318849628679454,-0.0652817427277565,0.02076119460836053
1772807460644138200,4.97013818359375,-0.03242050661146641,-0.07936521313786506,0.023798808738589285
1772807460654070300,4.9800703125,-0.038637408364936704,-0.10587035822570323,0.052621436988562344
1772807460664002300,4.990002197265625,-0.05220649951212108,-0.10978957749605178,0.07734729744419455
1772807460673934300,4.999934326171875,-0.02888407611362636,-0.08033902660608291,0.10119929767474531
1772807460683866400,5.009866455078125,-0.03420556339733302,-0.06115268009901046,0.10217997927516698
1772807460693797400,5.01979736328125,-0.06526062687449156,-0.026467151165008543,0.11389745120629667
1772807460703729400,5.0297294921875,-0.01449848095178604,-0.05899637884795665,0.04538987829983234
1772807460713661400,5.039661376953125,-0.011993877719715237,-0.06775836197435856,0.05295008442103862
1772807460723593200,5.04959326171875,-0.01838321343064308,-0.01601122360229492,0.07706292754486203
1772807460733525200,5.059525146484375,-0.013061726146936415,-0.020768062740564346,0.07889642658233642
1772807460743457300,5.069457275390625,-0.015663433077931402,-0.06513853486478328,0.04516702932938933
1772807460753389300,5.079389404296875,-0.03591485153324902,-0.048263387909531594,0.08180076972171664
1772807460763320300,5.0893203125,-0.06536240674853325,-0.036734278157353396,0.0774516346015036
1772807460773252400,5.09925244140625,-0.05353811344206333,-0.058549219602346415,0.09467427982017397
1772807460783184400,5.109184326171875,-0.024375731843709943,-0.05750117185413837,0.07923296506032347
1772807460793116400,5.119116455078125,-0.00610934972576797,-0.06258826586008072,0.0721906453333795
1772807460803048400,5.12904833984375,0.0042203211087733505,-0.08929682456552981,0.10362330995127558
1772807460812980500,5.13898046875,-0.00207731773070991,-0.0942693522810936,0.07804127105772495
1772807460822912500,5.14891259765625,0.008048866420984268,-0.06424070924222469,0.05315788195282221
1772807460832843300,5.15884326171875,-0.006045052317902445,-0.0444376921415329,0.037018209665268656
1772807460842775300,5.168775390625,-0.03169219233691692,-0.04776654430329799,0.024960838255286215
1772807460852707300,5.178707275390625,-0.030594387162849304,-0.0473959574252367,0.03494695634916425
1772807460862639400,5.188639404296875,-0.011357260316610336,-0.05580664289593696,0.06655541592538357
1772807460872571100,5.198571044921875,0.00336626156270504,-0.08389584230482577,0.09320172304958105
1772807460882503200,5.208503173828125,-0.009210895937681197,-0.083755557051301,0.10231529609262943
1772807460892435200,5.218435302734375,-0.003982420699670911,-0.0668938540995121,0.12993190955370665
1772807460902366500,5.228366455078125,-0.014481529816985129,-0.06882102276980877,0.10942337453216314
1772807460912298500,5.238298583984375,0.0013612784158438444,-0.08407587504684924,0.08933131135702133
1772807460922230300,5.248230224609375,0.0268786545753479,-0.05329787494540214,0.09250219647809862
1772807460932162300,5.258162353515625,0.03266659032702446,-0.044783144578337666,0.07992182410731911
1772807460942094300,5.26809423828125,0.03191789085157216,-0.049314358267188066,0.12350363007187842
1772807460952026400,5.2780263671875,0.03385967256911099,-0.048205520242452615,0.1184530686840415
1772807460961958400,5.28795849609375,-0.006300488383695482,-0.025557635104656216,0.10102715597823261
1772807460971889200,5.29788916015625,-0.035890740005299446,-0.03478255956768989,0.03594078969210386
1772807460981821200,5.3078212890625,-0.05452938950173557,-0.038108489120006556,0.00112476624622941
1772807460991753200,5.317753173828125,-0.05812127651385963,-0.041672319081425664,0.007192103461176156
1772807461001686000,5.32768603515625,-0.056276525430008766,-0.06306757380962372,-0.031128713235259054
1772807461011618000,5.3376181640625,-0.0539483747433871,-0.07576981899440288,-0.017827186983078717
1772807461021549800,5.3475498046875,-0.06692015758454799,-0.05132336000204086,0.009819675485789775
1772807461031481900,5.35748193359375,-0.04878010526001453,-0.04948854579031467,-0.001982113727927208
1772807461041413000,5.3674130859375,-0.02474215400330722,-0.07536065367162227,-0.02526756611689925
1772807461051345200,5.37734521484375,-0.020627119899913667,-0.07698270191550255,-0.027338381041586396
1772807461061277200,5.387277099609375,-0.020608488264679908,-0.06459902116060257,-0.026880992662906646
1772807461071209000,5.397208984375,-0.024339491486549375,-0.02542377959191799,-0.0024596681118011473
1772807461081141000,5.40714111328125,-0.04048405914492905,-0.04183364712297916,-0.011106938817352056
1772807461091073000,5.417072998046875,-0.04695055174529552,-0.027964696246385572,-0.024068711721152065
1772807461101005000,5.427005126953125,-0.07594860962741076,-0.043189153385162354,-0.028444296456873415
1772807461110936000,5.43693603515625,-0.08304528989009559,-0.0622317075073719,-0.032106764487177135
1772807461120867800,5.446867919921875,-0.08709953371696173,-0.04849485857784748,-0.0016216098524630069
1772807461130800000,5.456800048828125,-0.05241941161043941,-0.09277999050617218,-0.03954918944761157
1772807461140732200,5.466732177734375,-0.05870645599067211,-0.0871060365229845,0.022006518494337796
1772807461150664200,5.476664306640625,-0.07664777087271213,-0.06408464189767837,0.0345503582470119
1772807461160596200,5.48659619140625,-0.10445223505608738,-0.035145547661185265,0.04269494012743234
1772807461170528000,5.496528076171875,-0.1192733720909804,-0.048860184758901595,0.08285276299268007
1772807461180459000,5.506458984375,-0.10535941302888095,-0.03218260620236397,0.07333616210669279
1772807461190391000,5.51639111328125,-0.10315642309188842,0.00523673160970211,0.0928327436067164
1772807461200323000,5.526322998046875,-0.09704933838844298,-0.04931786539852619,0.08085092165097593
1772807461210255000,5.536255126953125,-0.08983166209459305,-0.07127484566271304,0.06432035034969448
1772807461220187000,5.546186767578125,-0.07990187729783356,-0.05399170242846012,0.04992693720757961
1772807461230119000,5.556118896484375,-0.07212890520878136,-0.03247545166909695,0.03022182752341032
1772807461240051000,5.566051025390625,-0.07454590322263538,-0.03906885858476162,0.02946910945996642
1772807461249982200,5.575982177734375,-0.07427402747869491,-0.041215807485580444,-0.014164865083247422
1772807461259914200,5.585914306640625,-0.08837612952403724,-0.046323944279551506,-0.013811959992349148
1772807461269846000,5.595845947265625,-0.08583229026012122,-0.05815525184869766,0.0010204290889203548
1772807461279778000,5.605778076171875,-0.10263327600061893,-0.04128185845911503,-0.004343143770843744
1772807461289710000,5.6157099609375,-0.09996500663943589,-0.04899813192486763,0.041607291021198034
1772807461299642000,5.62564208984375,-0.0796294170320034,-0.04789513911902904,0.049338908186554904
1772807461309574100,5.63557421875,-0.05662680017240345,-0.08982523235380649,0.05059533798843622
1772807461319505000,5.6455048828125,-0.02951192568838596,-0.09647007719576359,0.06387932858392596
1772807461329437000,5.65543701171875,-0.04411379394941032,-0.06950900503396988,0.10126651769205927
1772807461339369000,5.665368896484375,-0.049880102391168475,-0.0756429777443409,0.12714067139998078
1772807461349301000,5.675301025390625,-0.06477203963994979,-0.09297814342677593,0.10107333320751785
1772807461359233000,5.68523291015625,-0.08810498443245887,-0.10516893195807933,0.0831865249916911
1772807461369165000,5.6951650390625,-0.09133914404809475,-0.08367080137729645,0.06485401883497834
1772807461379097000,5.70509716796875,-0.0784703101247549,-0.05343816019892692,0.057823535676300525
1772807461389028000,5.715028076171875,-0.08149345733821392,-0.04471300195157528,0.03845072668641805
1772807461398960000,5.724960205078125,-0.07946165924966335,-0.06735621091425419,-0.005996463935822248
1772807461408892200,5.73489208984375,-0.09807926595807075,-0.08687807298600674,-0.004970774149894714
1772807461418824000,5.744823974609375,-0.12127484810650348,-0.1021118824750185,-0.0027903613708913323
1772807461428756000,5.754755859375,-0.14841536848843095,-0.07798924860954284,0.015972791288048026
1772807461438688000,5.76468798828125,-0.15677863462083041,-0.06389701037108898,0.026104893723875283
1772807461448620000,5.7746201171875,-0.1506885741174221,-0.03511515252292156,0.008437427347153425
1772807461458551000,5.784551025390625,-0.12212065128087997,0.008821604359149932,0.024443536382913588
1772807461468483000,5.794483154296875,-0.0954629459798336,-0.018574352088570594,0.03551248127743602
1772807461478415000,5.8044150390625,-0.07253273676931858,-0.039430677634477614,0.04681289684027433
1772807461488347100,5.81434716796875,-0.06118833593428134,-0.046243280258774756,0.03459522030204534
1772807461498279200,5.824279052734375,-0.06620470279157162,-0.038764907202124596,0.040930999194830654
1772807461508211200,5.834211181640625,-0.07377250769734382,-0.011880991929769515,0.03571837911307812
1772807461518143000,5.84414306640625,-0.08110416575968266,-0.00791851803958416,0.022174714668095112
1772807461528074000,5.854073974609375,-0.08661145793907343,-0.031201778471469876,0.01133636365905404
1772807461538006000,5.864006103515625,-0.08181136418096721,-0.07334989837110042,0.017931962531805037
1772807461547938000,5.87393798828125,-0.08361001110076904,-0.11304010372459888,0.004350888685882091
1772807461557870000,5.8838701171875,-0.10333638276867568,-0.11375965017080307,-0.0027846622824668882
1772807461567801900,5.8938017578125,-0.11073591843545436,-0.08809329399466514,0.0035220366463065145
1772807461577734000,5.90373388671875,-0.10370638512484728,-0.06446048947274685,-0.004909837742894887
1772807461587666000,5.913666015625,-0.10656995786242186,-0.04126724541187286,0.010901187112182378
1772807461597597200,5.92359716796875,-0.10643208376169204,-0.044864393121004105,0.017233605004101992
1772807461607529200,5.933529296875,-0.06652027154676615,-0.043674306553602216,0.01987389037981629
1772807461617461000,5.9434609375,-0.025981997996568678,-0.022212416329979896,0.04960296595022082
1772807461627393000,5.95339306640625,-0.014264599130675196,-0.03534311605989933,0.06690992845147847
1772807461637325000,5.963324951171875,-0.03834931213855743,-0.06288695654571055,0.044783729100227355
1772807461647257000,5.973257080078125,-0.03352517991773784,-0.06926175227463245,-0.012992021911591291
1772807461657189000,5.983189208984375,-0.02827617334835231,-0.05783844098448753,-0.010575316158682107
1772807461667119900,5.993119873046875,-0.03616955694667995,-0.05545125358700752,0.007547785031050443
1772807461677052000,6.003052001953125,-0.03339315103590488,-0.05538578713536262,0.02741919119283557
1772807461686984000,6.01298388671875,-0.051098903596401214,-0.07117547694146632,0.02144070130512118
1772807461696916200,6.022916259765625,-0.06628653585612773,-0.10644143611192702,0.023375907151401042
1772807461706848300,6.03284814453125,-0.040839375388622284,-0.08598959971368313,0.01012552656456828
1772807461716780000,6.042780029296875,-0.05230477225482463,-0.04558043243587017,0.016741291442513465
1772807461726712000,6.052712158203125,-0.06741049838475882,-0.04017126686871052,0.02774447762444615
1772807461736643000,6.06264306640625,-0.0689758480053395,-0.05623685100674629,0.03549874501302838
1772807461746575000,6.0725751953125,-0.08717208749651909,-0.0775292298823595,0.006941051309555768
1772807461756507100,6.082507080078125,-0.08359247544407844,-0.03812544025480747,0.0023038930281996726
1772807461766439000,6.09243896484375,-0.09115735774040222,-0.02714753464460373,-0.0021159692406654356
1772807461776371000,6.102370849609375,-0.1082160445690155,-0.03915712139010429,0.02983838116377592
1772807461786303000,6.112302978515625,-0.12250175955295561,-0.05802139633595943,0.020889935554563997
1772807461796235000,6.122235107421875,-0.09313545288033782,-0.08192249640524386,-0.006981237189471721
1772807461806167000,6.1321669921875,-0.0753163030732423,-0.0593558598101139,-0.044954555622488256
1772807461816098000,6.14209814453125,-0.08443060676865279,-0.05532850399017333,-0.05250394808873534
1772807461826030000,6.152030029296875,-0.10000285443179309,-0.051907297369837756,-0.04099178947135806
1772807461835962000,6.161962158203125,-0.0673860215306282,-0.020649989318847654,-0.0152813018925488
1772807461845894100,6.17189404296875,-0.028636823354288934,-0.03578384556472301,-0.023516630796343085
1772807461855826200,6.181826171875,-0.03468311778120697,-0.049609541821479794,-0.011286387037485838
1772807461865758000,6.191758056640625,-0.036077787009999154,-0.03674830668270588,-0.01767228868231177
1772807461875690000,6.20168994140625,-0.007685805262252688,-0.027544425007700917,-0.003758037359267473
1772807461885621000,6.21162109375,-0.04179916033148765,-0.04694412200450897,0.026303338905423877
1772807461895553000,6.221552978515625,-0.05454166446141898,-0.0447948350161314,0.017114216408133504
1772807461905485000,6.231485107421875,-0.06559848052673041,-0.04457096313238144,0.011404606589674949
1772807461915416800,6.241416748046875,-0.06433649776689708,-0.051343233746290205,0.007856997110694647
1772807461925349000,6.25134912109375,-0.06261866099834441,-0.07256722356081008,0.015178279909491539
1772807461935281200,6.26128125,-0.03677285660207271,-0.06465162813067436,0.005885258646309376
1772807461945213200,6.271213134765625,-0.04055420177169144,-0.029896541091799733,-0.022958120130747554
1772807461955144000,6.28114404296875,-0.012840776872634886,-0.03972352310121059,-0.013488427126407623
1772807461965076000,6.291075927734375,0.0033160657454282044,-0.06829904472231864,-0.015124503895640372
1772807461975008000,6.301008056640625,-0.001998991797491908,-0.06357201620042324,-0.027996552689373493
1772807461984940000,6.31093994140625,-0.0036200171280652282,-0.037193712362647055,-0.033145606015622615
1772807461994872000,6.3208720703125,-0.021341551779583096,-0.042376667958497996,-0.027612667938321827
1772807462004803300,6.33080322265625,-0.034669089255854484,-0.0655038610458374,-0.036102556125074625
1772807462014735400,6.3407353515625,-0.028768413844704625,-0.04597615375518799,-0.03969575831145048
1772807462024666400,6.350666259765625,-0.019134397124126554,-0.016259645405411718,-0.02288140163272619
1772807462034598400,6.360598388671875,-0.009363456150889396,-0.029290391892194748,-0.006871347074210644
1772807462044530400,6.370530517578125,-0.013875307552143931,-0.0511602783948183,-0.0176144210152328
1772807462054462500,6.38046240234375,-0.008352160216495394,-0.05474748923182487,-0.004248012833297252
1772807462064394500,6.39039453125,-0.00040624271333217617,-0.04299041594266891,-0.0028245559014379975
1772807462074326500,6.400326416015625,0.000711874596402049,-0.052826750302314755,-0.01951850107088685
1772807462084258300,6.41025830078125,-0.025697920358180998,-0.03585457271337509,-0.006314151582866907
1772807462094189300,6.420189208984375,-0.03359364204406738,-0.021856442499160765,0.020635668532550333
1772807462104121300,6.430121337890625,-0.026606778831407427,-0.06013502748906612,0.018527736467868088
1772807462114053400,6.440053466796875,-0.0420843339484185,-0.0611205313950777,0.05862257709950208
1772807462123985400,6.4499853515625,-0.08385368366353213,-0.07455752059519291,0.08949702331274748
1772807462133917400,6.45991748046875,-0.08019640326499938,-0.07795300825238227,0.0983016765370965
1772807462143849500,6.469849365234375,-0.08032675164639949,-0.07998597538471222,0.09668635029494761
1772807462153781500,6.479781494140625,-0.06329670639038086,-0.061975102397799485,0.06567118043676018
1772807462163713500,6.489713623046875,-0.0709464174259454,-0.038653263521194456,0.0523943502344191
1772807462173644300,6.499644287109375,-0.07516257381625473,-0.03131576023995876,0.04606412429958582
1772807462183576300,6.509576416015625,-0.06428747099339961,-0.03187222507894039,0.08065437616556882
1772807462193508400,6.51950830078125,-0.07772387567162513,-0.047535073634982106,0.10201850510314106
1772807462203440400,6.5294404296875,-0.0698170480698347,-0.05108019889593124,0.12322525152191519
1772807462213372400,6.539372314453125,-0.05938333233892917,-0.026189503267407415,0.10315993022322655
1772807462223304400,6.549304443359375,-0.05557283414006233,-0.03599953414201736,0.08531257723495364
1772807462233236200,6.559236328125,-0.07672258967459201,-0.053283261898159975,0.050371466104686256
1772807462243167500,6.56916748046875,-0.08687690394222736,-0.0640092385739088,0.0021291209831833836
1772807462253099500,6.579099609375,-0.08217917458005249,-0.06346563321650028,0.013860475309193133
1772807462263031600,6.589031494140625,-0.07722937015295028,-0.07969839061498642,0.01905059129819274
1772807462272963600,6.598963623046875,-0.08537227153293787,-0.07047580423951148,0.04144990850239992
1772807462282895400,6.608895263671875,-0.08170673476271331,-0.05578676915168762,0.050825931873917575
1772807462292827400,6.618827392578125,-0.07778408142626285,-0.04066401882171631,0.06828384715318679
1772807462302759400,6.628759521484375,-0.0687935502409935,-0.037087329378724096,0.06781213798820972
1772807462312690400,6.6386904296875,-0.0590898292850703,-0.04172960222661495,0.08528437405377626
1772807462322622500,6.64862255859375,-0.04830255087614059,-0.05440437488257885,0.09766527832970022
1772807462332554200,6.65855419921875,-0.03652669982127845,-0.07702069583833217,0.08876973195150493
1772807462342486300,6.668486328125,-0.03717844172827899,-0.06340250485241412,0.07236833998784423
1772807462352418300,6.678418212890625,-0.05922843403816223,-0.07379998022615909,0.05917670385092497
1772807462362350300,6.688350341796875,-0.04896291448101401,-0.09390110349059104,0.0455300174228847
1772807462372282600,6.69828271484375,-0.07762801408171653,-0.08955518324077129,0.039042116708308455
1772807462382213400,6.70821337890625,-0.06408639546334743,-0.07870353435873985,0.02234597958177328
1772807462392145400,6.7181455078125,-0.043338717923685904,-0.07907996645569801,-0.008678688757121562
1772807462402077400,6.728077392578125,-0.04041669299714267,-0.07556991250813007,-0.0026356092005968093
1772807462412009500,6.738009521484375,-0.03307575564980507,-0.05586684865057468,0.0025445699162781237
1772807462421941500,6.74794140625,0.0004418985486030578,-0.028656185641884803,0.015035218176990746
1772807462431873300,6.757873291015625,0.006551394404843449,-0.028199089524149894,0.028068010490387676
1772807462441805300,6.767805419921875,0.010306947546079755,-0.01572422335445881,0.036464521305263044
1772807462451736600,6.777736572265625,-0.015257117299363016,-0.04562777870893478,0.041825025425106285
1772807462461668600,6.787668701171875,-0.05417231969237327,-0.06516776095926761,0.044348260292410846
1772807462471600600,6.7976005859375,-0.08720883931033313,-0.048559740507602686,0.047018648545444006
1772807462481532400,6.807532470703125,-0.09573650222420692,-0.03774024032950401,0.05934066224098205
1772807462491464400,6.81746435546875,-0.09043203914053738,-0.05345686489939689,0.07380977096781134
1772807462501396500,6.827396484375,-0.09889292042851447,-0.0800742381900549,0.06768149734586477
1772807462511328500,6.83732861328125,-0.08992533172741532,-0.09900690219700335,0.07888722036257385
1772807462521260500,6.847260498046875,-0.09923829980008303,-0.07510872473716736,0.0839722685419023
1772807462531191300,6.85719140625,-0.08834456534199416,-0.06099076753556728,0.04897182843983173
1772807462541123300,6.867123291015625,-0.06476612135581672,-0.033621699094772334,0.06265680105164646
1772807462551055400,6.877055419921875,-0.07702069583833217,-0.04532558089196682,0.06991641679108142
1772807462560987400,6.8869873046875,-0.06540851091258228,-0.05629471867382526,0.10813991059288382
1772807462570919400,6.89691943359375,-0.055357730084657664,-0.043019057515263553,0.08936126810386777
1772807462580851200,6.906851318359375,-0.05818864266164601,-0.05590659613907337,0.07761193972975015
1772807462590783200,6.916783203125,-0.0637614743579179,-0.09270283361673355,0.060383157031238074
1772807462600714500,6.926714599609375,-0.05370828237719834,-0.08561433666050433,0.04970686471611261
1772807462610646500,6.936646484375,-0.06625679830498993,-0.04485445624887943,0.05164543156325817
1772807462620578600,6.94657861328125,-0.06423720211088657,-0.07562836469709873,0.03062953154146671
1772807462630510300,6.95651025390625,-0.06872983735501766,-0.09014671939313411,-0.0016749474748969078
1772807462640442400,6.9664423828125,-0.06470832675397396,-0.08917816662192345,-0.01336377783343196
1772807462650374400,6.97637451171875,-0.04041735058426857,-0.0636655397027731,-0.026034458836168048
1772807462660306400,6.986306396484375,-0.02633263806514442,-0.059253568479418754,-0.061796238699555396
1772807462670237200,6.9962373046875,-0.02088898570649326,-0.01730360150039196,-0.051198418448120356
1772807462680169200,7.006169189453125,-0.03331825916878879,-0.008445756784081458,-0.06793649502024054
1772807462690101500,7.0161015625,-0.036520927667617796,-0.00847264479100704,-0.05458469988554716
1772807462700033500,7.026033447265625,-0.042401144812628626,-0.03771802849769592,-0.03994374172315001
1772807462709965600,7.035965576171875,-0.061712652069330215,-0.046780455875396726,-0.06589987462610006
1772807462719897600,7.045897705078125,-0.05755260978043079,-0.029203298130631446,-0.06110869482681155
1772807462729829400,7.055829345703125,-0.03701835579574108,-0.012464344775676726,-0.04696194992214441
1772807462739761400,7.065761474609375,-0.019838599870726465,0.004848024553060532,-0.02936521069407463
1772807462749692400,7.0756923828125,-0.01368709150366485,-0.008417699733376503,-0.018467092321813105
1772807462759624400,7.08562451171875,-0.0483066425293684,-0.0334270533055067,0.03258198078349232
1772807462769556500,7.095556396484375,-0.04341777450926602,-0.04380523945689201,-0.0022395956203341482
1772807462779488300,7.10548828125,-0.03427234502322972,-0.05068155496716499,0.024194822318851946
1772807462789420300,7.115420166015625,-0.06097498544454574,-0.05108370602726936,0.049349575711041684
1772807462799352300,7.125352294921875,-0.0853068781465292,-0.0726841279387474,0.034757132865488524
1772807462809284400,7.135284423828125,-0.0690366382818669,-0.06196925717890262,0.044153614503145214
1772807462819215600,7.145215576171875,-0.08242745025269686,-0.047963528180122374,0.05958557691276073
1772807462829147400,7.1551474609375,-0.05232756860852241,-0.058097968703508376,0.07154971708133816
1772807462839079400,7.165079345703125,-0.02324175937771797,-0.03786883514523506,0.0818929780498147
1772807462849011500,7.175011474609375,-0.025915873957797885,-0.031118191841244695,0.09721285838708281
1772807462858943500,7.184943603515625,-0.03401742041409016,-0.05698094737231731,0.1017541550785303
1772807462868875500,7.19487548828125,-0.04427811766564846,-0.0717652595281601,0.11219050115793942
1772807462878807300,7.204807373046875,-0.036534298605844374,-0.06123275959789753,0.1065884433671832
1772807462888738300,7.21473828125,-0.04962064773738384,-0.07433423323333263,0.10557473627999424
1772807462898670300,7.22467041015625,-0.053128363597393036,-0.0583756166011095,0.08111965558975935
1772807462908602400,7.234602294921875,-0.05314582618884742,-0.05662497354149818,0.07869155166000127
1772807462918534400,7.244534423828125,-0.052820247496291994,-0.055039750176668165,0.07435922154411673
1772807462928466400,7.254466552734375,-0.06964278748147189,-0.06433364822268485,0.07008183648586273
1772807462938398500,7.2643984375,-0.040939840088412165,-0.049283963128924364,0.06180822139829397
1772807462948330500,7.27433056640625,-0.026056232276558875,-0.025679800179600715,0.07888400549218058
1772807462958262500,7.284262451171875,-0.020285832181572913,-0.033331191715598105,0.07986424870118498
1772807462968193500,7.294193603515625,-0.013052885253354907,-0.04339256700277328,0.07960968941822648
1772807462978125300,7.304125244140625,-0.0447989266693592,-0.056364861300587654,0.08421981356218457
1772807462988057300,7.314057373046875,-0.05683364785611629,-0.06931202115714549,0.057772097750008106
1772807462997989400,7.3239892578125,-0.07255969784148036,-0.07866261782646179,0.06533727230727672
1772807463007921000,7.3339208984375,-0.06910926512666046,-0.0793114371240139,0.04725581830218434
1772807463017853000,7.34385302734375,-0.04344342040717602,-0.05584639038443565,0.04116495408117771
1772807463027784700,7.35378466796875,-0.04478840527534485,-0.050931730335950845,0.023305180002748966
1772807463037716000,7.363716064453125,-0.03650514557659626,-0.030004093119502067,0.014137684815376996
1772807463047648000,7.37364794921875,-0.04461604438312351,-0.028545126482844352,0.0050695583492517465
1772807463057580000,7.383580078125,-0.026637904622033238,-0.004576806396245956,0.0024728198543190953
1772807463067512000,7.393511962890625,-0.040265886349603534,-0.006535539248585701,0.01232800504490733
1772807463077443800,7.40344384765625,-0.06111234808862209,-0.05823766943514347,0.042136721722781656
1772807463087376000,7.4133759765625,-0.05791150622069835,-0.06750117234289646,0.013357494223117827
1772807463097308000,7.423307861328125,-0.054143020532652734,-0.07743921351134776,-0.01057107837498188
1772807463107240000,7.433239990234375,-0.05089081380367279,-0.06735211926102638,-0.01079918804243207
1772807463117170700,7.443170654296875,-0.0318493556600064,-0.06745031893849372,-0.004466624020040035
1772807463127103000,7.45310302734375,-0.03986030122339725,-0.04983282918334007,0.023933687164634464
1772807463137035000,7.463034912109375,-0.04874569153375923,-0.04382394415736198,0.01946720927506685
1772807463146967000,7.472967041015625,-0.033410175235942,-0.010430208599567413,0.03194149092286825
1772807463156899000,7.482899169921875,-0.04738251342177391,-0.004932780227065086,0.0416556602075696
1772807463166831000,7.4928310546875,-0.05393259265236556,-0.01818155337870121,0.054700873611122365
1772807463176763000,7.502762939453125,-0.03569967441260814,-0.01862462097108364,0.011623656167834997
1772807463186694000,7.51269384765625,-0.03073942165672779,-0.041350247520208355,0.011641045694053172
1772807463196626000,7.5226259765625,-0.02793422804288566,-0.072300681579113,0.0026920155629515646
1772807463206558000,7.532557861328125,-0.03249291426055133,-0.16405425164699552,0.005934212354570627
1772807463216490000,7.542489990234375,-0.09969656496159732,0.00006663549542427062,0.0031517420291900635
1772807463226421800,7.552421875,-0.09117430887520313,0.010478139394521713,-0.030273557710647582
1772807463236353800,7.562353759765625,-0.00731404934041202,-0.0585106411576271,0.0016745090834796427
1772807463246285800,7.572285888671875,-0.01831416678242385,-0.06458557715713978,0.029803163719922303
1772807463256217000,7.582217041015625,-0.04319667910449206,-0.012173252874612808,0.022584464512765405
1772807463266148900,7.59214892578125,-0.10031856931746005,0.023279168778657912,0.026623803031444546
1772807463276081000,7.602080810546875,-0.08733451151661574,-0.02670738966166973,0.037808337129652494
1772807463286013000,7.612012939453125,-0.05352927254848182,-0.036492286095023155,0.01119958553686738
1772807463295945000,7.621945068359375,-0.03522496957294643,-0.025739421412348747,0.013741671235114335
1772807463305877000,7.631876953125,-0.012304697234556078,-0.03855331027805805,0.036149902398139235
1772807463315809000,7.64180908203125,-0.0064268181771039955,-0.06131050100922584,0.05526756758317351
1772807463325740800,7.65174072265625,0.003923968510702252,-0.03759995507597923,0.06494140485748648
1772807463335671800,7.661671875,-0.00490647674202919,-0.057435120880603784,0.08968056318610906
1772807463345603800,7.671603759765625,-0.0006856441766023635,-0.05874444991350174,0.08369798164516687
1772807463355536000,7.681535888671875,-0.026301146948337552,-0.050853988924622534,0.05802022729218006
1772807463365468000,7.691468017578125,-0.04374211109280586,-0.041976854985952376,0.05527414345443248
1772807463375400000,7.70139990234375,-0.04134031064808368,-0.07088964573740959,0.03270706846788526
1772807463385332000,7.71133203125,-0.03758125037550926,-0.04804010054767131,0.03713628308698535
1772807463395264000,7.721263916015625,-0.031975027866289016,-0.02229191130697727,0.023647709830105303
1772807463405195000,7.731195068359375,-0.028385040550306436,-0.014179332000017164,0.02074541251733899
1772807463415127000,7.741126953125,0.004042553389072418,-0.021299977660179138,0.024609978991001844
1772807463425058800,7.751058837890625,0.012938392028212547,-0.05580664289593696,0.03935585883259773
1772807463434990800,7.760990966796875,-0.007518705067038536,-0.07607084776759147,0.05281096821129322
1772807463444923000,7.7709228515625,0.007197144962474703,-0.06605506518781185,0.04810805121734738
1772807463454855000,7.78085498046875,-0.002064604379609227,-0.06216273392438888,0.06867021612226963
1772807463464787000,7.790786865234375,-0.027450901505351066,-0.06726034932434559,0.05607639974802732
1772807463474718700,7.80071875,-0.016555998003482817,-0.0517617514193058,0.03420154480934143
1772807463484650000,7.81064990234375,0.006925488414242864,-0.03456219481527805,0.028468407984822988
1772807463494582000,7.82058203125,-0.01904547673165798,-0.04882803605496883,0.019377339034527537
1772807463504514000,7.83051416015625,-0.02454290510416031,-0.04929506904482841,0.0256270470790565
1772807463514446000,7.840446044921875,-0.02528700146973133,-0.0542974073767662,0.03061608753800392
1772807463524377900,7.8503779296875,-0.03893266498446464,-0.04354688078165054,0.03214855780228972
1772807463534310000,7.860309814453125,-0.037349195185303684,-0.03901040639579296,0.03611936112940311
1772807463544242000,7.870241943359375,-0.03966799352169036,-0.03790332193672657,0.045404199086129665
1772807463554173000,7.8801728515625,-0.012017770051956176,-0.055202831783890724,0.05106090967357158
1772807463564105000,7.89010498046875,0.03486841122023761,-0.05973462999463081,0.037883594322949646
1772807463574036700,7.90003662109375,0.025229060737416147,-0.06714286042451859,0.0684776161596179
1772807463583968800,7.90996875,0.03288461699187755,-0.06682663408219813,0.0842139683432877
1772807463593900800,7.91990087890625,0.010450739930942653,-0.05823416230380535,0.055416182273626324
1772807463603833000,7.9298330078125,-0.0030943858187645673,-0.05413841742277145,0.05461114950105547
1772807463613765000,7.93976513671875,-0.013692425265908241,-0.04059153810739517,0.0372135861068964
1772807463623697000,7.94969677734375,-0.01870177786052227,-0.03048573915660381,0.03350537923872471
1772807463633628000,7.9596279296875,-0.04581124551706016,-0.033010873720049856,0.013168985913693905
1772807463643560000,7.969559814453125,-0.022453239348530767,-0.08637655320465565,0.018847031550109385
1772807463653492000,7.979491943359375,-0.004691299621388316,-0.05152034387886524,0.0525198763102293
1772807463663422700,7.989422607421875,-0.019657544215396044,-0.05042319629192352,0.046616789746284484
1772807463673354000,7.99935400390625,-0.017798764606192705,-0.06774491797089577,0.03596007891446352
1772807463683286000,8.0092861328125,-0.020662337343767285,-0.07078735440671444,0.04011237628832459
1772807463693218000,8.019218017578124,-0.02982522942125797,-0.06605038901269436,0.020230594862997532
1772807463703150000,8.029150146484374,-0.037772462098672986,-0.06085282036960125,0.015072335316985845
1772807463713081900,8.039081787109374,-0.0246994839053601,-0.02236731463074684,0.008318477142602206
1772807463723014000,8.049013916015625,-0.010375263541936873,-0.007401216167211532,0.0006159399412572383
1772807463732946000,8.05894580078125,0.01535955476053059,-0.04220715661048889,0.005259966354817152
1772807463742878000,8.0688779296875,-0.009857961669564246,-0.05773381156623363,0.0181274851039052
1772807463752808700,8.07880859375,0.003905775266885757,-0.0650198769211769,0.013651362603157758
1772807463762740700,8.08874072265625,0.0018231968391686677,-0.04919511580169201,0.05108019889593124
1772807463772672800,8.0986728515625,-0.015316300140693783,-0.033279169267415996,0.058790334881842134
1772807463782605000,8.10860498046875,-0.026376550272107124,-0.03497428274750709,0.030847558206319806
1772807463792537000,8.118537109375,-0.041514571236446494,-0.059305590927600856,0.032484365627914666
1772807463802469000,8.12846923828125,-0.050605494056269525,-0.04878185882568359,0.024710224495083092
1772807463812401000,8.13840087890625,-0.04303600865006447,-0.05461597180664539,0.005886427690088749
1772807463822332000,8.148331787109376,-0.00601531476676464,-0.07348492292761802,0.015597820495814084
1772807463832264000,8.158263916015626,0.0053449412245303385,-0.052182022657990455,0.04163081802725792
1772807463842196000,8.168196044921874,-0.011589973093941807,-0.05183715474307537,0.04685425176396966
1772807463852128000,8.1781279296875,-0.018197262404486537,-0.049264089384675025,0.024426292987167832
1772807463862059800,8.188059814453124,-0.03262516233809292,-0.025637130081653595,0.04296571989282966
1772807463871991800,8.19799169921875,0.005564063867926597,-0.016536124259233474,0.05125453254953027
1772807463881923800,8.207923828125,0.0037982232391834255,-0.030427286967635154,0.015615356152504681
1772807463891856000,8.21785595703125,0.0025350714355707165,-0.06551905861496925,0.024442221208661793
1772807463901787000,8.227786865234375,-0.02201492099650204,-0.08938333380520343,0.05736600116714835
1772807463911719000,8.237718994140625,-0.028181553867459297,-0.0413221904695034,0.03991539241150021
1772807463921651000,8.24765087890625,-0.018146482065320015,-0.03158990100622177,0.027420067975670096
1772807463931583000,8.2575830078125,-0.01084638818502426,-0.05767302128970623,0.05288651766553521
1772807463941515000,8.267514892578125,0.014316621578857302,-0.06909808614552021,0.0281890065215528
1772807463951447000,8.277447021484376,0.04291033644378185,-0.09560615384280681,0.07736687892749905
1772807463961378800,8.28737890625,0.03288461699187755,-0.0597568418264389,0.029030425781756637
1772807463971309800,8.297309814453126,-0.01488901463933289,-0.05961889466047287,0.03481865379437804
1772807463981241900,8.307241943359376,-0.05895202824957668,-0.04454933582246303,0.0060467328183352945
1772807463991174000,8.317173828125,-0.08503039929270743,-0.009847440275549887,-0.00485416203290224
1772807464001106000,8.32710595703125,-0.07544482482373714,-0.021358429849147795,0.018448972143232822
1772807464011038000,8.337037841796874,-0.05384907908737659,-0.0508206711769104,0.030920477312058207
1772807464020970000,8.346969970703125,-0.038256336625479156,-0.06459434498548507,0.03857435306608677
1772807464030902800,8.35690283203125,-0.04623794649653137,-0.030948680493235587,0.043792526105791325
1772807464040834800,8.366834716796875,-0.06501695431172848,-0.027108956199884415,0.03681479604765773
1772807464050766600,8.3767666015625,-0.0414355877161026,-0.02520341483950615,0.02646335177272558
1772807464060698600,8.38669873046875,-0.03810615103244781,-0.036896190720796584,0.009042699763923884
1772807464070631000,8.396630859375,-0.025090602114796638,-0.03659165481626987,0.031215953127294777
1772807464080562000,8.40656201171875,-0.04221238077487796,-0.029718846437335012,0.0471225473113358
1772807464090493700,8.41649365234375,-0.06411211442649364,-0.030087679749727248,0.03266030671671033
1772807464100425700,8.42642578125,-0.059846931262686844,-0.03649871583580971,0.02247384374514222
1772807464110357800,8.436357666015626,-0.05103760186322033,-0.047297757747769356,0.013937486068159342
1772807464120289800,8.446289794921874,-0.048805312766507264,-0.041646600118279455,0.0204639652274549
1772807464130221800,8.456221923828124,0.08264956857077776,-0.04857961425185203,0.024112258601933716
1772807464140153900,8.46615380859375,-0.08759944606311619,-0.028356325912475583,0.0055124798111617565
1772807464150085600,8.476085693359375,-0.06980185050070285,-0.01654898374080658,0.007893675859272479
1772807464160017000,8.486016845703125,-0.061895022898912425,-0.04044423859119415,0.014509586867690086
1772807464169949000,8.495948974609375,-0.027219430837035177,-0.06097381640076637,0.048086131646484134
1772807464179881000,8.505880859375,0.00965228302963078,-0.08253156821429729,0.0622512889906764
1772807464189813000,8.51581298828125,-0.006467077122256159,-0.07967033356428146,0.041218437834084035
1772807464199744800,8.525744873046875,-0.041859877542778846,-0.067761284583807,0.06199439162015914
1772807464209676800,8.5356767578125,-0.06519055731296539,-0.06499766508936881,0.02218435927927494
1772807464219608800,8.54560888671875,-0.034941476456448434,-0.040420273193717,-0.0052386313058435914
1772807464229540900,8.555540771484376,-0.024124387431144714,-0.02513970195353031,0.008337327973544598
1772807464239471900,8.565471923828126,-0.05411971272230148,-0.0697170948266983,0.018645517628639936
1772807464249403600,8.575403564453126,-0.030270635101199147,-0.0731242729216814,0.014236322884261608
1772807464259335700,8.585335693359376,-0.10303783821351825,-0.033009120154380796,0.02084770384803414
1772807464269267700,8.595267822265624,-0.11819975151009857,-0.01813186901807785,0.032205840947479004
1772807464279199700,8.60519970703125,-0.027777576176449655,-0.03510404660701751,0.028059096531569957
