time,seconds_elapsed,z,y,x
1772807455732840200,0.058840087890625,-0.062347412109375,0.97412109375,0.193206787109375
1772807455742772200,0.068772216796875,-0.0625762939453125,0.97406005859375,0.1955413818359375
1772807455752703200,0.078703125,-0.0623321533203125,0.975830078125,0.1982269287109375
1772807455762635300,0.08863525390625,-0.064208984375,0.9762115478515625,0.2023468017578125
1772807455772567300,0.0985673828125,-0.0609588623046875,0.974365234375,0.2010650634765625
1772807455782499300,0.108499267578125,-0.0572052001953125,0.974945068359375,0.2001800537109375
1772807455792431400,0.118431396484375,-0.05743408203125,0.97625732421875,0.2009124755859375
1772807455802363400,0.12836328125,-0.0581817626953125,0.972930908203125,0.2003173828125
1772807455812295200,0.138295166015625,-0.0601348876953125,0.972991943359375,0.1999053955078125
1772807455822226200,0.14822607421875,-0.0579376220703125,0.9743194580078125,0.2027435302734375
1772807455832158200,0.158158203125,-0.057830810546875,0.9757232666015625,0.2039947509765625
1772807455842090500,0.168090576171875,-0.0588531494140625,0.9732208251953125,0.2015228271484375
1772807455852022500,0.1780224609375,-0.058868408203125,0.9732666015625,0.1981658935546875
1772807455861954300,0.187954345703125,-0.057952880859375,0.9754638671875,0.1965484619140625
1772807455871886300,0.19788623046875,-0.05706787109375,0.97430419921875,0.1975250244140625
1772807455881817300,0.2078173828125,-0.0578460693359375,0.971771240234375,0.199005126953125
1772807455891749400,0.217749267578125,-0.058013916015625,0.9747772216796875,0.1999359130859375
1772807455901681200,0.22768115234375,-0.0565032958984375,0.97625732421875,0.2020263671875
1772807455911613200,0.23761328125,-0.0587005615234375,0.9739532470703125,0.201629638671875
1772807455921545200,0.247545166015625,-0.05914306640625,0.9716339111328125,0.2027435302734375
1772807455931477200,0.257477294921875,-0.0615692138671875,0.9704437255859375,0.20404052734375
1772807455941408500,0.267408447265625,-0.0583038330078125,0.9719085693359375,0.2031402587890625
1772807455951340300,0.27734033203125,-0.05865478515625,0.9739227294921875,0.2028656005859375
1772807455961272300,0.287272216796875,-0.0619659423828125,0.971099853515625,0.201141357421875
1772807455971204400,0.297204345703125,-0.0644073486328125,0.9729766845703125,0.198974609375
1772807455981136400,0.307136474609375,-0.0625,0.976318359375,0.1989288330078125
1772807455991068400,0.317068359375,-0.0580902099609375,0.977020263671875,0.203338623046875
1772807456000999700,0.326999755859375,-0.0563507080078125,0.97357177734375,0.2012176513671875
1772807456010931700,0.336931640625,-0.0536956787109375,0.97381591796875,0.200164794921875
1772807456020863700,0.34686376953125,-0.0532379150390625,0.976348876953125,0.19915771484375
1772807456030795500,0.35679541015625,-0.0536041259765625,0.975494384765625,0.20013427734375
1772807456040727600,0.3667275390625,-0.0583038330078125,0.9730682373046875,0.202728271484375
1772807456050659600,0.37665966796875,-0.0597991943359375,0.971282958984375,0.202178955078125
1772807456060591600,0.386591552734375,-0.060516357421875,0.9706573486328125,0.1996002197265625
1772807456070523000,0.39652294921875,-0.0623016357421875,0.9697723388671875,0.1996307373046875
1772807456080454700,0.40645458984375,-0.06158447265625,0.970245361328125,0.1989288330078125
1772807456090386700,0.41638671875,-0.0612640380859375,0.9725189208984375,0.200347900390625
1772807456100318700,0.426318603515625,-0.0586395263671875,0.9712982177734375,0.200347900390625
1772807456110250800,0.436250732421875,-0.054779052734375,0.968963623046875,0.201629638671875
1772807456120182800,0.446182861328125,-0.05279541015625,0.963958740234375,0.2069091796875
1772807456130113500,0.456113525390625,-0.0543975830078125,0.962432861328125,0.207794189453125
1772807456140045600,0.466045654296875,-0.0598297119140625,0.9713134765625,0.20452880859375
1772807456149977600,0.4759775390625,-0.063568115234375,0.979248046875,0.2038116455078125
1772807456159909600,0.48590966796875,-0.0656890869140625,0.978179931640625,0.20452880859375
1772807456169841700,0.495841552734375,-0.06396484375,0.9773101806640625,0.200531005859375
1772807456179773700,0.505773681640625,-0.064788818359375,0.976043701171875,0.1964569091796875
1772807456189705700,0.515705810546875,-0.0675811767578125,0.9769287109375,0.1907501220703125
1772807456199636700,0.52563671875,-0.06744384765625,0.9780120849609375,0.1889801025390625
1772807456209568800,0.53556884765625,-0.0660400390625,0.9817962646484375,0.19189453125
1772807456219500800,0.545500732421875,-0.066650390625,0.9817657470703125,0.1921539306640625
1772807456229432600,0.5554326171875,-0.0653076171875,0.9803619384765625,0.19525146484375
1772807456239364600,0.565364501953125,-0.064117431640625,0.9764404296875,0.1996307373046875
1772807456249296600,0.575296630859375,-0.0679931640625,0.97119140625,0.2023773193359375
1772807456259227600,0.5852275390625,-0.071990966796875,0.966949462890625,0.1999053955078125
1772807456269159700,0.59515966796875,-0.069732666015625,0.972320556640625,0.19635009765625
1772807456279091700,0.605091796875,-0.066802978515625,0.97869873046875,0.185302734375
1772807456289023700,0.615023681640625,-0.061614990234375,0.98223876953125,0.181671142578125
1772807456298955800,0.624955810546875,-0.056884765625,0.979217529296875,0.180938720703125
1772807456308887800,0.6348876953125,-0.0593414306640625,0.976593017578125,0.183258056640625
1772807456318819800,0.64481982421875,-0.0604095458984375,0.9761505126953125,0.1879730224609375
1772807456328750600,0.65475048828125,-0.0596771240234375,0.9752044677734375,0.1925048828125
1772807456338682600,0.6646826171875,-0.058746337890625,0.9758148193359375,0.195281982421875
1772807456348614700,0.67461474609375,-0.0581207275390625,0.9776153564453125,0.2003173828125
1772807456358546700,0.684546630859375,-0.057708740234375,0.9729461669921875,0.203857421875
1772807456368478700,0.694478759765625,-0.0571746826171875,0.9705352783203125,0.205169677734375
1772807456378410500,0.704410400390625,-0.0587158203125,0.9706268310546875,0.2049560546875
1772807456388341800,0.714341796875,-0.058135986328125,0.96807861328125,0.20550537109375
1772807456398273800,0.724273681640625,-0.05609130859375,0.966400146484375,0.20648193359375
1772807456408205800,0.734205810546875,-0.053955078125,0.9682769775390625,0.207122802734375
1772807456418137900,0.744137939453125,-0.0558624267578125,0.971923828125,0.2070770263671875
1772807456428069600,0.754069580078125,-0.058868408203125,0.975341796875,0.207763671875
1772807456438001700,0.764001708984375,-0.0548858642578125,0.9755706787109375,0.2049713134765625
1772807456447933700,0.77393359375,-0.0528564453125,0.97039794921875,0.202606201171875
1772807456457864700,0.78386474609375,-0.0552215576171875,0.9694366455078125,0.20062255859375
1772807456467796500,0.79379638671875,-0.0577850341796875,0.9709930419921875,0.2014312744140625
1772807456477728500,0.803728515625,-0.058502197265625,0.9709625244140625,0.2048797607421875
1772807456487660500,0.81366064453125,-0.0568695068359375,0.9691009521484375,0.20758056640625
1772807456497592600,0.823592529296875,-0.05645751953125,0.9685211181640625,0.2073974609375
1772807456507524600,0.833524658203125,-0.05780029296875,0.9711761474609375,0.2064208984375
1772807456517455600,0.84345556640625,-0.05804443359375,0.9726104736328125,0.20599365234375
1772807456527387600,0.8533876953125,-0.05889892578125,0.97467041015625,0.21014404296875
1772807456537319700,0.863319580078125,-0.0543975830078125,0.9763336181640625,0.2128143310546875
1772807456547251700,0.873251708984375,-0.0525054931640625,0.9773101806640625,0.2154693603515625
1772807456557183700,0.883183837890625,-0.0498046875,0.976776123046875,0.2152252197265625
1772807456567115800,0.89311572265625,-0.046356201171875,0.9758148193359375,0.2164459228515625
1772807456577047600,0.903047607421875,-0.0460662841796875,0.975250244140625,0.2167510986328125
1772807456586978600,0.912978515625,-0.0513916015625,0.9740142822265625,0.2157135009765625
1772807456596910600,0.92291064453125,-0.0583343505859375,0.9763336181640625,0.2115936279296875
1772807456606843000,0.9328427734375,-0.0556640625,0.9747772216796875,0.2088470458984375
1772807456616774700,0.942774658203125,-0.050994873046875,0.975189208984375,0.200042724609375
1772807456626706700,0.952706787109375,-0.05047607421875,0.974853515625,0.1988372802734375
1772807456636638700,0.962638671875,-0.0479583740234375,0.9734649658203125,0.19012451171875
1772807456646569700,0.97256982421875,-0.0490875244140625,0.9726715087890625,0.1853179931640625
1772807456656501800,0.982501708984375,-0.05682373046875,0.9713897705078125,0.181182861328125
1772807456666433500,0.99243359375,-0.0607452392578125,0.970794677734375,0.1766815185546875
1772807456676365600,1.002365478515625,-0.061859130859375,0.973602294921875,0.17529296875
1772807456686297600,1.012297607421875,-0.0606689453125,0.9764404296875,0.1805267333984375
1772807456696229600,1.022229736328125,-0.0568084716796875,0.97662353515625,0.1806640625
1772807456706161700,1.03216162109375,-0.0526123046875,0.9750518798828125,0.1858673095703125
1772807456716092700,1.0420927734375,-0.054534912109375,0.97479248046875,0.19110107421875
1772807456726024700,1.052024658203125,-0.055877685546875,0.9739532470703125,0.19378662109375
1772807456735956700,1.061956787109375,-0.05426025390625,0.9725189208984375,0.1956939697265625
1772807456745888800,1.071888671875,-0.05322265625,0.9747161865234375,0.19549560546875
1772807456755820800,1.08182080078125,-0.054290771484375,0.9767608642578125,0.194610595703125
1772807456765752600,1.091752685546875,-0.0540313720703125,0.9780426025390625,0.1987152099609375
1772807456775683600,1.10168359375,-0.052886962890625,0.97723388671875,0.1963043212890625
1772807456785615600,1.11161572265625,-0.052642822265625,0.9770050048828125,0.1979827880859375
1772807456795547600,1.121547607421875,-0.0537567138671875,0.9792633056640625,0.200897216796875
1772807456805479700,1.131479736328125,-0.0541534423828125,0.978515625,0.200531005859375
1772807456815411500,1.141411376953125,-0.05596923828125,0.9727783203125,0.2006988525390625
1772807456825343500,1.151343505859375,-0.0582122802734375,0.9727020263671875,0.200103759765625
1772807456835274800,1.161274658203125,-0.061126708984375,0.9715576171875,0.198211669921875
1772807456845206800,1.171206787109375,-0.0648345947265625,0.9693756103515625,0.1970977783203125
1772807456855138800,1.181138916015625,-0.0631866455078125,0.97186279296875,0.1962127685546875
1772807456865070600,1.191070556640625,-0.063720703125,0.9716949462890625,0.20001220703125
1772807456875002600,1.201002685546875,-0.066436767578125,0.9733123779296875,0.2047271728515625
1772807456884934700,1.2109345703125,-0.06585693359375,0.972320556640625,0.2100372314453125
1772807456894866700,1.22086669921875,-0.063018798828125,0.973602294921875,0.2127532958984375
1772807456904797400,1.23079736328125,-0.0601654052734375,0.9758453369140625,0.2169189453125
1772807456914729500,1.2407294921875,-0.0576629638671875,0.97607421875,0.2164764404296875
1772807456924661800,1.250661865234375,-0.0566558837890625,0.9752349853515625,0.2144622802734375
1772807456934593800,1.26059375,-0.0574798583984375,0.975860595703125,0.213714599609375
1772807456944525800,1.27052587890625,-0.0614471435546875,0.9748382568359375,0.2147674560546875
1772807456954457900,1.280457763671875,-0.061798095703125,0.9753875732421875,0.2159271240234375
1772807456964388600,1.290388671875,-0.0610198974609375,0.976470947265625,0.2154083251953125
1772807456974320600,1.300320556640625,-0.0633544921875,0.9732513427734375,0.2152099609375
1772807456984252700,1.310252685546875,-0.063812255859375,0.9726104736328125,0.21246337890625
1772807456994183700,1.32018359375,-0.062042236328125,0.9724578857421875,0.2103118896484375
1772807457004115700,1.33011572265625,-0.0607452392578125,0.9697723388671875,0.2091217041015625
1772807457014047700,1.3400478515625,-0.0579376220703125,0.9672088623046875,0.2080841064453125
1772807457023979000,1.34997900390625,-0.059417724609375,0.9665679931640625,0.208099365234375
1772807457033910800,1.359910888671875,-0.059173583984375,0.9700164794921875,0.208465576171875
1772807457043842800,1.3698427734375,-0.0579681396484375,0.9729461669921875,0.2082672119140625
1772807457053774800,1.37977490234375,-0.056182861328125,0.973297119140625,0.2070465087890625
1772807457063707000,1.389706787109375,-0.0606536865234375,0.9710845947265625,0.206298828125
1772807457073639000,1.399638916015625,-0.06170654296875,0.9671783447265625,0.200775146484375
1772807457083570700,1.40957080078125,-0.0615997314453125,0.9666900634765625,0.200836181640625
1772807457093501700,1.419501708984375,-0.0609893798828125,0.9693603515625,0.2006378173828125
1772807457103433700,1.429433837890625,-0.058807373046875,0.9695892333984375,0.2016448974609375
1772807457113366000,1.439365966796875,-0.060394287109375,0.9707489013671875,0.2020263671875
1772807457123298000,1.449298095703125,-0.0599517822265625,0.9732818603515625,0.20660400390625
1772807457133229800,1.459229736328125,-0.0564422607421875,0.973663330078125,0.211029052734375
1772807457143161900,1.469161865234375,-0.0590057373046875,0.9711151123046875,0.2140960693359375
1772807457153092900,1.4790927734375,-0.063568115234375,0.969970703125,0.214385986328125
1772807457163025000,1.48902490234375,-0.069580078125,0.9709320068359375,0.21490478515625
1772807457172957000,1.49895703125,-0.068023681640625,0.973388671875,0.211456298828125
1772807457182888700,1.508888671875,-0.061431884765625,0.9765625,0.2083740234375
1772807457192820700,1.51882080078125,-0.056732177734375,0.97894287109375,0.2028350830078125
1772807457202752800,1.528752685546875,-0.0545654296875,0.9816741943359375,0.1994171142578125
1772807457212684800,1.538684814453125,-0.054962158203125,0.976348876953125,0.198486328125
1772807457222615800,1.54861572265625,-0.0542144775390625,0.9744873046875,0.19952392578125
1772807457232547800,1.5585478515625,-0.0554962158203125,0.9754180908203125,0.20025634765625
1772807457242479900,1.56847998046875,-0.05743408203125,0.9776458740234375,0.20416259765625
1772807457252412000,1.578411865234375,-0.0558624267578125,0.9799957275390625,0.2078399658203125
1772807457262344000,1.588343994140625,-0.0543670654296875,0.974853515625,0.207916259765625
1772807457272276000,1.59827587890625,-0.0577545166015625,0.970428466796875,0.20635986328125
1772807457282206700,1.608206787109375,-0.0601043701171875,0.970001220703125,0.20440673828125
1772807457292138800,1.618138671875,-0.059814453125,0.9689788818359375,0.2034912109375
1772807457302070800,1.62807080078125,-0.061920166015625,0.9683685302734375,0.2002410888671875
1772807457312002800,1.6380029296875,-0.0608978271484375,0.9698638916015625,0.1998748779296875
1772807457321934800,1.647934814453125,-0.057525634765625,0.9698638916015625,0.19781494140625
1772807457331866600,1.65786669921875,-0.05438232421875,0.969879150390625,0.19635009765625
1772807457341798000,1.6677978515625,-0.0492095947265625,0.9710845947265625,0.195343017578125
1772807457351730000,1.67772998046875,-0.0510711669921875,0.9720611572265625,0.201141357421875
1772807457361662000,1.687661865234375,-0.05462646484375,0.9734344482421875,0.2031097412109375
1772807457371594000,1.697593994140625,-0.05511474609375,0.9722442626953125,0.203155517578125
1772807457381525800,1.70752587890625,-0.05633544921875,0.97247314453125,0.2042236328125
1772807457391457800,1.717457763671875,-0.05828857421875,0.971221923828125,0.2027130126953125
1772807457401389800,1.727389892578125,-0.057891845703125,0.971710205078125,0.2021026611328125
1772807457411320800,1.73732080078125,-0.0592498779296875,0.9700775146484375,0.20123291015625
1772807457421252600,1.747252685546875,-0.05999755859375,0.96728515625,0.20318603515625
1772807457431185000,1.757184814453125,-0.0616912841796875,0.9681396484375,0.20330810546875
1772807457441117000,1.767116943359375,-0.0596160888671875,0.9684906005859375,0.2027740478515625
1772807457451049000,1.777049072265625,-0.0597381591796875,0.9742279052734375,0.201507568359375
1772807457460981000,1.78698095703125,-0.060821533203125,0.9745941162109375,0.2005157470703125
1772807457470911700,1.796911865234375,-0.0613861083984375,0.9745941162109375,0.1982421875
1772807457480843800,1.80684375,-0.0578460693359375,0.9752197265625,0.200439453125
1772807457490775800,1.81677587890625,-0.056121826171875,0.976470947265625,0.199920654296875
1772807457500707800,1.826707763671875,-0.0546875,0.9746856689453125,0.2002716064453125
1772807457510639900,1.836639892578125,-0.0555419921875,0.9735565185546875,0.199981689453125
1772807457520572000,1.846572021484375,-0.0599517822265625,0.972259521484375,0.2006378173828125
1772807457530503700,1.856503662109375,-0.0607757568359375,0.9731292724609375,0.19830322265625
1772807457540435000,1.86643505859375,-0.0654754638671875,0.97503662109375,0.1962890625
1772807457550367000,1.876366943359375,-0.0648956298828125,0.97735595703125,0.194305419921875
1772807457560299000,1.886299072265625,-0.064300537109375,0.9774322509765625,0.196746826171875
1772807457570230800,1.896230712890625,-0.0599822998046875,0.9772491455078125,0.1993408203125
1772807457580162800,1.906162841796875,-0.05712890625,0.976715087890625,0.1952667236328125
1772807457590094800,1.9160947265625,-0.0577850341796875,0.9757537841796875,0.197967529296875
1772807457600025900,1.92602587890625,-0.0554351806640625,0.971649169921875,0.201416015625
1772807457609958000,1.9359580078125,-0.0575714111328125,0.9709320068359375,0.2034454345703125
1772807457619889700,1.9458896484375,-0.0590057373046875,0.971221923828125,0.20574951171875
1772807457629821700,1.95582177734375,-0.06036376953125,0.969818115234375,0.2062835693359375
1772807457639753700,1.965753662109375,-0.0609893798828125,0.9709320068359375,0.2038421630859375
1772807457649685800,1.975685791015625,-0.05902099609375,0.973419189453125,0.200775146484375
1772807457659617800,1.98561767578125,-0.0571441650390625,0.972198486328125,0.19598388671875
1772807457669548800,1.995548828125,-0.053009033203125,0.97149658203125,0.19671630859375
1772807457679480800,2.005480712890625,-0.0544281005859375,0.9716033935546875,0.1979217529296875
1772807457689412900,2.015412841796875,-0.055633544921875,0.9721832275390625,0.198150634765625
1772807457699345000,2.025344970703125,-0.0561370849609375,0.9718475341796875,0.1986846923828125
1772807457709277000,2.03527685546875,-0.060089111328125,0.9710235595703125,0.2011260986328125
1772807457719209000,2.045208984375,-0.062042236328125,0.9699554443359375,0.2019500732421875
1772807457729139700,2.0551396484375,-0.0623626708984375,0.9687652587890625,0.2022857666015625
1772807457739071700,2.06507177734375,-0.063262939453125,0.97137451171875,0.2041473388671875
1772807457749003800,2.075003662109375,-0.0647125244140625,0.969757080078125,0.2033233642578125
1772807457758935800,2.084935791015625,-0.06494140625,0.9712677001953125,0.201446533203125
1772807457768867800,2.094867919921875,-0.0612640380859375,0.971466064453125,0.1981353759765625
1772807457778799900,2.1047998046875,-0.06182861328125,0.970367431640625,0.1970367431640625
1772807457788731000,2.11473095703125,-0.061737060546875,0.9730224609375,0.19879150390625
1772807457798663000,2.124662841796875,-0.0623626708984375,0.97344970703125,0.200531005859375
1772807457808595000,2.134594970703125,-0.0635528564453125,0.9751129150390625,0.199127197265625
1772807457818526700,2.144526611328125,-0.0649566650390625,0.977874755859375,0.2015228271484375
1772807457828458800,2.154458740234375,-0.0643463134765625,0.97900390625,0.202606201171875
1772807457838390800,2.164390869140625,-0.062591552734375,0.9795074462890625,0.2025146484375
1772807457848322800,2.17432275390625,-0.06134033203125,0.9788970947265625,0.2039031982421875
1772807457858254000,2.184254150390625,-0.0627288818359375,0.974395751953125,0.20391845703125
1772807457868185900,2.194185791015625,-0.063995361328125,0.9719085693359375,0.20452880859375
1772807457878118000,2.204117919921875,-0.062896728515625,0.9751739501953125,0.2036895751953125
1772807457888050000,2.2140498046875,-0.0609130859375,0.979461669921875,0.204345703125
1772807457897982000,2.22398193359375,-0.0622100830078125,0.9769134521484375,0.2033843994140625
1772807457907914000,2.2339140625,-0.062835693359375,0.9745941162109375,0.1983642578125
1772807457917844700,2.2438447265625,-0.063934326171875,0.9729461669921875,0.2001800537109375
1772807457927776800,2.25377685546875,-0.0598297119140625,0.973876953125,0.200927734375
1772807457937708800,2.263708740234375,-0.059661865234375,0.977447509765625,0.20361328125
1772807457947640800,2.273640869140625,-0.063690185546875,0.9758148193359375,0.2058563232421875
1772807457957572900,2.28357275390625,-0.06561279296875,0.97332763671875,0.2033538818359375
1772807457967504600,2.293504638671875,-0.065216064453125,0.9743194580078125,0.20611572265625
1772807457977436700,2.303436767578125,-0.0634002685546875,0.97491455078125,0.203887939453125
1772807457987368000,2.313367919921875,-0.06292724609375,0.9734649658203125,0.2051544189453125
1772807457997300000,2.323300048828125,-0.0627899169921875,0.97125244140625,0.2071075439453125
1772807458007232000,2.33323193359375,-0.0641326904296875,0.970977783203125,0.2060546875
1772807458017164000,2.3431640625,-0.0634918212890625,0.9717254638671875,0.2026214599609375
1772807458027096000,2.353095947265625,-0.0616302490234375,0.974853515625,0.2010040283203125
1772807458037027800,2.36302783203125,-0.0626373291015625,0.977569580078125,0.199859619140625
1772807458046958800,2.372958740234375,-0.0601959228515625,0.9757843017578125,0.2007293701171875
1772807458056891000,2.382890869140625,-0.0587005615234375,0.9752960205078125,0.2002716064453125
1772807458066823000,2.392822998046875,-0.055908203125,0.9730072021484375,0.1991729736328125
1772807458076754700,2.402754638671875,-0.0559539794921875,0.9713134765625,0.199951171875
1772807458086687000,2.41268701171875,-0.0597381591796875,0.97052001953125,0.200103759765625
1772807458096619000,2.422618896484375,-0.0635833740234375,0.9713287353515625,0.198394775390625
1772807458106551000,2.432551025390625,-0.06304931640625,0.975311279296875,0.1998138427734375
1772807458116482000,2.44248193359375,-0.06396484375,0.9749755859375,0.2033843994140625
1772807458126413800,2.452413818359375,-0.0648956298828125,0.9725494384765625,0.2058563232421875
1772807458136345900,2.462345947265625,-0.0622100830078125,0.9686279296875,0.203582763671875
1772807458146278000,2.47227783203125,-0.0573883056640625,0.9736785888671875,0.2035980224609375
1772807458156210000,2.4822099609375,-0.0587615966796875,0.9783935546875,0.202850341796875
1772807458166142000,2.492141845703125,-0.061553955078125,0.9747314453125,0.2012786865234375
1772807458176073000,2.502072998046875,-0.060516357421875,0.970367431640625,0.2020263671875
1772807458186005000,2.5120048828125,-0.0575103759765625,0.9716796875,0.2059326171875
1772807458195937000,2.52193701171875,-0.054595947265625,0.9723968505859375,0.2079010009765625
1772807458205869000,2.531869140625,-0.0536041259765625,0.971405029296875,0.2082672119140625
1772807458215801000,2.541801025390625,-0.0540008544921875,0.9702911376953125,0.2108306884765625
1772807458225732900,2.55173291015625,-0.0552520751953125,0.9734649658203125,0.2093658447265625
1772807458235664000,2.561663818359375,-0.0555877685546875,0.9746551513671875,0.2086334228515625
1772807458245596000,2.571595947265625,-0.054595947265625,0.974578857421875,0.2083740234375
1772807458255528000,2.58152783203125,-0.057342529296875,0.971832275390625,0.2058868408203125
1772807458265460000,2.5914599609375,-0.0601654052734375,0.9720611572265625,0.2066802978515625
1772807458275391700,2.601391845703125,-0.0592193603515625,0.971832275390625,0.205352783203125
1772807458285323800,2.61132373046875,-0.057861328125,0.971771240234375,0.20733642578125
1772807458295255800,2.621255859375,-0.059844970703125,0.9722442626953125,0.2070770263671875
1772807458305187000,2.63118701171875,-0.0567626953125,0.9732208251953125,0.2069091796875
1772807458315119000,2.641119140625,-0.054718017578125,0.973846435546875,0.20703125
1772807458325051000,2.65105078125,-0.05706787109375,0.9697418212890625,0.2078857421875
1772807458334983000,2.66098291015625,-0.060821533203125,0.967742919921875,0.2045745849609375
1772807458344915000,2.6709150390625,-0.065185546875,0.9701690673828125,0.205230712890625
1772807458354847000,2.680846923828125,-0.0662841796875,0.9760284423828125,0.201263427734375
1772807458364777700,2.69077783203125,-0.0639801025390625,0.9775848388671875,0.198089599609375
1772807458374709800,2.700709716796875,-0.059722900390625,0.9754180908203125,0.1967010498046875
1772807458384641800,2.710641845703125,-0.0588531494140625,0.9739227294921875,0.19659423828125
1772807458394573800,2.72057373046875,-0.05963134765625,0.973236083984375,0.1943511962890625
1772807458404505900,2.730505859375,-0.0599822998046875,0.9741668701171875,0.195404052734375
1772807458414438000,2.74043798828125,-0.062408447265625,0.9696044921875,0.198272705078125
1772807458424370000,2.750369873046875,-0.0621337890625,0.968292236328125,0.199798583984375
1772807458434301000,2.760301025390625,-0.060150146484375,0.970703125,0.2002716064453125
1772807458444233000,2.77023291015625,-0.05682373046875,0.9690704345703125,0.20330810546875
1772807458454165000,2.7801650390625,-0.0544586181640625,0.9692535400390625,0.2072601318359375
1772807458464097000,2.790096923828125,-0.0552520751953125,0.9694061279296875,0.2113037109375
1772807458474028800,2.80002880859375,-0.056671142578125,0.9705963134765625,0.2085113525390625
1772807458483960800,2.8099609375,-0.0589599609375,0.9712371826171875,0.208251953125
1772807458493891800,2.819891845703125,-0.060455322265625,0.9720458984375,0.207427978515625
1772807458503824000,2.829823974609375,-0.061431884765625,0.9717559814453125,0.20550537109375
1772807458513756200,2.839756103515625,-0.0568695068359375,0.9750213623046875,0.2050628662109375
1772807458523688000,2.84968798828125,-0.057342529296875,0.9769134521484375,0.2036895751953125
1772807458533620000,2.859619873046875,-0.0591888427734375,0.9745941162109375,0.20513916015625
1772807458543552000,2.869552001953125,-0.0595550537109375,0.973968505859375,0.205078125
1772807458553484000,2.879484130859375,-0.05902099609375,0.977783203125,0.2061309814453125
1772807458563414800,2.889414794921875,-0.0596923828125,0.97802734375,0.2071533203125
1772807458573346800,2.899346923828125,-0.0625152587890625,0.9746246337890625,0.207763671875
1772807458583278800,2.90927880859375,-0.061798095703125,0.972320556640625,0.205841064453125
1772807458593211000,2.9192109375,-0.0590972900390625,0.9741973876953125,0.2038421630859375
1772807458603143000,2.929142822265625,-0.06085205078125,0.9748382568359375,0.2011260986328125
1772807458613075000,2.939074951171875,-0.0622711181640625,0.9710693359375,0.1971893310546875
1772807458623006700,2.9490068359375,-0.0647430419921875,0.9732818603515625,0.1957855224609375
1772807458632938000,2.95893798828125,-0.064697265625,0.976226806640625,0.196807861328125
1772807458642870000,2.9688701171875,-0.0629425048828125,0.9753875732421875,0.1990814208984375
1772807458652802000,2.978802001953125,-0.065826416015625,0.9752960205078125,0.1999053955078125
1772807458662734000,2.988734130859375,-0.0659027099609375,0.97503662109375,0.1980743408203125
1772807458672665900,2.998665771484375,-0.066253662109375,0.9730682373046875,0.1953125
1772807458682598000,3.008597900390625,-0.0633392333984375,0.97467041015625,0.1932525634765625
1772807458692529000,3.01852880859375,-0.0588226318359375,0.9738616943359375,0.1914215087890625
1772807458702461000,3.0284609375,-0.05810546875,0.973236083984375,0.192657470703125
1772807458712392700,3.038392822265625,-0.0580291748046875,0.97125244140625,0.197174072265625
1772807458722324700,3.04832470703125,-0.0591583251953125,0.9714813232421875,0.1996917724609375
1772807458732256800,3.0582568359375,-0.05889892578125,0.9721527099609375,0.2033538818359375
1772807458742189000,3.06818896484375,-0.0587921142578125,0.9731292724609375,0.2053070068359375
1772807458752121000,3.07812109375,-0.062103271484375,0.974517822265625,0.2076568603515625
1772807458762051800,3.0880517578125,-0.0631561279296875,0.9727020263671875,0.2024383544921875
1772807458771984000,3.09798388671875,-0.06439208984375,0.973724365234375,0.2003173828125
1772807458781916000,3.107916015625,-0.0621337890625,0.975128173828125,0.1982879638671875
1772807458791848000,3.117847900390625,-0.06103515625,0.9755096435546875,0.1974029541015625
1772807458801780000,3.127780029296875,-0.059173583984375,0.9753875732421875,0.19873046875
1772807458811712000,3.1377119140625,-0.0627899169921875,0.97406005859375,0.19964599609375
1772807458821642800,3.147642822265625,-0.0611114501953125,0.9749603271484375,0.2012939453125
1772807458831575000,3.157574951171875,-0.0627593994140625,0.978118896484375,0.2037353515625
1772807458841507000,3.167507080078125,-0.06402587890625,0.9759063720703125,0.2057342529296875
1772807458851439000,3.177439208984375,-0.0643310546875,0.9737396240234375,0.2064666748046875
1772807458861371100,3.18737109375,-0.0622406005859375,0.9716339111328125,0.206634521484375
1772807458871303000,3.197302978515625,-0.06451416015625,0.96923828125,0.203125
1772807458881235000,3.20723486328125,-0.0652313232421875,0.9680938720703125,0.200958251953125
1772807458891166000,3.217166015625,-0.064788818359375,0.968780517578125,0.199005126953125
1772807458901098000,3.227097900390625,-0.0652313232421875,0.9695281982421875,0.199462890625
1772807458911029800,3.23702978515625,-0.0643157958984375,0.9693450927734375,0.200469970703125
1772807458920961800,3.2469619140625,-0.06500244140625,0.969085693359375,0.2004241943359375
1772807458930893800,3.256893798828125,-0.0640869140625,0.9752044677734375,0.202301025390625
1772807458940825900,3.266825927734375,-0.062469482421875,0.980194091796875,0.2027587890625
1772807458950757000,3.276757080078125,-0.0601959228515625,0.9785919189453125,0.2053680419921875
1772807458960689000,3.28668896484375,-0.063201904296875,0.9747467041015625,0.206695556640625
1772807458970621000,3.296620849609375,-0.064300537109375,0.970794677734375,0.20855712890625
1772807458980553000,3.306552978515625,-0.0618743896484375,0.9711456298828125,0.20965576171875
1772807458990485000,3.316485107421875,-0.058837890625,0.97265625,0.2106475830078125
1772807459000416500,3.32641650390625,-0.0601959228515625,0.9710235595703125,0.21002197265625
1772807459010347300,3.33634716796875,-0.061981201171875,0.972869873046875,0.206329345703125
1772807459020279300,3.346279296875,-0.0612945556640625,0.97332763671875,0.2049102783203125
1772807459030211300,3.35621142578125,-0.061553955078125,0.972625732421875,0.20489501953125
1772807459040143600,3.3661435546875,-0.0619049072265625,0.973419189453125,0.2028350830078125
1772807459050075600,3.37607568359375,-0.0618133544921875,0.97296142578125,0.2005462646484375
1772807459060007700,3.386007568359375,-0.056243896484375,0.9727783203125,0.1997528076171875
1772807459069939500,3.395939453125,-0.056915283203125,0.977142333984375,0.2018280029296875
1772807459079870500,3.405870361328125,-0.0564117431640625,0.977386474609375,0.2018890380859375
1772807459089802500,3.415802490234375,-0.0547637939453125,0.972930908203125,0.20294189453125
1772807459099734500,3.425734619140625,-0.053924560546875,0.9698638916015625,0.2052459716796875
1772807459109666300,3.435666259765625,-0.0554351806640625,0.9707489013671875,0.208740234375
1772807459119598300,3.445598388671875,-0.0581817626953125,0.9701385498046875,0.2060089111328125
1772807459129530400,3.4555302734375,-0.0673980712890625,0.9718475341796875,0.203521728515625
1772807459139462400,3.46546240234375,-0.0653839111328125,0.9723358154296875,0.1998748779296875
1772807459149393700,3.4753935546875,-0.064544677734375,0.9726715087890625,0.1977691650390625
1772807459159325400,3.485325439453125,-0.0659942626953125,0.977203369140625,0.1967315673828125
1772807459169257500,3.495257568359375,-0.0623931884765625,0.977325439453125,0.1956787109375
1772807459179189500,3.505189453125,-0.0585479736328125,0.9724578857421875,0.19024658203125
1772807459189121500,3.51512158203125,-0.064483642578125,0.9747161865234375,0.191253662109375
1772807459199053600,3.525053466796875,-0.06341552734375,0.97662353515625,0.1903228759765625
1772807459208984300,3.534984375,-0.06219482421875,0.979248046875,0.192291259765625
1772807459218916400,3.544916259765625,-0.061920166015625,0.9788665771484375,0.194122314453125
1772807459228848400,3.554848388671875,-0.0615692138671875,0.9748992919921875,0.1937103271484375
1772807459238780400,3.564780517578125,-0.0633544921875,0.9745941162109375,0.19439697265625
1772807459248712400,3.57471240234375,-0.0635833740234375,0.9749755859375,0.1941070556640625
1772807459258644500,3.58464453125,-0.0644378662109375,0.9741363525390625,0.1909332275390625
1772807459268576300,3.594576171875,-0.0646209716796875,0.9737701416015625,0.192535400390625
1772807459278507500,3.604507568359375,-0.0629730224609375,0.9739227294921875,0.194580078125
1772807459288439600,3.614439453125,-0.062347412109375,0.97332763671875,0.1976776123046875
1772807459298371600,3.62437158203125,-0.062835693359375,0.9713134765625,0.199127197265625
1772807459308303400,3.634303466796875,-0.063385009765625,0.9710540771484375,0.1976318359375
1772807459318235400,3.6442353515625,-0.0618438720703125,0.9737701416015625,0.1977996826171875
1772807459328167400,3.65416748046875,-0.06341552734375,0.9725799560546875,0.1981353759765625
1772807459338099500,3.664099365234375,-0.0621795654296875,0.9716339111328125,0.1983489990234375
1772807459348030500,3.674030517578125,-0.061126708984375,0.9714508056640625,0.19921875
1772807459357962500,3.68396240234375,-0.0599822998046875,0.97222900390625,0.197235107421875
1772807459367894500,3.69389453125,-0.058837890625,0.975555419921875,0.19586181640625
1772807459377826600,3.70382666015625,-0.061279296875,0.976531982421875,0.195037841796875
1772807459387758600,3.713758544921875,-0.06298828125,0.976837158203125,0.1940765380859375
1772807459397690600,3.723690673828125,-0.06341552734375,0.9776763916015625,0.1934967041015625
1772807459407621400,3.733621337890625,-0.0636749267578125,0.977447509765625,0.193115234375
1772807459417553400,3.743553466796875,-0.068450927734375,0.9744415283203125,0.193939208984375
1772807459427485400,3.7534853515625,-0.0679931640625,0.970672607421875,0.190093994140625
1772807459437417500,3.76341748046875,-0.0648651123046875,0.972442626953125,0.18939208984375
1772807459447349500,3.773349609375,-0.06451416015625,0.9740447998046875,0.1888275146484375
1772807459457281300,3.78328125,-0.0639190673828125,0.9754638671875,0.188232421875
1772807459467213300,3.79321337890625,-0.0643310546875,0.9752349853515625,0.19091796875
1772807459477144600,3.80314453125,-0.061767578125,0.975250244140625,0.1915435791015625
1772807459487076600,3.81307666015625,-0.0618896484375,0.974517822265625,0.192718505859375
1772807459497008600,3.823008544921875,-0.06396484375,0.9734039306640625,0.1934661865234375
1772807459506940400,3.8329404296875,-0.0652618408203125,0.9763336181640625,0.1941986083984375
1772807459516872400,3.84287255859375,-0.065093994140625,0.9750518798828125,0.196746826171875
1772807459526804500,3.852804443359375,-0.0647430419921875,0.9760894775390625,0.1949920654296875
1772807459536736500,3.862736572265625,-0.0691680908203125,0.9764404296875,0.19512939453125
1772807459546667500,3.87266748046875,-0.0679473876953125,0.9758148193359375,0.195343017578125
1772807459556599300,3.882599365234375,-0.0657196044921875,0.978424072265625,0.1971435546875
1772807459566531300,3.89253125,-0.065216064453125,0.9777679443359375,0.1985931396484375
1772807459576463400,3.90246337890625,-0.061187744140625,0.9764556884765625,0.19989013671875
1772807459586395400,3.9123955078125,-0.0602264404296875,0.97216796875,0.2015838623046875
1772807459596327400,3.922327392578125,-0.06243896484375,0.9705352783203125,0.201751708984375
1772807459606258400,3.932258544921875,-0.0663604736328125,0.9719390869140625,0.201385498046875
1772807459616190500,3.9421904296875,-0.0695648193359375,0.9725494384765625,0.2052459716796875
1772807459626122500,3.95212255859375,-0.069580078125,0.96881103515625,0.20355224609375
1772807459636054500,3.962054443359375,-0.0690765380859375,0.969146728515625,0.2061004638671875
1772807459645986600,3.971986572265625,-0.0656280517578125,0.9696807861328125,0.2057647705078125
1772807459655916500,3.98191650390625,-0.0662384033203125,0.971771240234375,0.2023468017578125
1772807459665848600,3.9918486328125,-0.06341552734375,0.97369384765625,0.1984710693359375
1772807459675780600,4.001780517578125,-0.06292724609375,0.976104736328125,0.1938934326171875
1772807459685712600,4.011712646484375,-0.0638580322265625,0.9764862060546875,0.1964111328125
1772807459695644400,4.02164453125,-0.0618133544921875,0.9752655029296875,0.1996917724609375
1772807459705576400,4.031576416015625,-0.0633392333984375,0.974945068359375,0.203521728515625
1772807459715507500,4.041507568359375,-0.0643768310546875,0.9737548828125,0.205078125
1772807459725439500,4.051439453125,-0.0659942626953125,0.9722900390625,0.202789306640625
1772807459735371300,4.061371337890625,-0.0655975341796875,0.9727630615234375,0.203948974609375
1772807459745303300,4.07130322265625,-0.0623626708984375,0.971527099609375,0.2044525146484375
1772807459755235300,4.0812353515625,-0.06402587890625,0.9686737060546875,0.2038726806640625
1772807459765167400,4.09116748046875,-0.065032958984375,0.968536376953125,0.2014617919921875
1772807459775099400,4.101099365234375,-0.065399169921875,0.96942138671875,0.199188232421875
1772807459785030400,4.111030517578125,-0.06494140625,0.970367431640625,0.201385498046875
1772807459794962400,4.12096240234375,-0.06591796875,0.9706268310546875,0.199737548828125
1772807459804894500,4.13089453125,-0.0663299560546875,0.97308349609375,0.2010650634765625
1772807459814826500,4.140826416015625,-0.0652923583984375,0.973876953125,0.203216552734375
1772807459824758500,4.150758544921875,-0.062469482421875,0.9747467041015625,0.2013397216796875
1772807459834690600,4.160690673828125,-0.0631561279296875,0.97283935546875,0.2025299072265625
1772807459844621300,4.170621337890625,-0.0637054443359375,0.9720916748046875,0.2021331787109375
1772807459854553300,4.18055322265625,-0.0633392333984375,0.9722747802734375,0.201446533203125
1772807459864485400,4.1904853515625,-0.064208984375,0.971954345703125,0.201446533203125
1772807459874417700,4.200417724609375,-0.06610107421875,0.971527099609375,0.2033538818359375
1772807459884349400,4.210349365234375,-0.0683135986328125,0.9713134765625,0.2036895751953125
1772807459894281500,4.220281494140625,-0.0667724609375,0.9701690673828125,0.203216552734375
1772807459904213500,4.230213623046875,-0.066986083984375,0.97283935546875,0.203369140625
1772807459914144500,4.24014453125,-0.067413330078125,0.9743499755859375,0.2017822265625
1772807459924076500,4.25007666015625,-0.064056396484375,0.9751739501953125,0.200469970703125
1772807459934008300,4.26000830078125,-0.066619873046875,0.9755096435546875,0.2001953125
1772807459943940400,4.2699404296875,-0.0641937255859375,0.9752960205078125,0.198272705078125
1772807459953872400,4.279872314453125,-0.06500244140625,0.9748992919921875,0.1971435546875
1772807459963804400,4.289804443359375,-0.0635223388671875,0.976409912109375,0.199920654296875
1772807459973736400,4.299736328125,-0.065704345703125,0.9776153564453125,0.1995391845703125
1772807459983667500,4.30966748046875,-0.0640869140625,0.97686767578125,0.2010650634765625
1772807459993599500,4.319599609375,-0.0652923583984375,0.974090576171875,0.203399658203125
1772807460003532300,4.3295322265625,-0.0655364990234375,0.9743499755859375,0.2041168212890625
1772807460013464600,4.339464599609375,-0.0670013427734375,0.9738311767578125,0.2011871337890625
1772807460023396400,4.349396240234375,-0.066314697265625,0.970916748046875,0.20245361328125
1772807460033329200,4.3593291015625,-0.065765380859375,0.9701385498046875,0.2017974853515625
1772807460043261200,4.36926123046875,-0.066314697265625,0.9708404541015625,0.1988677978515625
1772807460053193200,4.379193115234375,-0.066650390625,0.975189208984375,0.1986236572265625
1772807460063125200,4.389125244140625,-0.0655059814453125,0.9754180908203125,0.1989593505859375
1772807460073057500,4.3990576171875,-0.06524658203125,0.972991943359375,0.200042724609375
1772807460082988300,4.40898828125,-0.0661468505859375,0.972412109375,0.201141357421875
1772807460092920300,4.41892041015625,-0.066986083984375,0.973541259765625,0.2027435302734375
1772807460102852400,4.428852294921875,-0.067413330078125,0.9736328125,0.2008819580078125
1772807460112784400,4.438784423828125,-0.068878173828125,0.975372314453125,0.198272705078125
1772807460122716400,4.44871630859375,-0.0665283203125,0.974517822265625,0.1980438232421875
1772807460132648200,4.458648193359375,-0.06610107421875,0.9727935791015625,0.2010955810546875
1772807460142580200,4.468580322265625,-0.06646728515625,0.9713287353515625,0.1997833251953125
1772807460152511200,4.47851123046875,-0.0670623779296875,0.9701385498046875,0.20159912109375
1772807460162443500,4.488443603515625,-0.0670318603515625,0.9716339111328125,0.205047607421875
1772807460172375600,4.49837548828125,-0.0683135986328125,0.9710693359375,0.2051544189453125
1772807460182307300,4.508307373046875,-0.066070556640625,0.974639892578125,0.2053985595703125
1772807460192239400,4.5182392578125,-0.0638885498046875,0.975128173828125,0.206146240234375
1772807460202171400,4.52817138671875,-0.063690185546875,0.9759063720703125,0.2047882080078125
1772807460212102400,4.538102294921875,-0.0642242431640625,0.973419189453125,0.20465087890625
1772807460222034400,4.548034423828125,-0.0680389404296875,0.9725189208984375,0.20220947265625
1772807460231966200,4.55796630859375,-0.0687255859375,0.97119140625,0.1978607177734375
1772807460241898200,4.567898193359375,-0.069549560546875,0.972259521484375,0.1946868896484375
1772807460251830300,4.577830322265625,-0.068756103515625,0.9739837646484375,0.19354248046875
1772807460261762300,4.58776220703125,-0.0680694580078125,0.9736175537109375,0.1905364990234375
1772807460271694300,4.5976943359375,-0.067108154296875,0.971343994140625,0.1896514892578125
1772807460281625300,4.607625244140625,-0.0697784423828125,0.9741973876953125,0.190826416015625
1772807460291557400,4.617557373046875,-0.0717926025390625,0.976959228515625,0.1894073486328125
1772807460301489400,4.627489501953125,-0.0739288330078125,0.9783935546875,0.1871795654296875
1772807460311421400,4.63742138671875,-0.0761566162109375,0.978424072265625,0.18701171875
1772807460321353500,4.647353515625,-0.0745391845703125,0.9782562255859375,0.18817138671875
1772807460331285200,4.65728515625,-0.073089599609375,0.9760894775390625,0.19244384765625
1772807460341217300,4.66721728515625,-0.0716552734375,0.9738616943359375,0.19586181640625
1772807460351148300,4.677148193359375,-0.0701904296875,0.973724365234375,0.19580078125
1772807460361080300,4.687080322265625,-0.07098388671875,0.9755859375,0.19708251953125
1772807460371012400,4.697012451171875,-0.069671630859375,0.9753570556640625,0.1973724365234375
1772807460380944100,4.706944091796875,-0.0698089599609375,0.97344970703125,0.19793701171875
1772807460390876400,4.71687646484375,-0.0670623779296875,0.974639892578125,0.1985321044921875
1772807460400808400,4.726808349609375,-0.065277099609375,0.9773406982421875,0.198944091796875
1772807460410740500,4.736740478515625,-0.0657196044921875,0.9768218994140625,0.1965484619140625
1772807460420671200,4.746671142578125,-0.0680084228515625,0.97589111328125,0.1948089599609375
1772807460430603300,4.756603271484375,-0.0696868896484375,0.9751739501953125,0.19390869140625
1772807460440535300,4.766535400390625,-0.070098876953125,0.972503662109375,0.196136474609375
1772807460450467300,4.77646728515625,-0.0658416748046875,0.970062255859375,0.195648193359375
1772807460460399400,4.7863994140625,-0.06524658203125,0.971771240234375,0.196075439453125
1772807460470331400,4.796331298828125,-0.064056396484375,0.9707794189453125,0.1981353759765625
1772807460480263200,4.80626318359375,-0.06365966796875,0.971343994140625,0.1988677978515625
1772807460490194400,4.8161943359375,-0.0662689208984375,0.9724273681640625,0.198944091796875
1772807460500126500,4.82612646484375,-0.068389892578125,0.972442626953125,0.197509765625
1772807460510058500,4.83605859375,-0.068450927734375,0.9721832275390625,0.19354248046875
1772807460519990500,4.845990478515625,-0.0709686279296875,0.9730377197265625,0.19232177734375
1772807460529922300,4.85592236328125,-0.071929931640625,0.97540283203125,0.188934326171875
1772807460539854300,4.865854248046875,-0.069915771484375,0.9761199951171875,0.185455322265625
1772807460549786400,4.875786376953125,-0.070892333984375,0.975830078125,0.1856842041015625
1772807460559717400,4.88571728515625,-0.0704345703125,0.9772186279296875,0.18524169921875
1772807460569649200,4.895649169921875,-0.072052001953125,0.9794921875,0.18634033203125
1772807460579581200,4.905581298828125,-0.0709228515625,0.9795379638671875,0.187347412109375
1772807460589513200,4.91551318359375,-0.069793701171875,0.97711181640625,0.1905517578125
1772807460599445200,4.9254453125,-0.0688323974609375,0.9764556884765625,0.1955413818359375
1772807460609377300,4.935377197265625,-0.068695068359375,0.9733428955078125,0.19891357421875
1772807460619309300,4.945309326171875,-0.0691680908203125,0.971710205078125,0.1967315673828125
1772807460629240300,4.955240234375,-0.070281982421875,0.9726715087890625,0.1951904296875
1772807460639172400,4.96517236328125,-0.0698089599609375,0.97216796875,0.195556640625
1772807460649104400,4.9751044921875,-0.0686492919921875,0.9691314697265625,0.1971588134765625
1772807460659036400,4.985036376953125,-0.070068359375,0.9680633544921875,0.1999359130859375
1772807460668968400,4.994968505859375,-0.069854736328125,0.9695587158203125,0.2028350830078125
1772807460678900200,5.004900146484375,-0.068359375,0.971710205078125,0.203521728515625
1772807460688832300,5.014832275390625,-0.0701141357421875,0.974945068359375,0.2039031982421875
1772807460698763300,5.02476318359375,-0.0715789794921875,0.9752044677734375,0.2003326416015625
1772807460708695300,5.0346953125,-0.0662689208984375,0.9716949462890625,0.19720458984375
1772807460718627300,5.04462744140625,-0.06884765625,0.97467041015625,0.1991729736328125
1772807460728559400,5.054559326171875,-0.0676116943359375,0.977264404296875,0.2003631591796875
1772807460738491400,5.064491455078125,-0.068878173828125,0.973724365234375,0.198699951171875
1772807460748423400,5.07442333984375,-0.0693206787109375,0.97216796875,0.19866943359375
1772807460758355500,5.08435546875,-0.072998046875,0.9751129150390625,0.20025634765625
1772807460768286200,5.0942861328125,-0.0734710693359375,0.973968505859375,0.201446533203125
1772807460778218200,5.10421826171875,-0.072479248046875,0.97271728515625,0.2007598876953125
1772807460788150300,5.114150390625,-0.069000244140625,0.9734954833984375,0.1995849609375
1772807460798082300,5.124082275390625,-0.068511962890625,0.9712982177734375,0.20172119140625
1772807460808014300,5.134014404296875,-0.0678253173828125,0.96875,0.201995849609375
1772807460817946400,5.1439462890625,-0.0687255859375,0.96990966796875,0.198516845703125
1772807460827878100,5.153878173828125,-0.0680694580078125,0.97296142578125,0.1976318359375
1772807460837809400,5.163809326171875,-0.0711517333984375,0.9745635986328125,0.1958160400390625
1772807460847741400,5.173741455078125,-0.0728759765625,0.973785400390625,0.1950836181640625
1772807460857673500,5.183673583984375,-0.0722503662109375,0.9749603271484375,0.1973876953125
1772807460867605500,5.19360546875,-0.0702972412109375,0.971466064453125,0.2008209228515625
1772807460877537300,5.203537353515625,-0.070281982421875,0.9698333740234375,0.2019500732421875
1772807460887469300,5.21346923828125,-0.0702056884765625,0.9715423583984375,0.2037353515625
1772807460897401300,5.2234013671875,-0.0709228515625,0.9730377197265625,0.203826904296875
1772807460907332400,5.233332275390625,-0.0711669921875,0.97113037109375,0.2010498046875
1772807460917264100,5.24326416015625,-0.0691375732421875,0.9711761474609375,0.2009735107421875
1772807460927196200,5.253196044921875,-0.06707763671875,0.97442626953125,0.19976806640625
1772807460937128200,5.263128173828125,-0.0682830810546875,0.9733734130859375,0.20269775390625
1772807460947060200,5.273060302734375,-0.068023681640625,0.9738311767578125,0.2044677734375
1772807460956992500,5.282992431640625,-0.06915283203125,0.9752655029296875,0.2028961181640625
1772807460966923300,5.29292333984375,-0.0741119384765625,0.9756927490234375,0.1986083984375
1772807460976855300,5.302855224609375,-0.0764617919921875,0.9752960205078125,0.1927032470703125
1772807460986787300,5.312787353515625,-0.0782012939453125,0.9752655029296875,0.192352294921875
1772807460996719400,5.32271923828125,-0.07769775390625,0.9736328125,0.1912841796875
1772807461006652200,5.332652099609375,-0.07672119140625,0.9716796875,0.1875152587890625
1772807461016584200,5.342584228515625,-0.0782470703125,0.9722442626953125,0.19183349609375
1772807461026516000,5.352515869140625,-0.0783843994140625,0.974395751953125,0.1920623779296875
1772807461036448000,5.362447998046875,-0.074920654296875,0.9723968505859375,0.1911773681640625
1772807461046379000,5.37237890625,-0.0739898681640625,0.9708099365234375,0.189453125
1772807461056311000,5.38231103515625,-0.0745391845703125,0.971282958984375,0.1892547607421875
1772807461066242800,5.392242919921875,-0.0742950439453125,0.9748382568359375,0.1907501220703125
1772807461076174800,5.4021748046875,-0.0755157470703125,0.9749908447265625,0.19244384765625
1772807461086107100,5.412107177734375,-0.0772857666015625,0.9755859375,0.19000244140625
1772807461096039200,5.4220390625,-0.0784149169921875,0.9754791259765625,0.1900634765625
1772807461105971200,5.43197119140625,-0.0815277099609375,0.9719390869140625,0.189239501953125
1772807461115902000,5.44190185546875,-0.0802764892578125,0.973358154296875,0.18994140625
1772807461125834000,5.451833984375,-0.080413818359375,0.9714813232421875,0.1896514892578125
1772807461135766000,5.46176611328125,-0.07733154296875,0.9688720703125,0.1900787353515625
1772807461145698000,5.471697998046875,-0.0794219970703125,0.971771240234375,0.194854736328125
1772807461155630000,5.481630126953125,-0.08111572265625,0.9748382568359375,0.193572998046875
1772807461165562000,5.49156201171875,-0.084625244140625,0.9751129150390625,0.1990966796875
1772807461175494000,5.501493896484375,-0.0843963623046875,0.9743194580078125,0.1985015869140625
1772807461185425200,5.511425048828125,-0.0832366943359375,0.9786376953125,0.199493408203125
1772807461195357200,5.521357177734375,-0.0843353271484375,0.977294921875,0.200286865234375
1772807461205289200,5.531289306640625,-0.0836029052734375,0.9717559814453125,0.19793701171875
1772807461215221000,5.541220947265625,-0.0822296142578125,0.9722747802734375,0.1967620849609375
1772807461225153000,5.551153076171875,-0.081878662109375,0.9748992919921875,0.1946563720703125
1772807461235085000,5.5610849609375,-0.082427978515625,0.975830078125,0.1938323974609375
1772807461245017000,5.57101708984375,-0.08099365234375,0.9745025634765625,0.191253662109375
1772807461254948000,5.580947998046875,-0.08392333984375,0.9746856689453125,0.18865966796875
1772807461264879900,5.5908798828125,-0.08355712890625,0.9734344482421875,0.18939208984375
1772807461274812000,5.60081201171875,-0.08563232421875,0.9747467041015625,0.1893463134765625
1772807461284744000,5.610743896484375,-0.0855865478515625,0.9741973876953125,0.19140625
1772807461294676000,5.620676025390625,-0.085845947265625,0.9734344482421875,0.1949462890625
1772807461304608000,5.63060791015625,-0.08319091796875,0.9722747802734375,0.1956024169921875
1772807461314540000,5.6405400390625,-0.0799560546875,0.968505859375,0.1953125
1772807461324471000,5.650470947265625,-0.0804290771484375,0.9707183837890625,0.197784423828125
1772807461334403000,5.660403076171875,-0.0814361572265625,0.972137451171875,0.2015838623046875
1772807461344335000,5.670335205078125,-0.0830078125,0.9705657958984375,0.201751708984375
1772807461354267100,5.68026708984375,-0.084503173828125,0.96832275390625,0.1992340087890625
1772807461364199200,5.69019921875,-0.0864410400390625,0.9679412841796875,0.197906494140625
1772807461374131000,5.700130859375,-0.0857391357421875,0.971527099609375,0.1954193115234375
1772807461384063000,5.71006298828125,-0.084869384765625,0.974151611328125,0.195037841796875
1772807461393994000,5.719993896484375,-0.0865020751953125,0.9720611572265625,0.1911773681640625
1772807461403926000,5.729926025390625,-0.0855255126953125,0.9709930419921875,0.1890869140625
1772807461413858000,5.739858154296875,-0.0888671875,0.9693450927734375,0.189971923828125
1772807461423790000,5.7497900390625,-0.0907745361328125,0.9691162109375,0.190032958984375
1772807461433722000,5.75972216796875,-0.0926055908203125,0.9714813232421875,0.192047119140625
1772807461443654100,5.769654052734375,-0.0927734375,0.973968505859375,0.190826416015625
1772807461453586200,5.779586181640625,-0.091339111328125,0.9778289794921875,0.1910247802734375
1772807461463517000,5.789516845703125,-0.0887908935546875,0.9790802001953125,0.1925811767578125
1772807461473449000,5.799448974609375,-0.0865020751953125,0.9754638671875,0.1937255859375
1772807461483381000,5.809381103515625,-0.0842742919921875,0.9741668701171875,0.1936798095703125
1772807461493313000,5.81931298828125,-0.084503173828125,0.9738006591796875,0.1939849853515625
1772807461503245000,5.8292451171875,-0.08489990234375,0.9762115478515625,0.193389892578125
1772807461513177000,5.839177001953125,-0.0859832763671875,0.9781341552734375,0.1926116943359375
1772807461523108900,5.84910888671875,-0.08612060546875,0.9767303466796875,0.19061279296875
1772807461533040000,5.8590400390625,-0.086822509765625,0.9741668701171875,0.1918182373046875
1772807461542972200,5.86897216796875,-0.085296630859375,0.9686431884765625,0.19000244140625
1772807461552904200,5.878904296875,-0.087188720703125,0.9669036865234375,0.189453125
1772807461562836000,5.8888359375,-0.0886383056640625,0.96881103515625,0.1889801025390625
1772807461572768000,5.89876806640625,-0.0888519287109375,0.9702301025390625,0.189239501953125
1772807461582700000,5.908699951171875,-0.088348388671875,0.9737396240234375,0.1896514892578125
1772807461592632000,5.918632080078125,-0.089111328125,0.974578857421875,0.1905975341796875
1772807461602563000,5.92856298828125,-0.087554931640625,0.9742889404296875,0.1907501220703125
1772807461612494800,5.938494873046875,-0.0823822021484375,0.9761505126953125,0.193634033203125
1772807461622427000,5.948427001953125,-0.080322265625,0.9764251708984375,0.1955718994140625
1772807461632359000,5.95835888671875,-0.081268310546875,0.973907470703125,0.1955718994140625
1772807461642291000,5.968291015625,-0.082366943359375,0.972320556640625,0.1915740966796875
1772807461652223200,5.97822314453125,-0.0807037353515625,0.972320556640625,0.1876068115234375
1772807461662155300,5.9881552734375,-0.08172607421875,0.97259521484375,0.189971923828125
1772807461672086000,5.9980859375,-0.081634521484375,0.9734039306640625,0.192169189453125
1772807461682018000,6.00801806640625,-0.0825653076171875,0.9730682373046875,0.1924591064453125
1772807461691950000,6.0179501953125,-0.0844573974609375,0.96923828125,0.1917572021484375
1772807461701882000,6.027882080078125,-0.083160400390625,0.9683074951171875,0.1910858154296875
1772807461711814100,6.037814208984375,-0.0827178955078125,0.9723052978515625,0.191162109375
1772807461721746000,6.047745849609375,-0.083740234375,0.9749298095703125,0.19171142578125
1772807461731678000,6.057677978515625,-0.0839691162109375,0.9746246337890625,0.193939208984375
1772807461741609200,6.067609130859375,-0.0850372314453125,0.9712371826171875,0.1918487548828125
1772807461751541200,6.077541259765625,-0.086883544921875,0.972808837890625,0.1903228759765625
1772807461761473000,6.08747314453125,-0.0859527587890625,0.976165771484375,0.189453125
1772807461771405000,6.097405029296875,-0.08770751953125,0.97528076171875,0.1909027099609375
1772807461781337000,6.107337158203125,-0.088958740234375,0.9739532470703125,0.193145751953125
1772807461791269000,6.11726904296875,-0.088592529296875,0.971435546875,0.1908111572265625
1772807461801201200,6.127201171875,-0.085418701171875,0.9705657958984375,0.1876068115234375
1772807461811132000,6.1371318359375,-0.085784912109375,0.97344970703125,0.1858367919921875
1772807461821064000,6.14706396484375,-0.087158203125,0.97283935546875,0.1849517822265625
1772807461830996000,6.156995849609375,-0.08587646484375,0.9748992919921875,0.18817138671875
1772807461840928000,6.166927978515625,-0.0809783935546875,0.9761505126953125,0.18890380859375
1772807461850860000,6.176860107421875,-0.0804443359375,0.97369384765625,0.188568115234375
1772807461860792000,6.1867919921875,-0.0810546875,0.972991943359375,0.189697265625
1772807461870723800,6.196723876953125,-0.07879638671875,0.9756011962890625,0.1889801025390625
1772807461880655000,6.206655029296875,-0.07891845703125,0.9753875732421875,0.1914215087890625
1772807461890587100,6.216587158203125,-0.0825347900390625,0.973052978515625,0.1926116943359375
1772807461900519200,6.226519287109375,-0.083282470703125,0.9746551513671875,0.19171142578125
1772807461910451000,6.236450927734375,-0.083404541015625,0.974212646484375,0.190887451171875
1772807461920383000,6.246383056640625,-0.08404541015625,0.971893310546875,0.1920928955078125
1772807461930315000,6.25631494140625,-0.0810394287109375,0.9710693359375,0.19219970703125
1772807461940247000,6.2662470703125,-0.081146240234375,0.9736175537109375,0.189239501953125
1772807461950178000,6.276177978515625,-0.0798492431640625,0.97613525390625,0.18890380859375
1772807461960109800,6.28610986328125,-0.0774078369140625,0.9734649658203125,0.189300537109375
1772807461970042000,6.2960419921875,-0.0771942138671875,0.971466064453125,0.1891326904296875
1772807461979974100,6.30597412109375,-0.0778045654296875,0.9744873046875,0.187713623046875
1772807461989906200,6.31590625,-0.0782318115234375,0.9745941162109375,0.1881256103515625
1772807461999837400,6.32583740234375,-0.080169677734375,0.972900390625,0.187774658203125
1772807462009769500,6.33576953125,-0.08026123046875,0.972503662109375,0.187591552734375
1772807462019701500,6.345701416015625,-0.078582763671875,0.975250244140625,0.187530517578125
1772807462029632300,6.35563232421875,-0.078033447265625,0.9776458740234375,0.1900634765625
1772807462039564300,6.365564208984375,-0.0778350830078125,0.9736175537109375,0.18927001953125
1772807462049496300,6.375496337890625,-0.0778656005859375,0.973052978515625,0.1901702880859375
1772807462059428400,6.385428466796875,-0.0767822265625,0.973541259765625,0.1910247802734375
1772807462069360400,6.3953603515625,-0.0766448974609375,0.9734954833984375,0.190338134765625
1772807462079292400,6.40529248046875,-0.0767669677734375,0.973114013671875,0.18963623046875
1772807462089224400,6.415224365234375,-0.080322265625,0.9768218994140625,0.1911773681640625
1772807462099155500,6.425155517578125,-0.079437255859375,0.9741668701171875,0.1941680908203125
1772807462109087500,6.43508740234375,-0.0794219970703125,0.97174072265625,0.1952362060546875
1772807462119019500,6.44501953125,-0.082672119140625,0.9713592529296875,0.2001953125
1772807462128951300,6.454951416015625,-0.0843658447265625,0.970306396484375,0.2012939453125
1772807462138883300,6.46488330078125,-0.0848388671875,0.970672607421875,0.2030487060546875
1772807462148815400,6.4748154296875,-0.08319091796875,0.9709320068359375,0.2002716064453125
1772807462158747400,6.484747314453125,-0.082244873046875,0.97369384765625,0.198333740234375
1772807462168678400,6.494678466796875,-0.0831756591796875,0.974365234375,0.1968994140625
1772807462178610400,6.5046103515625,-0.0818023681640625,0.9754180908203125,0.198760986328125
1772807462188542500,6.51454248046875,-0.08197021484375,0.9742431640625,0.20233154296875
1772807462198474500,6.524474609375,-0.0825347900390625,0.9733734130859375,0.20440673828125
1772807462208406500,6.534406494140625,-0.082122802734375,0.9742584228515625,0.2047271728515625
1772807462218338600,6.544338623046875,-0.080963134765625,0.975372314453125,0.2026519775390625
1772807462228270600,6.5542705078125,-0.0818634033203125,0.973419189453125,0.2004241943359375
1772807462238201300,6.564201416015625,-0.0836029052734375,0.9722442626953125,0.1954345703125
1772807462248133400,6.57413330078125,-0.0841522216796875,0.9717254638671875,0.19384765625
1772807462258065400,6.5840654296875,-0.082611083984375,0.9714202880859375,0.195526123046875
1772807462267997400,6.59399755859375,-0.083648681640625,0.971038818359375,0.1968994140625
1772807462277929200,6.60392919921875,-0.083038330078125,0.971466064453125,0.19744873046875
1772807462287861200,6.613861328125,-0.0825653076171875,0.973602294921875,0.199920654296875
1772807462297793300,6.623793212890625,-0.08245849609375,0.9748992919921875,0.2003631591796875
1772807462307725300,6.633725341796875,-0.0810699462890625,0.97357177734375,0.2010955810546875
1772807462317656600,6.643656494140625,-0.079315185546875,0.974700927734375,0.2033233642578125
1772807462327588400,6.65358837890625,-0.0787200927734375,0.97119140625,0.2035064697265625
1772807462337520400,6.663520263671875,-0.0773468017578125,0.97100830078125,0.201629638671875
1772807462347452400,6.673452392578125,-0.0791778564453125,0.971832275390625,0.199798583984375
1772807462357384400,6.683384521484375,-0.07940673828125,0.9691925048828125,0.1995086669921875
1772807462367316500,6.69331640625,-0.0809478759765625,0.9693756103515625,0.1986236572265625
1772807462377248500,6.70324853515625,-0.0818328857421875,0.9695281982421875,0.1974639892578125
1772807462387179300,6.71317919921875,-0.0806884765625,0.9700164794921875,0.1949462890625
1772807462397111300,6.723111328125,-0.0787353515625,0.9698944091796875,0.19390869140625
1772807462407043600,6.733043701171875,-0.0791473388671875,0.970977783203125,0.1944427490234375
1772807462416975600,6.7429755859375,-0.0764312744140625,0.97393798828125,0.1958465576171875
1772807462426907600,6.75290771484375,-0.0743255615234375,0.9751434326171875,0.197296142578125
1772807462436839400,6.76283935546875,-0.0733642578125,0.9762115478515625,0.1975555419921875
1772807462446771500,6.772771484375,-0.0740509033203125,0.9753875732421875,0.1982879638671875
1772807462456702500,6.782702392578125,-0.0772552490234375,0.97259521484375,0.1993408203125
1772807462466634500,6.792634521484375,-0.081024169921875,0.9717559814453125,0.2000579833984375
1772807462476566300,6.802566162109375,-0.082733154296875,0.974212646484375,0.2007293701171875
1772807462486498300,6.812498291015625,-0.0820159912109375,0.973297119140625,0.2027130126953125
1772807462496430300,6.822430419921875,-0.082366943359375,0.9720001220703125,0.2024078369140625
1772807462506362400,6.8323623046875,-0.083465576171875,0.9685211181640625,0.2035369873046875
1772807462516294400,6.84229443359375,-0.0826568603515625,0.96917724609375,0.204071044921875
1772807462526225400,6.852225341796875,-0.0827484130859375,0.9706878662109375,0.202392578125
1772807462536157400,6.862157470703125,-0.080596923828125,0.9730682373046875,0.2020721435546875
1772807462546089500,6.87208935546875,-0.079681396484375,0.973968505859375,0.20123291015625
1772807462556021500,6.882021484375,-0.0796051025390625,0.972625732421875,0.205047607421875
1772807462565953500,6.89195361328125,-0.0791778564453125,0.9734039306640625,0.207061767578125
1772807462575885600,6.901885498046875,-0.0774688720703125,0.9730224609375,0.2042236328125
1772807462585817300,6.9118173828125,-0.079559326171875,0.9705810546875,0.2040252685546875
1772807462595748400,6.921748291015625,-0.077911376953125,0.9672393798828125,0.2020721435546875
1772807462605680400,6.931680419921875,-0.0781707763671875,0.971710205078125,0.20196533203125
1772807462615612400,6.9416123046875,-0.079498291015625,0.972259521484375,0.2015380859375
1772807462625544200,6.951544189453125,-0.07855224609375,0.9687957763671875,0.1977386474609375
1772807462635476200,6.961476318359375,-0.0789794921875,0.96832275390625,0.195526123046875
1772807462645408500,6.971408447265625,-0.0768890380859375,0.9697723388671875,0.1953125
1772807462655340500,6.981340576171875,-0.074737548828125,0.971435546875,0.191925048828125
1772807462665272600,6.9912724609375,-0.0731964111328125,0.9740753173828125,0.1920318603515625
1772807462675203300,7.001203369140625,-0.074127197265625,0.9759063720703125,0.192047119140625
1772807462685135400,7.01113525390625,-0.0745391845703125,0.9775238037109375,0.1909637451171875
1772807462695067400,7.0210673828125,-0.073883056640625,0.9744415283203125,0.19329833984375
1772807462704999400,7.03099951171875,-0.07598876953125,0.972198486328125,0.1917572021484375
1772807462714931500,7.040931396484375,-0.077056884765625,0.975067138671875,0.190948486328125
1772807462724863500,7.050863525390625,-0.0758209228515625,0.9748992919921875,0.1920166015625
1772807462734795300,7.060795166015625,-0.0731201171875,0.9781036376953125,0.1943206787109375
1772807462744726500,7.0707265625,-0.0715484619140625,0.9774169921875,0.1947174072265625
1772807462754658600,7.080658447265625,-0.0735015869140625,0.9761810302734375,0.198944091796875
1772807462764590600,7.090590576171875,-0.075439453125,0.9730987548828125,0.199554443359375
1772807462774522400,7.1005224609375,-0.0733642578125,0.9722442626953125,0.198150634765625
1772807462784454400,7.110454345703125,-0.073760986328125,0.97296142578125,0.202972412109375
1772807462794386400,7.120386474609375,-0.0777740478515625,0.9711456298828125,0.202728271484375
1772807462804318500,7.130318359375,-0.0768280029296875,0.9705047607421875,0.2016754150390625
1772807462814250500,7.14025048828125,-0.0776214599609375,0.972564697265625,0.203369140625
1772807462824181200,7.15018115234375,-0.0761871337890625,0.971405029296875,0.2055206298828125
1772807462834113300,7.16011328125,-0.0735015869140625,0.972747802734375,0.206329345703125
1772807462844045300,7.17004541015625,-0.0710601806640625,0.974365234375,0.2080230712890625
1772807462853977300,7.179977294921875,-0.0727081298828125,0.9725494384765625,0.2079315185546875
1772807462863909400,7.189909423828125,-0.073455810546875,0.9701385498046875,0.2096710205078125
1772807462873841400,7.19984130859375,-0.0731353759765625,0.9710540771484375,0.2097320556640625
1772807462883773400,7.2097734375,-0.0724945068359375,0.9710540771484375,0.209716796875
1772807462893704400,7.219704345703125,-0.0740814208984375,0.97076416015625,0.208709716796875
1772807462903636500,7.229636474609375,-0.0748748779296875,0.9721832275390625,0.2066650390625
1772807462913568500,7.239568603515625,-0.073883056640625,0.971588134765625,0.2064208984375
1772807462923500500,7.24950048828125,-0.0749053955078125,0.97113037109375,0.20623779296875
1772807462933432300,7.259432373046875,-0.0740203857421875,0.9716339111328125,0.20574951171875
1772807462943364400,7.2693642578125,-0.07098388671875,0.974517822265625,0.2068634033203125
1772807462953296400,7.27929638671875,-0.070068359375,0.9748077392578125,0.2081298828125
1772807462963227400,7.289227294921875,-0.0684814453125,0.97283935546875,0.2072906494140625
1772807462973159400,7.299159423828125,-0.07049560546875,0.97198486328125,0.2079925537109375
1772807462983091500,7.309091552734375,-0.0735015869140625,0.9707183837890625,0.2066650390625
1772807462993023500,7.3190234375,-0.0739898681640625,0.969451904296875,0.2053985595703125
1772807463002955000,7.328955078125,-0.07513427734375,0.968902587890625,0.205108642578125
1772807463012887000,7.338886962890625,-0.0722503662109375,0.9704437255859375,0.2038726806640625
1772807463022818800,7.34881884765625,-0.07098388671875,0.9715576171875,0.2036285400390625
1772807463032750800,7.358750732421875,-0.0716552734375,0.97320556640625,0.2025146484375
1772807463042681900,7.368681884765625,-0.0716094970703125,0.9752960205078125,0.2010345458984375
1772807463052614000,7.37861376953125,-0.069580078125,0.97576904296875,0.2018280029296875
1772807463062546000,7.3885458984375,-0.0702362060546875,0.977508544921875,0.2004547119140625
1772807463072477700,7.398477783203125,-0.0726165771484375,0.973846435546875,0.2038421630859375
1772807463082410000,7.408409912109375,-0.0731964111328125,0.970794677734375,0.2041778564453125
1772807463092342000,7.418342041015625,-0.0723114013671875,0.9700927734375,0.200653076171875
1772807463102274000,7.428274169921875,-0.072296142578125,0.96966552734375,0.199798583984375
1772807463112205000,7.438205078125,-0.0705718994140625,0.9698486328125,0.20068359375
1772807463122136800,7.44813671875,-0.0697174072265625,0.971710205078125,0.2020721435546875
1772807463132068900,7.45806884765625,-0.07208251953125,0.9724273681640625,0.203704833984375
1772807463142001000,7.4680009765625,-0.070709228515625,0.974945068359375,0.2027740478515625
1772807463151933000,7.477932861328125,-0.0706939697265625,0.9767608642578125,0.2051849365234375
1772807463161865000,7.487864990234375,-0.0719146728515625,0.976165771484375,0.2062530517578125
1772807463171797000,7.497796875,-0.071136474609375,0.9758148193359375,0.203765869140625
1772807463181728800,7.507728759765625,-0.068939208984375,0.9748077392578125,0.202117919921875
1772807463191660000,7.517659912109375,-0.06878662109375,0.97113037109375,0.2019195556640625
1772807463201592000,7.527592041015625,-0.0691680908203125,0.9644775390625,0.2011871337890625
1772807463211524000,7.537524169921875,-0.0708160400390625,0.966796875,0.20269775390625
1772807463221456000,7.547455810546875,-0.0770111083984375,0.98187255859375,0.199127197265625
1772807463231388000,7.557387939453125,-0.0689239501953125,0.9737701416015625,0.1996612548828125
1772807463241320000,7.56731982421875,-0.064453125,0.9700164794921875,0.2037811279296875
1772807463251252000,7.577251953125,-0.066986083984375,0.972747802734375,0.2042236328125
1772807463261183000,7.587182861328125,-0.072509765625,0.9786376953125,0.2036895751953125
1772807463271114800,7.59711474609375,-0.073974609375,0.9766998291015625,0.2050628662109375
1772807463281046800,7.607046875,-0.070098876953125,0.974578857421875,0.204437255859375
1772807463290978800,7.616978759765625,-0.0680389404296875,0.97393798828125,0.2022857666015625
1772807463300910800,7.626910888671875,-0.0654144287109375,0.9751129150390625,0.2046661376953125
1772807463310843000,7.6368427734375,-0.0654449462890625,0.971832275390625,0.2064056396484375
1772807463320775000,7.64677490234375,-0.0635528564453125,0.9725799560546875,0.208251953125
1772807463330706000,7.656705810546875,-0.0644989013671875,0.9733428955078125,0.21026611328125
1772807463340638000,7.666637939453125,-0.06451416015625,0.97064208984375,0.2117156982421875
1772807463350570000,7.676570068359375,-0.064910888671875,0.9720916748046875,0.2090911865234375
1772807463360502000,7.686501953125,-0.067962646484375,0.9732513427734375,0.2086029052734375
1772807463370433800,7.696433837890625,-0.06768798828125,0.9713592529296875,0.20660400390625
1772807463380365800,7.70636572265625,-0.06719970703125,0.971588134765625,0.2063140869140625
1772807463390297900,7.7162978515625,-0.0667877197265625,0.9730682373046875,0.206329345703125
1772807463400230000,7.72622998046875,-0.0666351318359375,0.9756317138671875,0.20513916015625
1772807463410161000,7.736160888671875,-0.06439208984375,0.9763946533203125,0.20556640625
1772807463420093000,7.746093017578125,-0.06158447265625,0.97412109375,0.20440673828125
1772807463430025000,7.75602490234375,-0.0626068115234375,0.9697113037109375,0.2084503173828125
1772807463439957000,7.76595703125,-0.0640106201171875,0.9696502685546875,0.2068634033203125
1772807463449889000,7.775888916015625,-0.062744140625,0.970947265625,0.20916748046875
1772807463459821000,7.785821044921875,-0.0648956298828125,0.9705657958984375,0.209747314453125
1772807463469753000,7.795753173828125,-0.0665435791015625,0.9710693359375,0.20654296875
1772807463479683800,7.805683837890625,-0.0630950927734375,0.972381591796875,0.2061920166015625
1772807463489616000,7.815615966796875,-0.0639190673828125,0.972808837890625,0.20489501953125
1772807463499548000,7.8255478515625,-0.066375732421875,0.9722900390625,0.2043914794921875
1772807463509480000,7.83547998046875,-0.066680908203125,0.97216796875,0.2060546875
1772807463519411700,7.84541162109375,-0.0666961669921875,0.971832275390625,0.206085205078125
1772807463529343700,7.85534375,-0.0680084228515625,0.97259521484375,0.2057342529296875
1772807463539275800,7.86527587890625,-0.0669708251953125,0.973663330078125,0.2069854736328125
1772807463549207800,7.875207763671875,-0.0666656494140625,0.9720611572265625,0.2089385986328125
1772807463559139000,7.88513916015625,-0.0618896484375,0.9716339111328125,0.206695556640625
1772807463569070800,7.89507080078125,-0.060455322265625,0.9702606201171875,0.2086334228515625
1772807463579003000,7.9050029296875,-0.060791015625,0.9697723388671875,0.2123565673828125
1772807463588935000,7.914934814453125,-0.0601959228515625,0.9703369140625,0.2104034423828125
1772807463598867000,7.924866943359375,-0.06292724609375,0.9719390869140625,0.209564208984375
1772807463608799000,7.934799072265625,-0.064300537109375,0.9720611572265625,0.207550048828125
1772807463618731000,7.94473095703125,-0.065093994140625,0.9737701416015625,0.207122802734375
1772807463628661800,7.954661865234375,-0.06585693359375,0.9740142822265625,0.20550537109375
1772807463638593800,7.96459375,-0.06689453125,0.9709014892578125,0.2044830322265625
1772807463648526000,7.974526123046875,-0.0647125244140625,0.9687957763671875,0.206878662109375
1772807463658456800,7.984456787109375,-0.064453125,0.97296142578125,0.209075927734375
1772807463668387800,7.994387939453125,-0.0658111572265625,0.971038818359375,0.208282470703125
1772807463678319900,8.00431982421875,-0.0645599365234375,0.969940185546875,0.2073516845703125
1772807463688252000,8.014251953125,-0.06640625,0.970123291015625,0.2070465087890625
1772807463698184000,8.024183837890625,-0.0668792724609375,0.97021484375,0.20562744140625
1772807463708115700,8.03411572265625,-0.066741943359375,0.9722442626953125,0.2041168212890625
1772807463718047700,8.0440478515625,-0.0659027099609375,0.9760284423828125,0.2039642333984375
1772807463727979800,8.053979736328126,-0.0626220703125,0.974578857421875,0.2036285400390625
1772807463737912000,8.063912109375,-0.06298828125,0.9715728759765625,0.204132080078125
1772807463747843000,8.073843017578126,-0.0640716552734375,0.9705047607421875,0.205169677734375
1772807463757774800,8.08377490234375,-0.0615997314453125,0.972320556640625,0.2068328857421875
1772807463767707000,8.093706787109374,-0.0640106201171875,0.972991943359375,0.2086334228515625
1772807463777639000,8.103638916015624,-0.0651397705078125,0.9735870361328125,0.2079010009765625
1772807463787571000,8.113571044921875,-0.0663909912109375,0.9726715087890625,0.20635986328125
1772807463797503000,8.1235029296875,-0.0676116943359375,0.9716796875,0.206451416015625
1772807463807435000,8.13343505859375,-0.0682220458984375,0.97283935546875,0.2051239013671875
1772807463817366800,8.14336669921875,-0.065643310546875,0.970245361328125,0.203277587890625
1772807463827298000,8.153298095703125,-0.062347412109375,0.9705810546875,0.207061767578125
1772807463837230000,8.16322998046875,-0.0636138916015625,0.9716033935546875,0.207794189453125
1772807463847162000,8.173162109375,-0.0639495849609375,0.9720306396484375,0.206451416015625
1772807463857094000,8.183093994140625,-0.06573486328125,0.972930908203125,0.206878662109375
1772807463867026000,8.19302587890625,-0.063751220703125,0.9753265380859375,0.207305908203125
1772807463876958000,8.2029580078125,-0.0625762939453125,0.9753570556640625,0.2076263427734375
1772807463886890000,8.212889892578126,-0.0622406005859375,0.972442626953125,0.2035064697265625
1772807463896821000,8.222821044921876,-0.0635528564453125,0.968353271484375,0.2083587646484375
1772807463906752800,8.232752685546876,-0.065643310546875,0.97052001953125,0.2083282470703125
1772807463916684800,8.242684814453124,-0.0641326904296875,0.97467041015625,0.206085205078125
1772807463926616800,8.252616943359374,-0.06414794921875,0.971923828125,0.206329345703125
1772807463936548900,8.262548828125,-0.0627288818359375,0.9710693359375,0.2067108154296875
1772807463946481000,8.27248095703125,-0.059112548828125,0.9684600830078125,0.2070465087890625
1772807463956413000,8.282412841796875,-0.0582275390625,0.969146728515625,0.208526611328125
1772807463966345000,8.292344970703125,-0.06182861328125,0.971435546875,0.205657958984375
1772807463976276000,8.30227587890625,-0.0662994384765625,0.9715728759765625,0.2052459716796875
1772807463986208000,8.3122080078125,-0.0695343017578125,0.974578857421875,0.203216552734375
1772807463996140000,8.32214013671875,-0.0701904296875,0.976715087890625,0.2031097412109375
1772807464006071800,8.33207177734375,-0.0682220458984375,0.973358154296875,0.2054901123046875
1772807464016003800,8.34200390625,-0.0675048828125,0.9716949462890625,0.205474853515625
1772807464025936000,8.351935791015626,-0.066253662109375,0.972412109375,0.207733154296875
1772807464035869000,8.361868896484374,-0.067626953125,0.9739837646484375,0.207855224609375
1772807464045800700,8.37180078125,-0.0663909912109375,0.9747467041015625,0.2056732177734375
1772807464055732700,8.381732666015624,-0.06585693359375,0.9745635986328125,0.204559326171875
1772807464065664800,8.391664794921875,-0.065643310546875,0.9727325439453125,0.2050933837890625
1772807464075596800,8.4015966796875,-0.0655670166015625,0.9743499755859375,0.2078704833984375
1772807464085527800,8.41152783203125,-0.066925048828125,0.9750518798828125,0.2073211669921875
1772807464095459600,8.42145947265625,-0.06903076171875,0.973846435546875,0.206268310546875
1772807464105391600,8.4313916015625,-0.068359375,0.9729461669921875,0.204620361328125
1772807464115324000,8.441323974609375,-0.0678253173828125,0.972625732421875,0.2033233642578125
1772807464125256000,8.451255859375,-0.061187744140625,0.973541259765625,0.207000732421875
1772807464135188000,8.46118798828125,-0.060882568359375,0.9715423583984375,0.201324462890625
1772807464145120000,8.4711201171875,-0.0746002197265625,0.9763641357421875,0.2042999267578125
1772807464155051800,8.4810517578125,-0.0697021484375,0.973175048828125,0.203033447265625
1772807464164982800,8.490982666015626,-0.06927490234375,0.972686767578125,0.2059478759765625
1772807464174914800,8.500914794921876,-0.0644073486328125,0.969757080078125,0.2083740234375
1772807464184846800,8.510846923828124,-0.0638275146484375,0.96844482421875,0.2071380615234375
1772807464194778600,8.520778564453124,-0.066925048828125,0.9696807861328125,0.20806884765625
1772807464204710700,8.530710693359374,-0.0690460205078125,0.9702911376953125,0.20660400390625
1772807464214642700,8.540642578125,-0.06951904296875,0.9722442626953125,0.20263671875
1772807464224574700,8.55057470703125,-0.06591796875,0.9743194580078125,0.20318603515625
1772807464234506000,8.560506103515625,-0.0686492919921875,0.9726715087890625,0.2038421630859375
1772807464244437800,8.570437744140625,-0.0673675537109375,0.9692230224609375,0.2041473388671875
1772807464254369800,8.580369873046875,-0.0701751708984375,0.971649169921875,0.204010009765625
1772807464264301800,8.5903017578125,-0.07537841796875,0.9750823974609375,0.204559326171875
1772807464274233900,8.60023388671875,-0.071533203125,0.9754791259765625,0.2046966552734375
1772807464284166000,8.610165771484375,-0.0588226318359375,0.97247314453125,0.20281982421875
